"view_history","rt","trial_type","trial_index","time_elapsed","internal_node_id","subject","stimulus_type","trial_stimulus","key_press","minimum_viewing_duration","trial_looking_time","block_deviant","block_background","exposure_type","stimulus","block_number","block_type","stimulus_displayed","responses","question_order","math_correct_answer","stimulus_left","stimulus_right"
"[{""page_index"":0,""viewing_time"":2503.9999997243285}]","2503.9999997243285","instructions","0","2528","0.0-0.0","SS1619115927276","","","","","","","","","","","","","","","","",""
"[{""page_index"":0,""viewing_time"":2091.000000014901},{""page_index"":1,""viewing_time"":7243.999999947846}]","9336.00000012666","instructions","1","13874","0.0-1.0","SS1619115927276","instructions","","","","","","","","","","","","","","","",""
"","8613.999999593943","sequential-stimulus-presentation-old","2","23007","0.0-2.0","SS1619115927276","","","40","500","9113.999999593943","null","null","self_paced","","","","","","","","",""
"","651.999999769032","sequential-stimulus-presentation-old","3","24164","0.0-3.0","SS1619115927276","","","40","500","1151.999999769032","null","null","self_paced","","","","","","","","",""
"[{""page_index"":0,""viewing_time"":2395.0000000186265}]","2395.0000000186265","instructions","4","26562","0.0-4.0","SS1619115927276","instructions","","","","","","","","","","","","","","","",""
"","2908.999999985099","sequential-stimulus-presentation-old","5","39493","0.0-5.0","SS1619115927276","","","40","500","3408.999999985099","null","null","forced_long","","","","","","","","",""
"","797.9999999515712","sequential-stimulus-presentation-old","6","40399","0.0-6.0","SS1619115927276","","","40","500","1297.9999999515712","null","null","forced_long","","","","","","","","",""
"[{""page_index"":0,""viewing_time"":2893.9999998547137}]","2893.9999998547137","instructions","7","43295","0.0-7.0","SS1619115927276","instructions","","","","","","","","","","","","","","","",""
"[{""page_index"":0,""viewing_time"":878.9999997243285},{""page_index"":1,""viewing_time"":838.0000004544854},{""page_index"":2,""viewing_time"":552.9999998398125},{""page_index"":3,""viewing_time"":983.0000000074506},{""page_index"":4,""viewing_time"":1157.0000001229346}]","4410.000000149012","instructions","8","47712","0.0-8.0","SS1619115927276","instructions","","","","","","","","","","","","","","","",""
"","null","html-keyboard-response","9","48791","0.0-9.0-0.0","SS1619115927276","","","null","","","","","","<p><img src= images/blank.png width =""600"" height = ""600"" style=""position:fixed;top:50%; left:50%; transform: translate(-50%, -50%); border:5px solid black"">","","","","","","","",""
"","3993.0000002495944","sequential-stimulus-presentation-old","10","62806","0.0-9.0-1.0","SS1619115927276","trial","","40","500","4493.000000249594","images/stimuli/spore_stims/complex_06_A_a.gif","images/stimuli/spore_stims/complex_02_A_b.gif","forced_long","","0","complex_dissimilar","images/stimuli/spore_stims/complex_02_A_b.gif","","","","",""
"","null","html-keyboard-response","11","63709","0.0-9.0-0.1","SS1619115927276","","","null","","","","","","<p><img src= images/blank.png width =""600"" height = ""600"" style=""position:fixed;top:50%; left:50%; transform: translate(-50%, -50%); border:5px solid black"">","","","","","","","",""
"","3759.000000078231","sequential-stimulus-presentation-old","12","67978","0.0-9.0-1.1","SS1619115927276","trial","","40","500","4259.000000078231","images/stimuli/spore_stims/complex_06_A_a.gif","images/stimuli/spore_stims/complex_02_A_b.gif","forced_long","","0","complex_dissimilar","images/stimuli/spore_stims/complex_02_A_b.gif","","","","",""
"","null","html-keyboard-response","13","68788","0.0-9.0-0.2","SS1619115927276","","","null","","","","","","<p><img src= images/blank.png width =""600"" height = ""600"" style=""position:fixed;top:50%; left:50%; transform: translate(-50%, -50%); border:5px solid black"">","","","","","","","",""
"","174.99999981373549","sequential-stimulus-presentation-old","14","69474","0.0-9.0-1.2","SS1619115927276","trial","","40","500","674.9999998137355","images/stimuli/spore_stims/complex_06_A_a.gif","images/stimuli/spore_stims/complex_02_A_b.gif","forced_long","","0","complex_dissimilar","images/stimuli/spore_stims/complex_02_A_b.gif","","","","",""
"","null","html-keyboard-response","15","70485","0.0-9.0-0.3","SS1619115927276","","","null","","","","","","<p><img src= images/blank.png width =""600"" height = ""600"" style=""position:fixed;top:50%; left:50%; transform: translate(-50%, -50%); border:5px solid black"">","","","","","","","",""
"","311.9999999180436","sequential-stimulus-presentation-old","16","71303","0.0-9.0-1.3","SS1619115927276","trial","","40","500","811.9999999180436","images/stimuli/spore_stims/complex_06_A_a.gif","images/stimuli/spore_stims/complex_02_A_b.gif","forced_long","","0","complex_dissimilar","images/stimuli/spore_stims/complex_02_A_b.gif","","","","",""
"","null","html-keyboard-response","17","72559","0.0-9.0-0.4","SS1619115927276","","","null","","","","","","<p><img src= images/blank.png width =""600"" height = ""600"" style=""position:fixed;top:50%; left:50%; transform: translate(-50%, -50%); border:5px solid black"">","","","","","","","",""
"","890.0000001303852","sequential-stimulus-presentation-old","18","73953","0.0-9.0-1.4","SS1619115927276","trial","","40","500","1390.0000001303852","images/stimuli/spore_stims/complex_06_A_a.gif","images/stimuli/spore_stims/complex_02_A_b.gif","forced_long","","0","complex_dissimilar","images/stimuli/spore_stims/complex_02_A_b.gif","","","","",""
"","null","html-keyboard-response","19","75251","0.0-9.0-0.5","SS1619115927276","","","null","","","","","","<p><img src= images/blank.png width =""600"" height = ""600"" style=""position:fixed;top:50%; left:50%; transform: translate(-50%, -50%); border:5px solid black"">","","","","","","","",""
"","26.000000070780516","sequential-stimulus-presentation-old","20","75818","0.0-9.0-1.5","SS1619115927276","trial","","40","500","526.0000000707805","images/stimuli/spore_stims/complex_06_A_a.gif","images/stimuli/spore_stims/complex_02_A_b.gif","forced_long","","0","complex_dissimilar","images/stimuli/spore_stims/complex_02_A_b.gif","","","","",""
"","4703.999999910593","survey-multi-choice","21","80530","0.0-10.0","SS1619115927276","math_question","","","","","","","","","","","","{""Q0"":""10""}","[0]","10","",""
"","null","html-keyboard-response","22","81824","0.0-11.0-0.0","SS1619115927276","","","null","","","","","","<p><img src= images/blank.png width =""600"" height = ""600"" style=""position:fixed;top:50%; left:50%; transform: translate(-50%, -50%); border:5px solid black"">","","","","","","","",""
"","7.000000216066837","sequential-stimulus-presentation-old","23","82368","0.0-11.0-1.0","SS1619115927276","trial","","40","500","507.00000021606684","images/stimuli/spore_stims/simple_19_A_a.gif","images/stimuli/spore_stims/simple_05_A_b.gif","self_paced","","1","simple_dissimilar","images/stimuli/spore_stims/simple_05_A_b.gif","","","","",""
"","null","html-keyboard-response","24","83348","0.0-11.0-0.1","SS1619115927276","","","null","","","","","","<p><img src= images/blank.png width =""600"" height = ""600"" style=""position:fixed;top:50%; left:50%; transform: translate(-50%, -50%); border:5px solid black"">","","","","","","","",""
"","209.0000002644956","sequential-stimulus-presentation-old","25","84070","0.0-11.0-1.1","SS1619115927276","trial","","40","500","709.0000002644956","images/stimuli/spore_stims/simple_19_A_a.gif","images/stimuli/spore_stims/simple_05_A_b.gif","self_paced","","1","simple_dissimilar","images/stimuli/spore_stims/simple_05_A_b.gif","","","","",""
"","null","html-keyboard-response","26","84999","0.0-11.0-0.2","SS1619115927276","","","null","","","","","","<p><img src= images/blank.png width =""600"" height = ""600"" style=""position:fixed;top:50%; left:50%; transform: translate(-50%, -50%); border:5px solid black"">","","","","","","","",""
"","20.999999716877937","sequential-stimulus-presentation-old","27","85523","0.0-11.0-1.2","SS1619115927276","trial","","40","500","520.9999997168779","images/stimuli/spore_stims/simple_19_A_a.gif","images/stimuli/spore_stims/simple_05_A_b.gif","self_paced","","1","simple_dissimilar","images/stimuli/spore_stims/simple_19_A_a.gif","","","","",""
"","null","html-keyboard-response","28","86695","0.0-11.0-0.3","SS1619115927276","","","null","","","","","","<p><img src= images/blank.png width =""600"" height = ""600"" style=""position:fixed;top:50%; left:50%; transform: translate(-50%, -50%); border:5px solid black"">","","","","","","","",""
"","134.0000000782311","sequential-stimulus-presentation-old","29","87335","0.0-11.0-1.3","SS1619115927276","trial","","40","500","634.0000000782311","images/stimuli/spore_stims/simple_19_A_a.gif","images/stimuli/spore_stims/simple_05_A_b.gif","self_paced","","1","simple_dissimilar","images/stimuli/spore_stims/simple_05_A_b.gif","","","","",""
"","null","html-keyboard-response","30","88439","0.0-11.0-0.4","SS1619115927276","","","null","","","","","","<p><img src= images/blank.png width =""600"" height = ""600"" style=""position:fixed;top:50%; left:50%; transform: translate(-50%, -50%); border:5px solid black"">","","","","","","","",""
"","18.99999985471368","sequential-stimulus-presentation-old","31","88963","0.0-11.0-1.4","SS1619115927276","trial","","40","500","518.9999998547137","images/stimuli/spore_stims/simple_19_A_a.gif","images/stimuli/spore_stims/simple_05_A_b.gif","self_paced","","1","simple_dissimilar","images/stimuli/spore_stims/simple_19_A_a.gif","","","","",""
"","4175.999999977648","survey-multi-choice","32","93145","0.0-12.0","SS1619115927276","math_question","","","","","","","","","","","","{""Q0"":""16""}","[0]","16","",""
"","null","html-keyboard-response","33","94452","0.0-13.0-0.0","SS1619115927276","","","null","","","","","","<p><img src= images/blank.png width =""600"" height = ""600"" style=""position:fixed;top:50%; left:50%; transform: translate(-50%, -50%); border:5px solid black"">","","","","","","","",""
"","376.0000001639128","sequential-stimulus-presentation-old","34","94939","0.0-13.0-1.0","SS1619115927276","trial","","40","500","876.0000001639128","images/stimuli/spore_stims/complex_12_A_a.gif","images/stimuli/spore_stims/complex_15_A_b.gif","forced_short","","2","complex_dissimilar","images/stimuli/spore_stims/complex_15_A_b.gif","","","","",""
"","null","html-keyboard-response","35","96091","0.0-13.0-0.1","SS1619115927276","","","null","","","","","","<p><img src= images/blank.png width =""600"" height = ""600"" style=""position:fixed;top:50%; left:50%; transform: translate(-50%, -50%); border:5px solid black"">","","","","","","","",""
"","216.00000001490116","sequential-stimulus-presentation-old","36","96826","0.0-13.0-1.1","SS1619115927276","trial","","40","500","716.0000000149012","images/stimuli/spore_stims/complex_12_A_a.gif","images/stimuli/spore_stims/complex_15_A_b.gif","forced_short","","2","complex_dissimilar","images/stimuli/spore_stims/complex_15_A_b.gif","","","","",""
"","null","html-keyboard-response","37","97817","0.0-13.0-0.2","SS1619115927276","","","null","","","","","","<p><img src= images/blank.png width =""600"" height = ""600"" style=""position:fixed;top:50%; left:50%; transform: translate(-50%, -50%); border:5px solid black"">","","","","","","","",""
"","176.99999967589974","sequential-stimulus-presentation-old","38","98494","0.0-13.0-1.2","SS1619115927276","trial","","40","500","676.9999996758997","images/stimuli/spore_stims/complex_12_A_a.gif","images/stimuli/spore_stims/complex_15_A_b.gif","forced_short","","2","complex_dissimilar","images/stimuli/spore_stims/complex_15_A_b.gif","","","","",""
"","null","html-keyboard-response","39","99450","0.0-13.0-0.3","SS1619115927276","","","null","","","","","","<p><img src= images/blank.png width =""600"" height = ""600"" style=""position:fixed;top:50%; left:50%; transform: translate(-50%, -50%); border:5px solid black"">","","","","","","","",""
"","290.0000000372529","sequential-stimulus-presentation-old","40","100247","0.0-13.0-1.3","SS1619115927276","trial","","40","500","790.0000000372529","images/stimuli/spore_stims/complex_12_A_a.gif","images/stimuli/spore_stims/complex_15_A_b.gif","forced_short","","2","complex_dissimilar","images/stimuli/spore_stims/complex_15_A_b.gif","","","","",""
"","null","html-keyboard-response","41","101180","0.0-13.0-0.4","SS1619115927276","","","null","","","","","","<p><img src= images/blank.png width =""600"" height = ""600"" style=""position:fixed;top:50%; left:50%; transform: translate(-50%, -50%); border:5px solid black"">","","","","","","","",""
"","4.000000189989805","sequential-stimulus-presentation-old","42","101718","0.0-13.0-1.4","SS1619115927276","trial","","40","500","504.0000001899898","images/stimuli/spore_stims/complex_12_A_a.gif","images/stimuli/spore_stims/complex_15_A_b.gif","forced_short","","2","complex_dissimilar","images/stimuli/spore_stims/complex_15_A_b.gif","","","","",""
"","3098.9999999292195","survey-multi-choice","43","104822","0.0-14.0","SS1619115927276","math_question","","","","","","","","","","","","{""Q0"":""13""}","[0]","13","",""
"","null","html-keyboard-response","44","105790","0.0-15.0-0.0","SS1619115927276","","","null","","","","","","<p><img src= images/blank.png width =""600"" height = ""600"" style=""position:fixed;top:50%; left:50%; transform: translate(-50%, -50%); border:5px solid black"">","","","","","","","",""
"","10332.000000402331","sequential-stimulus-presentation-old","45","126125","0.0-15.0-1.0","SS1619115927276","trial","","40","500","10832.000000402331","images/stimuli/spore_stims/simple_03_A_a.gif","images/stimuli/spore_stims/simple_20_A_b.gif","forced_long","","3","simple_dissimilar","images/stimuli/spore_stims/simple_20_A_b.gif","","","","",""
"","null","html-keyboard-response","46","127387","0.0-15.0-0.1","SS1619115927276","","","null","","","","","","<p><img src= images/blank.png width =""600"" height = ""600"" style=""position:fixed;top:50%; left:50%; transform: translate(-50%, -50%); border:5px solid black"">","","","","","","","",""
"","108.00000000745058","sequential-stimulus-presentation-old","47","128003","0.0-15.0-1.1","SS1619115927276","trial","","40","500","608.0000000074506","images/stimuli/spore_stims/simple_03_A_a.gif","images/stimuli/spore_stims/simple_20_A_b.gif","forced_long","","3","simple_dissimilar","images/stimuli/spore_stims/simple_20_A_b.gif","","","","",""
"","null","html-keyboard-response","48","129296","0.0-15.0-0.2","SS1619115927276","","","null","","","","","","<p><img src= images/blank.png width =""600"" height = ""600"" style=""position:fixed;top:50%; left:50%; transform: translate(-50%, -50%); border:5px solid black"">","","","","","","","",""
"","237.0000001974404","sequential-stimulus-presentation-old","49","130057","0.0-15.0-1.2","SS1619115927276","trial","","40","500","737.0000001974404","images/stimuli/spore_stims/simple_03_A_a.gif","images/stimuli/spore_stims/simple_20_A_b.gif","forced_long","","3","simple_dissimilar","images/stimuli/spore_stims/simple_20_A_b.gif","","","","",""
"","null","html-keyboard-response","50","130942","0.0-15.0-0.3","SS1619115927276","","","null","","","","","","<p><img src= images/blank.png width =""600"" height = ""600"" style=""position:fixed;top:50%; left:50%; transform: translate(-50%, -50%); border:5px solid black"">","","","","","","","",""
"","12.000000104308128","sequential-stimulus-presentation-old","51","131465","0.0-15.0-1.3","SS1619115927276","trial","","40","500","512.0000001043081","images/stimuli/spore_stims/simple_03_A_a.gif","images/stimuli/spore_stims/simple_20_A_b.gif","forced_long","","3","simple_dissimilar","images/stimuli/spore_stims/simple_03_A_a.gif","","","","",""
"","null","html-keyboard-response","52","132542","0.0-15.0-0.4","SS1619115927276","","","null","","","","","","<p><img src= images/blank.png width =""600"" height = ""600"" style=""position:fixed;top:50%; left:50%; transform: translate(-50%, -50%); border:5px solid black"">","","","","","","","",""
"","126.00000016391277","sequential-stimulus-presentation-old","53","133198","0.0-15.0-1.4","SS1619115927276","trial","","40","500","626.0000001639128","images/stimuli/spore_stims/simple_03_A_a.gif","images/stimuli/spore_stims/simple_20_A_b.gif","forced_long","","3","simple_dissimilar","images/stimuli/spore_stims/simple_20_A_b.gif","","","","",""
"","null","html-keyboard-response","54","134105","0.0-15.0-0.5","SS1619115927276","","","null","","","","","","<p><img src= images/blank.png width =""600"" height = ""600"" style=""position:fixed;top:50%; left:50%; transform: translate(-50%, -50%); border:5px solid black"">","","","","","","","",""
"","33.99999998509884","sequential-stimulus-presentation-old","55","134714","0.0-15.0-1.5","SS1619115927276","trial","","40","500","533.9999999850988","images/stimuli/spore_stims/simple_03_A_a.gif","images/stimuli/spore_stims/simple_20_A_b.gif","forced_long","","3","simple_dissimilar","images/stimuli/spore_stims/simple_20_A_b.gif","","","","",""
"","3950.0000001862645","survey-multi-choice","56","138673","0.0-16.0","SS1619115927276","math_question","","","","","","","","","","","","{""Q0"":""11""}","[0]","11","",""
"","null","html-keyboard-response","57","139975","0.0-17.0-0.0","SS1619115927276","","","null","","","","","","<p><img src= images/blank.png width =""600"" height = ""600"" style=""position:fixed;top:50%; left:50%; transform: translate(-50%, -50%); border:5px solid black"">","","","","","","","",""
"","317.0000002719462","sequential-stimulus-presentation-old","58","140865","0.0-17.0-1.0","SS1619115927276","trial","","40","500","817.0000002719462","images/stimuli/spore_stims/complex_08_A_a.gif","images/stimuli/spore_stims/complex_01_A_b.gif","self_paced","","4","complex_dissimilar","images/stimuli/spore_stims/complex_01_A_b.gif","","","","",""
"","null","html-keyboard-response","59","141894","0.0-17.0-0.1","SS1619115927276","","","null","","","","","","<p><img src= images/blank.png width =""600"" height = ""600"" style=""position:fixed;top:50%; left:50%; transform: translate(-50%, -50%); border:5px solid black"">","","","","","","","",""
"","115.9999999217689","sequential-stimulus-presentation-old","60","142527","0.0-17.0-1.1","SS1619115927276","trial","","40","500","615.9999999217689","images/stimuli/spore_stims/complex_08_A_a.gif","images/stimuli/spore_stims/complex_01_A_b.gif","self_paced","","4","complex_dissimilar","images/stimuli/spore_stims/complex_01_A_b.gif","","","","",""
"","null","html-keyboard-response","61","143418","0.0-17.0-0.2","SS1619115927276","","","null","","","","","","<p><img src= images/blank.png width =""600"" height = ""600"" style=""position:fixed;top:50%; left:50%; transform: translate(-50%, -50%); border:5px solid black"">","","","","","","","",""
"","234.99999986961484","sequential-stimulus-presentation-old","62","144170","0.0-17.0-1.2","SS1619115927276","trial","","40","500","734.9999998696148","images/stimuli/spore_stims/complex_08_A_a.gif","images/stimuli/spore_stims/complex_01_A_b.gif","self_paced","","4","complex_dissimilar","images/stimuli/spore_stims/complex_01_A_b.gif","","","","",""
"","null","html-keyboard-response","63","145010","0.0-17.0-0.3","SS1619115927276","","","null","","","","","","<p><img src= images/blank.png width =""600"" height = ""600"" style=""position:fixed;top:50%; left:50%; transform: translate(-50%, -50%); border:5px solid black"">","","","","","","","",""
"","297.00000025331974","sequential-stimulus-presentation-old","64","145822","0.0-17.0-1.3","SS1619115927276","trial","","40","500","797.0000002533197","images/stimuli/spore_stims/complex_08_A_a.gif","images/stimuli/spore_stims/complex_01_A_b.gif","self_paced","","4","complex_dissimilar","images/stimuli/spore_stims/complex_01_A_b.gif","","","","",""
"","null","html-keyboard-response","65","146681","0.0-17.0-0.4","SS1619115927276","","","null","","","","","","<p><img src= images/blank.png width =""600"" height = ""600"" style=""position:fixed;top:50%; left:50%; transform: translate(-50%, -50%); border:5px solid black"">","","","","","","","",""
"","146.9999998807907","sequential-stimulus-presentation-old","66","147382","0.0-17.0-1.4","SS1619115927276","trial","","40","500","646.9999998807907","images/stimuli/spore_stims/complex_08_A_a.gif","images/stimuli/spore_stims/complex_01_A_b.gif","self_paced","","4","complex_dissimilar","images/stimuli/spore_stims/complex_01_A_b.gif","","","","",""
"","3486.0000000335276","survey-multi-choice","67","150869","0.0-18.0","SS1619115927276","math_question","","","","","","","","","","","","{""Q0"":""5""}","[0]","5","",""
"","null","html-keyboard-response","68","151835","0.0-19.0-0.0","SS1619115927276","","","null","","","","","","<p><img src= images/blank.png width =""600"" height = ""600"" style=""position:fixed;top:50%; left:50%; transform: translate(-50%, -50%); border:5px solid black"">","","","","","","","",""
"","83.00000010058284","sequential-stimulus-presentation-old","69","152428","0.0-19.0-1.0","SS1619115927276","trial","","40","500","583.0000001005828","images/stimuli/spore_stims/complex_16_A_a.gif","images/stimuli/spore_stims/complex_03_A_b.gif","self_paced","","5","complex_dissimilar","images/stimuli/spore_stims/complex_03_A_b.gif","","","","",""
"","null","html-keyboard-response","70","153247","0.0-19.0-0.1","SS1619115927276","","","null","","","","","","<p><img src= images/blank.png width =""600"" height = ""600"" style=""position:fixed;top:50%; left:50%; transform: translate(-50%, -50%); border:5px solid black"">","","","","","","","",""
"","135.00000024214387","sequential-stimulus-presentation-old","71","153896","0.0-19.0-1.1","SS1619115927276","trial","","40","500","635.0000002421439","images/stimuli/spore_stims/complex_16_A_a.gif","images/stimuli/spore_stims/complex_03_A_b.gif","self_paced","","5","complex_dissimilar","images/stimuli/spore_stims/complex_16_A_a.gif","","","","",""
"","null","html-keyboard-response","72","154802","0.0-19.0-0.2","SS1619115927276","","","null","","","","","","<p><img src= images/blank.png width =""600"" height = ""600"" style=""position:fixed;top:50%; left:50%; transform: translate(-50%, -50%); border:5px solid black"">","","","","","","","",""
"","166.99999989941716","sequential-stimulus-presentation-old","73","155500","0.0-19.0-1.2","SS1619115927276","trial","","40","500","666.9999998994172","images/stimuli/spore_stims/complex_16_A_a.gif","images/stimuli/spore_stims/complex_03_A_b.gif","self_paced","","5","complex_dissimilar","images/stimuli/spore_stims/complex_03_A_b.gif","","","","",""
"","null","html-keyboard-response","74","156476","0.0-19.0-0.3","SS1619115927276","","","null","","","","","","<p><img src= images/blank.png width =""600"" height = ""600"" style=""position:fixed;top:50%; left:50%; transform: translate(-50%, -50%); border:5px solid black"">","","","","","","","",""
"","130.99999958649278","sequential-stimulus-presentation-old","75","157110","0.0-19.0-1.3","SS1619115927276","trial","","40","500","630.9999995864928","images/stimuli/spore_stims/complex_16_A_a.gif","images/stimuli/spore_stims/complex_03_A_b.gif","self_paced","","5","complex_dissimilar","images/stimuli/spore_stims/complex_03_A_b.gif","","","","",""
"","null","html-keyboard-response","76","158061","0.0-19.0-0.4","SS1619115927276","","","null","","","","","","<p><img src= images/blank.png width =""600"" height = ""600"" style=""position:fixed;top:50%; left:50%; transform: translate(-50%, -50%); border:5px solid black"">","","","","","","","",""
"","282.99999982118607","sequential-stimulus-presentation-old","77","158870","0.0-19.0-1.4","SS1619115927276","trial","","40","500","782.9999998211861","images/stimuli/spore_stims/complex_16_A_a.gif","images/stimuli/spore_stims/complex_03_A_b.gif","self_paced","","5","complex_dissimilar","images/stimuli/spore_stims/complex_03_A_b.gif","","","","",""
"","null","html-keyboard-response","78","159879","0.0-19.0-0.5","SS1619115927276","","","null","","","","","","<p><img src= images/blank.png width =""600"" height = ""600"" style=""position:fixed;top:50%; left:50%; transform: translate(-50%, -50%); border:5px solid black"">","","","","","","","",""
"","215.00000031664968","sequential-stimulus-presentation-old","79","160602","0.0-19.0-1.5","SS1619115927276","trial","","40","500","715.0000003166497","images/stimuli/spore_stims/complex_16_A_a.gif","images/stimuli/spore_stims/complex_03_A_b.gif","self_paced","","5","complex_dissimilar","images/stimuli/spore_stims/complex_16_A_a.gif","","","","",""
"","3248.0000001378357","survey-multi-choice","80","163851","0.0-20.0","SS1619115927276","math_question","","","","","","","","","","","","{""Q0"":""13""}","[0]","13","",""
"","null","html-keyboard-response","81","164873","0.0-21.0-0.0","SS1619115927276","","","null","","","","","","<p><img src= images/blank.png width =""600"" height = ""600"" style=""position:fixed;top:50%; left:50%; transform: translate(-50%, -50%); border:5px solid black"">","","","","","","","",""
"","230.99999967962503","sequential-stimulus-presentation-old","82","165228","0.0-21.0-1.0","SS1619115927276","trial","","40","500","730.999999679625","images/stimuli/spore_stims/simple_07_A_a.gif","images/stimuli/spore_stims/simple_17_A_b.gif","forced_short","","6","simple_dissimilar","images/stimuli/spore_stims/simple_17_A_b.gif","","","","",""
"","null","html-keyboard-response","83","166522","0.0-21.0-0.1","SS1619115927276","","","null","","","","","","<p><img src= images/blank.png width =""600"" height = ""600"" style=""position:fixed;top:50%; left:50%; transform: translate(-50%, -50%); border:5px solid black"">","","","","","","","",""
"","52.99999983981252","sequential-stimulus-presentation-old","84","167086","0.0-21.0-1.1","SS1619115927276","trial","","40","500","552.9999998398125","images/stimuli/spore_stims/simple_07_A_a.gif","images/stimuli/spore_stims/simple_17_A_b.gif","forced_short","","6","simple_dissimilar","images/stimuli/spore_stims/simple_07_A_a.gif","","","","",""
"","null","html-keyboard-response","85","167975","0.0-21.0-0.2","SS1619115927276","","","null","","","","","","<p><img src= images/blank.png width =""600"" height = ""600"" style=""position:fixed;top:50%; left:50%; transform: translate(-50%, -50%); border:5px solid black"">","","","","","","","",""
"","97.99999976530671","sequential-stimulus-presentation-old","86","168594","0.0-21.0-1.2","SS1619115927276","trial","","40","500","597.9999997653067","images/stimuli/spore_stims/simple_07_A_a.gif","images/stimuli/spore_stims/simple_17_A_b.gif","forced_short","","6","simple_dissimilar","images/stimuli/spore_stims/simple_17_A_b.gif","","","","",""
"","null","html-keyboard-response","87","169433","0.0-21.0-0.3","SS1619115927276","","","null","","","","","","<p><img src= images/blank.png width =""600"" height = ""600"" style=""position:fixed;top:50%; left:50%; transform: translate(-50%, -50%); border:5px solid black"">","","","","","","","",""
"","47.999999951571226","sequential-stimulus-presentation-old","88","170037","0.0-21.0-1.3","SS1619115927276","trial","","40","500","547.9999999515712","images/stimuli/spore_stims/simple_07_A_a.gif","images/stimuli/spore_stims/simple_17_A_b.gif","forced_short","","6","simple_dissimilar","images/stimuli/spore_stims/simple_07_A_a.gif","","","","",""
"","5871.999999973923","survey-multi-choice","89","175927","0.0-22.0","SS1619115927276","math_question","","","","","","","","","","","","{""Q0"":""12""}","[0]","12","",""
"","null","html-keyboard-response","90","176762","0.0-23.0-0.0","SS1619115927276","","","null","","","","","","<p><img src= images/blank.png width =""600"" height = ""600"" style=""position:fixed;top:50%; left:50%; transform: translate(-50%, -50%); border:5px solid black"">","","","","","","","",""
"","283.00000028684735","sequential-stimulus-presentation-old","91","177147","0.0-23.0-1.0","SS1619115927276","trial","","40","500","783.0000002868474","images/stimuli/spore_stims/complex_14_A_a.gif","images/stimuli/spore_stims/complex_04_A_b.gif","forced_short","","7","complex_dissimilar","images/stimuli/spore_stims/complex_04_A_b.gif","","","","",""
"","null","html-keyboard-response","92","178268","0.0-23.0-0.1","SS1619115927276","","","null","","","","","","<p><img src= images/blank.png width =""600"" height = ""600"" style=""position:fixed;top:50%; left:50%; transform: translate(-50%, -50%); border:5px solid black"">","","","","","","","",""
"","135.00000024214387","sequential-stimulus-presentation-old","93","178947","0.0-23.0-1.1","SS1619115927276","trial","","40","500","635.0000002421439","images/stimuli/spore_stims/complex_14_A_a.gif","images/stimuli/spore_stims/complex_04_A_b.gif","forced_short","","7","complex_dissimilar","images/stimuli/spore_stims/complex_04_A_b.gif","","","","",""
"","null","html-keyboard-response","94","180012","0.0-23.0-0.2","SS1619115927276","","","null","","","","","","<p><img src= images/blank.png width =""600"" height = ""600"" style=""position:fixed;top:50%; left:50%; transform: translate(-50%, -50%); border:5px solid black"">","","","","","","","",""
"","97.99999976530671","sequential-stimulus-presentation-old","95","180620","0.0-23.0-1.2","SS1619115927276","trial","","40","500","597.9999997653067","images/stimuli/spore_stims/complex_14_A_a.gif","images/stimuli/spore_stims/complex_04_A_b.gif","forced_short","","7","complex_dissimilar","images/stimuli/spore_stims/complex_04_A_b.gif","","","","",""
"","null","html-keyboard-response","96","181525","0.0-23.0-0.3","SS1619115927276","","","null","","","","","","<p><img src= images/blank.png width =""600"" height = ""600"" style=""position:fixed;top:50%; left:50%; transform: translate(-50%, -50%); border:5px solid black"">","","","","","","","",""
"","100.99999979138374","sequential-stimulus-presentation-old","97","182137","0.0-23.0-1.3","SS1619115927276","trial","","40","500","600.9999997913837","images/stimuli/spore_stims/complex_14_A_a.gif","images/stimuli/spore_stims/complex_04_A_b.gif","forced_short","","7","complex_dissimilar","images/stimuli/spore_stims/complex_04_A_b.gif","","","","",""
"","null","html-keyboard-response","98","183055","0.0-23.0-0.4","SS1619115927276","","","null","","","","","","<p><img src= images/blank.png width =""600"" height = ""600"" style=""position:fixed;top:50%; left:50%; transform: translate(-50%, -50%); border:5px solid black"">","","","","","","","",""
"","322.0000001601875","sequential-stimulus-presentation-old","99","183885","0.0-23.0-1.4","SS1619115927276","trial","","40","500","822.0000001601875","images/stimuli/spore_stims/complex_14_A_a.gif","images/stimuli/spore_stims/complex_04_A_b.gif","forced_short","","7","complex_dissimilar","images/stimuli/spore_stims/complex_14_A_a.gif","","","","",""
"","null","html-keyboard-response","100","185142","0.0-23.0-0.5","SS1619115927276","","","null","","","","","","<p><img src= images/blank.png width =""600"" height = ""600"" style=""position:fixed;top:50%; left:50%; transform: translate(-50%, -50%); border:5px solid black"">","","","","","","","",""
"","194.99999983236194","sequential-stimulus-presentation-old","101","185864","0.0-23.0-1.5","SS1619115927276","trial","","40","500","694.9999998323619","images/stimuli/spore_stims/complex_14_A_a.gif","images/stimuli/spore_stims/complex_04_A_b.gif","forced_short","","7","complex_dissimilar","images/stimuli/spore_stims/complex_04_A_b.gif","","","","",""
"","3515.000000130385","survey-multi-choice","102","189386","0.0-24.0","SS1619115927276","math_question","","","","","","","","","","","","{""Q0"":""5""}","[0]","5","",""
"","null","html-keyboard-response","103","190467","0.0-25.0-0.0","SS1619115927276","","","null","","","","","","<p><img src= images/blank.png width =""600"" height = ""600"" style=""position:fixed;top:50%; left:50%; transform: translate(-50%, -50%); border:5px solid black"">","","","","","","","",""
"","131.00000005215406","sequential-stimulus-presentation-old","104","191134","0.0-25.0-1.0","SS1619115927276","trial","","40","500","631.0000000521541","images/stimuli/spore_stims/simple_11_A_a.gif","images/stimuli/spore_stims/simple_06_A_b.gif","self_paced","","8","simple_dissimilar","images/stimuli/spore_stims/simple_06_A_b.gif","","","","",""
"","null","html-keyboard-response","105","192102","0.0-25.0-0.1","SS1619115927276","","","null","","","","","","<p><img src= images/blank.png width =""600"" height = ""600"" style=""position:fixed;top:50%; left:50%; transform: translate(-50%, -50%); border:5px solid black"">","","","","","","","",""
"","330.0000000745058","sequential-stimulus-presentation-old","106","192933","0.0-25.0-1.1","SS1619115927276","trial","","40","500","830.0000000745058","images/stimuli/spore_stims/simple_11_A_a.gif","images/stimuli/spore_stims/simple_06_A_b.gif","self_paced","","8","simple_dissimilar","images/stimuli/spore_stims/simple_06_A_b.gif","","","","",""
"","null","html-keyboard-response","107","194241","0.0-25.0-0.2","SS1619115927276","","","null","","","","","","<p><img src= images/blank.png width =""600"" height = ""600"" style=""position:fixed;top:50%; left:50%; transform: translate(-50%, -50%); border:5px solid black"">","","","","","","","",""
"","132.99999991431832","sequential-stimulus-presentation-old","108","194902","0.0-25.0-1.2","SS1619115927276","trial","","40","500","632.9999999143183","images/stimuli/spore_stims/simple_11_A_a.gif","images/stimuli/spore_stims/simple_06_A_b.gif","self_paced","","8","simple_dissimilar","images/stimuli/spore_stims/simple_06_A_b.gif","","","","",""
"","null","html-keyboard-response","109","195738","0.0-25.0-0.3","SS1619115927276","","","null","","","","","","<p><img src= images/blank.png width =""600"" height = ""600"" style=""position:fixed;top:50%; left:50%; transform: translate(-50%, -50%); border:5px solid black"">","","","","","","","",""
"","639.0000004321337","sequential-stimulus-presentation-old","110","196894","0.0-25.0-1.3","SS1619115927276","trial","","40","500","1139.0000004321337","images/stimuli/spore_stims/simple_11_A_a.gif","images/stimuli/spore_stims/simple_06_A_b.gif","self_paced","","8","simple_dissimilar","images/stimuli/spore_stims/simple_06_A_b.gif","","","","",""
"","null","html-keyboard-response","111","198073","0.0-25.0-0.4","SS1619115927276","","","null","","","","","","<p><img src= images/blank.png width =""600"" height = ""600"" style=""position:fixed;top:50%; left:50%; transform: translate(-50%, -50%); border:5px solid black"">","","","","","","","",""
"","257.00000021606684","sequential-stimulus-presentation-old","112","198831","0.0-25.0-1.4","SS1619115927276","trial","","40","500","757.0000002160668","images/stimuli/spore_stims/simple_11_A_a.gif","images/stimuli/spore_stims/simple_06_A_b.gif","self_paced","","8","simple_dissimilar","images/stimuli/spore_stims/simple_06_A_b.gif","","","","",""
"","3016.9999999925494","survey-multi-choice","113","201854","0.0-26.0","SS1619115927276","math_question","","","","","","","","","","","","{""Q0"":""10""}","[0]","10","",""
"","null","html-keyboard-response","114","203008","0.0-27.0-0.0","SS1619115927276","","","null","","","","","","<p><img src= images/blank.png width =""600"" height = ""600"" style=""position:fixed;top:50%; left:50%; transform: translate(-50%, -50%); border:5px solid black"">","","","","","","","",""
"","1037.0000000111759","sequential-stimulus-presentation-old","115","204146","0.0-27.0-1.0","SS1619115927276","trial","","40","500","1537.0000000111759","images/stimuli/spore_stims/simple_16_A_a.gif","images/stimuli/spore_stims/simple_19_A_b.gif","forced_short","","9","simple_dissimilar","images/stimuli/spore_stims/simple_19_A_b.gif","","","","",""
"","null","html-keyboard-response","116","204994","0.0-27.0-0.1","SS1619115927276","","","null","","","","","","<p><img src= images/blank.png width =""600"" height = ""600"" style=""position:fixed;top:50%; left:50%; transform: translate(-50%, -50%); border:5px solid black"">","","","","","","","",""
"","179.99999970197678","sequential-stimulus-presentation-old","117","205681","0.0-27.0-1.1","SS1619115927276","trial","","40","500","679.9999997019768","images/stimuli/spore_stims/simple_16_A_a.gif","images/stimuli/spore_stims/simple_19_A_b.gif","forced_short","","9","simple_dissimilar","images/stimuli/spore_stims/simple_19_A_b.gif","","","","",""
"","null","html-keyboard-response","118","206879","0.0-27.0-0.2","SS1619115927276","","","null","","","","","","<p><img src= images/blank.png width =""600"" height = ""600"" style=""position:fixed;top:50%; left:50%; transform: translate(-50%, -50%); border:5px solid black"">","","","","","","","",""
"","270.00000001862645","sequential-stimulus-presentation-old","119","207658","0.0-27.0-1.2","SS1619115927276","trial","","40","500","770.0000000186265","images/stimuli/spore_stims/simple_16_A_a.gif","images/stimuli/spore_stims/simple_19_A_b.gif","forced_short","","9","simple_dissimilar","images/stimuli/spore_stims/simple_19_A_b.gif","","","","",""
"","null","html-keyboard-response","120","208518","0.0-27.0-0.3","SS1619115927276","","","null","","","","","","<p><img src= images/blank.png width =""600"" height = ""600"" style=""position:fixed;top:50%; left:50%; transform: translate(-50%, -50%); border:5px solid black"">","","","","","","","",""
"","179.0000000037253","sequential-stimulus-presentation-old","121","209208","0.0-27.0-1.3","SS1619115927276","trial","","40","500","679.0000000037253","images/stimuli/spore_stims/simple_16_A_a.gif","images/stimuli/spore_stims/simple_19_A_b.gif","forced_short","","9","simple_dissimilar","images/stimuli/spore_stims/simple_19_A_b.gif","","","","",""
"","null","html-keyboard-response","122","210279","0.0-27.0-0.4","SS1619115927276","","","null","","","","","","<p><img src= images/blank.png width =""600"" height = ""600"" style=""position:fixed;top:50%; left:50%; transform: translate(-50%, -50%); border:5px solid black"">","","","","","","","",""
"","199.00000002235174","sequential-stimulus-presentation-old","123","210992","0.0-27.0-1.4","SS1619115927276","trial","","40","500","699.0000000223517","images/stimuli/spore_stims/simple_16_A_a.gif","images/stimuli/spore_stims/simple_19_A_b.gif","forced_short","","9","simple_dissimilar","images/stimuli/spore_stims/simple_16_A_a.gif","","","","",""
"","null","html-keyboard-response","124","211935","0.0-27.0-0.5","SS1619115927276","","","null","","","","","","<p><img src= images/blank.png width =""600"" height = ""600"" style=""position:fixed;top:50%; left:50%; transform: translate(-50%, -50%); border:5px solid black"">","","","","","","","",""
"","228.0000001192093","sequential-stimulus-presentation-old","125","212686","0.0-27.0-1.5","SS1619115927276","trial","","40","500","728.0000001192093","images/stimuli/spore_stims/simple_16_A_a.gif","images/stimuli/spore_stims/simple_19_A_b.gif","forced_short","","9","simple_dissimilar","images/stimuli/spore_stims/simple_16_A_a.gif","","","","",""
"","4381.999999750406","survey-multi-choice","126","217090","0.0-28.0","SS1619115927276","math_question","","","","","","","","","","","","{""Q0"":""12""}","[0]","12","",""
"","null","html-keyboard-response","127","217934","0.0-29.0-0.0","SS1619115927276","","","null","","","","","","<p><img src= images/blank.png width =""600"" height = ""600"" style=""position:fixed;top:50%; left:50%; transform: translate(-50%, -50%); border:5px solid black"">","","","","","","","",""
"","195.9999999962747","sequential-stimulus-presentation-old","128","228156","0.0-29.0-1.0","SS1619115927276","trial","","40","500","695.9999999962747","images/stimuli/spore_stims/complex_11_A_b.gif","images/stimuli/spore_stims/complex_13_A_a.gif","forced_long","","10","complex_dissimilar","images/stimuli/spore_stims/complex_13_A_a.gif","","","","",""
"","null","html-keyboard-response","129","229279","0.0-29.0-0.1","SS1619115927276","","","null","","","","","","<p><img src= images/blank.png width =""600"" height = ""600"" style=""position:fixed;top:50%; left:50%; transform: translate(-50%, -50%); border:5px solid black"">","","","","","","","",""
"","724.999999627471","sequential-stimulus-presentation-old","130","230505","0.0-29.0-1.1","SS1619115927276","trial","","40","500","1224.999999627471","images/stimuli/spore_stims/complex_11_A_b.gif","images/stimuli/spore_stims/complex_13_A_a.gif","forced_long","","10","complex_dissimilar","images/stimuli/spore_stims/complex_11_A_b.gif","","","","",""
"","null","html-keyboard-response","131","231667","0.0-29.0-0.2","SS1619115927276","","","null","","","","","","<p><img src= images/blank.png width =""600"" height = ""600"" style=""position:fixed;top:50%; left:50%; transform: translate(-50%, -50%); border:5px solid black"">","","","","","","","",""
"","231.9999998435378","sequential-stimulus-presentation-old","132","232415","0.0-29.0-1.2","SS1619115927276","trial","","40","500","731.9999998435378","images/stimuli/spore_stims/complex_11_A_b.gif","images/stimuli/spore_stims/complex_13_A_a.gif","forced_long","","10","complex_dissimilar","images/stimuli/spore_stims/complex_11_A_b.gif","","","","",""
"","null","html-keyboard-response","133","233530","0.0-29.0-0.3","SS1619115927276","","","null","","","","","","<p><img src= images/blank.png width =""600"" height = ""600"" style=""position:fixed;top:50%; left:50%; transform: translate(-50%, -50%); border:5px solid black"">","","","","","","","",""
"","251.00000016391277","sequential-stimulus-presentation-old","134","234308","0.0-29.0-1.3","SS1619115927276","trial","","40","500","751.0000001639128","images/stimuli/spore_stims/complex_11_A_b.gif","images/stimuli/spore_stims/complex_13_A_a.gif","forced_long","","10","complex_dissimilar","images/stimuli/spore_stims/complex_13_A_a.gif","","","","",""
"","3375","survey-multi-choice","135","237693","0.0-30.0","SS1619115927276","math_question","","","","","","","","","","","","{""Q0"":""13""}","[0]","13","",""
"","null","html-keyboard-response","136","238788","0.0-31.0-0.0","SS1619115927276","","","null","","","","","","<p><img src= images/blank.png width =""600"" height = ""600"" style=""position:fixed;top:50%; left:50%; transform: translate(-50%, -50%); border:5px solid black"">","","","","","","","",""
"","84.00000026449561","sequential-stimulus-presentation-old","137","248885","0.0-31.0-1.0","SS1619115927276","trial","","40","500","584.0000002644956","images/stimuli/spore_stims/simple_01_A_a.gif","images/stimuli/spore_stims/simple_10_A_b.gif","forced_long","","11","simple_dissimilar","images/stimuli/spore_stims/simple_10_A_b.gif","","","","",""
"","null","html-keyboard-response","138","249727","0.0-31.0-0.1","SS1619115927276","","","null","","","","","","<p><img src= images/blank.png width =""600"" height = ""600"" style=""position:fixed;top:50%; left:50%; transform: translate(-50%, -50%); border:5px solid black"">","","","","","","","",""
"","263.0000002682209","sequential-stimulus-presentation-old","139","250500","0.0-31.0-1.1","SS1619115927276","trial","","40","500","763.0000002682209","images/stimuli/spore_stims/simple_01_A_a.gif","images/stimuli/spore_stims/simple_10_A_b.gif","forced_long","","11","simple_dissimilar","images/stimuli/spore_stims/simple_10_A_b.gif","","","","",""
"","null","html-keyboard-response","140","251496","0.0-31.0-0.2","SS1619115927276","","","null","","","","","","<p><img src= images/blank.png width =""600"" height = ""600"" style=""position:fixed;top:50%; left:50%; transform: translate(-50%, -50%); border:5px solid black"">","","","","","","","",""
"","225.00000009313226","sequential-stimulus-presentation-old","141","252229","0.0-31.0-1.2","SS1619115927276","trial","","40","500","725.0000000931323","images/stimuli/spore_stims/simple_01_A_a.gif","images/stimuli/spore_stims/simple_10_A_b.gif","forced_long","","11","simple_dissimilar","images/stimuli/spore_stims/simple_10_A_b.gif","","","","",""
"","null","html-keyboard-response","142","253227","0.0-31.0-0.3","SS1619115927276","","","null","","","","","","<p><img src= images/blank.png width =""600"" height = ""600"" style=""position:fixed;top:50%; left:50%; transform: translate(-50%, -50%); border:5px solid black"">","","","","","","","",""
"","172.00000025331974","sequential-stimulus-presentation-old","143","253947","0.0-31.0-1.3","SS1619115927276","trial","","40","500","672.0000002533197","images/stimuli/spore_stims/simple_01_A_a.gif","images/stimuli/spore_stims/simple_10_A_b.gif","forced_long","","11","simple_dissimilar","images/stimuli/spore_stims/simple_10_A_b.gif","","","","",""
"","null","html-keyboard-response","144","255082","0.0-31.0-0.4","SS1619115927276","","","null","","","","","","<p><img src= images/blank.png width =""600"" height = ""600"" style=""position:fixed;top:50%; left:50%; transform: translate(-50%, -50%); border:5px solid black"">","","","","","","","",""
"","584.9999999627471","sequential-stimulus-presentation-old","145","256185","0.0-31.0-1.4","SS1619115927276","trial","","40","500","1084.999999962747","images/stimuli/spore_stims/simple_01_A_a.gif","images/stimuli/spore_stims/simple_10_A_b.gif","forced_long","","11","simple_dissimilar","images/stimuli/spore_stims/simple_10_A_b.gif","","","","",""
"","null","html-keyboard-response","146","257491","0.0-31.0-0.5","SS1619115927276","","","null","","","","","","<p><img src= images/blank.png width =""600"" height = ""600"" style=""position:fixed;top:50%; left:50%; transform: translate(-50%, -50%); border:5px solid black"">","","","","","","","",""
"","28.99999963119626","sequential-stimulus-presentation-old","147","258040","0.0-31.0-1.5","SS1619115927276","trial","","40","500","528.9999996311963","images/stimuli/spore_stims/simple_01_A_a.gif","images/stimuli/spore_stims/simple_10_A_b.gif","forced_long","","11","simple_dissimilar","images/stimuli/spore_stims/simple_10_A_b.gif","","","","",""
"[{""page_index"":0,""viewing_time"":2111.0000000335276}]","2112.0000001974404","instructions","148","260169","0.0-32.0","SS1619115927276","instructions","","","","","","","","","","","","","","","",""
"","3506.000000052154","survey-likert","149","263699","0.0-33.0","SS1619115927276","similarity_question","","","","","","","","","","","","{""Q0"":6}","[0]","","images/stimuli/spore_stims/complex_13_A_a.gif","images/stimuli/spore_stims/complex_11_A_b.gif"
"","2732.000000309199","survey-likert","150","266446","0.0-34.0","SS1619115927276","similarity_question","","","","","","","","","","","","{""Q0"":2}","[0]","","images/stimuli/spore_stims/complex_02_A_b.gif","images/stimuli/spore_stims/complex_06_A_a.gif"
"","2310.0000000558794","survey-likert","151","268766","0.0-35.0","SS1619115927276","similarity_question","","","","","","","","","","","","{""Q0"":1}","[0]","","images/stimuli/spore_stims/simple_19_A_a.gif","images/stimuli/spore_stims/simple_05_A_b.gif"
"","1535.0000001490116","survey-likert","152","270316","0.0-36.0","SS1619115927276","similarity_question","","","","","","","","","","","","{""Q0"":4}","[0]","","images/stimuli/spore_stims/simple_19_A_b.gif","images/stimuli/spore_stims/simple_16_A_a.gif"
"","1199.9999997206032","survey-likert","153","271553","0.0-37.0","SS1619115927276","similarity_question","","","","","","","","","","","","{""Q0"":5}","[0]","","images/stimuli/spore_stims/simple_01_A_a.gif","images/stimuli/spore_stims/simple_10_A_b.gif"
"","1271.9999998807907","survey-likert","154","272832","0.0-38.0","SS1619115927276","similarity_question","","","","","","","","","","","","{""Q0"":3}","[0]","","images/stimuli/spore_stims/complex_03_A_b.gif","images/stimuli/spore_stims/complex_16_A_a.gif"
"","1114.0000000596046","survey-likert","155","273956","0.0-39.0","SS1619115927276","similarity_question","","","","","","","","","","","","{""Q0"":4}","[0]","","images/stimuli/spore_stims/simple_07_A_a.gif","images/stimuli/spore_stims/simple_17_A_b.gif"
"","2125","survey-likert","156","276096","0.0-40.0","SS1619115927276","similarity_question","","","","","","","","","","","","{""Q0"":2}","[0]","","images/stimuli/spore_stims/simple_11_A_a.gif","images/stimuli/spore_stims/simple_06_A_b.gif"
"","1812.000000383705","survey-likert","157","277928","0.0-41.0","SS1619115927276","similarity_question","","","","","","","","","","","","{""Q0"":5}","[0]","","images/stimuli/spore_stims/complex_04_A_b.gif","images/stimuli/spore_stims/complex_14_A_a.gif"
"","2418.00000006333","survey-likert","158","280353","0.0-42.0","SS1619115927276","similarity_question","","","","","","","","","","","","{""Q0"":1}","[0]","","images/stimuli/spore_stims/complex_01_A_b.gif","images/stimuli/spore_stims/complex_08_A_a.gif"
"","1375","survey-likert","159","281760","0.0-43.0","SS1619115927276","similarity_question","","","","","","","","","","","","{""Q0"":3}","[0]","","images/stimuli/spore_stims/simple_20_A_b.gif","images/stimuli/spore_stims/simple_03_A_a.gif"
"","1023.0000000447035","survey-likert","160","282832","0.0-44.0","SS1619115927276","similarity_question","","","","","","","","","","","","{""Q0"":4}","[0]","","images/stimuli/spore_stims/complex_15_A_b.gif","images/stimuli/spore_stims/complex_12_A_a.gif"
"[{""page_index"":0,""viewing_time"":1516.9999999925494}]","1516.9999999925494","instructions","161","284358","0.0-45.0","SS1619115927276","instructions","","","","","","","","","","","","","","","",""
"","2090.0000003166497","survey-likert","162","286460","0.0-46.0","SS1619115927276","","","","","","","","","images/stimuli/spore_stims/complex_14_A_a.gif","","","","{""Q0"":4}","[0]","","",""
"","1099.0000003948808","survey-likert","163","287584","0.0-47.0","SS1619115927276","","","","","","","","","images/stimuli/spore_stims/simple_16_A_a.gif","","","","{""Q0"":5}","[0]","","",""
"","1707.9999996349216","survey-likert","164","289292","0.0-48.0","SS1619115927276","","","","","","","","","images/stimuli/spore_stims/complex_03_A_b.gif","","","","{""Q0"":2}","[0]","","",""
"","1436.9999999180436","survey-likert","165","290735","0.0-49.0","SS1619115927276","","","","","","","","","images/stimuli/spore_stims/simple_07_A_a.gif","","","","{""Q0"":5}","[0]","","",""
"","1584.0000002644956","survey-likert","166","292319","0.0-50.0","SS1619115927276","","","","","","","","","images/stimuli/spore_stims/simple_05_A_b.gif","","","","{""Q0"":1}","[0]","","",""
"","1295.0000003911555","survey-likert","167","293630","0.0-51.0","SS1619115927276","","","","","","","","","images/stimuli/spore_stims/simple_11_A_a.gif","","","","{""Q0"":5}","[0]","","",""
"","1530.9999999590218","survey-likert","168","295176","0.0-52.0","SS1619115927276","","","","","","","","","images/stimuli/spore_stims/simple_01_A_a.gif","","","","{""Q0"":6}","[0]","","",""
"","1148.0000000447035","survey-likert","169","296337","0.0-53.0","SS1619115927276","","","","","","","","","images/stimuli/spore_stims/complex_15_A_b.gif","","","","{""Q0"":4}","[0]","","",""
"","2188.0000000819564","survey-likert","170","298559","0.0-54.0","SS1619115927276","","","","","","","","","images/stimuli/spore_stims/complex_06_A_a.gif","","","","{""Q0"":5}","[0]","","",""
"","2707.0000004023314","survey-likert","171","301286","0.0-55.0","SS1619115927276","","","","","","","","","images/stimuli/spore_stims/complex_13_A_a.gif","","","","{""Q0"":4}","[0]","","",""
"","1429.9999997019768","survey-likert","172","302739","0.0-56.0","SS1619115927276","","","","","","","","","images/stimuli/spore_stims/complex_01_A_b.gif","","","","{""Q0"":2}","[0]","","",""
"","1423.9999996498227","survey-likert","173","304177","0.0-57.0","SS1619115927276","","","","","","","","","images/stimuli/spore_stims/simple_20_A_b.gif","","","","{""Q0"":1}","[0]","","",""
"[{""page_index"":0,""viewing_time"":1337.9999999888241}]","1339.000000152737","instructions","174","305529","0.0-58.0","SS1619115927276","instructions","","","","","","","","","","","","","","","",""
"","2387.000000104308","demog-age","175","307926","0.0-59.0","SS1619115927276","","","","","","","","","","","","","{""age"":""41""}","","","",""
"","3657.0000001229346","demog-ethnic-US","176","311597","0.0-60.0","SS1619115927276","","","","","","","","","","","","","{""ethnicity"":[""White""]}","[0]","","",""
"","4441.999999806285","demog-gender-and-education","177","316052","0.0-61.0","SS1619115927276","","","","","","","","","","","","","{""gender"":""Female"",""education"":""Master's Degree""}","[0,1]","","",""
"","4993.999999947846","survey-text","178","321081","0.0-62.0","SS1619115927276","feedback","","","","","","","","","","","","{""Q0"":""Very Good""}","","","",""
