"view_history","rt","trial_type","trial_index","time_elapsed","internal_node_id","subject","stimulus_type","trial_stimulus","key_press","minimum_viewing_duration","trial_looking_time","block_deviant","block_background","exposure_type","stimulus","block_number","block_type","stimulus_displayed","responses","question_order","math_correct_answer","stimulus_left","stimulus_right"
"[{""page_index"":0,""viewing_time"":108347.99999999814}]","108351.00000002421","instructions","0","108359","0.0-0.0","SS1619114564739","","","","","","","","","","","","","","","","",""
"[{""page_index"":0,""viewing_time"":2690.999999991618},{""page_index"":1,""viewing_time"":4351.000000024214}]","7047.999999951571","instructions","1","117423","0.0-1.0","SS1619114564739","instructions","","","","","","","","","","","","","","","",""
"","6901.0000000707805","sequential-stimulus-presentation-old","2","124846","0.0-2.0","SS1619114564739","","","40","500","7401.0000000707805","null","null","self_paced","","","","","","","","",""
"","2001.9999999785796","sequential-stimulus-presentation-old","3","127448","0.0-3.0","SS1619114564739","","","40","500","2501.9999999785796","null","null","self_paced","","","","","","","","",""
"[{""page_index"":0,""viewing_time"":2956.000000005588}]","2957.0000000530854","instructions","4","130409","0.0-4.0","SS1619114564739","instructions","","","","","","","","","","","","","","","",""
"","908.9999999850988","sequential-stimulus-presentation-old","5","141360","0.0-5.0","SS1619114564739","","","40","500","1408.9999999850988","null","null","forced_long","","","","","","","","",""
"","1326.9999999320135","sequential-stimulus-presentation-old","6","142849","0.0-6.0","SS1619114564739","","","40","500","1826.9999999320135","null","null","forced_long","","","","","","","","",""
"[{""page_index"":0,""viewing_time"":2195.9999999962747}]","2197.000000043772","instructions","7","145051","0.0-7.0","SS1619114564739","instructions","","","","","","","","","","","","","","","",""
"[{""page_index"":0,""viewing_time"":1864.0000000596046},{""page_index"":1,""viewing_time"":1382.9999999143183},{""page_index"":2,""viewing_time"":1253.000000026077},{""page_index"":3,""viewing_time"":2075.000000069849},{""page_index"":4,""viewing_time"":1717.9999999934807}]","8293.999999994412","instructions","8","153352","0.0-8.0","SS1619114564739","instructions","","","","","","","","","","","","","","","",""
"","null","html-keyboard-response","9","154616","0.0-9.0-0.0","SS1619114564739","","","null","","","","","","<p><img src= images/blank.png width =""600"" height = ""600"" style=""position:fixed;top:50%; left:50%; transform: translate(-50%, -50%); border:5px solid black"">","","","","","","","",""
"","14506.000000052154","sequential-stimulus-presentation-old","10","179188","0.0-9.0-1.0","SS1619114564739","trial","","40","500","15006.000000052154","images/stimuli/spore_stims/complex_13_A_b.gif","images/stimuli/spore_stims/complex_14_A_a.gif","forced_long","","0","complex_dissimilar","images/stimuli/spore_stims/complex_14_A_a.gif","","","","",""
"","null","html-keyboard-response","11","180418","0.0-9.0-0.1","SS1619114564739","","","null","","","","","","<p><img src= images/blank.png width =""600"" height = ""600"" style=""position:fixed;top:50%; left:50%; transform: translate(-50%, -50%); border:5px solid black"">","","","","","","","",""
"","1691.9999999227002","sequential-stimulus-presentation-old","12","182626","0.0-9.0-1.1","SS1619114564739","trial","","40","500","2191.9999999227","images/stimuli/spore_stims/complex_13_A_b.gif","images/stimuli/spore_stims/complex_14_A_a.gif","forced_long","","0","complex_dissimilar","images/stimuli/spore_stims/complex_14_A_a.gif","","","","",""
"","null","html-keyboard-response","13","183890","0.0-9.0-0.2","SS1619114564739","","","null","","","","","","<p><img src= images/blank.png width =""600"" height = ""600"" style=""position:fixed;top:50%; left:50%; transform: translate(-50%, -50%); border:5px solid black"">","","","","","","","",""
"","99.99999997671694","sequential-stimulus-presentation-old","14","184575","0.0-9.0-1.2","SS1619114564739","trial","","40","500","599.9999999767169","images/stimuli/spore_stims/complex_13_A_b.gif","images/stimuli/spore_stims/complex_14_A_a.gif","forced_long","","0","complex_dissimilar","images/stimuli/spore_stims/complex_14_A_a.gif","","","","",""
"","null","html-keyboard-response","15","185895","0.0-9.0-0.3","SS1619114564739","","","null","","","","","","<p><img src= images/blank.png width =""600"" height = ""600"" style=""position:fixed;top:50%; left:50%; transform: translate(-50%, -50%); border:5px solid black"">","","","","","","","",""
"","131.9999999832362","sequential-stimulus-presentation-old","16","186582","0.0-9.0-1.3","SS1619114564739","trial","","40","500","631.9999999832362","images/stimuli/spore_stims/complex_13_A_b.gif","images/stimuli/spore_stims/complex_14_A_a.gif","forced_long","","0","complex_dissimilar","images/stimuli/spore_stims/complex_14_A_a.gif","","","","",""
"","null","html-keyboard-response","17","187648","0.0-9.0-0.4","SS1619114564739","","","null","","","","","","<p><img src= images/blank.png width =""600"" height = ""600"" style=""position:fixed;top:50%; left:50%; transform: translate(-50%, -50%); border:5px solid black"">","","","","","","","",""
"","3.000000026077032","sequential-stimulus-presentation-old","18","188704","0.0-9.0-1.4","SS1619114564739","trial","","40","500","503.00000002607703","images/stimuli/spore_stims/complex_13_A_b.gif","images/stimuli/spore_stims/complex_14_A_a.gif","forced_long","","0","complex_dissimilar","images/stimuli/spore_stims/complex_14_A_a.gif","","","","",""
"","null","html-keyboard-response","19","189764","0.0-9.0-0.5","SS1619114564739","","","null","","","","","","<p><img src= images/blank.png width =""600"" height = ""600"" style=""position:fixed;top:50%; left:50%; transform: translate(-50%, -50%); border:5px solid black"">","","","","","","","",""
"","168.00000006332994","sequential-stimulus-presentation-old","20","190439","0.0-9.0-1.5","SS1619114564739","trial","","40","500","668.0000000633299","images/stimuli/spore_stims/complex_13_A_b.gif","images/stimuli/spore_stims/complex_14_A_a.gif","forced_long","","0","complex_dissimilar","images/stimuli/spore_stims/complex_14_A_a.gif","","","","",""
"","3175.000000046566","survey-multi-choice","21","193628","0.0-10.0","SS1619114564739","math_question","","","","","","","","","","","","{""Q0"":""2""}","[0]","2","",""
"","null","html-keyboard-response","22","194923","0.0-11.0-0.0","SS1619114564739","","","null","","","","","","<p><img src= images/blank.png width =""600"" height = ""600"" style=""position:fixed;top:50%; left:50%; transform: translate(-50%, -50%); border:5px solid black"">","","","","","","","",""
"","47.0000000204891","sequential-stimulus-presentation-old","23","195129","0.0-11.0-1.0","SS1619114564739","trial","","40","500","547.0000000204891","images/stimuli/spore_stims/complex_10_A_b.gif","images/stimuli/spore_stims/complex_05_A_a.gif","forced_short","","1","complex_dissimilar","images/stimuli/spore_stims/complex_05_A_a.gif","","","","",""
"","null","html-keyboard-response","24","196208","0.0-11.0-0.1","SS1619114564739","","","null","","","","","","<p><img src= images/blank.png width =""600"" height = ""600"" style=""position:fixed;top:50%; left:50%; transform: translate(-50%, -50%); border:5px solid black"">","","","","","","","",""
"","116.00000003818423","sequential-stimulus-presentation-old","25","196942","0.0-11.0-1.1","SS1619114564739","trial","","40","500","616.0000000381842","images/stimuli/spore_stims/complex_10_A_b.gif","images/stimuli/spore_stims/complex_05_A_a.gif","forced_short","","1","complex_dissimilar","images/stimuli/spore_stims/complex_10_A_b.gif","","","","",""
"","null","html-keyboard-response","26","197896","0.0-11.0-0.2","SS1619114564739","","","null","","","","","","<p><img src= images/blank.png width =""600"" height = ""600"" style=""position:fixed;top:50%; left:50%; transform: translate(-50%, -50%); border:5px solid black"">","","","","","","","",""
"","815.9999999916181","sequential-stimulus-presentation-old","27","199324","0.0-11.0-1.2","SS1619114564739","trial","","40","500","1315.999999991618","images/stimuli/spore_stims/complex_10_A_b.gif","images/stimuli/spore_stims/complex_05_A_a.gif","forced_short","","1","complex_dissimilar","images/stimuli/spore_stims/complex_10_A_b.gif","","","","",""
"","null","html-keyboard-response","28","200854","0.0-11.0-0.3","SS1619114564739","","","null","","","","","","<p><img src= images/blank.png width =""600"" height = ""600"" style=""position:fixed;top:50%; left:50%; transform: translate(-50%, -50%); border:5px solid black"">","","","","","","","",""
"","221.00000001955777","sequential-stimulus-presentation-old","29","201887","0.0-11.0-1.3","SS1619114564739","trial","","40","500","721.0000000195578","images/stimuli/spore_stims/complex_10_A_b.gif","images/stimuli/spore_stims/complex_05_A_a.gif","forced_short","","1","complex_dissimilar","images/stimuli/spore_stims/complex_05_A_a.gif","","","","",""
"","4859.000000054948","survey-multi-choice","30","206754","0.0-12.0","SS1619114564739","math_question","","","","","","","","","","","","{""Q0"":""13""}","[0]","13","",""
"","null","html-keyboard-response","31","207936","0.0-13.0-0.0","SS1619114564739","","","null","","","","","","<p><img src= images/blank.png width =""600"" height = ""600"" style=""position:fixed;top:50%; left:50%; transform: translate(-50%, -50%); border:5px solid black"">","","","","","","","",""
"","261.9999999878928","sequential-stimulus-presentation-old","32","218266","0.0-13.0-1.0","SS1619114564739","trial","","40","500","761.9999999878928","images/stimuli/spore_stims/complex_15_A_b.gif","images/stimuli/spore_stims/complex_09_A_a.gif","forced_long","","2","complex_dissimilar","images/stimuli/spore_stims/complex_09_A_a.gif","","","","",""
"","null","html-keyboard-response","33","219371","0.0-13.0-0.1","SS1619114564739","","","null","","","","","","<p><img src= images/blank.png width =""600"" height = ""600"" style=""position:fixed;top:50%; left:50%; transform: translate(-50%, -50%); border:5px solid black"">","","","","","","","",""
"","150.00000002328306","sequential-stimulus-presentation-old","34","220031","0.0-13.0-1.1","SS1619114564739","trial","","40","500","650.0000000232831","images/stimuli/spore_stims/complex_15_A_b.gif","images/stimuli/spore_stims/complex_09_A_a.gif","forced_long","","2","complex_dissimilar","images/stimuli/spore_stims/complex_09_A_a.gif","","","","",""
"","null","html-keyboard-response","35","221390","0.0-13.0-0.2","SS1619114564739","","","null","","","","","","<p><img src= images/blank.png width =""600"" height = ""600"" style=""position:fixed;top:50%; left:50%; transform: translate(-50%, -50%); border:5px solid black"">","","","","","","","",""
"","228.00000000279397","sequential-stimulus-presentation-old","36","222151","0.0-13.0-1.2","SS1619114564739","trial","","40","500","728.000000002794","images/stimuli/spore_stims/complex_15_A_b.gif","images/stimuli/spore_stims/complex_09_A_a.gif","forced_long","","2","complex_dissimilar","images/stimuli/spore_stims/complex_09_A_a.gif","","","","",""
"","null","html-keyboard-response","37","223388","0.0-13.0-0.3","SS1619114564739","","","null","","","","","","<p><img src= images/blank.png width =""600"" height = ""600"" style=""position:fixed;top:50%; left:50%; transform: translate(-50%, -50%); border:5px solid black"">","","","","","","","",""
"","23.000000044703484","sequential-stimulus-presentation-old","38","224042","0.0-13.0-1.3","SS1619114564739","trial","","40","500","523.0000000447035","images/stimuli/spore_stims/complex_15_A_b.gif","images/stimuli/spore_stims/complex_09_A_a.gif","forced_long","","2","complex_dissimilar","images/stimuli/spore_stims/complex_09_A_a.gif","","","","",""
"","null","html-keyboard-response","39","225004","0.0-13.0-0.4","SS1619114564739","","","null","","","","","","<p><img src= images/blank.png width =""600"" height = ""600"" style=""position:fixed;top:50%; left:50%; transform: translate(-50%, -50%); border:5px solid black"">","","","","","","","",""
"","135.00000000931323","sequential-stimulus-presentation-old","40","225718","0.0-13.0-1.4","SS1619114564739","trial","","40","500","635.0000000093132","images/stimuli/spore_stims/complex_15_A_b.gif","images/stimuli/spore_stims/complex_09_A_a.gif","forced_long","","2","complex_dissimilar","images/stimuli/spore_stims/complex_09_A_a.gif","","","","",""
"","null","html-keyboard-response","41","226939","0.0-13.0-0.5","SS1619114564739","","","null","","","","","","<p><img src= images/blank.png width =""600"" height = ""600"" style=""position:fixed;top:50%; left:50%; transform: translate(-50%, -50%); border:5px solid black"">","","","","","","","",""
"","425.00000004656613","sequential-stimulus-presentation-old","42","228991","0.0-13.0-1.5","SS1619114564739","trial","","40","500","925.0000000465661","images/stimuli/spore_stims/complex_15_A_b.gif","images/stimuli/spore_stims/complex_09_A_a.gif","forced_long","","2","complex_dissimilar","images/stimuli/spore_stims/complex_15_A_b.gif","","","","",""
"","3292.0000000158325","survey-multi-choice","43","232293","0.0-14.0","SS1619114564739","math_question","","","","","","","","","","","","{""Q0"":""4""}","[0]","4","",""
"","null","html-keyboard-response","44","233127","0.0-15.0-0.0","SS1619114564739","","","null","","","","","","<p><img src= images/blank.png width =""600"" height = ""600"" style=""position:fixed;top:50%; left:50%; transform: translate(-50%, -50%); border:5px solid black"">","","","","","","","",""
"","136.9999999878928","sequential-stimulus-presentation-old","45","243280","0.0-15.0-1.0","SS1619114564739","trial","","40","500","636.9999999878928","images/stimuli/spore_stims/simple_08_A_b.gif","images/stimuli/spore_stims/simple_04_A_a.gif","forced_long","","3","simple_dissimilar","images/stimuli/spore_stims/simple_04_A_a.gif","","","","",""
"","null","html-keyboard-response","46","244419","0.0-15.0-0.1","SS1619114564739","","","null","","","","","","<p><img src= images/blank.png width =""600"" height = ""600"" style=""position:fixed;top:50%; left:50%; transform: translate(-50%, -50%); border:5px solid black"">","","","","","","","",""
"","8.000000030733645","sequential-stimulus-presentation-old","47","244954","0.0-15.0-1.1","SS1619114564739","trial","","40","500","508.00000003073364","images/stimuli/spore_stims/simple_08_A_b.gif","images/stimuli/spore_stims/simple_04_A_a.gif","forced_long","","3","simple_dissimilar","images/stimuli/spore_stims/simple_04_A_a.gif","","","","",""
"","null","html-keyboard-response","48","246658","0.0-15.0-0.2","SS1619114564739","","","null","","","","","","<p><img src= images/blank.png width =""600"" height = ""600"" style=""position:fixed;top:50%; left:50%; transform: translate(-50%, -50%); border:5px solid black"">","","","","","","","",""
"","409.99999991618097","sequential-stimulus-presentation-old","49","247624","0.0-15.0-1.2","SS1619114564739","trial","","40","500","909.999999916181","images/stimuli/spore_stims/simple_08_A_b.gif","images/stimuli/spore_stims/simple_04_A_a.gif","forced_long","","3","simple_dissimilar","images/stimuli/spore_stims/simple_04_A_a.gif","","","","",""
"","null","html-keyboard-response","50","249020","0.0-15.0-0.3","SS1619114564739","","","null","","","","","","<p><img src= images/blank.png width =""600"" height = ""600"" style=""position:fixed;top:50%; left:50%; transform: translate(-50%, -50%); border:5px solid black"">","","","","","","","",""
"","168.00000006332994","sequential-stimulus-presentation-old","51","249833","0.0-15.0-1.3","SS1619114564739","trial","","40","500","668.0000000633299","images/stimuli/spore_stims/simple_08_A_b.gif","images/stimuli/spore_stims/simple_04_A_a.gif","forced_long","","3","simple_dissimilar","images/stimuli/spore_stims/simple_08_A_b.gif","","","","",""
"","null","html-keyboard-response","52","250863","0.0-15.0-0.4","SS1619114564739","","","null","","","","","","<p><img src= images/blank.png width =""600"" height = ""600"" style=""position:fixed;top:50%; left:50%; transform: translate(-50%, -50%); border:5px solid black"">","","","","","","","",""
"","5.000000004656613","sequential-stimulus-presentation-old","53","251787","0.0-15.0-1.4","SS1619114564739","trial","","40","500","505.0000000046566","images/stimuli/spore_stims/simple_08_A_b.gif","images/stimuli/spore_stims/simple_04_A_a.gif","forced_long","","3","simple_dissimilar","images/stimuli/spore_stims/simple_04_A_a.gif","","","","",""
"","4010.9999999403954","survey-multi-choice","54","255806","0.0-16.0","SS1619114564739","math_question","","","","","","","","","","","","{""Q0"":""11""}","[0]","11","",""
"","null","html-keyboard-response","55","256885","0.0-17.0-0.0","SS1619114564739","","","null","","","","","","<p><img src= images/blank.png width =""600"" height = ""600"" style=""position:fixed;top:50%; left:50%; transform: translate(-50%, -50%); border:5px solid black"">","","","","","","","",""
"","60.000000055879354","sequential-stimulus-presentation-old","56","267094","0.0-17.0-1.0","SS1619114564739","trial","","40","500","560.0000000558794","images/stimuli/spore_stims/simple_15_A_a.gif","images/stimuli/spore_stims/simple_04_A_b.gif","forced_long","","4","simple_dissimilar","images/stimuli/spore_stims/simple_04_A_b.gif","","","","",""
"","null","html-keyboard-response","57","268267","0.0-17.0-0.1","SS1619114564739","","","null","","","","","","<p><img src= images/blank.png width =""600"" height = ""600"" style=""position:fixed;top:50%; left:50%; transform: translate(-50%, -50%); border:5px solid black"">","","","","","","","",""
"","163.00000005867332","sequential-stimulus-presentation-old","58","268945","0.0-17.0-1.1","SS1619114564739","trial","","40","500","663.0000000586733","images/stimuli/spore_stims/simple_15_A_a.gif","images/stimuli/spore_stims/simple_04_A_b.gif","forced_long","","4","simple_dissimilar","images/stimuli/spore_stims/simple_15_A_a.gif","","","","",""
"","null","html-keyboard-response","59","270159","0.0-17.0-0.2","SS1619114564739","","","null","","","","","","<p><img src= images/blank.png width =""600"" height = ""600"" style=""position:fixed;top:50%; left:50%; transform: translate(-50%, -50%); border:5px solid black"">","","","","","","","",""
"","505.99999993573874","sequential-stimulus-presentation-old","60","271200","0.0-17.0-1.2","SS1619114564739","trial","","40","500","1005.9999999357387","images/stimuli/spore_stims/simple_15_A_a.gif","images/stimuli/spore_stims/simple_04_A_b.gif","forced_long","","4","simple_dissimilar","images/stimuli/spore_stims/simple_04_A_b.gif","","","","",""
"","null","html-keyboard-response","61","272320","0.0-17.0-0.3","SS1619114564739","","","null","","","","","","<p><img src= images/blank.png width =""600"" height = ""600"" style=""position:fixed;top:50%; left:50%; transform: translate(-50%, -50%); border:5px solid black"">","","","","","","","",""
"","228.00000000279397","sequential-stimulus-presentation-old","62","273084","0.0-17.0-1.3","SS1619114564739","trial","","40","500","728.000000002794","images/stimuli/spore_stims/simple_15_A_a.gif","images/stimuli/spore_stims/simple_04_A_b.gif","forced_long","","4","simple_dissimilar","images/stimuli/spore_stims/simple_04_A_b.gif","","","","",""
"","null","html-keyboard-response","63","274334","0.0-17.0-0.4","SS1619114564739","","","null","","","","","","<p><img src= images/blank.png width =""600"" height = ""600"" style=""position:fixed;top:50%; left:50%; transform: translate(-50%, -50%); border:5px solid black"">","","","","","","","",""
"","346.0000000195578","sequential-stimulus-presentation-old","64","275360","0.0-17.0-1.4","SS1619114564739","trial","","40","500","846.0000000195578","images/stimuli/spore_stims/simple_15_A_a.gif","images/stimuli/spore_stims/simple_04_A_b.gif","forced_long","","4","simple_dissimilar","images/stimuli/spore_stims/simple_15_A_a.gif","","","","",""
"","3128.000000026077","survey-multi-choice","65","278503","0.0-18.0","SS1619114564739","math_question","","","","","","","","","","","","{""Q0"":""10""}","[0]","10","",""
"","null","html-keyboard-response","66","279735","0.0-19.0-0.0","SS1619114564739","","","null","","","","","","<p><img src= images/blank.png width =""600"" height = ""600"" style=""position:fixed;top:50%; left:50%; transform: translate(-50%, -50%); border:5px solid black"">","","","","","","","",""
"","43.999999994412065","sequential-stimulus-presentation-old","67","280293","0.0-19.0-1.0","SS1619114564739","trial","","40","500","543.9999999944121","images/stimuli/spore_stims/simple_12_A_a.gif","images/stimuli/spore_stims/simple_20_A_b.gif","self_paced","","5","simple_dissimilar","images/stimuli/spore_stims/simple_20_A_b.gif","","","","",""
"","null","html-keyboard-response","68","281608","0.0-19.0-0.1","SS1619114564739","","","null","","","","","","<p><img src= images/blank.png width =""600"" height = ""600"" style=""position:fixed;top:50%; left:50%; transform: translate(-50%, -50%); border:5px solid black"">","","","","","","","",""
"","79.00000002700835","sequential-stimulus-presentation-old","69","282202","0.0-19.0-1.1","SS1619114564739","trial","","40","500","579.0000000270084","images/stimuli/spore_stims/simple_12_A_a.gif","images/stimuli/spore_stims/simple_20_A_b.gif","self_paced","","5","simple_dissimilar","images/stimuli/spore_stims/simple_12_A_a.gif","","","","",""
"","null","html-keyboard-response","70","283120","0.0-19.0-0.2","SS1619114564739","","","null","","","","","","<p><img src= images/blank.png width =""600"" height = ""600"" style=""position:fixed;top:50%; left:50%; transform: translate(-50%, -50%); border:5px solid black"">","","","","","","","",""
"","26.000000070780516","sequential-stimulus-presentation-old","71","283654","0.0-19.0-1.2","SS1619114564739","trial","","40","500","526.0000000707805","images/stimuli/spore_stims/simple_12_A_a.gif","images/stimuli/spore_stims/simple_20_A_b.gif","self_paced","","5","simple_dissimilar","images/stimuli/spore_stims/simple_20_A_b.gif","","","","",""
"","null","html-keyboard-response","72","284918","0.0-19.0-0.3","SS1619114564739","","","null","","","","","","<p><img src= images/blank.png width =""600"" height = ""600"" style=""position:fixed;top:50%; left:50%; transform: translate(-50%, -50%); border:5px solid black"">","","","","","","","",""
"","114.00000005960464","sequential-stimulus-presentation-old","73","285611","0.0-19.0-1.3","SS1619114564739","trial","","40","500","614.0000000596046","images/stimuli/spore_stims/simple_12_A_a.gif","images/stimuli/spore_stims/simple_20_A_b.gif","self_paced","","5","simple_dissimilar","images/stimuli/spore_stims/simple_20_A_b.gif","","","","",""
"","2552.999999956228","survey-multi-choice","74","288172","0.0-20.0","SS1619114564739","math_question","","","","","","","","","","","","{""Q0"":""7""}","[0]","7","",""
"","null","html-keyboard-response","75","289321","0.0-21.0-0.0","SS1619114564739","","","null","","","","","","<p><img src= images/blank.png width =""600"" height = ""600"" style=""position:fixed;top:50%; left:50%; transform: translate(-50%, -50%); border:5px solid black"">","","","","","","","",""
"","513.9999999664724","sequential-stimulus-presentation-old","76","290306","0.0-21.0-1.0","SS1619114564739","trial","","40","500","1013.9999999664724","images/stimuli/spore_stims/simple_10_A_b.gif","images/stimuli/spore_stims/simple_18_A_a.gif","forced_short","","6","simple_dissimilar","images/stimuli/spore_stims/simple_18_A_a.gif","","","","",""
"","null","html-keyboard-response","77","291361","0.0-21.0-0.1","SS1619114564739","","","null","","","","","","<p><img src= images/blank.png width =""600"" height = ""600"" style=""position:fixed;top:50%; left:50%; transform: translate(-50%, -50%); border:5px solid black"">","","","","","","","",""
"","672.0000000204891","sequential-stimulus-presentation-old","78","293092","0.0-21.0-1.1","SS1619114564739","trial","","40","500","1172.000000020489","images/stimuli/spore_stims/simple_10_A_b.gif","images/stimuli/spore_stims/simple_18_A_a.gif","forced_short","","6","simple_dissimilar","images/stimuli/spore_stims/simple_18_A_a.gif","","","","",""
"","null","html-keyboard-response","79","294316","0.0-21.0-0.2","SS1619114564739","","","null","","","","","","<p><img src= images/blank.png width =""600"" height = ""600"" style=""position:fixed;top:50%; left:50%; transform: translate(-50%, -50%); border:5px solid black"">","","","","","","","",""
"","295.0000000419095","sequential-stimulus-presentation-old","80","295737","0.0-21.0-1.2","SS1619114564739","trial","","40","500","795.0000000419095","images/stimuli/spore_stims/simple_10_A_b.gif","images/stimuli/spore_stims/simple_18_A_a.gif","forced_short","","6","simple_dissimilar","images/stimuli/spore_stims/simple_18_A_a.gif","","","","",""
"","null","html-keyboard-response","81","296694","0.0-21.0-0.3","SS1619114564739","","","null","","","","","","<p><img src= images/blank.png width =""600"" height = ""600"" style=""position:fixed;top:50%; left:50%; transform: translate(-50%, -50%); border:5px solid black"">","","","","","","","",""
"","30.999999959021807","sequential-stimulus-presentation-old","82","297386","0.0-21.0-1.3","SS1619114564739","trial","","40","500","530.9999999590218","images/stimuli/spore_stims/simple_10_A_b.gif","images/stimuli/spore_stims/simple_18_A_a.gif","forced_short","","6","simple_dissimilar","images/stimuli/spore_stims/simple_18_A_a.gif","","","","",""
"","null","html-keyboard-response","83","298600","0.0-21.0-0.4","SS1619114564739","","","null","","","","","","<p><img src= images/blank.png width =""600"" height = ""600"" style=""position:fixed;top:50%; left:50%; transform: translate(-50%, -50%); border:5px solid black"">","","","","","","","",""
"","150.00000002328306","sequential-stimulus-presentation-old","84","299456","0.0-21.0-1.4","SS1619114564739","trial","","40","500","650.0000000232831","images/stimuli/spore_stims/simple_10_A_b.gif","images/stimuli/spore_stims/simple_18_A_a.gif","forced_short","","6","simple_dissimilar","images/stimuli/spore_stims/simple_18_A_a.gif","","","","",""
"","null","html-keyboard-response","85","300436","0.0-21.0-0.5","SS1619114564739","","","null","","","","","","<p><img src= images/blank.png width =""600"" height = ""600"" style=""position:fixed;top:50%; left:50%; transform: translate(-50%, -50%); border:5px solid black"">","","","","","","","",""
"","190.9999999916181","sequential-stimulus-presentation-old","86","301293","0.0-21.0-1.5","SS1619114564739","trial","","40","500","690.9999999916181","images/stimuli/spore_stims/simple_10_A_b.gif","images/stimuli/spore_stims/simple_18_A_a.gif","forced_short","","6","simple_dissimilar","images/stimuli/spore_stims/simple_18_A_a.gif","","","","",""
"","3924.999999930151","survey-multi-choice","87","305236","0.0-22.0","SS1619114564739","math_question","","","","","","","","","","","","{""Q0"":""12""}","[0]","12","",""
"","null","html-keyboard-response","88","306586","0.0-23.0-0.0","SS1619114564739","","","null","","","","","","<p><img src= images/blank.png width =""600"" height = ""600"" style=""position:fixed;top:50%; left:50%; transform: translate(-50%, -50%); border:5px solid black"">","","","","","","","",""
"","295.99999997299165","sequential-stimulus-presentation-old","89","307402","0.0-23.0-1.0","SS1619114564739","trial","","40","500","795.9999999729916","images/stimuli/spore_stims/complex_20_A_b.gif","images/stimuli/spore_stims/complex_07_A_a.gif","self_paced","","7","complex_dissimilar","images/stimuli/spore_stims/complex_07_A_a.gif","","","","",""
"","null","html-keyboard-response","90","308303","0.0-23.0-0.1","SS1619114564739","","","null","","","","","","<p><img src= images/blank.png width =""600"" height = ""600"" style=""position:fixed;top:50%; left:50%; transform: translate(-50%, -50%); border:5px solid black"">","","","","","","","",""
"","9.000000078231096","sequential-stimulus-presentation-old","91","308907","0.0-23.0-1.1","SS1619114564739","trial","","40","500","509.0000000782311","images/stimuli/spore_stims/complex_20_A_b.gif","images/stimuli/spore_stims/complex_07_A_a.gif","self_paced","","7","complex_dissimilar","images/stimuli/spore_stims/complex_07_A_a.gif","","","","",""
"","null","html-keyboard-response","92","309744","0.0-23.0-0.2","SS1619114564739","","","null","","","","","","<p><img src= images/blank.png width =""600"" height = ""600"" style=""position:fixed;top:50%; left:50%; transform: translate(-50%, -50%); border:5px solid black"">","","","","","","","",""
"","11.000000056810677","sequential-stimulus-presentation-old","93","310279","0.0-23.0-1.2","SS1619114564739","trial","","40","500","511.0000000568107","images/stimuli/spore_stims/complex_20_A_b.gif","images/stimuli/spore_stims/complex_07_A_a.gif","self_paced","","7","complex_dissimilar","images/stimuli/spore_stims/complex_07_A_a.gif","","","","",""
"","null","html-keyboard-response","94","311425","0.0-23.0-0.3","SS1619114564739","","","null","","","","","","<p><img src= images/blank.png width =""600"" height = ""600"" style=""position:fixed;top:50%; left:50%; transform: translate(-50%, -50%); border:5px solid black"">","","","","","","","",""
"","302.99999995622784","sequential-stimulus-presentation-old","95","312241","0.0-23.0-1.3","SS1619114564739","trial","","40","500","802.9999999562278","images/stimuli/spore_stims/complex_20_A_b.gif","images/stimuli/spore_stims/complex_07_A_a.gif","self_paced","","7","complex_dissimilar","images/stimuli/spore_stims/complex_07_A_a.gif","","","","",""
"","4295.0000000419095","survey-multi-choice","96","316547","0.0-24.0","SS1619114564739","math_question","","","","","","","","","","","","{""Q0"":""12""}","[0]","12","",""
"","null","html-keyboard-response","97","317473","0.0-25.0-0.0","SS1619114564739","","","null","","","","","","<p><img src= images/blank.png width =""600"" height = ""600"" style=""position:fixed;top:50%; left:50%; transform: translate(-50%, -50%); border:5px solid black"">","","","","","","","",""
"","3126.0000000474975","sequential-stimulus-presentation-old","98","321116","0.0-25.0-1.0","SS1619114564739","trial","","40","500","3626.0000000474975","images/stimuli/spore_stims/simple_17_A_a.gif","images/stimuli/spore_stims/simple_13_A_b.gif","self_paced","","8","simple_dissimilar","images/stimuli/spore_stims/simple_13_A_b.gif","","","","",""
"","null","html-keyboard-response","99","322330","0.0-25.0-0.1","SS1619114564739","","","null","","","","","","<p><img src= images/blank.png width =""600"" height = ""600"" style=""position:fixed;top:50%; left:50%; transform: translate(-50%, -50%); border:5px solid black"">","","","","","","","",""
"","228.00000000279397","sequential-stimulus-presentation-old","100","323079","0.0-25.0-1.1","SS1619114564739","trial","","40","500","728.000000002794","images/stimuli/spore_stims/simple_17_A_a.gif","images/stimuli/spore_stims/simple_13_A_b.gif","self_paced","","8","simple_dissimilar","images/stimuli/spore_stims/simple_13_A_b.gif","","","","",""
"","null","html-keyboard-response","101","324341","0.0-25.0-0.2","SS1619114564739","","","null","","","","","","<p><img src= images/blank.png width =""600"" height = ""600"" style=""position:fixed;top:50%; left:50%; transform: translate(-50%, -50%); border:5px solid black"">","","","","","","","",""
"","36.99999989476055","sequential-stimulus-presentation-old","102","324893","0.0-25.0-1.2","SS1619114564739","trial","","40","500","536.9999998947605","images/stimuli/spore_stims/simple_17_A_a.gif","images/stimuli/spore_stims/simple_13_A_b.gif","self_paced","","8","simple_dissimilar","images/stimuli/spore_stims/simple_17_A_a.gif","","","","",""
"","null","html-keyboard-response","103","325764","0.0-25.0-0.3","SS1619114564739","","","null","","","","","","<p><img src= images/blank.png width =""600"" height = ""600"" style=""position:fixed;top:50%; left:50%; transform: translate(-50%, -50%); border:5px solid black"">","","","","","","","",""
"","194.00000001769513","sequential-stimulus-presentation-old","104","326473","0.0-25.0-1.3","SS1619114564739","trial","","40","500","694.0000000176951","images/stimuli/spore_stims/simple_17_A_a.gif","images/stimuli/spore_stims/simple_13_A_b.gif","self_paced","","8","simple_dissimilar","images/stimuli/spore_stims/simple_17_A_a.gif","","","","",""
"","null","html-keyboard-response","105","327777","0.0-25.0-0.4","SS1619114564739","","","null","","","","","","<p><img src= images/blank.png width =""600"" height = ""600"" style=""position:fixed;top:50%; left:50%; transform: translate(-50%, -50%); border:5px solid black"">","","","","","","","",""
"","15.000000013969839","sequential-stimulus-presentation-old","106","328308","0.0-25.0-1.4","SS1619114564739","trial","","40","500","515.0000000139698","images/stimuli/spore_stims/simple_17_A_a.gif","images/stimuli/spore_stims/simple_13_A_b.gif","self_paced","","8","simple_dissimilar","images/stimuli/spore_stims/simple_13_A_b.gif","","","","",""
"","null","html-keyboard-response","107","329316","0.0-25.0-0.5","SS1619114564739","","","null","","","","","","<p><img src= images/blank.png width =""600"" height = ""600"" style=""position:fixed;top:50%; left:50%; transform: translate(-50%, -50%); border:5px solid black"">","","","","","","","",""
"","104.99999998137355","sequential-stimulus-presentation-old","108","329940","0.0-25.0-1.5","SS1619114564739","trial","","40","500","604.9999999813735","images/stimuli/spore_stims/simple_17_A_a.gif","images/stimuli/spore_stims/simple_13_A_b.gif","self_paced","","8","simple_dissimilar","images/stimuli/spore_stims/simple_13_A_b.gif","","","","",""
"","5731.999999959953","survey-multi-choice","109","335684","0.0-26.0","SS1619114564739","math_question","","","","","","","","","","","","{""Q0"":""11""}","[0]","11","",""
"","null","html-keyboard-response","110","336711","0.0-27.0-0.0","SS1619114564739","","","null","","","","","","<p><img src= images/blank.png width =""600"" height = ""600"" style=""position:fixed;top:50%; left:50%; transform: translate(-50%, -50%); border:5px solid black"">","","","","","","","",""
"","50.99999997764826","sequential-stimulus-presentation-old","111","337281","0.0-27.0-1.0","SS1619114564739","trial","","40","500","550.9999999776483","images/stimuli/spore_stims/complex_20_A_a.gif","images/stimuli/spore_stims/complex_16_A_b.gif","self_paced","","9","complex_dissimilar","images/stimuli/spore_stims/complex_16_A_b.gif","","","","",""
"","null","html-keyboard-response","112","338215","0.0-27.0-0.1","SS1619114564739","","","null","","","","","","<p><img src= images/blank.png width =""600"" height = ""600"" style=""position:fixed;top:50%; left:50%; transform: translate(-50%, -50%); border:5px solid black"">","","","","","","","",""
"","95.00000008847564","sequential-stimulus-presentation-old","113","338819","0.0-27.0-1.1","SS1619114564739","trial","","40","500","595.0000000884756","images/stimuli/spore_stims/complex_20_A_a.gif","images/stimuli/spore_stims/complex_16_A_b.gif","self_paced","","9","complex_dissimilar","images/stimuli/spore_stims/complex_16_A_b.gif","","","","",""
"","null","html-keyboard-response","114","339815","0.0-27.0-0.2","SS1619114564739","","","null","","","","","","<p><img src= images/blank.png width =""600"" height = ""600"" style=""position:fixed;top:50%; left:50%; transform: translate(-50%, -50%); border:5px solid black"">","","","","","","","",""
"","130.0000000046566","sequential-stimulus-presentation-old","115","340452","0.0-27.0-1.2","SS1619114564739","trial","","40","500","630.0000000046566","images/stimuli/spore_stims/complex_20_A_a.gif","images/stimuli/spore_stims/complex_16_A_b.gif","self_paced","","9","complex_dissimilar","images/stimuli/spore_stims/complex_16_A_b.gif","","","","",""
"","null","html-keyboard-response","116","341548","0.0-27.0-0.3","SS1619114564739","","","null","","","","","","<p><img src= images/blank.png width =""600"" height = ""600"" style=""position:fixed;top:50%; left:50%; transform: translate(-50%, -50%); border:5px solid black"">","","","","","","","",""
"","128.00000002607703","sequential-stimulus-presentation-old","117","342188","0.0-27.0-1.3","SS1619114564739","trial","","40","500","628.000000026077","images/stimuli/spore_stims/complex_20_A_a.gif","images/stimuli/spore_stims/complex_16_A_b.gif","self_paced","","9","complex_dissimilar","images/stimuli/spore_stims/complex_16_A_b.gif","","","","",""
"","4407.000000006519","survey-multi-choice","118","346603","0.0-28.0","SS1619114564739","math_question","","","","","","","","","","","","{""Q0"":""16""}","[0]","16","",""
"","null","html-keyboard-response","119","347754","0.0-29.0-0.0","SS1619114564739","","","null","","","","","","<p><img src= images/blank.png width =""600"" height = ""600"" style=""position:fixed;top:50%; left:50%; transform: translate(-50%, -50%); border:5px solid black"">","","","","","","","",""
"","3012.000000104308","sequential-stimulus-presentation-old","120","350883","0.0-29.0-1.0","SS1619114564739","trial","","40","500","3512.000000104308","images/stimuli/spore_stims/simple_20_A_a.gif","images/stimuli/spore_stims/simple_15_A_b.gif","forced_short","","10","simple_dissimilar","images/stimuli/spore_stims/simple_15_A_b.gif","","","","",""
"","null","html-keyboard-response","121","352181","0.0-29.0-0.1","SS1619114564739","","","null","","","","","","<p><img src= images/blank.png width =""600"" height = ""600"" style=""position:fixed;top:50%; left:50%; transform: translate(-50%, -50%); border:5px solid black"">","","","","","","","",""
"","57.00000002980232","sequential-stimulus-presentation-old","122","352749","0.0-29.0-1.1","SS1619114564739","trial","","40","500","557.0000000298023","images/stimuli/spore_stims/simple_20_A_a.gif","images/stimuli/spore_stims/simple_15_A_b.gif","forced_short","","10","simple_dissimilar","images/stimuli/spore_stims/simple_20_A_a.gif","","","","",""
"","null","html-keyboard-response","123","353647","0.0-29.0-0.2","SS1619114564739","","","null","","","","","","<p><img src= images/blank.png width =""600"" height = ""600"" style=""position:fixed;top:50%; left:50%; transform: translate(-50%, -50%); border:5px solid black"">","","","","","","","",""
"","168.00000006332994","sequential-stimulus-presentation-old","124","354329","0.0-29.0-1.2","SS1619114564739","trial","","40","500","668.0000000633299","images/stimuli/spore_stims/simple_20_A_a.gif","images/stimuli/spore_stims/simple_15_A_b.gif","forced_short","","10","simple_dissimilar","images/stimuli/spore_stims/simple_20_A_a.gif","","","","",""
"","null","html-keyboard-response","125","355288","0.0-29.0-0.3","SS1619114564739","","","null","","","","","","<p><img src= images/blank.png width =""600"" height = ""600"" style=""position:fixed;top:50%; left:50%; transform: translate(-50%, -50%); border:5px solid black"">","","","","","","","",""
"","106.000000028871","sequential-stimulus-presentation-old","126","355904","0.0-29.0-1.3","SS1619114564739","trial","","40","500","606.000000028871","images/stimuli/spore_stims/simple_20_A_a.gif","images/stimuli/spore_stims/simple_15_A_b.gif","forced_short","","10","simple_dissimilar","images/stimuli/spore_stims/simple_15_A_b.gif","","","","",""
"","3260.9999999403954","survey-multi-choice","127","359173","0.0-30.0","SS1619114564739","math_question","","","","","","","","","","","","{""Q0"":""9""}","[0]","9","",""
"","null","html-keyboard-response","128","360068","0.0-31.0-0.0","SS1619114564739","","","null","","","","","","<p><img src= images/blank.png width =""600"" height = ""600"" style=""position:fixed;top:50%; left:50%; transform: translate(-50%, -50%); border:5px solid black"">","","","","","","","",""
"","168.99999999441206","sequential-stimulus-presentation-old","129","360931","0.0-31.0-1.0","SS1619114564739","trial","","40","500","668.9999999944121","images/stimuli/spore_stims/complex_05_A_b.gif","images/stimuli/spore_stims/complex_17_A_a.gif","forced_short","","11","complex_dissimilar","images/stimuli/spore_stims/complex_17_A_a.gif","","","","",""
"","null","html-keyboard-response","130","362078","0.0-31.0-0.1","SS1619114564739","","","null","","","","","","<p><img src= images/blank.png width =""600"" height = ""600"" style=""position:fixed;top:50%; left:50%; transform: translate(-50%, -50%); border:5px solid black"">","","","","","","","",""
"","216.00000001490116","sequential-stimulus-presentation-old","131","362808","0.0-31.0-1.1","SS1619114564739","trial","","40","500","716.0000000149012","images/stimuli/spore_stims/complex_05_A_b.gif","images/stimuli/spore_stims/complex_17_A_a.gif","forced_short","","11","complex_dissimilar","images/stimuli/spore_stims/complex_05_A_b.gif","","","","",""
"","null","html-keyboard-response","132","364107","0.0-31.0-0.2","SS1619114564739","","","null","","","","","","<p><img src= images/blank.png width =""600"" height = ""600"" style=""position:fixed;top:50%; left:50%; transform: translate(-50%, -50%); border:5px solid black"">","","","","","","","",""
"","581.0000000055879","sequential-stimulus-presentation-old","133","365260","0.0-31.0-1.2","SS1619114564739","trial","","40","500","1081.000000005588","images/stimuli/spore_stims/complex_05_A_b.gif","images/stimuli/spore_stims/complex_17_A_a.gif","forced_short","","11","complex_dissimilar","images/stimuli/spore_stims/complex_17_A_a.gif","","","","",""
"","null","html-keyboard-response","134","366366","0.0-31.0-0.3","SS1619114564739","","","null","","","","","","<p><img src= images/blank.png width =""600"" height = ""600"" style=""position:fixed;top:50%; left:50%; transform: translate(-50%, -50%); border:5px solid black"">","","","","","","","",""
"","601.0000000242144","sequential-stimulus-presentation-old","135","367665","0.0-31.0-1.3","SS1619114564739","trial","","40","500","1101.0000000242144","images/stimuli/spore_stims/complex_05_A_b.gif","images/stimuli/spore_stims/complex_17_A_a.gif","forced_short","","11","complex_dissimilar","images/stimuli/spore_stims/complex_17_A_a.gif","","","","",""
"","null","html-keyboard-response","136","368838","0.0-31.0-0.4","SS1619114564739","","","null","","","","","","<p><img src= images/blank.png width =""600"" height = ""600"" style=""position:fixed;top:50%; left:50%; transform: translate(-50%, -50%); border:5px solid black"">","","","","","","","",""
"","435.9999999869615","sequential-stimulus-presentation-old","137","369787","0.0-31.0-1.4","SS1619114564739","trial","","40","500","935.9999999869615","images/stimuli/spore_stims/complex_05_A_b.gif","images/stimuli/spore_stims/complex_17_A_a.gif","forced_short","","11","complex_dissimilar","images/stimuli/spore_stims/complex_05_A_b.gif","","","","",""
"[{""page_index"":0,""viewing_time"":1890.0000000139698}]","1891.9999999925494","instructions","138","371685","0.0-32.0","SS1619114564739","instructions","","","","","","","","","","","","","","","",""
"","3627.000000094995","survey-likert","139","375330","0.0-33.0","SS1619114564739","similarity_question","","","","","","","","","","","","{""Q0"":5}","[0]","","images/stimuli/spore_stims/complex_16_A_b.gif","images/stimuli/spore_stims/complex_20_A_a.gif"
"","3084.000000031665","survey-likert","140","378425","0.0-34.0","SS1619114564739","similarity_question","","","","","","","","","","","","{""Q0"":6}","[0]","","images/stimuli/spore_stims/complex_05_A_b.gif","images/stimuli/spore_stims/complex_17_A_a.gif"
"","3834.999999962747","survey-likert","141","382275","0.0-35.0","SS1619114564739","similarity_question","","","","","","","","","","","","{""Q0"":5}","[0]","","images/stimuli/spore_stims/simple_15_A_b.gif","images/stimuli/spore_stims/simple_20_A_a.gif"
"","4972.999999998137","survey-likert","142","387260","0.0-36.0","SS1619114564739","similarity_question","","","","","","","","","","","","{""Q0"":5}","[0]","","images/stimuli/spore_stims/simple_12_A_a.gif","images/stimuli/spore_stims/simple_20_A_b.gif"
"","2043.999999994412","survey-likert","143","389325","0.0-37.0","SS1619114564739","similarity_question","","","","","","","","","","","","{""Q0"":4}","[0]","","images/stimuli/spore_stims/simple_04_A_a.gif","images/stimuli/spore_stims/simple_08_A_b.gif"
"","2636.0000000568107","survey-likert","144","391972","0.0-38.0","SS1619114564739","similarity_question","","","","","","","","","","","","{""Q0"":5}","[0]","","images/stimuli/spore_stims/complex_09_A_a.gif","images/stimuli/spore_stims/complex_15_A_b.gif"
"","2000","survey-likert","145","394001","0.0-39.0","SS1619114564739","similarity_question","","","","","","","","","","","","{""Q0"":4}","[0]","","images/stimuli/spore_stims/simple_13_A_b.gif","images/stimuli/spore_stims/simple_17_A_a.gif"
"","2363.000000012107","survey-likert","146","396372","0.0-40.0","SS1619114564739","similarity_question","","","","","","","","","","","","{""Q0"":4}","[0]","","images/stimuli/spore_stims/complex_10_A_b.gif","images/stimuli/spore_stims/complex_05_A_a.gif"
"","2251.9999999785796","survey-likert","147","398636","0.0-41.0","SS1619114564739","similarity_question","","","","","","","","","","","","{""Q0"":5}","[0]","","images/stimuli/spore_stims/simple_10_A_b.gif","images/stimuli/spore_stims/simple_18_A_a.gif"
"","2697.9999999748543","survey-likert","148","401373","0.0-42.0","SS1619114564739","similarity_question","","","","","","","","","","","","{""Q0"":6}","[0]","","images/stimuli/spore_stims/complex_14_A_a.gif","images/stimuli/spore_stims/complex_13_A_b.gif"
"","5354.000000050291","survey-likert","149","406754","0.0-43.0","SS1619114564739","similarity_question","","","","","","","","","","","","{""Q0"":4}","[0]","","images/stimuli/spore_stims/simple_15_A_a.gif","images/stimuli/spore_stims/simple_04_A_b.gif"
"","3039.9999999208376","survey-likert","150","409816","0.0-44.0","SS1619114564739","similarity_question","","","","","","","","","","","","{""Q0"":5}","[0]","","images/stimuli/spore_stims/complex_07_A_a.gif","images/stimuli/spore_stims/complex_20_A_b.gif"
"[{""page_index"":0,""viewing_time"":1658.0000000540167}]","1658.9999999850988","instructions","151","411493","0.0-45.0","SS1619114564739","instructions","","","","","","","","","","","","","","","",""
"","2378.000000026077","survey-likert","152","413883","0.0-46.0","SS1619114564739","","","","","","","","","images/stimuli/spore_stims/simple_10_A_b.gif","","","","{""Q0"":4}","[0]","","",""
"","5141.000000061467","survey-likert","153","419043","0.0-47.0","SS1619114564739","","","","","","","","","images/stimuli/spore_stims/complex_05_A_a.gif","","","","{""Q0"":4}","[0]","","",""
"","1636.9999999878928","survey-likert","154","420701","0.0-48.0","SS1619114564739","","","","","","","","","images/stimuli/spore_stims/simple_08_A_b.gif","","","","{""Q0"":5}","[0]","","",""
"","1692.9999999701977","survey-likert","155","422446","0.0-49.0","SS1619114564739","","","","","","","","","images/stimuli/spore_stims/complex_05_A_b.gif","","","","{""Q0"":5}","[0]","","",""
"","1292.0000000158325","survey-likert","156","423765","0.0-50.0","SS1619114564739","","","","","","","","","images/stimuli/spore_stims/complex_14_A_a.gif","","","","{""Q0"":5}","[0]","","",""
"","3538.0000000586733","survey-likert","157","427320","0.0-51.0","SS1619114564739","","","","","","","","","images/stimuli/spore_stims/simple_12_A_a.gif","","","","{""Q0"":5}","[0]","","",""
"","3391.9999999925494","survey-likert","158","430725","0.0-52.0","SS1619114564739","","","","","","","","","images/stimuli/spore_stims/simple_15_A_a.gif","","","","{""Q0"":3}","[0]","","",""
"","3432.9999999608845","survey-likert","159","434174","0.0-53.0","SS1619114564739","","","","","","","","","images/stimuli/spore_stims/complex_07_A_a.gif","","","","{""Q0"":4}","[0]","","",""
"","8826.000000000931","survey-likert","160","443011","0.0-54.0","SS1619114564739","","","","","","","","","images/stimuli/spore_stims/simple_17_A_a.gif","","","","{""Q0"":5}","[0]","","",""
"","1682.9999999608845","survey-likert","161","444709","0.0-55.0","SS1619114564739","","","","","","","","","images/stimuli/spore_stims/complex_20_A_a.gif","","","","{""Q0"":4}","[0]","","",""
"","2920.0000000419095","survey-likert","162","447641","0.0-56.0","SS1619114564739","","","","","","","","","images/stimuli/spore_stims/simple_20_A_a.gif","","","","{""Q0"":5}","[0]","","",""
"","2327.000000048429","survey-likert","163","449995","0.0-57.0","SS1619114564739","","","","","","","","","images/stimuli/spore_stims/complex_15_A_b.gif","","","","{""Q0"":4}","[0]","","",""
"[{""page_index"":0,""viewing_time"":3758.999999961816}]","3760.000000009313","instructions","164","453979","0.0-58.0","SS1619114564739","instructions","","","","","","","","","","","","","","","",""
"","4532.000000006519","demog-age","165","458527","0.0-59.0","SS1619114564739","","","","","","","","","","","","","{""age"":""35""}","","","",""
"","3179.0000000037253","demog-ethnic-US","166","461733","0.0-60.0","SS1619114564739","","","","","","","","","","","","","{""ethnicity"":[""Hispanic or Latino"",""White""]}","[0]","","",""
"","5711.000000010245","demog-gender-and-education","167","467471","0.0-61.0","SS1619114564739","","","","","","","","","","","","","{""gender"":""Female"",""education"":""Bachelor's Degree""}","[0,1]","","",""
"","6236.99999996461","survey-text","168","473733","0.0-62.0","SS1619114564739","feedback","","","","","","","","","","","","{""Q0"":""GOOD""}","","","",""
"[{""page_index"":0,""viewing_time"":1111.0000000335276}]","1113.0000000121072","instructions","169","474861","0.0-63.0","SS1619114564739","instructions","","","","","","","","","","","","","","","",""
