"view_history","rt","trial_type","trial_index","time_elapsed","internal_node_id","subject","stimulus_type","trial_stimulus","key_press","minimum_viewing_duration","trial_looking_time","block_deviant","block_background","exposure_type","stimulus","block_number","block_type","stimulus_displayed","responses","question_order","math_correct_answer"
"[{""page_index"":0,""viewing_time"":11734.315000001516}]","11736.355000000913","instructions","0","11740","0.0-0.0","SS1619116170976","","","","","","","","","","","","","","",""
"[{""page_index"":0,""viewing_time"":4984.824999999546},{""page_index"":1,""viewing_time"":11647.534999996424}]","16633.00999999774","instructions","1","30377","0.0-1.0","SS1619116170976","instructions","","","","","","","","","","","","","",""
"","19761.72999999835","sequential-stimulus-presentation-old","2","50648","0.0-2.0","SS1619116170976","","","40","500","20261.72999999835","null","null","self_paced","","","","","","",""
"","3141.864999997779","sequential-stimulus-presentation-old","3","54293","0.0-3.0","SS1619116170976","","","40","500","3641.864999997779","null","null","self_paced","","","","","","",""
"[{""page_index"":0,""viewing_time"":3209.384999994654}]","3210.334999996121","instructions","4","57506","0.0-4.0","SS1619116170976","instructions","","","","","","","","","","","","","",""
"","2102.1400000026915","sequential-stimulus-presentation-old","5","69614","0.0-5.0","SS1619116170976","","","40","500","2602.1400000026915","null","null","forced_long","","","","","","",""
"","2804.8500000004424","sequential-stimulus-presentation-old","6","72525","0.0-6.0","SS1619116170976","","","40","500","3304.8500000004424","null","null","forced_long","","","","","","",""
"[{""page_index"":0,""viewing_time"":2585.0900000004913}]","2585.494999999355","instructions","7","75113","0.0-7.0","SS1619116170976","instructions","","","","","","","","","","","","","",""
"[{""page_index"":0,""viewing_time"":2469.1299999976764},{""page_index"":1,""viewing_time"":1983.9300000021467},{""page_index"":2,""viewing_time"":1640.110000000277},{""page_index"":3,""viewing_time"":1776.0550000020885},{""page_index"":4,""viewing_time"":1783.9549999989686}]","9653.639999996813","instructions","8","84769","0.0-8.0","SS1619116170976","instructions","","","","","","","","","","","","","",""
"","null","html-keyboard-response","9","85896","0.0-9.0-0.0","SS1619116170976","","","null","","","","","","<p><img src= images/blank.png width =""600"" height = ""600"" style=""position:fixed;top:50%; left:50%; transform: translate(-50%, -50%); border:5px solid black"">","","","","","",""
"","3371.755000000121","sequential-stimulus-presentation-old","10","89780","0.0-9.0-1.0","SS1619116170976","trial","","40","500","3871.755000000121","images/stimuli/spore_stims/simple_18_A_a.gif","images/stimuli/spore_stims/simple_02_A_b.gif","self_paced","","0","simple_dissimilar","images/stimuli/spore_stims/simple_02_A_b.gif","","",""
"","null","html-keyboard-response","11","90619","0.0-9.0-0.1","SS1619116170976","","","null","","","","","","<p><img src= images/blank.png width =""600"" height = ""600"" style=""position:fixed;top:50%; left:50%; transform: translate(-50%, -50%); border:5px solid black"">","","","","","",""
"","297.34499999904074","sequential-stimulus-presentation-old","12","91421","0.0-9.0-1.1","SS1619116170976","trial","","40","500","797.3449999990407","images/stimuli/spore_stims/simple_18_A_a.gif","images/stimuli/spore_stims/simple_02_A_b.gif","self_paced","","0","simple_dissimilar","images/stimuli/spore_stims/simple_02_A_b.gif","","",""
"","null","html-keyboard-response","13","92352","0.0-9.0-0.2","SS1619116170976","","","null","","","","","","<p><img src= images/blank.png width =""600"" height = ""600"" style=""position:fixed;top:50%; left:50%; transform: translate(-50%, -50%); border:5px solid black"">","","","","","",""
"","115.27499999647262","sequential-stimulus-presentation-old","14","92972","0.0-9.0-1.2","SS1619116170976","trial","","40","500","615.2749999964726","images/stimuli/spore_stims/simple_18_A_a.gif","images/stimuli/spore_stims/simple_02_A_b.gif","self_paced","","0","simple_dissimilar","images/stimuli/spore_stims/simple_02_A_b.gif","","",""
"","null","html-keyboard-response","15","94045","0.0-9.0-0.3","SS1619116170976","","","null","","","","","","<p><img src= images/blank.png width =""600"" height = ""600"" style=""position:fixed;top:50%; left:50%; transform: translate(-50%, -50%); border:5px solid black"">","","","","","",""
"","2517.035000004398","sequential-stimulus-presentation-old","16","97069","0.0-9.0-1.3","SS1619116170976","trial","","40","500","3017.035000004398","images/stimuli/spore_stims/simple_18_A_a.gif","images/stimuli/spore_stims/simple_02_A_b.gif","self_paced","","0","simple_dissimilar","images/stimuli/spore_stims/simple_02_A_b.gif","","",""
"","null","html-keyboard-response","17","98004","0.0-9.0-0.4","SS1619116170976","","","null","","","","","","<p><img src= images/blank.png width =""600"" height = ""600"" style=""position:fixed;top:50%; left:50%; transform: translate(-50%, -50%); border:5px solid black"">","","","","","",""
"","68.82500000210712","sequential-stimulus-presentation-old","18","98580","0.0-9.0-1.4","SS1619116170976","trial","","40","500","568.8250000021071","images/stimuli/spore_stims/simple_18_A_a.gif","images/stimuli/spore_stims/simple_02_A_b.gif","self_paced","","0","simple_dissimilar","images/stimuli/spore_stims/simple_02_A_b.gif","","",""
"","null","html-keyboard-response","19","99503","0.0-9.0-0.5","SS1619116170976","","","null","","","","","","<p><img src= images/blank.png width =""600"" height = ""600"" style=""position:fixed;top:50%; left:50%; transform: translate(-50%, -50%); border:5px solid black"">","","","","","",""
"","74.96000000537606","sequential-stimulus-presentation-old","20","100084","0.0-9.0-1.5","SS1619116170976","trial","","40","500","574.9600000053761","images/stimuli/spore_stims/simple_18_A_a.gif","images/stimuli/spore_stims/simple_02_A_b.gif","self_paced","","0","simple_dissimilar","images/stimuli/spore_stims/simple_18_A_a.gif","","",""
"","9968.825000003562","survey-multi-choice","21","110059","0.0-10.0","SS1619116170976","math_question","","","","","","","","","","","","{""Q0"":""13""}","[0]","13"
"","null","html-keyboard-response","22","111245","0.0-11.0-0.0","SS1619116170976","","","null","","","","","","<p><img src= images/blank.png width =""600"" height = ""600"" style=""position:fixed;top:50%; left:50%; transform: translate(-50%, -50%); border:5px solid black"">","","","","","",""
"","988.7799999996787","sequential-stimulus-presentation-old","23","112341","0.0-11.0-1.0","SS1619116170976","trial","","40","500","1488.7799999996787","images/stimuli/spore_stims/complex_20_A_a.gif","images/stimuli/spore_stims/complex_02_A_b.gif","forced_short","","1","complex_dissimilar","images/stimuli/spore_stims/complex_02_A_b.gif","","",""
"","null","html-keyboard-response","24","113165","0.0-11.0-0.1","SS1619116170976","","","null","","","","","","<p><img src= images/blank.png width =""600"" height = ""600"" style=""position:fixed;top:50%; left:50%; transform: translate(-50%, -50%); border:5px solid black"">","","","","","",""
"","19.865000002027955","sequential-stimulus-presentation-old","25","113693","0.0-11.0-1.1","SS1619116170976","trial","","40","500","519.865000002028","images/stimuli/spore_stims/complex_20_A_a.gif","images/stimuli/spore_stims/complex_02_A_b.gif","forced_short","","1","complex_dissimilar","images/stimuli/spore_stims/complex_02_A_b.gif","","",""
"","null","html-keyboard-response","26","114910","0.0-11.0-0.2","SS1619116170976","","","null","","","","","","<p><img src= images/blank.png width =""600"" height = ""600"" style=""position:fixed;top:50%; left:50%; transform: translate(-50%, -50%); border:5px solid black"">","","","","","",""
"","1347.2049999982119","sequential-stimulus-presentation-old","27","116764","0.0-11.0-1.2","SS1619116170976","trial","","40","500","1847.2049999982119","images/stimuli/spore_stims/complex_20_A_a.gif","images/stimuli/spore_stims/complex_02_A_b.gif","forced_short","","1","complex_dissimilar","images/stimuli/spore_stims/complex_02_A_b.gif","","",""
"","null","html-keyboard-response","28","117843","0.0-11.0-0.3","SS1619116170976","","","null","","","","","","<p><img src= images/blank.png width =""600"" height = ""600"" style=""position:fixed;top:50%; left:50%; transform: translate(-50%, -50%); border:5px solid black"">","","","","","",""
"","150.68499999324558","sequential-stimulus-presentation-old","29","118501","0.0-11.0-1.3","SS1619116170976","trial","","40","500","650.6849999932456","images/stimuli/spore_stims/complex_20_A_a.gif","images/stimuli/spore_stims/complex_02_A_b.gif","forced_short","","1","complex_dissimilar","images/stimuli/spore_stims/complex_02_A_b.gif","","",""
"","null","html-keyboard-response","30","119802","0.0-11.0-0.4","SS1619116170976","","","null","","","","","","<p><img src= images/blank.png width =""600"" height = ""600"" style=""position:fixed;top:50%; left:50%; transform: translate(-50%, -50%); border:5px solid black"">","","","","","",""
"","952.4249999958556","sequential-stimulus-presentation-old","31","121260","0.0-11.0-1.4","SS1619116170976","trial","","40","500","1452.4249999958556","images/stimuli/spore_stims/complex_20_A_a.gif","images/stimuli/spore_stims/complex_02_A_b.gif","forced_short","","1","complex_dissimilar","images/stimuli/spore_stims/complex_02_A_b.gif","","",""
"","null","html-keyboard-response","32","122154","0.0-11.0-0.5","SS1619116170976","","","null","","","","","","<p><img src= images/blank.png width =""600"" height = ""600"" style=""position:fixed;top:50%; left:50%; transform: translate(-50%, -50%); border:5px solid black"">","","","","","",""
"","31.304999996791594","sequential-stimulus-presentation-old","33","122692","0.0-11.0-1.5","SS1619116170976","trial","","40","500","531.3049999967916","images/stimuli/spore_stims/complex_20_A_a.gif","images/stimuli/spore_stims/complex_02_A_b.gif","forced_short","","1","complex_dissimilar","images/stimuli/spore_stims/complex_20_A_a.gif","","",""
"","3745.454999996582","survey-multi-choice","34","126441","0.0-12.0","SS1619116170976","math_question","","","","","","","","","","","","{""Q0"":""8""}","[0]","8"
"","null","html-keyboard-response","35","127428","0.0-13.0-0.0","SS1619116170976","","","null","","","","","","<p><img src= images/blank.png width =""600"" height = ""600"" style=""position:fixed;top:50%; left:50%; transform: translate(-50%, -50%); border:5px solid black"">","","","","","",""
"","398.21999999549007","sequential-stimulus-presentation-old","36","128332","0.0-13.0-1.0","SS1619116170976","trial","","40","500","898.2199999954901","images/stimuli/spore_stims/complex_10_A_b.gif","images/stimuli/spore_stims/complex_16_A_a.gif","self_paced","","2","complex_dissimilar","images/stimuli/spore_stims/complex_16_A_a.gif","","",""
"","null","html-keyboard-response","37","129449","0.0-13.0-0.1","SS1619116170976","","","null","","","","","","<p><img src= images/blank.png width =""600"" height = ""600"" style=""position:fixed;top:50%; left:50%; transform: translate(-50%, -50%); border:5px solid black"">","","","","","",""
"","152.7249999999185","sequential-stimulus-presentation-old","38","130108","0.0-13.0-1.1","SS1619116170976","trial","","40","500","652.7249999999185","images/stimuli/spore_stims/complex_10_A_b.gif","images/stimuli/spore_stims/complex_16_A_a.gif","self_paced","","2","complex_dissimilar","images/stimuli/spore_stims/complex_16_A_a.gif","","",""
"","null","html-keyboard-response","39","131329","0.0-13.0-0.2","SS1619116170976","","","null","","","","","","<p><img src= images/blank.png width =""600"" height = ""600"" style=""position:fixed;top:50%; left:50%; transform: translate(-50%, -50%); border:5px solid black"">","","","","","",""
"","9.480000000621658","sequential-stimulus-presentation-old","40","131845","0.0-13.0-1.2","SS1619116170976","trial","","40","500","509.48000000062166","images/stimuli/spore_stims/complex_10_A_b.gif","images/stimuli/spore_stims/complex_16_A_a.gif","self_paced","","2","complex_dissimilar","images/stimuli/spore_stims/complex_16_A_a.gif","","",""
"","null","html-keyboard-response","41","133130","0.0-13.0-0.3","SS1619116170976","","","null","","","","","","<p><img src= images/blank.png width =""600"" height = ""600"" style=""position:fixed;top:50%; left:50%; transform: translate(-50%, -50%); border:5px solid black"">","","","","","",""
"","1687.5900000013644","sequential-stimulus-presentation-old","42","135324","0.0-13.0-1.3","SS1619116170976","trial","","40","500","2187.5900000013644","images/stimuli/spore_stims/complex_10_A_b.gif","images/stimuli/spore_stims/complex_16_A_a.gif","self_paced","","2","complex_dissimilar","images/stimuli/spore_stims/complex_16_A_a.gif","","",""
"","null","html-keyboard-response","43","136443","0.0-13.0-0.4","SS1619116170976","","","null","","","","","","<p><img src= images/blank.png width =""600"" height = ""600"" style=""position:fixed;top:50%; left:50%; transform: translate(-50%, -50%); border:5px solid black"">","","","","","",""
"","411.45500000129687","sequential-stimulus-presentation-old","44","137364","0.0-13.0-1.4","SS1619116170976","trial","","40","500","911.4550000012969","images/stimuli/spore_stims/complex_10_A_b.gif","images/stimuli/spore_stims/complex_16_A_a.gif","self_paced","","2","complex_dissimilar","images/stimuli/spore_stims/complex_16_A_a.gif","","",""
"","null","html-keyboard-response","45","138251","0.0-13.0-0.5","SS1619116170976","","","null","","","","","","<p><img src= images/blank.png width =""600"" height = ""600"" style=""position:fixed;top:50%; left:50%; transform: translate(-50%, -50%); border:5px solid black"">","","","","","",""
"","78.54000000224914","sequential-stimulus-presentation-old","46","138836","0.0-13.0-1.5","SS1619116170976","trial","","40","500","578.5400000022491","images/stimuli/spore_stims/complex_10_A_b.gif","images/stimuli/spore_stims/complex_16_A_a.gif","self_paced","","2","complex_dissimilar","images/stimuli/spore_stims/complex_16_A_a.gif","","",""
"","3952.0750000010594","survey-multi-choice","47","142793","0.0-14.0","SS1619116170976","math_question","","","","","","","","","","","","{""Q0"":""14""}","[0]","14"
"","null","html-keyboard-response","48","143779","0.0-15.0-0.0","SS1619116170976","","","null","","","","","","<p><img src= images/blank.png width =""600"" height = ""600"" style=""position:fixed;top:50%; left:50%; transform: translate(-50%, -50%); border:5px solid black"">","","","","","",""
"","1085.079999997106","sequential-stimulus-presentation-old","49","145372","0.0-15.0-1.0","SS1619116170976","trial","","40","500","1585.079999997106","images/stimuli/spore_stims/simple_09_A_a.gif","images/stimuli/spore_stims/simple_06_A_b.gif","self_paced","","3","simple_dissimilar","images/stimuli/spore_stims/simple_06_A_b.gif","","",""
"","null","html-keyboard-response","50","146430","0.0-15.0-0.1","SS1619116170976","","","null","","","","","","<p><img src= images/blank.png width =""600"" height = ""600"" style=""position:fixed;top:50%; left:50%; transform: translate(-50%, -50%); border:5px solid black"">","","","","","",""
"","495.83500000153435","sequential-stimulus-presentation-old","51","147436","0.0-15.0-1.1","SS1619116170976","trial","","40","500","995.8350000015344","images/stimuli/spore_stims/simple_09_A_a.gif","images/stimuli/spore_stims/simple_06_A_b.gif","self_paced","","3","simple_dissimilar","images/stimuli/spore_stims/simple_06_A_b.gif","","",""
"","null","html-keyboard-response","52","148415","0.0-15.0-0.2","SS1619116170976","","","null","","","","","","<p><img src= images/blank.png width =""600"" height = ""600"" style=""position:fixed;top:50%; left:50%; transform: translate(-50%, -50%); border:5px solid black"">","","","","","",""
"","435.66999999893596","sequential-stimulus-presentation-old","53","149356","0.0-15.0-1.2","SS1619116170976","trial","","40","500","935.669999998936","images/stimuli/spore_stims/simple_09_A_a.gif","images/stimuli/spore_stims/simple_06_A_b.gif","self_paced","","3","simple_dissimilar","images/stimuli/spore_stims/simple_06_A_b.gif","","",""
"","null","html-keyboard-response","54","150432","0.0-15.0-0.3","SS1619116170976","","","null","","","","","","<p><img src= images/blank.png width =""600"" height = ""600"" style=""position:fixed;top:50%; left:50%; transform: translate(-50%, -50%); border:5px solid black"">","","","","","",""
"","89.54000000085216","sequential-stimulus-presentation-old","55","151028","0.0-15.0-1.3","SS1619116170976","trial","","40","500","589.5400000008522","images/stimuli/spore_stims/simple_09_A_a.gif","images/stimuli/spore_stims/simple_06_A_b.gif","self_paced","","3","simple_dissimilar","images/stimuli/spore_stims/simple_06_A_b.gif","","",""
"","6711.734999997134","survey-multi-choice","56","157744","0.0-16.0","SS1619116170976","math_question","","","","","","","","","","","","{""Q0"":""13""}","[0]","13"
"","null","html-keyboard-response","57","158853","0.0-17.0-0.0","SS1619116170976","","","null","","","","","","<p><img src= images/blank.png width =""600"" height = ""600"" style=""position:fixed;top:50%; left:50%; transform: translate(-50%, -50%); border:5px solid black"">","","","","","",""
"","4749.2050000000745","sequential-stimulus-presentation-old","58","173612","0.0-17.0-1.0","SS1619116170976","trial","","40","500","5249.2050000000745","images/stimuli/spore_stims/complex_15_A_a.gif","images/stimuli/spore_stims/complex_20_A_b.gif","forced_long","","4","complex_dissimilar","images/stimuli/spore_stims/complex_20_A_b.gif","","",""
"","null","html-keyboard-response","59","174427","0.0-17.0-0.1","SS1619116170976","","","null","","","","","","<p><img src= images/blank.png width =""600"" height = ""600"" style=""position:fixed;top:50%; left:50%; transform: translate(-50%, -50%); border:5px solid black"">","","","","","",""
"","156.94499999517575","sequential-stimulus-presentation-old","60","175092","0.0-17.0-1.1","SS1619116170976","trial","","40","500","656.9449999951757","images/stimuli/spore_stims/complex_15_A_a.gif","images/stimuli/spore_stims/complex_20_A_b.gif","forced_long","","4","complex_dissimilar","images/stimuli/spore_stims/complex_15_A_a.gif","","",""
"","null","html-keyboard-response","61","176218","0.0-17.0-0.2","SS1619116170976","","","null","","","","","","<p><img src= images/blank.png width =""600"" height = ""600"" style=""position:fixed;top:50%; left:50%; transform: translate(-50%, -50%); border:5px solid black"">","","","","","",""
"","1768.434999998135","sequential-stimulus-presentation-old","62","178492","0.0-17.0-1.2","SS1619116170976","trial","","40","500","2268.434999998135","images/stimuli/spore_stims/complex_15_A_a.gif","images/stimuli/spore_stims/complex_20_A_b.gif","forced_long","","4","complex_dissimilar","images/stimuli/spore_stims/complex_20_A_b.gif","","",""
"","null","html-keyboard-response","63","179398","0.0-17.0-0.3","SS1619116170976","","","null","","","","","","<p><img src= images/blank.png width =""600"" height = ""600"" style=""position:fixed;top:50%; left:50%; transform: translate(-50%, -50%); border:5px solid black"">","","","","","",""
"","211.62500000355067","sequential-stimulus-presentation-old","64","180116","0.0-17.0-1.3","SS1619116170976","trial","","40","500","711.6250000035507","images/stimuli/spore_stims/complex_15_A_a.gif","images/stimuli/spore_stims/complex_20_A_b.gif","forced_long","","4","complex_dissimilar","images/stimuli/spore_stims/complex_20_A_b.gif","","",""
"","3608.139999996638","survey-multi-choice","65","183729","0.0-18.0","SS1619116170976","math_question","","","","","","","","","","","","{""Q0"":""5""}","[0]","5"
"","null","html-keyboard-response","66","184880","0.0-19.0-0.0","SS1619116170976","","","null","","","","","","<p><img src= images/blank.png width =""600"" height = ""600"" style=""position:fixed;top:50%; left:50%; transform: translate(-50%, -50%); border:5px solid black"">","","","","","",""
"","5883.485000005749","sequential-stimulus-presentation-old","67","200771","0.0-19.0-1.0","SS1619116170976","trial","","40","500","6383.485000005749","images/stimuli/spore_stims/simple_07_A_a.gif","images/stimuli/spore_stims/simple_04_A_b.gif","forced_long","","5","simple_dissimilar","images/stimuli/spore_stims/simple_04_A_b.gif","","",""
"","null","html-keyboard-response","68","201714","0.0-19.0-0.1","SS1619116170976","","","null","","","","","","<p><img src= images/blank.png width =""600"" height = ""600"" style=""position:fixed;top:50%; left:50%; transform: translate(-50%, -50%); border:5px solid black"">","","","","","",""
"","157.2599999999511","sequential-stimulus-presentation-old","69","202379","0.0-19.0-1.1","SS1619116170976","trial","","40","500","657.2599999999511","images/stimuli/spore_stims/simple_07_A_a.gif","images/stimuli/spore_stims/simple_04_A_b.gif","forced_long","","5","simple_dissimilar","images/stimuli/spore_stims/simple_04_A_b.gif","","",""
"","null","html-keyboard-response","70","203407","0.0-19.0-0.2","SS1619116170976","","","null","","","","","","<p><img src= images/blank.png width =""600"" height = ""600"" style=""position:fixed;top:50%; left:50%; transform: translate(-50%, -50%); border:5px solid black"">","","","","","",""
"","74.784999997064","sequential-stimulus-presentation-old","71","203988","0.0-19.0-1.2","SS1619116170976","trial","","40","500","574.784999997064","images/stimuli/spore_stims/simple_07_A_a.gif","images/stimuli/spore_stims/simple_04_A_b.gif","forced_long","","5","simple_dissimilar","images/stimuli/spore_stims/simple_04_A_b.gif","","",""
"","null","html-keyboard-response","72","205219","0.0-19.0-0.3","SS1619116170976","","","null","","","","","","<p><img src= images/blank.png width =""600"" height = ""600"" style=""position:fixed;top:50%; left:50%; transform: translate(-50%, -50%); border:5px solid black"">","","","","","",""
"","93.99499999562977","sequential-stimulus-presentation-old","73","205819","0.0-19.0-1.3","SS1619116170976","trial","","40","500","593.9949999956298","images/stimuli/spore_stims/simple_07_A_a.gif","images/stimuli/spore_stims/simple_04_A_b.gif","forced_long","","5","simple_dissimilar","images/stimuli/spore_stims/simple_04_A_b.gif","","",""
"","null","html-keyboard-response","74","206834","0.0-19.0-0.4","SS1619116170976","","","null","","","","","","<p><img src= images/blank.png width =""600"" height = ""600"" style=""position:fixed;top:50%; left:50%; transform: translate(-50%, -50%); border:5px solid black"">","","","","","",""
"","46.905000002880115","sequential-stimulus-presentation-old","75","207387","0.0-19.0-1.4","SS1619116170976","trial","","40","500","546.9050000028801","images/stimuli/spore_stims/simple_07_A_a.gif","images/stimuli/spore_stims/simple_04_A_b.gif","forced_long","","5","simple_dissimilar","images/stimuli/spore_stims/simple_04_A_b.gif","","",""
"","4271.984999999404","survey-multi-choice","76","211664","0.0-20.0","SS1619116170976","math_question","","","","","","","","","","","","{""Q0"":""14""}","[0]","14"
"","null","html-keyboard-response","77","212768","0.0-21.0-0.0","SS1619116170976","","","null","","","","","","<p><img src= images/blank.png width =""600"" height = ""600"" style=""position:fixed;top:50%; left:50%; transform: translate(-50%, -50%); border:5px solid black"">","","","","","",""
