"view_history","rt","trial_type","trial_index","time_elapsed","internal_node_id","subject","stimulus_type","trial_stimulus","key_press","minimum_viewing_duration","trial_looking_time","block_deviant","block_background","exposure_type","stimulus","block_number","block_type","stimulus_displayed","responses","question_order","math_correct_answer","stimulus_left","stimulus_right"
"[{""page_index"":0,""viewing_time"":1346.7250000103377}]","1346.8900000152644","instructions","0","1348","0.0-0.0","SS1619114018200","","","","","","","","","","","","","","","","",""
"[{""page_index"":0,""viewing_time"":1063.3099999977276},{""page_index"":1,""viewing_time"":1472.024999995483}]","2535.444999986794","instructions","1","5899","0.0-1.0","SS1619114018200","instructions","","","","","","","","","","","","","","","",""
"","1403.4349999856204","sequential-stimulus-presentation-old","2","7820","0.0-2.0","SS1619114018200","","","40","500","1903.4349999856204","null","null","self_paced","","","","","","","","",""
"","125.78999999095686","sequential-stimulus-presentation-old","3","8459","0.0-3.0","SS1619114018200","","","40","500","625.7899999909569","null","null","self_paced","","","","","","","","",""
"[{""page_index"":0,""viewing_time"":879.4199999829289}]","879.5449999743141","instructions","4","9339","0.0-4.0","SS1619114018200","instructions","","","","","","","","","","","","","","","",""
"","406.0049999970943","sequential-stimulus-presentation-old","5","19747","0.0-5.0","SS1619114018200","","","40","500","906.0049999970943","null","null","forced_long","","","","","","","","",""
"","90.04999999888241","sequential-stimulus-presentation-old","6","19939","0.0-6.0","SS1619114018200","","","40","500","590.0499999988824","null","null","forced_long","","","","","","","","",""
"[{""page_index"":0,""viewing_time"":2927.495000010822}]","2927.6649999956135","instructions","7","22867","0.0-7.0","SS1619114018200","instructions","","","","","","","","","","","","","","","",""
"[{""page_index"":0,""viewing_time"":542.9149999981746},{""page_index"":1,""viewing_time"":4423.899999994319},{""page_index"":2,""viewing_time"":1240.1150000223424},{""page_index"":3,""viewing_time"":1071.8849999830127},{""page_index"":4,""viewing_time"":624.0399999951478}]","7903.03000001586","instructions","8","30771","0.0-8.0","SS1619114018200","instructions","","","","","","","","","","","","","","","",""
"","null","html-keyboard-response","9","31636","0.0-9.0-0.0","SS1619114018200","","","null","","","","","","<p><img src= images/blank.png width =""600"" height = ""600"" style=""position:fixed;top:50%; left:50%; transform: translate(-50%, -50%); border:5px solid black"">","","","","","","","",""
"","2745.2899999916553","sequential-stimulus-presentation-old","10","34483","0.0-9.0-1.0","SS1619114018200","trial","","40","500","3245.2899999916553","images/stimuli/spore_stims/complex_20_A_a.gif","images/stimuli/spore_stims/complex_04_A_b.gif","forced_short","","0","complex_dissimilar","images/stimuli/spore_stims/complex_04_A_b.gif","","","","",""
"","null","html-keyboard-response","11","35350","0.0-9.0-0.1","SS1619114018200","","","null","","","","","","<p><img src= images/blank.png width =""600"" height = ""600"" style=""position:fixed;top:50%; left:50%; transform: translate(-50%, -50%); border:5px solid black"">","","","","","","","",""
"","3157.7500000130385","sequential-stimulus-presentation-old","12","39011","0.0-9.0-1.1","SS1619114018200","trial","","40","500","3657.7500000130385","images/stimuli/spore_stims/complex_20_A_a.gif","images/stimuli/spore_stims/complex_04_A_b.gif","forced_short","","0","complex_dissimilar","images/stimuli/spore_stims/complex_04_A_b.gif","","","","",""
"","null","html-keyboard-response","13","39839","0.0-9.0-0.2","SS1619114018200","","","null","","","","","","<p><img src= images/blank.png width =""600"" height = ""600"" style=""position:fixed;top:50%; left:50%; transform: translate(-50%, -50%); border:5px solid black"">","","","","","","","",""
"","1869.734999985667","sequential-stimulus-presentation-old","14","42211","0.0-9.0-1.2","SS1619114018200","trial","","40","500","2369.734999985667","images/stimuli/spore_stims/complex_20_A_a.gif","images/stimuli/spore_stims/complex_04_A_b.gif","forced_short","","0","complex_dissimilar","images/stimuli/spore_stims/complex_20_A_a.gif","","","","",""
"","null","html-keyboard-response","15","43197","0.0-9.0-0.3","SS1619114018200","","","null","","","","","","<p><img src= images/blank.png width =""600"" height = ""600"" style=""position:fixed;top:50%; left:50%; transform: translate(-50%, -50%); border:5px solid black"">","","","","","","","",""
"","1511.9399999966845","sequential-stimulus-presentation-old","16","45211","0.0-9.0-1.3","SS1619114018200","trial","","40","500","2011.9399999966845","images/stimuli/spore_stims/complex_20_A_a.gif","images/stimuli/spore_stims/complex_04_A_b.gif","forced_short","","0","complex_dissimilar","images/stimuli/spore_stims/complex_04_A_b.gif","","","","",""
"","null","html-keyboard-response","17","46467","0.0-9.0-0.4","SS1619114018200","","","null","","","","","","<p><img src= images/blank.png width =""600"" height = ""600"" style=""position:fixed;top:50%; left:50%; transform: translate(-50%, -50%); border:5px solid black"">","","","","","","","",""
"","2992.400000017369","sequential-stimulus-presentation-old","18","49963","0.0-9.0-1.4","SS1619114018200","trial","","40","500","3492.400000017369","images/stimuli/spore_stims/complex_20_A_a.gif","images/stimuli/spore_stims/complex_04_A_b.gif","forced_short","","0","complex_dissimilar","images/stimuli/spore_stims/complex_04_A_b.gif","","","","",""
"","3126.779999991413","survey-multi-choice","19","53091","0.0-10.0","SS1619114018200","math_question","","","","","","","","","","","","{""Q0"":""10""}","[0]","10","",""
"","null","html-keyboard-response","20","54308","0.0-11.0-0.0","SS1619114018200","","","null","","","","","","<p><img src= images/blank.png width =""600"" height = ""600"" style=""position:fixed;top:50%; left:50%; transform: translate(-50%, -50%); border:5px solid black"">","","","","","","","",""
"","155.3800000110641","sequential-stimulus-presentation-old","21","64467","0.0-11.0-1.0","SS1619114018200","trial","","40","500","655.3800000110641","images/stimuli/spore_stims/complex_05_A_a.gif","images/stimuli/spore_stims/complex_02_A_b.gif","forced_long","","1","complex_dissimilar","images/stimuli/spore_stims/complex_02_A_b.gif","","","","",""
"","null","html-keyboard-response","22","65666","0.0-11.0-0.1","SS1619114018200","","","null","","","","","","<p><img src= images/blank.png width =""600"" height = ""600"" style=""position:fixed;top:50%; left:50%; transform: translate(-50%, -50%); border:5px solid black"">","","","","","","","",""
"","218.16000001854263","sequential-stimulus-presentation-old","23","66387","0.0-11.0-1.1","SS1619114018200","trial","","40","500","718.1600000185426","images/stimuli/spore_stims/complex_05_A_a.gif","images/stimuli/spore_stims/complex_02_A_b.gif","forced_long","","1","complex_dissimilar","images/stimuli/spore_stims/complex_02_A_b.gif","","","","",""
"","null","html-keyboard-response","24","67624","0.0-11.0-0.2","SS1619114018200","","","null","","","","","","<p><img src= images/blank.png width =""600"" height = ""600"" style=""position:fixed;top:50%; left:50%; transform: translate(-50%, -50%); border:5px solid black"">","","","","","","","",""
"","564.2700000025798","sequential-stimulus-presentation-old","25","68691","0.0-11.0-1.2","SS1619114018200","trial","","40","500","1064.2700000025798","images/stimuli/spore_stims/complex_05_A_a.gif","images/stimuli/spore_stims/complex_02_A_b.gif","forced_long","","1","complex_dissimilar","images/stimuli/spore_stims/complex_02_A_b.gif","","","","",""
"","null","html-keyboard-response","26","69667","0.0-11.0-0.3","SS1619114018200","","","null","","","","","","<p><img src= images/blank.png width =""600"" height = ""600"" style=""position:fixed;top:50%; left:50%; transform: translate(-50%, -50%); border:5px solid black"">","","","","","","","",""
"","153.48000000813045","sequential-stimulus-presentation-old","27","70323","0.0-11.0-1.3","SS1619114018200","trial","","40","500","653.4800000081304","images/stimuli/spore_stims/complex_05_A_a.gif","images/stimuli/spore_stims/complex_02_A_b.gif","forced_long","","1","complex_dissimilar","images/stimuli/spore_stims/complex_02_A_b.gif","","","","",""
"","null","html-keyboard-response","28","71199","0.0-11.0-0.4","SS1619114018200","","","null","","","","","","<p><img src= images/blank.png width =""600"" height = ""600"" style=""position:fixed;top:50%; left:50%; transform: translate(-50%, -50%); border:5px solid black"">","","","","","","","",""
"","236.24999998719431","sequential-stimulus-presentation-old","29","71939","0.0-11.0-1.4","SS1619114018200","trial","","40","500","736.2499999871943","images/stimuli/spore_stims/complex_05_A_a.gif","images/stimuli/spore_stims/complex_02_A_b.gif","forced_long","","1","complex_dissimilar","images/stimuli/spore_stims/complex_02_A_b.gif","","","","",""
"","null","html-keyboard-response","30","72760","0.0-11.0-0.5","SS1619114018200","","","null","","","","","","<p><img src= images/blank.png width =""600"" height = ""600"" style=""position:fixed;top:50%; left:50%; transform: translate(-50%, -50%); border:5px solid black"">","","","","","","","",""
"","60.584999999264255","sequential-stimulus-presentation-old","31","73324","0.0-11.0-1.5","SS1619114018200","trial","","40","500","560.5849999992643","images/stimuli/spore_stims/complex_05_A_a.gif","images/stimuli/spore_stims/complex_02_A_b.gif","forced_long","","1","complex_dissimilar","images/stimuli/spore_stims/complex_05_A_a.gif","","","","",""
"","4678.300000028685","survey-multi-choice","32","78003","0.0-12.0","SS1619114018200","math_question","","","","","","","","","","","","{""Q0"":""8""}","[0]","8","",""
"","null","html-keyboard-response","33","78908","0.0-13.0-0.0","SS1619114018200","","","null","","","","","","<p><img src= images/blank.png width =""600"" height = ""600"" style=""position:fixed;top:50%; left:50%; transform: translate(-50%, -50%); border:5px solid black"">","","","","","","","",""
"","44.77000000770204","sequential-stimulus-presentation-old","34","88955","0.0-13.0-1.0","SS1619114018200","trial","","40","500","544.770000007702","images/stimuli/spore_stims/complex_06_A_a.gif","images/stimuli/spore_stims/complex_13_A_b.gif","forced_long","","2","complex_dissimilar","images/stimuli/spore_stims/complex_13_A_b.gif","","","","",""
"","null","html-keyboard-response","35","90197","0.0-13.0-0.1","SS1619114018200","","","null","","","","","","<p><img src= images/blank.png width =""600"" height = ""600"" style=""position:fixed;top:50%; left:50%; transform: translate(-50%, -50%); border:5px solid black"">","","","","","","","",""
"","118.27000000630505","sequential-stimulus-presentation-old","36","90819","0.0-13.0-1.1","SS1619114018200","trial","","40","500","618.270000006305","images/stimuli/spore_stims/complex_06_A_a.gif","images/stimuli/spore_stims/complex_13_A_b.gif","forced_long","","2","complex_dissimilar","images/stimuli/spore_stims/complex_13_A_b.gif","","","","",""
"","null","html-keyboard-response","37","92106","0.0-13.0-0.2","SS1619114018200","","","null","","","","","","<p><img src= images/blank.png width =""600"" height = ""600"" style=""position:fixed;top:50%; left:50%; transform: translate(-50%, -50%); border:5px solid black"">","","","","","","","",""
"","71.97999997879378","sequential-stimulus-presentation-old","38","92691","0.0-13.0-1.2","SS1619114018200","trial","","40","500","571.9799999787938","images/stimuli/spore_stims/complex_06_A_a.gif","images/stimuli/spore_stims/complex_13_A_b.gif","forced_long","","2","complex_dissimilar","images/stimuli/spore_stims/complex_13_A_b.gif","","","","",""
"","null","html-keyboard-response","39","93873","0.0-13.0-0.3","SS1619114018200","","","null","","","","","","<p><img src= images/blank.png width =""600"" height = ""600"" style=""position:fixed;top:50%; left:50%; transform: translate(-50%, -50%); border:5px solid black"">","","","","","","","",""
"","283.3550000214018","sequential-stimulus-presentation-old","40","94659","0.0-13.0-1.3","SS1619114018200","trial","","40","500","783.3550000214018","images/stimuli/spore_stims/complex_06_A_a.gif","images/stimuli/spore_stims/complex_13_A_b.gif","forced_long","","2","complex_dissimilar","images/stimuli/spore_stims/complex_13_A_b.gif","","","","",""
"","null","html-keyboard-response","41","95603","0.0-13.0-0.4","SS1619114018200","","","null","","","","","","<p><img src= images/blank.png width =""600"" height = ""600"" style=""position:fixed;top:50%; left:50%; transform: translate(-50%, -50%); border:5px solid black"">","","","","","","","",""
"","65.38499999442138","sequential-stimulus-presentation-old","42","96171","0.0-13.0-1.4","SS1619114018200","trial","","40","500","565.3849999944214","images/stimuli/spore_stims/complex_06_A_a.gif","images/stimuli/spore_stims/complex_13_A_b.gif","forced_long","","2","complex_dissimilar","images/stimuli/spore_stims/complex_06_A_a.gif","","","","",""
"","null","html-keyboard-response","43","97365","0.0-13.0-0.5","SS1619114018200","","","null","","","","","","<p><img src= images/blank.png width =""600"" height = ""600"" style=""position:fixed;top:50%; left:50%; transform: translate(-50%, -50%); border:5px solid black"">","","","","","","","",""
"","6.054999976186082","sequential-stimulus-presentation-old","44","97875","0.0-13.0-1.5","SS1619114018200","trial","","40","500","506.0549999761861","images/stimuli/spore_stims/complex_06_A_a.gif","images/stimuli/spore_stims/complex_13_A_b.gif","forced_long","","2","complex_dissimilar","images/stimuli/spore_stims/complex_06_A_a.gif","","","","",""
"","10927.040000009583","survey-multi-choice","45","108802","0.0-14.0","SS1619114018200","math_question","","","","","","","","","","","","{""Q0"":""8""}","[0]","8","",""
"","null","html-keyboard-response","46","109907","0.0-15.0-0.0","SS1619114018200","","","null","","","","","","<p><img src= images/blank.png width =""600"" height = ""600"" style=""position:fixed;top:50%; left:50%; transform: translate(-50%, -50%); border:5px solid black"">","","","","","","","",""
"","198.30499999807216","sequential-stimulus-presentation-old","47","110610","0.0-15.0-1.0","SS1619114018200","trial","","40","500","698.3049999980722","images/stimuli/spore_stims/complex_01_A_b.gif","images/stimuli/spore_stims/complex_07_A_a.gif","self_paced","","3","complex_dissimilar","images/stimuli/spore_stims/complex_07_A_a.gif","","","","",""
"","null","html-keyboard-response","48","111598","0.0-15.0-0.1","SS1619114018200","","","null","","","","","","<p><img src= images/blank.png width =""600"" height = ""600"" style=""position:fixed;top:50%; left:50%; transform: translate(-50%, -50%); border:5px solid black"">","","","","","","","",""
"","284.03999999864027","sequential-stimulus-presentation-old","49","112386","0.0-15.0-1.1","SS1619114018200","trial","","40","500","784.0399999986403","images/stimuli/spore_stims/complex_01_A_b.gif","images/stimuli/spore_stims/complex_07_A_a.gif","self_paced","","3","complex_dissimilar","images/stimuli/spore_stims/complex_07_A_a.gif","","","","",""
"","null","html-keyboard-response","50","113330","0.0-15.0-0.2","SS1619114018200","","","null","","","","","","<p><img src= images/blank.png width =""600"" height = ""600"" style=""position:fixed;top:50%; left:50%; transform: translate(-50%, -50%); border:5px solid black"">","","","","","","","",""
"","64.00499999290332","sequential-stimulus-presentation-old","51","113898","0.0-15.0-1.2","SS1619114018200","trial","","40","500","564.0049999929033","images/stimuli/spore_stims/complex_01_A_b.gif","images/stimuli/spore_stims/complex_07_A_a.gif","self_paced","","3","complex_dissimilar","images/stimuli/spore_stims/complex_07_A_a.gif","","","","",""
"","null","html-keyboard-response","52","115104","0.0-15.0-0.3","SS1619114018200","","","null","","","","","","<p><img src= images/blank.png width =""600"" height = ""600"" style=""position:fixed;top:50%; left:50%; transform: translate(-50%, -50%); border:5px solid black"">","","","","","","","",""
"","355.4749999893829","sequential-stimulus-presentation-old","53","115962","0.0-15.0-1.3","SS1619114018200","trial","","40","500","855.4749999893829","images/stimuli/spore_stims/complex_01_A_b.gif","images/stimuli/spore_stims/complex_07_A_a.gif","self_paced","","3","complex_dissimilar","images/stimuli/spore_stims/complex_07_A_a.gif","","","","",""
"","null","html-keyboard-response","54","116901","0.0-15.0-0.4","SS1619114018200","","","null","","","","","","<p><img src= images/blank.png width =""600"" height = ""600"" style=""position:fixed;top:50%; left:50%; transform: translate(-50%, -50%); border:5px solid black"">","","","","","","","",""
"","244.78499998804182","sequential-stimulus-presentation-old","55","117650","0.0-15.0-1.4","SS1619114018200","trial","","40","500","744.7849999880418","images/stimuli/spore_stims/complex_01_A_b.gif","images/stimuli/spore_stims/complex_07_A_a.gif","self_paced","","3","complex_dissimilar","images/stimuli/spore_stims/complex_07_A_a.gif","","","","",""
"","null","html-keyboard-response","56","118732","0.0-15.0-0.5","SS1619114018200","","","null","","","","","","<p><img src= images/blank.png width =""600"" height = ""600"" style=""position:fixed;top:50%; left:50%; transform: translate(-50%, -50%); border:5px solid black"">","","","","","","","",""
"","86.04500000365078","sequential-stimulus-presentation-old","57","119322","0.0-15.0-1.5","SS1619114018200","trial","","40","500","586.0450000036508","images/stimuli/spore_stims/complex_01_A_b.gif","images/stimuli/spore_stims/complex_07_A_a.gif","self_paced","","3","complex_dissimilar","images/stimuli/spore_stims/complex_07_A_a.gif","","","","",""
"","10526.925000012852","survey-multi-choice","58","129850","0.0-16.0","SS1619114018200","math_question","","","","","","","","","","","","{""Q0"":""10""}","[0]","10","",""
"","null","html-keyboard-response","59","131059","0.0-17.0-0.0","SS1619114018200","","","null","","","","","","<p><img src= images/blank.png width =""600"" height = ""600"" style=""position:fixed;top:50%; left:50%; transform: translate(-50%, -50%); border:5px solid black"">","","","","","","","",""
"","56.47999999928288","sequential-stimulus-presentation-old","60","131218","0.0-17.0-1.0","SS1619114018200","trial","","40","500","556.4799999992829","images/stimuli/spore_stims/simple_02_A_b.gif","images/stimuli/spore_stims/simple_12_A_a.gif","forced_short","","4","simple_dissimilar","images/stimuli/spore_stims/simple_12_A_a.gif","","","","",""
"","null","html-keyboard-response","61","132420","0.0-17.0-0.1","SS1619114018200","","","null","","","","","","<p><img src= images/blank.png width =""600"" height = ""600"" style=""position:fixed;top:50%; left:50%; transform: translate(-50%, -50%); border:5px solid black"">","","","","","","","",""
"","206.2349999905564","sequential-stimulus-presentation-old","62","133130","0.0-17.0-1.1","SS1619114018200","trial","","40","500","706.2349999905564","images/stimuli/spore_stims/simple_02_A_b.gif","images/stimuli/spore_stims/simple_12_A_a.gif","forced_short","","4","simple_dissimilar","images/stimuli/spore_stims/simple_12_A_a.gif","","","","",""
"","null","html-keyboard-response","63","134356","0.0-17.0-0.2","SS1619114018200","","","null","","","","","","<p><img src= images/blank.png width =""600"" height = ""600"" style=""position:fixed;top:50%; left:50%; transform: translate(-50%, -50%); border:5px solid black"">","","","","","","","",""
"","294.46000000461936","sequential-stimulus-presentation-old","64","135154","0.0-17.0-1.2","SS1619114018200","trial","","40","500","794.4600000046194","images/stimuli/spore_stims/simple_02_A_b.gif","images/stimuli/spore_stims/simple_12_A_a.gif","forced_short","","4","simple_dissimilar","images/stimuli/spore_stims/simple_12_A_a.gif","","","","",""
"","null","html-keyboard-response","65","136076","0.0-17.0-0.3","SS1619114018200","","","null","","","","","","<p><img src= images/blank.png width =""600"" height = ""600"" style=""position:fixed;top:50%; left:50%; transform: translate(-50%, -50%); border:5px solid black"">","","","","","","","",""
"","189.80500000179745","sequential-stimulus-presentation-old","66","136770","0.0-17.0-1.3","SS1619114018200","trial","","40","500","689.8050000017975","images/stimuli/spore_stims/simple_02_A_b.gif","images/stimuli/spore_stims/simple_12_A_a.gif","forced_short","","4","simple_dissimilar","images/stimuli/spore_stims/simple_12_A_a.gif","","","","",""
"","null","html-keyboard-response","67","137714","0.0-17.0-0.4","SS1619114018200","","","null","","","","","","<p><img src= images/blank.png width =""600"" height = ""600"" style=""position:fixed;top:50%; left:50%; transform: translate(-50%, -50%); border:5px solid black"">","","","","","","","",""
"","8.105000015348196","sequential-stimulus-presentation-old","68","138226","0.0-17.0-1.4","SS1619114018200","trial","","40","500","508.1050000153482","images/stimuli/spore_stims/simple_02_A_b.gif","images/stimuli/spore_stims/simple_12_A_a.gif","forced_short","","4","simple_dissimilar","images/stimuli/spore_stims/simple_12_A_a.gif","","","","",""
"","9542.765000020154","survey-multi-choice","69","147770","0.0-18.0","SS1619114018200","math_question","","","","","","","","","","","","{""Q0"":""16""}","[0]","16","",""
"","null","html-keyboard-response","70","148622","0.0-19.0-0.0","SS1619114018200","","","null","","","","","","<p><img src= images/blank.png width =""600"" height = ""600"" style=""position:fixed;top:50%; left:50%; transform: translate(-50%, -50%); border:5px solid black"">","","","","","","","",""
"","188.21500000194646","sequential-stimulus-presentation-old","71","149314","0.0-19.0-1.0","SS1619114018200","trial","","40","500","688.2150000019465","images/stimuli/spore_stims/simple_18_A_a.gif","images/stimuli/spore_stims/simple_09_A_b.gif","self_paced","","5","simple_dissimilar","images/stimuli/spore_stims/simple_09_A_b.gif","","","","",""
"","null","html-keyboard-response","72","150338","0.0-19.0-0.1","SS1619114018200","","","null","","","","","","<p><img src= images/blank.png width =""600"" height = ""600"" style=""position:fixed;top:50%; left:50%; transform: translate(-50%, -50%); border:5px solid black"">","","","","","","","",""
"","0.9399999980814755","sequential-stimulus-presentation-old","73","150842","0.0-19.0-1.1","SS1619114018200","trial","","40","500","500.9399999980815","images/stimuli/spore_stims/simple_18_A_a.gif","images/stimuli/spore_stims/simple_09_A_b.gif","self_paced","","5","simple_dissimilar","images/stimuli/spore_stims/simple_09_A_b.gif","","","","",""
"","null","html-keyboard-response","74","151764","0.0-19.0-0.2","SS1619114018200","","","null","","","","","","<p><img src= images/blank.png width =""600"" height = ""600"" style=""position:fixed;top:50%; left:50%; transform: translate(-50%, -50%); border:5px solid black"">","","","","","","","",""
"","39.009999978588894","sequential-stimulus-presentation-old","75","152306","0.0-19.0-1.2","SS1619114018200","trial","","40","500","539.0099999785889","images/stimuli/spore_stims/simple_18_A_a.gif","images/stimuli/spore_stims/simple_09_A_b.gif","self_paced","","5","simple_dissimilar","images/stimuli/spore_stims/simple_18_A_a.gif","","","","",""
"","null","html-keyboard-response","76","153600","0.0-19.0-0.3","SS1619114018200","","","null","","","","","","<p><img src= images/blank.png width =""600"" height = ""600"" style=""position:fixed;top:50%; left:50%; transform: translate(-50%, -50%); border:5px solid black"">","","","","","","","",""
"","210.39999998174608","sequential-stimulus-presentation-old","77","154314","0.0-19.0-1.3","SS1619114018200","trial","","40","500","710.3999999817461","images/stimuli/spore_stims/simple_18_A_a.gif","images/stimuli/spore_stims/simple_09_A_b.gif","self_paced","","5","simple_dissimilar","images/stimuli/spore_stims/simple_18_A_a.gif","","","","",""
"","null","html-keyboard-response","78","155577","0.0-19.0-0.4","SS1619114018200","","","null","","","","","","<p><img src= images/blank.png width =""600"" height = ""600"" style=""position:fixed;top:50%; left:50%; transform: translate(-50%, -50%); border:5px solid black"">","","","","","","","",""
"","2841.439999989234","sequential-stimulus-presentation-old","79","158922","0.0-19.0-1.4","SS1619114018200","trial","","40","500","3341.439999989234","images/stimuli/spore_stims/simple_18_A_a.gif","images/stimuli/spore_stims/simple_09_A_b.gif","self_paced","","5","simple_dissimilar","images/stimuli/spore_stims/simple_09_A_b.gif","","","","",""
"","3941.9399999896996","survey-multi-choice","80","162866","0.0-20.0","SS1619114018200","math_question","","","","","","","","","","","","{""Q0"":""13""}","[0]","13","",""
"","null","html-keyboard-response","81","163690","0.0-21.0-0.0","SS1619114018200","","","null","","","","","","<p><img src= images/blank.png width =""600"" height = ""600"" style=""position:fixed;top:50%; left:50%; transform: translate(-50%, -50%); border:5px solid black"">","","","","","","","",""
"","647.8150000039022","sequential-stimulus-presentation-old","82","164842","0.0-21.0-1.0","SS1619114018200","trial","","40","500","1147.8150000039022","images/stimuli/spore_stims/complex_09_A_a.gif","images/stimuli/spore_stims/complex_08_A_b.gif","self_paced","","6","complex_dissimilar","images/stimuli/spore_stims/complex_08_A_b.gif","","","","",""
"","null","html-keyboard-response","83","165689","0.0-21.0-0.1","SS1619114018200","","","null","","","","","","<p><img src= images/blank.png width =""600"" height = ""600"" style=""position:fixed;top:50%; left:50%; transform: translate(-50%, -50%); border:5px solid black"">","","","","","","","",""
"","2633.67000001017","sequential-stimulus-presentation-old","84","168826","0.0-21.0-1.1","SS1619114018200","trial","","40","500","3133.67000001017","images/stimuli/spore_stims/complex_09_A_a.gif","images/stimuli/spore_stims/complex_08_A_b.gif","self_paced","","6","complex_dissimilar","images/stimuli/spore_stims/complex_08_A_b.gif","","","","",""
"","null","html-keyboard-response","85","169861","0.0-21.0-0.2","SS1619114018200","","","null","","","","","","<p><img src= images/blank.png width =""600"" height = ""600"" style=""position:fixed;top:50%; left:50%; transform: translate(-50%, -50%); border:5px solid black"">","","","","","","","",""
"","1645.2949999948032","sequential-stimulus-presentation-old","86","172010","0.0-21.0-1.2","SS1619114018200","trial","","40","500","2145.294999994803","images/stimuli/spore_stims/complex_09_A_a.gif","images/stimuli/spore_stims/complex_08_A_b.gif","self_paced","","6","complex_dissimilar","images/stimuli/spore_stims/complex_08_A_b.gif","","","","",""
"","null","html-keyboard-response","87","173096","0.0-21.0-0.3","SS1619114018200","","","null","","","","","","<p><img src= images/blank.png width =""600"" height = ""600"" style=""position:fixed;top:50%; left:50%; transform: translate(-50%, -50%); border:5px solid black"">","","","","","","","",""
"","107.29000001447275","sequential-stimulus-presentation-old","88","173706","0.0-21.0-1.3","SS1619114018200","trial","","40","500","607.2900000144728","images/stimuli/spore_stims/complex_09_A_a.gif","images/stimuli/spore_stims/complex_08_A_b.gif","self_paced","","6","complex_dissimilar","images/stimuli/spore_stims/complex_08_A_b.gif","","","","",""
"","null","html-keyboard-response","89","174586","0.0-21.0-0.4","SS1619114018200","","","null","","","","","","<p><img src= images/blank.png width =""600"" height = ""600"" style=""position:fixed;top:50%; left:50%; transform: translate(-50%, -50%); border:5px solid black"">","","","","","","","",""
"","216.99499999522232","sequential-stimulus-presentation-old","90","175306","0.0-21.0-1.4","SS1619114018200","trial","","40","500","716.9949999952223","images/stimuli/spore_stims/complex_09_A_a.gif","images/stimuli/spore_stims/complex_08_A_b.gif","self_paced","","6","complex_dissimilar","images/stimuli/spore_stims/complex_08_A_b.gif","","","","",""
"","4038.994999980787","survey-multi-choice","91","179346","0.0-22.0","SS1619114018200","math_question","","","","","","","","","","","","{""Q0"":""9""}","[0]","9","",""
"","null","html-keyboard-response","92","180376","0.0-23.0-0.0","SS1619114018200","","","null","","","","","","<p><img src= images/blank.png width =""600"" height = ""600"" style=""position:fixed;top:50%; left:50%; transform: translate(-50%, -50%); border:5px solid black"">","","","","","","","",""
"","866.3400000077672","sequential-stimulus-presentation-old","93","181746","0.0-23.0-1.0","SS1619114018200","trial","","40","500","1366.3400000077672","images/stimuli/spore_stims/simple_05_A_b.gif","images/stimuli/spore_stims/simple_01_A_a.gif","self_paced","","7","simple_dissimilar","images/stimuli/spore_stims/simple_01_A_a.gif","","","","",""
"","null","html-keyboard-response","94","183001","0.0-23.0-0.1","SS1619114018200","","","null","","","","","","<p><img src= images/blank.png width =""600"" height = ""600"" style=""position:fixed;top:50%; left:50%; transform: translate(-50%, -50%); border:5px solid black"">","","","","","","","",""
"","2330.2350000012666","sequential-stimulus-presentation-old","95","185834","0.0-23.0-1.1","SS1619114018200","trial","","40","500","2830.2350000012666","images/stimuli/spore_stims/simple_05_A_b.gif","images/stimuli/spore_stims/simple_01_A_a.gif","self_paced","","7","simple_dissimilar","images/stimuli/spore_stims/simple_05_A_b.gif","","","","",""
"","null","html-keyboard-response","96","187074","0.0-23.0-0.2","SS1619114018200","","","null","","","","","","<p><img src= images/blank.png width =""600"" height = ""600"" style=""position:fixed;top:50%; left:50%; transform: translate(-50%, -50%); border:5px solid black"">","","","","","","","",""
"","94.77500000502914","sequential-stimulus-presentation-old","97","187674","0.0-23.0-1.2","SS1619114018200","trial","","40","500","594.7750000050291","images/stimuli/spore_stims/simple_05_A_b.gif","images/stimuli/spore_stims/simple_01_A_a.gif","self_paced","","7","simple_dissimilar","images/stimuli/spore_stims/simple_01_A_a.gif","","","","",""
"","null","html-keyboard-response","98","188606","0.0-23.0-0.3","SS1619114018200","","","null","","","","","","<p><img src= images/blank.png width =""600"" height = ""600"" style=""position:fixed;top:50%; left:50%; transform: translate(-50%, -50%); border:5px solid black"">","","","","","","","",""
"","28.744999988703057","sequential-stimulus-presentation-old","99","189138","0.0-23.0-1.3","SS1619114018200","trial","","40","500","528.7449999887031","images/stimuli/spore_stims/simple_05_A_b.gif","images/stimuli/spore_stims/simple_01_A_a.gif","self_paced","","7","simple_dissimilar","images/stimuli/spore_stims/simple_01_A_a.gif","","","","",""
"","null","html-keyboard-response","100","190116","0.0-23.0-0.4","SS1619114018200","","","null","","","","","","<p><img src= images/blank.png width =""600"" height = ""600"" style=""position:fixed;top:50%; left:50%; transform: translate(-50%, -50%); border:5px solid black"">","","","","","","","",""
"","22.10999999078922","sequential-stimulus-presentation-old","101","190642","0.0-23.0-1.4","SS1619114018200","trial","","40","500","522.1099999907892","images/stimuli/spore_stims/simple_05_A_b.gif","images/stimuli/spore_stims/simple_01_A_a.gif","self_paced","","7","simple_dissimilar","images/stimuli/spore_stims/simple_01_A_a.gif","","","","",""
"","1838.675000006333","survey-multi-choice","102","192482","0.0-24.0","SS1619114018200","math_question","","","","","","","","","","","","{""Q0"":""9""}","[0]","9","",""
"","null","html-keyboard-response","103","193364","0.0-25.0-0.0","SS1619114018200","","","null","","","","","","<p><img src= images/blank.png width =""600"" height = ""600"" style=""position:fixed;top:50%; left:50%; transform: translate(-50%, -50%); border:5px solid black"">","","","","","","","",""
"","158.5099999792874","sequential-stimulus-presentation-old","104","193626","0.0-25.0-1.0","SS1619114018200","trial","","40","500","658.5099999792874","images/stimuli/spore_stims/simple_19_A_b.gif","images/stimuli/spore_stims/simple_10_A_a.gif","forced_short","","8","simple_dissimilar","images/stimuli/spore_stims/simple_10_A_a.gif","","","","",""
"","null","html-keyboard-response","105","194481","0.0-25.0-0.1","SS1619114018200","","","null","","","","","","<p><img src= images/blank.png width =""600"" height = ""600"" style=""position:fixed;top:50%; left:50%; transform: translate(-50%, -50%); border:5px solid black"">","","","","","","","",""
"","168.9749999786727","sequential-stimulus-presentation-old","106","195154","0.0-25.0-1.1","SS1619114018200","trial","","40","500","668.9749999786727","images/stimuli/spore_stims/simple_19_A_b.gif","images/stimuli/spore_stims/simple_10_A_a.gif","forced_short","","8","simple_dissimilar","images/stimuli/spore_stims/simple_10_A_a.gif","","","","",""
"","null","html-keyboard-response","107","196126","0.0-25.0-0.2","SS1619114018200","","","null","","","","","","<p><img src= images/blank.png width =""600"" height = ""600"" style=""position:fixed;top:50%; left:50%; transform: translate(-50%, -50%); border:5px solid black"">","","","","","","","",""
"","68.0300000240095","sequential-stimulus-presentation-old","108","196699","0.0-25.0-1.2","SS1619114018200","trial","","40","500","568.0300000240095","images/stimuli/spore_stims/simple_19_A_b.gif","images/stimuli/spore_stims/simple_10_A_a.gif","forced_short","","8","simple_dissimilar","images/stimuli/spore_stims/simple_10_A_a.gif","","","","",""
"","null","html-keyboard-response","109","197577","0.0-25.0-0.3","SS1619114018200","","","null","","","","","","<p><img src= images/blank.png width =""600"" height = ""600"" style=""position:fixed;top:50%; left:50%; transform: translate(-50%, -50%); border:5px solid black"">","","","","","","","",""
"","199.4099999719765","sequential-stimulus-presentation-old","110","198282","0.0-25.0-1.3","SS1619114018200","trial","","40","500","699.4099999719765","images/stimuli/spore_stims/simple_19_A_b.gif","images/stimuli/spore_stims/simple_10_A_a.gif","forced_short","","8","simple_dissimilar","images/stimuli/spore_stims/simple_19_A_b.gif","","","","",""
"","2182.440000004135","survey-multi-choice","111","200466","0.0-26.0","SS1619114018200","math_question","","","","","","","","","","","","{""Q0"":""8""}","[0]","8","",""
"","null","html-keyboard-response","112","201691","0.0-27.0-0.0","SS1619114018200","","","null","","","","","","<p><img src= images/blank.png width =""600"" height = ""600"" style=""position:fixed;top:50%; left:50%; transform: translate(-50%, -50%); border:5px solid black"">","","","","","","","",""
"","159.43999998853542","sequential-stimulus-presentation-old","113","201954","0.0-27.0-1.0","SS1619114018200","trial","","40","500","659.4399999885354","images/stimuli/spore_stims/complex_10_A_a.gif","images/stimuli/spore_stims/complex_19_A_b.gif","forced_short","","9","complex_dissimilar","images/stimuli/spore_stims/complex_19_A_b.gif","","","","",""
"","null","html-keyboard-response","114","202819","0.0-27.0-0.1","SS1619114018200","","","null","","","","","","<p><img src= images/blank.png width =""600"" height = ""600"" style=""position:fixed;top:50%; left:50%; transform: translate(-50%, -50%); border:5px solid black"">","","","","","","","",""
"","191.1850000033155","sequential-stimulus-presentation-old","115","203514","0.0-27.0-1.1","SS1619114018200","trial","","40","500","691.1850000033155","images/stimuli/spore_stims/complex_10_A_a.gif","images/stimuli/spore_stims/complex_19_A_b.gif","forced_short","","9","complex_dissimilar","images/stimuli/spore_stims/complex_10_A_a.gif","","","","",""
"","null","html-keyboard-response","116","204381","0.0-27.0-0.2","SS1619114018200","","","null","","","","","","<p><img src= images/blank.png width =""600"" height = ""600"" style=""position:fixed;top:50%; left:50%; transform: translate(-50%, -50%); border:5px solid black"">","","","","","","","",""
"","28.75500000664033","sequential-stimulus-presentation-old","117","204914","0.0-27.0-1.2","SS1619114018200","trial","","40","500","528.7550000066403","images/stimuli/spore_stims/complex_10_A_a.gif","images/stimuli/spore_stims/complex_19_A_b.gif","forced_short","","9","complex_dissimilar","images/stimuli/spore_stims/complex_19_A_b.gif","","","","",""
"","null","html-keyboard-response","118","205724","0.0-27.0-0.3","SS1619114018200","","","null","","","","","","<p><img src= images/blank.png width =""600"" height = ""600"" style=""position:fixed;top:50%; left:50%; transform: translate(-50%, -50%); border:5px solid black"">","","","","","","","",""
"","103.68000000016764","sequential-stimulus-presentation-old","119","206330","0.0-27.0-1.3","SS1619114018200","trial","","40","500","603.6800000001676","images/stimuli/spore_stims/complex_10_A_a.gif","images/stimuli/spore_stims/complex_19_A_b.gif","forced_short","","9","complex_dissimilar","images/stimuli/spore_stims/complex_10_A_a.gif","","","","",""
"","2686.10500000068","survey-multi-choice","120","209018","0.0-28.0","SS1619114018200","math_question","","","","","","","","","","","","{""Q0"":""9""}","[0]","9","",""
"","null","html-keyboard-response","121","210144","0.0-29.0-0.0","SS1619114018200","","","null","","","","","","<p><img src= images/blank.png width =""600"" height = ""600"" style=""position:fixed;top:50%; left:50%; transform: translate(-50%, -50%); border:5px solid black"">","","","","","","","",""
"","157.9349999956321","sequential-stimulus-presentation-old","122","220306","0.0-29.0-1.0","SS1619114018200","trial","","40","500","657.9349999956321","images/stimuli/spore_stims/simple_17_A_b.gif","images/stimuli/spore_stims/simple_08_A_a.gif","forced_long","","10","simple_dissimilar","images/stimuli/spore_stims/simple_08_A_a.gif","","","","",""
"","null","html-keyboard-response","123","221538","0.0-29.0-0.1","SS1619114018200","","","null","","","","","","<p><img src= images/blank.png width =""600"" height = ""600"" style=""position:fixed;top:50%; left:50%; transform: translate(-50%, -50%); border:5px solid black"">","","","","","","","",""
"","144.70999999321066","sequential-stimulus-presentation-old","124","222186","0.0-29.0-1.1","SS1619114018200","trial","","40","500","644.7099999932107","images/stimuli/spore_stims/simple_17_A_b.gif","images/stimuli/spore_stims/simple_08_A_a.gif","forced_long","","10","simple_dissimilar","images/stimuli/spore_stims/simple_08_A_a.gif","","","","",""
"","null","html-keyboard-response","125","223087","0.0-29.0-0.2","SS1619114018200","","","null","","","","","","<p><img src= images/blank.png width =""600"" height = ""600"" style=""position:fixed;top:50%; left:50%; transform: translate(-50%, -50%); border:5px solid black"">","","","","","","","",""
"","78.68999999482185","sequential-stimulus-presentation-old","126","223674","0.0-29.0-1.2","SS1619114018200","trial","","40","500","578.6899999948218","images/stimuli/spore_stims/simple_17_A_b.gif","images/stimuli/spore_stims/simple_08_A_a.gif","forced_long","","10","simple_dissimilar","images/stimuli/spore_stims/simple_08_A_a.gif","","","","",""
"","null","html-keyboard-response","127","224714","0.0-29.0-0.3","SS1619114018200","","","null","","","","","","<p><img src= images/blank.png width =""600"" height = ""600"" style=""position:fixed;top:50%; left:50%; transform: translate(-50%, -50%); border:5px solid black"">","","","","","","","",""
"","104.51499998453073","sequential-stimulus-presentation-old","128","225322","0.0-29.0-1.3","SS1619114018200","trial","","40","500","604.5149999845307","images/stimuli/spore_stims/simple_17_A_b.gif","images/stimuli/spore_stims/simple_08_A_a.gif","forced_long","","10","simple_dissimilar","images/stimuli/spore_stims/simple_08_A_a.gif","","","","",""
"","null","html-keyboard-response","129","226615","0.0-29.0-0.4","SS1619114018200","","","null","","","","","","<p><img src= images/blank.png width =""600"" height = ""600"" style=""position:fixed;top:50%; left:50%; transform: translate(-50%, -50%); border:5px solid black"">","","","","","","","",""
"","44.01000001234934","sequential-stimulus-presentation-old","130","227162","0.0-29.0-1.4","SS1619114018200","trial","","40","500","544.0100000123493","images/stimuli/spore_stims/simple_17_A_b.gif","images/stimuli/spore_stims/simple_08_A_a.gif","forced_long","","10","simple_dissimilar","images/stimuli/spore_stims/simple_08_A_a.gif","","","","",""
"","3629.910000017844","survey-multi-choice","131","230794","0.0-30.0","SS1619114018200","math_question","","","","","","","","","","","","{""Q0"":""12""}","[0]","12","",""
"","null","html-keyboard-response","132","231863","0.0-31.0-0.0","SS1619114018200","","","null","","","","","","<p><img src= images/blank.png width =""600"" height = ""600"" style=""position:fixed;top:50%; left:50%; transform: translate(-50%, -50%); border:5px solid black"">","","","","","","","",""
"","1221.3649999757763","sequential-stimulus-presentation-old","133","243090","0.0-31.0-1.0","SS1619114018200","trial","","40","500","1721.3649999757763","images/stimuli/spore_stims/simple_12_A_b.gif","images/stimuli/spore_stims/simple_16_A_a.gif","forced_long","","11","simple_dissimilar","images/stimuli/spore_stims/simple_16_A_a.gif","","","","",""
"","null","html-keyboard-response","134","244378","0.0-31.0-0.1","SS1619114018200","","","null","","","","","","<p><img src= images/blank.png width =""600"" height = ""600"" style=""position:fixed;top:50%; left:50%; transform: translate(-50%, -50%); border:5px solid black"">","","","","","","","",""
"","8.209999999962747","sequential-stimulus-presentation-old","135","244890","0.0-31.0-1.1","SS1619114018200","trial","","40","500","508.20999999996275","images/stimuli/spore_stims/simple_12_A_b.gif","images/stimuli/spore_stims/simple_16_A_a.gif","forced_long","","11","simple_dissimilar","images/stimuli/spore_stims/simple_12_A_b.gif","","","","",""
"","null","html-keyboard-response","136","245935","0.0-31.0-0.2","SS1619114018200","","","null","","","","","","<p><img src= images/blank.png width =""600"" height = ""600"" style=""position:fixed;top:50%; left:50%; transform: translate(-50%, -50%); border:5px solid black"">","","","","","","","",""
"","169.690000009723","sequential-stimulus-presentation-old","137","246610","0.0-31.0-1.2","SS1619114018200","trial","","40","500","669.690000009723","images/stimuli/spore_stims/simple_12_A_b.gif","images/stimuli/spore_stims/simple_16_A_a.gif","forced_long","","11","simple_dissimilar","images/stimuli/spore_stims/simple_16_A_a.gif","","","","",""
"","null","html-keyboard-response","138","247461","0.0-31.0-0.3","SS1619114018200","","","null","","","","","","<p><img src= images/blank.png width =""600"" height = ""600"" style=""position:fixed;top:50%; left:50%; transform: translate(-50%, -50%); border:5px solid black"">","","","","","","","",""
"","36.84499999508262","sequential-stimulus-presentation-old","139","248002","0.0-31.0-1.3","SS1619114018200","trial","","40","500","536.8449999950826","images/stimuli/spore_stims/simple_12_A_b.gif","images/stimuli/spore_stims/simple_16_A_a.gif","forced_long","","11","simple_dissimilar","images/stimuli/spore_stims/simple_16_A_a.gif","","","","",""
"","null","html-keyboard-response","140","248997","0.0-31.0-0.4","SS1619114018200","","","null","","","","","","<p><img src= images/blank.png width =""600"" height = ""600"" style=""position:fixed;top:50%; left:50%; transform: translate(-50%, -50%); border:5px solid black"">","","","","","","","",""
"","197.0349999901373","sequential-stimulus-presentation-old","141","249698","0.0-31.0-1.4","SS1619114018200","trial","","40","500","697.0349999901373","images/stimuli/spore_stims/simple_12_A_b.gif","images/stimuli/spore_stims/simple_16_A_a.gif","forced_long","","11","simple_dissimilar","images/stimuli/spore_stims/simple_12_A_b.gif","","","","",""
"[{""page_index"":0,""viewing_time"":1894.3250000011176}]","1894.494999985909","instructions","142","251594","0.0-32.0","SS1619114018200","instructions","","","","","","","","","","","","","","","",""
"","2052.239999989979","survey-likert","143","253650","0.0-33.0","SS1619114018200","similarity_question","","","","","","","","","","","","{""Q0"":4}","[0]","","images/stimuli/spore_stims/simple_08_A_a.gif","images/stimuli/spore_stims/simple_17_A_b.gif"
"","972.9100000113249","survey-likert","144","254626","0.0-34.0","SS1619114018200","similarity_question","","","","","","","","","","","","{""Q0"":5}","[0]","","images/stimuli/spore_stims/simple_02_A_b.gif","images/stimuli/spore_stims/simple_12_A_a.gif"
"","1156.6549999988638","survey-likert","145","255786","0.0-35.0","SS1619114018200","similarity_question","","","","","","","","","","","","{""Q0"":5}","[0]","","images/stimuli/spore_stims/simple_05_A_b.gif","images/stimuli/spore_stims/simple_01_A_a.gif"
"","2092.9350000224076","survey-likert","146","257882","0.0-36.0","SS1619114018200","similarity_question","","","","","","","","","","","","{""Q0"":3}","[0]","","images/stimuli/spore_stims/complex_07_A_a.gif","images/stimuli/spore_stims/complex_01_A_b.gif"
"","637.2250000131316","survey-likert","147","258522","0.0-37.0","SS1619114018200","similarity_question","","","","","","","","","","","","{""Q0"":3}","[0]","","images/stimuli/spore_stims/complex_05_A_a.gif","images/stimuli/spore_stims/complex_02_A_b.gif"
"","548.2849999971222","survey-likert","148","259074","0.0-38.0","SS1619114018200","similarity_question","","","","","","","","","","","","{""Q0"":4}","[0]","","images/stimuli/spore_stims/complex_13_A_b.gif","images/stimuli/spore_stims/complex_06_A_a.gif"
"","1620.43999999878","survey-likert","149","260698","0.0-39.0","SS1619114018200","similarity_question","","","","","","","","","","","","{""Q0"":3}","[0]","","images/stimuli/spore_stims/simple_12_A_b.gif","images/stimuli/spore_stims/simple_16_A_a.gif"
"","933.1499999971129","survey-likert","150","261634","0.0-40.0","SS1619114018200","similarity_question","","","","","","","","","","","","{""Q0"":4}","[0]","","images/stimuli/spore_stims/complex_08_A_b.gif","images/stimuli/spore_stims/complex_09_A_a.gif"
"","564.2250000091735","survey-likert","151","262202","0.0-41.0","SS1619114018200","similarity_question","","","","","","","","","","","","{""Q0"":4}","[0]","","images/stimuli/spore_stims/complex_20_A_a.gif","images/stimuli/spore_stims/complex_04_A_b.gif"
"","572.5399999937508","survey-likert","152","262778","0.0-42.0","SS1619114018200","similarity_question","","","","","","","","","","","","{""Q0"":4}","[0]","","images/stimuli/spore_stims/simple_10_A_a.gif","images/stimuli/spore_stims/simple_19_A_b.gif"
"","804.4749999826308","survey-likert","153","263586","0.0-43.0","SS1619114018200","similarity_question","","","","","","","","","","","","{""Q0"":3}","[0]","","images/stimuli/spore_stims/complex_19_A_b.gif","images/stimuli/spore_stims/complex_10_A_a.gif"
"","652.9649999865796","survey-likert","154","264242","0.0-44.0","SS1619114018200","similarity_question","","","","","","","","","","","","{""Q0"":4}","[0]","","images/stimuli/spore_stims/simple_18_A_a.gif","images/stimuli/spore_stims/simple_09_A_b.gif"
"[{""page_index"":0,""viewing_time"":1124.405000009574}]","1124.5800000033341","instructions","155","265370","0.0-45.0","SS1619114018200","instructions","","","","","","","","","","","","","","","",""
"","2349.3250000174157","survey-likert","156","267722","0.0-46.0","SS1619114018200","","","","","","","","","images/stimuli/spore_stims/simple_17_A_b.gif","","","","{""Q0"":2}","[0]","","",""
"","708.7800000153948","survey-likert","157","268434","0.0-47.0","SS1619114018200","","","","","","","","","images/stimuli/spore_stims/simple_10_A_a.gif","","","","{""Q0"":2}","[0]","","",""
"","716.4650000049733","survey-likert","158","269154","0.0-48.0","SS1619114018200","","","","","","","","","images/stimuli/spore_stims/simple_12_A_a.gif","","","","{""Q0"":2}","[0]","","",""
"","1667.650000017602","survey-likert","159","270826","0.0-49.0","SS1619114018200","","","","","","","","","images/stimuli/spore_stims/complex_13_A_b.gif","","","","{""Q0"":5}","[0]","","",""
"","828.9400000066962","survey-likert","160","271658","0.0-50.0","SS1619114018200","","","","","","","","","images/stimuli/spore_stims/complex_05_A_a.gif","","","","{""Q0"":5}","[0]","","",""
"","820.945000014035","survey-likert","161","272482","0.0-51.0","SS1619114018200","","","","","","","","","images/stimuli/spore_stims/complex_20_A_a.gif","","","","{""Q0"":5}","[0]","","",""
"","2036.5100000053644","survey-likert","162","274522","0.0-52.0","SS1619114018200","","","","","","","","","images/stimuli/spore_stims/simple_05_A_b.gif","","","","{""Q0"":1}","[0]","","",""
"","708.3550000097603","survey-likert","163","275234","0.0-53.0","SS1619114018200","","","","","","","","","images/stimuli/spore_stims/simple_16_A_a.gif","","","","{""Q0"":1}","[0]","","",""
"","1332.9150000063237","survey-likert","164","276570","0.0-54.0","SS1619114018200","","","","","","","","","images/stimuli/spore_stims/simple_18_A_a.gif","","","","{""Q0"":2}","[0]","","",""
"","2276.6150000097696","survey-likert","165","278850","0.0-55.0","SS1619114018200","","","","","","","","","images/stimuli/spore_stims/complex_19_A_b.gif","","","","{""Q0"":6}","[0]","","",""
"","916.4250000030734","survey-likert","166","279770","0.0-56.0","SS1619114018200","","","","","","","","","images/stimuli/spore_stims/complex_08_A_b.gif","","","","{""Q0"":6}","[0]","","",""
"","1396.3149999908637","survey-likert","167","281170","0.0-57.0","SS1619114018200","","","","","","","","","images/stimuli/spore_stims/complex_01_A_b.gif","","","","{""Q0"":5}","[0]","","",""
"[{""page_index"":0,""viewing_time"":901.0450000059791}]","901.2300000176765","instructions","168","282074","0.0-58.0","SS1619114018200","instructions","","","","","","","","","","","","","","","",""
"","1675.1700000022538","demog-age","169","283754","0.0-59.0","SS1619114018200","","","","","","","","","","","","","{""age"":""30""}","","","",""
"","3659.270000003744","demog-ethnic-US","170","287419","0.0-60.0","SS1619114018200","","","","","","","","","","","","","{""ethnicity"":[""White""]}","[0]","","",""
"","2668.455000006361","demog-gender-and-education","171","290090","0.0-61.0","SS1619114018200","","","","","","","","","","","","","{""gender"":""Male"",""education"":""Master's Degree""}","[0,1]","","",""
"","3059.880000015255","survey-text","172","293154","0.0-62.0","SS1619114018200","feedback","","","","","","","","","","","","{""Q0"":""no""}","","","",""
"[{""page_index"":0,""viewing_time"":796.6200000082608}]","796.7700000153854","instructions","173","293953","0.0-63.0","SS1619114018200","instructions","","","","","","","","","","","","","","","",""
