"view_history","rt","trial_type","trial_index","time_elapsed","internal_node_id","subject","stimulus_type","trial_stimulus","key_press","minimum_viewing_duration","trial_looking_time","block_deviant","block_background","exposure_type","stimulus","block_number","block_type","stimulus_displayed","responses","question_order","math_correct_answer","stimulus_left","stimulus_right"
"[{""page_index"":0,""viewing_time"":7058.924999997544}]","7059.714999999414","instructions","0","7061","0.0-0.0","SS1619115296274","","","","","","","","","","","","","","","","",""
"[{""page_index"":0,""viewing_time"":5638.569999999163},{""page_index"":1,""viewing_time"":4594.380000002275}]","10233.54499999914","instructions","1","19298","0.0-1.0","SS1619115296274","instructions","","","","","","","","","","","","","","","",""
"","3622.830000000249","sequential-stimulus-presentation-old","2","23425","0.0-2.0","SS1619115296274","","","40","500","4122.830000000249","null","null","self_paced","","","","","","","","",""
"","1233.4199999968405","sequential-stimulus-presentation-old","3","25161","0.0-3.0","SS1619115296274","","","40","500","1733.4199999968405","null","null","self_paced","","","","","","","","",""
"[{""page_index"":0,""viewing_time"":12766.609999998764}]","12767.03500000076","instructions","4","37929","0.0-4.0","SS1619115296274","instructions","","","","","","","","","","","","","","","",""
"","598.1150000006892","sequential-stimulus-presentation-old","5","48535","0.0-5.0","SS1619115296274","","","40","500","1098.1150000006892","null","null","forced_long","","","","","","","","",""
"","3813.029999997525","sequential-stimulus-presentation-old","6","52451","0.0-6.0","SS1619115296274","","","40","500","4313.029999997525","null","null","forced_long","","","","","","","","",""
"[{""page_index"":0,""viewing_time"":2874.0450000004785}]","2874.6050000008836","instructions","7","55326","0.0-7.0","SS1619115296274","instructions","","","","","","","","","","","","","","","",""
"[{""page_index"":0,""viewing_time"":7020.949999998265},{""page_index"":1,""viewing_time"":4113.68500000026},{""page_index"":2,""viewing_time"":4256.765000001906},{""page_index"":3,""viewing_time"":1751.0350000011385},{""page_index"":4,""viewing_time"":1159.9949999981618}]","18302.694999998494","instructions","8","73631","0.0-8.0","SS1619115296274","instructions","","","","","","","","","","","","","","","",""
"","null","html-keyboard-response","9","74642","0.0-9.0-0.0","SS1619115296274","","","null","","","","","","<p><img src= images/blank.png width =""600"" height = ""600"" style=""position:fixed;top:50%; left:50%; transform: translate(-50%, -50%); border:5px solid black"">","","","","","","","",""
"","460.3449999995064","sequential-stimulus-presentation-old","10","85121","0.0-9.0-1.0","SS1619115296274","trial","","40","500","960.3449999995064","images/stimuli/spore_stims/simple_06_A_a.gif","images/stimuli/spore_stims/simple_01_A_b.gif","forced_long","","0","simple_dissimilar","images/stimuli/spore_stims/simple_01_A_b.gif","","","","",""
"","null","html-keyboard-response","11","86178","0.0-9.0-0.1","SS1619115296274","","","null","","","","","","<p><img src= images/blank.png width =""600"" height = ""600"" style=""position:fixed;top:50%; left:50%; transform: translate(-50%, -50%); border:5px solid black"">","","","","","","","",""
"","17041.309999996884","sequential-stimulus-presentation-old","12","103722","0.0-9.0-1.1","SS1619115296274","trial","","40","500","17541.309999996884","images/stimuli/spore_stims/simple_06_A_a.gif","images/stimuli/spore_stims/simple_01_A_b.gif","forced_long","","0","simple_dissimilar","images/stimuli/spore_stims/simple_06_A_a.gif","","","","",""
"","null","html-keyboard-response","13","104651","0.0-9.0-0.2","SS1619115296274","","","null","","","","","","<p><img src= images/blank.png width =""600"" height = ""600"" style=""position:fixed;top:50%; left:50%; transform: translate(-50%, -50%); border:5px solid black"">","","","","","","","",""
"","2538.234999999986","sequential-stimulus-presentation-old","14","107695","0.0-9.0-1.2","SS1619115296274","trial","","40","500","3038.234999999986","images/stimuli/spore_stims/simple_06_A_a.gif","images/stimuli/spore_stims/simple_01_A_b.gif","forced_long","","0","simple_dissimilar","images/stimuli/spore_stims/simple_01_A_b.gif","","","","",""
"","null","html-keyboard-response","15","108596","0.0-9.0-0.3","SS1619115296274","","","null","","","","","","<p><img src= images/blank.png width =""600"" height = ""600"" style=""position:fixed;top:50%; left:50%; transform: translate(-50%, -50%); border:5px solid black"">","","","","","","","",""
"","1834.2499999998836","sequential-stimulus-presentation-old","16","110935","0.0-9.0-1.3","SS1619115296274","trial","","40","500","2334.2499999998836","images/stimuli/spore_stims/simple_06_A_a.gif","images/stimuli/spore_stims/simple_01_A_b.gif","forced_long","","0","simple_dissimilar","images/stimuli/spore_stims/simple_01_A_b.gif","","","","",""
"","null","html-keyboard-response","17","111877","0.0-9.0-0.4","SS1619115296274","","","null","","","","","","<p><img src= images/blank.png width =""600"" height = ""600"" style=""position:fixed;top:50%; left:50%; transform: translate(-50%, -50%); border:5px solid black"">","","","","","","","",""
"","4058.9749999999185","sequential-stimulus-presentation-old","18","116443","0.0-9.0-1.4","SS1619115296274","trial","","40","500","4558.9749999999185","images/stimuli/spore_stims/simple_06_A_a.gif","images/stimuli/spore_stims/simple_01_A_b.gif","forced_long","","0","simple_dissimilar","images/stimuli/spore_stims/simple_06_A_a.gif","","","","",""
"","null","html-keyboard-response","19","117669","0.0-9.0-0.5","SS1619115296274","","","null","","","","","","<p><img src= images/blank.png width =""600"" height = ""600"" style=""position:fixed;top:50%; left:50%; transform: translate(-50%, -50%); border:5px solid black"">","","","","","","","",""
"","1759.8250000010012","sequential-stimulus-presentation-old","20","119937","0.0-9.0-1.5","SS1619115296274","trial","","40","500","2259.825000001001","images/stimuli/spore_stims/simple_06_A_a.gif","images/stimuli/spore_stims/simple_01_A_b.gif","forced_long","","0","simple_dissimilar","images/stimuli/spore_stims/simple_01_A_b.gif","","","","",""
"","2769.769999998971","survey-multi-choice","21","122710","0.0-10.0","SS1619115296274","math_question","","","","","","","","","","","","{""Q0"":""9""}","[0]","9","",""
"","null","html-keyboard-response","22","124004","0.0-11.0-0.0","SS1619115296274","","","null","","","","","","<p><img src= images/blank.png width =""600"" height = ""600"" style=""position:fixed;top:50%; left:50%; transform: translate(-50%, -50%); border:5px solid black"">","","","","","","","",""
"","635.5750000002445","sequential-stimulus-presentation-old","23","124746","0.0-11.0-1.0","SS1619115296274","trial","","40","500","1135.5750000002445","images/stimuli/spore_stims/simple_14_A_b.gif","images/stimuli/spore_stims/simple_16_A_a.gif","forced_short","","1","simple_dissimilar","images/stimuli/spore_stims/simple_16_A_a.gif","","","","",""
"","null","html-keyboard-response","24","125818","0.0-11.0-0.1","SS1619115296274","","","null","","","","","","<p><img src= images/blank.png width =""600"" height = ""600"" style=""position:fixed;top:50%; left:50%; transform: translate(-50%, -50%); border:5px solid black"">","","","","","","","",""
"","1816.3449999992736","sequential-stimulus-presentation-old","25","128140","0.0-11.0-1.1","SS1619115296274","trial","","40","500","2316.3449999992736","images/stimuli/spore_stims/simple_14_A_b.gif","images/stimuli/spore_stims/simple_16_A_a.gif","forced_short","","1","simple_dissimilar","images/stimuli/spore_stims/simple_14_A_b.gif","","","","",""
"","null","html-keyboard-response","26","129360","0.0-11.0-0.2","SS1619115296274","","","null","","","","","","<p><img src= images/blank.png width =""600"" height = ""600"" style=""position:fixed;top:50%; left:50%; transform: translate(-50%, -50%); border:5px solid black"">","","","","","","","",""
"","1760.245000001305","sequential-stimulus-presentation-old","27","131625","0.0-11.0-1.2","SS1619115296274","trial","","40","500","2260.245000001305","images/stimuli/spore_stims/simple_14_A_b.gif","images/stimuli/spore_stims/simple_16_A_a.gif","forced_short","","1","simple_dissimilar","images/stimuli/spore_stims/simple_16_A_a.gif","","","","",""
"","null","html-keyboard-response","28","132513","0.0-11.0-0.3","SS1619115296274","","","null","","","","","","<p><img src= images/blank.png width =""600"" height = ""600"" style=""position:fixed;top:50%; left:50%; transform: translate(-50%, -50%); border:5px solid black"">","","","","","","","",""
"","1829.5350000007602","sequential-stimulus-presentation-old","29","134849","0.0-11.0-1.3","SS1619115296274","trial","","40","500","2329.53500000076","images/stimuli/spore_stims/simple_14_A_b.gif","images/stimuli/spore_stims/simple_16_A_a.gif","forced_short","","1","simple_dissimilar","images/stimuli/spore_stims/simple_14_A_b.gif","","","","",""
"","null","html-keyboard-response","30","135857","0.0-11.0-0.4","SS1619115296274","","","null","","","","","","<p><img src= images/blank.png width =""600"" height = ""600"" style=""position:fixed;top:50%; left:50%; transform: translate(-50%, -50%); border:5px solid black"">","","","","","","","",""
"","5077.7000000016415","sequential-stimulus-presentation-old","31","141442","0.0-11.0-1.4","SS1619115296274","trial","","40","500","5577.7000000016415","images/stimuli/spore_stims/simple_14_A_b.gif","images/stimuli/spore_stims/simple_16_A_a.gif","forced_short","","1","simple_dissimilar","images/stimuli/spore_stims/simple_16_A_a.gif","","","","",""
"","3209.7450000001118","survey-multi-choice","32","144655","0.0-12.0","SS1619115296274","math_question","","","","","","","","","","","","{""Q0"":""14""}","[0]","14","",""
"","null","html-keyboard-response","33","145848","0.0-13.0-0.0","SS1619115296274","","","null","","","","","","<p><img src= images/blank.png width =""600"" height = ""600"" style=""position:fixed;top:50%; left:50%; transform: translate(-50%, -50%); border:5px solid black"">","","","","","","","",""
"","186.74499999906402","sequential-stimulus-presentation-old","34","156044","0.0-13.0-1.0","SS1619115296274","trial","","40","500","686.744999999064","images/stimuli/spore_stims/complex_05_A_b.gif","images/stimuli/spore_stims/complex_15_A_a.gif","forced_long","","2","complex_dissimilar","images/stimuli/spore_stims/complex_15_A_a.gif","","","","",""
"","null","html-keyboard-response","35","156892","0.0-13.0-0.1","SS1619115296274","","","null","","","","","","<p><img src= images/blank.png width =""600"" height = ""600"" style=""position:fixed;top:50%; left:50%; transform: translate(-50%, -50%); border:5px solid black"">","","","","","","","",""
"","113.93499999758205","sequential-stimulus-presentation-old","36","157514","0.0-13.0-1.1","SS1619115296274","trial","","40","500","613.934999997582","images/stimuli/spore_stims/complex_05_A_b.gif","images/stimuli/spore_stims/complex_15_A_a.gif","forced_long","","2","complex_dissimilar","images/stimuli/spore_stims/complex_15_A_a.gif","","","","",""
"","null","html-keyboard-response","37","158713","0.0-13.0-0.2","SS1619115296274","","","null","","","","","","<p><img src= images/blank.png width =""600"" height = ""600"" style=""position:fixed;top:50%; left:50%; transform: translate(-50%, -50%); border:5px solid black"">","","","","","","","",""
"","3916.15499999898","sequential-stimulus-presentation-old","38","163134","0.0-13.0-1.2","SS1619115296274","trial","","40","500","4416.15499999898","images/stimuli/spore_stims/complex_05_A_b.gif","images/stimuli/spore_stims/complex_15_A_a.gif","forced_long","","2","complex_dissimilar","images/stimuli/spore_stims/complex_05_A_b.gif","","","","",""
"","null","html-keyboard-response","39","163983","0.0-13.0-0.3","SS1619115296274","","","null","","","","","","<p><img src= images/blank.png width =""600"" height = ""600"" style=""position:fixed;top:50%; left:50%; transform: translate(-50%, -50%); border:5px solid black"">","","","","","","","",""
"","3085.0850000024366","sequential-stimulus-presentation-old","40","167577","0.0-13.0-1.3","SS1619115296274","trial","","40","500","3585.0850000024366","images/stimuli/spore_stims/complex_05_A_b.gif","images/stimuli/spore_stims/complex_15_A_a.gif","forced_long","","2","complex_dissimilar","images/stimuli/spore_stims/complex_15_A_a.gif","","","","",""
"","null","html-keyboard-response","41","168532","0.0-13.0-0.4","SS1619115296274","","","null","","","","","","<p><img src= images/blank.png width =""600"" height = ""600"" style=""position:fixed;top:50%; left:50%; transform: translate(-50%, -50%); border:5px solid black"">","","","","","","","",""
"","4558.604999998352","sequential-stimulus-presentation-old","42","173597","0.0-13.0-1.4","SS1619115296274","trial","","40","500","5058.604999998352","images/stimuli/spore_stims/complex_05_A_b.gif","images/stimuli/spore_stims/complex_15_A_a.gif","forced_long","","2","complex_dissimilar","images/stimuli/spore_stims/complex_15_A_a.gif","","","","",""
"","null","html-keyboard-response","43","174805","0.0-13.0-0.5","SS1619115296274","","","null","","","","","","<p><img src= images/blank.png width =""600"" height = ""600"" style=""position:fixed;top:50%; left:50%; transform: translate(-50%, -50%); border:5px solid black"">","","","","","","","",""
"","4653.220000000147","sequential-stimulus-presentation-old","44","179970","0.0-13.0-1.5","SS1619115296274","trial","","40","500","5153.220000000147","images/stimuli/spore_stims/complex_05_A_b.gif","images/stimuli/spore_stims/complex_15_A_a.gif","forced_long","","2","complex_dissimilar","images/stimuli/spore_stims/complex_15_A_a.gif","","","","",""
"","2790.4400000006717","survey-multi-choice","45","182766","0.0-14.0","SS1619115296274","math_question","","","","","","","","","","","","{""Q0"":""13""}","[0]","13","",""
"","null","html-keyboard-response","46","183873","0.0-15.0-0.0","SS1619115296274","","","null","","","","","","<p><img src= images/blank.png width =""600"" height = ""600"" style=""position:fixed;top:50%; left:50%; transform: translate(-50%, -50%); border:5px solid black"">","","","","","","","",""
"","9405.16000000207","sequential-stimulus-presentation-old","47","193786","0.0-15.0-1.0","SS1619115296274","trial","","40","500","9905.16000000207","images/stimuli/spore_stims/complex_08_A_a.gif","images/stimuli/spore_stims/complex_16_A_b.gif","self_paced","","3","complex_dissimilar","images/stimuli/spore_stims/complex_16_A_b.gif","","","","",""
"","null","html-keyboard-response","48","194696","0.0-15.0-0.1","SS1619115296274","","","null","","","","","","<p><img src= images/blank.png width =""600"" height = ""600"" style=""position:fixed;top:50%; left:50%; transform: translate(-50%, -50%); border:5px solid black"">","","","","","","","",""
"","15.105000002222368","sequential-stimulus-presentation-old","49","195222","0.0-15.0-1.1","SS1619115296274","trial","","40","500","515.1050000022224","images/stimuli/spore_stims/complex_08_A_a.gif","images/stimuli/spore_stims/complex_16_A_b.gif","self_paced","","3","complex_dissimilar","images/stimuli/spore_stims/complex_16_A_b.gif","","","","",""
"","null","html-keyboard-response","50","196405","0.0-15.0-0.2","SS1619115296274","","","null","","","","","","<p><img src= images/blank.png width =""600"" height = ""600"" style=""position:fixed;top:50%; left:50%; transform: translate(-50%, -50%); border:5px solid black"">","","","","","","","",""
"","1167.1349999996892","sequential-stimulus-presentation-old","51","198080","0.0-15.0-1.2","SS1619115296274","trial","","40","500","1667.1349999996892","images/stimuli/spore_stims/complex_08_A_a.gif","images/stimuli/spore_stims/complex_16_A_b.gif","self_paced","","3","complex_dissimilar","images/stimuli/spore_stims/complex_16_A_b.gif","","","","",""
"","null","html-keyboard-response","52","199124","0.0-15.0-0.3","SS1619115296274","","","null","","","","","","<p><img src= images/blank.png width =""600"" height = ""600"" style=""position:fixed;top:50%; left:50%; transform: translate(-50%, -50%); border:5px solid black"">","","","","","","","",""
"","669.6249999986321","sequential-stimulus-presentation-old","53","200300","0.0-15.0-1.3","SS1619115296274","trial","","40","500","1169.6249999986321","images/stimuli/spore_stims/complex_08_A_a.gif","images/stimuli/spore_stims/complex_16_A_b.gif","self_paced","","3","complex_dissimilar","images/stimuli/spore_stims/complex_16_A_b.gif","","","","",""
"","null","html-keyboard-response","54","201568","0.0-15.0-0.4","SS1619115296274","","","null","","","","","","<p><img src= images/blank.png width =""600"" height = ""600"" style=""position:fixed;top:50%; left:50%; transform: translate(-50%, -50%); border:5px solid black"">","","","","","","","",""
"","1152.3850000012317","sequential-stimulus-presentation-old","55","203229","0.0-15.0-1.4","SS1619115296274","trial","","40","500","1652.3850000012317","images/stimuli/spore_stims/complex_08_A_a.gif","images/stimuli/spore_stims/complex_16_A_b.gif","self_paced","","3","complex_dissimilar","images/stimuli/spore_stims/complex_16_A_b.gif","","","","",""
"","null","html-keyboard-response","56","204163","0.0-15.0-0.5","SS1619115296274","","","null","","","","","","<p><img src= images/blank.png width =""600"" height = ""600"" style=""position:fixed;top:50%; left:50%; transform: translate(-50%, -50%); border:5px solid black"">","","","","","","","",""
"","1276.6999999985273","sequential-stimulus-presentation-old","57","205948","0.0-15.0-1.5","SS1619115296274","trial","","40","500","1776.6999999985273","images/stimuli/spore_stims/complex_08_A_a.gif","images/stimuli/spore_stims/complex_16_A_b.gif","self_paced","","3","complex_dissimilar","images/stimuli/spore_stims/complex_08_A_a.gif","","","","",""
"","2696.974999998929","survey-multi-choice","58","208648","0.0-16.0","SS1619115296274","math_question","","","","","","","","","","","","{""Q0"":""12""}","[0]","12","",""
"","null","html-keyboard-response","59","209698","0.0-17.0-0.0","SS1619115296274","","","null","","","","","","<p><img src= images/blank.png width =""600"" height = ""600"" style=""position:fixed;top:50%; left:50%; transform: translate(-50%, -50%); border:5px solid black"">","","","","","","","",""
"","1555.3499999987253","sequential-stimulus-presentation-old","60","211760","0.0-17.0-1.0","SS1619115296274","trial","","40","500","2055.3499999987253","images/stimuli/spore_stims/complex_05_A_a.gif","images/stimuli/spore_stims/complex_06_A_b.gif","self_paced","","4","complex_dissimilar","images/stimuli/spore_stims/complex_06_A_b.gif","","","","",""
"","null","html-keyboard-response","61","212963","0.0-17.0-0.1","SS1619115296274","","","null","","","","","","<p><img src= images/blank.png width =""600"" height = ""600"" style=""position:fixed;top:50%; left:50%; transform: translate(-50%, -50%); border:5px solid black"">","","","","","","","",""
"","2245.5099999970116","sequential-stimulus-presentation-old","62","215719","0.0-17.0-1.1","SS1619115296274","trial","","40","500","2745.5099999970116","images/stimuli/spore_stims/complex_05_A_a.gif","images/stimuli/spore_stims/complex_06_A_b.gif","self_paced","","4","complex_dissimilar","images/stimuli/spore_stims/complex_05_A_a.gif","","","","",""
"","null","html-keyboard-response","63","216745","0.0-17.0-0.2","SS1619115296274","","","null","","","","","","<p><img src= images/blank.png width =""600"" height = ""600"" style=""position:fixed;top:50%; left:50%; transform: translate(-50%, -50%); border:5px solid black"">","","","","","","","",""
"","1794.4699999970908","sequential-stimulus-presentation-old","64","219045","0.0-17.0-1.2","SS1619115296274","trial","","40","500","2294.469999997091","images/stimuli/spore_stims/complex_05_A_a.gif","images/stimuli/spore_stims/complex_06_A_b.gif","self_paced","","4","complex_dissimilar","images/stimuli/spore_stims/complex_06_A_b.gif","","","","",""
"","null","html-keyboard-response","65","219989","0.0-17.0-0.3","SS1619115296274","","","null","","","","","","<p><img src= images/blank.png width =""600"" height = ""600"" style=""position:fixed;top:50%; left:50%; transform: translate(-50%, -50%); border:5px solid black"">","","","","","","","",""
"","2081.480000000738","sequential-stimulus-presentation-old","66","222582","0.0-17.0-1.3","SS1619115296274","trial","","40","500","2581.480000000738","images/stimuli/spore_stims/complex_05_A_a.gif","images/stimuli/spore_stims/complex_06_A_b.gif","self_paced","","4","complex_dissimilar","images/stimuli/spore_stims/complex_06_A_b.gif","","","","",""
"","null","html-keyboard-response","67","223600","0.0-17.0-0.4","SS1619115296274","","","null","","","","","","<p><img src= images/blank.png width =""600"" height = ""600"" style=""position:fixed;top:50%; left:50%; transform: translate(-50%, -50%); border:5px solid black"">","","","","","","","",""
"","2052.769999998418","sequential-stimulus-presentation-old","68","226161","0.0-17.0-1.4","SS1619115296274","trial","","40","500","2552.769999998418","images/stimuli/spore_stims/complex_05_A_a.gif","images/stimuli/spore_stims/complex_06_A_b.gif","self_paced","","4","complex_dissimilar","images/stimuli/spore_stims/complex_06_A_b.gif","","","","",""
"","null","html-keyboard-response","69","227073","0.0-17.0-0.5","SS1619115296274","","","null","","","","","","<p><img src= images/blank.png width =""600"" height = ""600"" style=""position:fixed;top:50%; left:50%; transform: translate(-50%, -50%); border:5px solid black"">","","","","","","","",""
"","2164.4349999987753","sequential-stimulus-presentation-old","70","229749","0.0-17.0-1.5","SS1619115296274","trial","","40","500","2664.4349999987753","images/stimuli/spore_stims/complex_05_A_a.gif","images/stimuli/spore_stims/complex_06_A_b.gif","self_paced","","4","complex_dissimilar","images/stimuli/spore_stims/complex_05_A_a.gif","","","","",""
"","2307.0349999979953","survey-multi-choice","71","232061","0.0-18.0","SS1619115296274","math_question","","","","","","","","","","","","{""Q0"":""11""}","[0]","11","",""
"","null","html-keyboard-response","72","232937","0.0-19.0-0.0","SS1619115296274","","","null","","","","","","<p><img src= images/blank.png width =""600"" height = ""600"" style=""position:fixed;top:50%; left:50%; transform: translate(-50%, -50%); border:5px solid black"">","","","","","","","",""
"","994.8999999978696","sequential-stimulus-presentation-old","73","234443","0.0-19.0-1.0","SS1619115296274","trial","","40","500","1494.8999999978696","images/stimuli/spore_stims/simple_18_A_b.gif","images/stimuli/spore_stims/simple_11_A_a.gif","self_paced","","5","simple_dissimilar","images/stimuli/spore_stims/simple_11_A_a.gif","","","","",""
"","null","html-keyboard-response","74","235673","0.0-19.0-0.1","SS1619115296274","","","null","","","","","","<p><img src= images/blank.png width =""600"" height = ""600"" style=""position:fixed;top:50%; left:50%; transform: translate(-50%, -50%); border:5px solid black"">","","","","","","","",""
"","295.9950000004028","sequential-stimulus-presentation-old","75","236477","0.0-19.0-1.1","SS1619115296274","trial","","40","500","795.9950000004028","images/stimuli/spore_stims/simple_18_A_b.gif","images/stimuli/spore_stims/simple_11_A_a.gif","self_paced","","5","simple_dissimilar","images/stimuli/spore_stims/simple_11_A_a.gif","","","","",""
"","null","html-keyboard-response","76","237547","0.0-19.0-0.2","SS1619115296274","","","null","","","","","","<p><img src= images/blank.png width =""600"" height = ""600"" style=""position:fixed;top:50%; left:50%; transform: translate(-50%, -50%); border:5px solid black"">","","","","","","","",""
"","508.06500000180677","sequential-stimulus-presentation-old","77","238561","0.0-19.0-1.2","SS1619115296274","trial","","40","500","1008.0650000018068","images/stimuli/spore_stims/simple_18_A_b.gif","images/stimuli/spore_stims/simple_11_A_a.gif","self_paced","","5","simple_dissimilar","images/stimuli/spore_stims/simple_18_A_b.gif","","","","",""
"","null","html-keyboard-response","78","239820","0.0-19.0-0.3","SS1619115296274","","","null","","","","","","<p><img src= images/blank.png width =""600"" height = ""600"" style=""position:fixed;top:50%; left:50%; transform: translate(-50%, -50%); border:5px solid black"">","","","","","","","",""
"","818.7849999994796","sequential-stimulus-presentation-old","79","241150","0.0-19.0-1.3","SS1619115296274","trial","","40","500","1318.7849999994796","images/stimuli/spore_stims/simple_18_A_b.gif","images/stimuli/spore_stims/simple_11_A_a.gif","self_paced","","5","simple_dissimilar","images/stimuli/spore_stims/simple_11_A_a.gif","","","","",""
"","null","html-keyboard-response","80","242119","0.0-19.0-0.4","SS1619115296274","","","null","","","","","","<p><img src= images/blank.png width =""600"" height = ""600"" style=""position:fixed;top:50%; left:50%; transform: translate(-50%, -50%); border:5px solid black"">","","","","","","","",""
"","620.584999996936","sequential-stimulus-presentation-old","81","243249","0.0-19.0-1.4","SS1619115296274","trial","","40","500","1120.584999996936","images/stimuli/spore_stims/simple_18_A_b.gif","images/stimuli/spore_stims/simple_11_A_a.gif","self_paced","","5","simple_dissimilar","images/stimuli/spore_stims/simple_18_A_b.gif","","","","",""
"","null","html-keyboard-response","82","244131","0.0-19.0-0.5","SS1619115296274","","","null","","","","","","<p><img src= images/blank.png width =""600"" height = ""600"" style=""position:fixed;top:50%; left:50%; transform: translate(-50%, -50%); border:5px solid black"">","","","","","","","",""
"","598.214999998163","sequential-stimulus-presentation-old","83","245237","0.0-19.0-1.5","SS1619115296274","trial","","40","500","1098.214999998163","images/stimuli/spore_stims/simple_18_A_b.gif","images/stimuli/spore_stims/simple_11_A_a.gif","self_paced","","5","simple_dissimilar","images/stimuli/spore_stims/simple_11_A_a.gif","","","","",""
"","3044.2949999996927","survey-multi-choice","84","248289","0.0-20.0","SS1619115296274","math_question","","","","","","","","","","","","{""Q0"":""7""}","[0]","7","",""
"","null","html-keyboard-response","85","249120","0.0-21.0-0.0","SS1619115296274","","","null","","","","","","<p><img src= images/blank.png width =""600"" height = ""600"" style=""position:fixed;top:50%; left:50%; transform: translate(-50%, -50%); border:5px solid black"">","","","","","","","",""
"","43.04000000044471","sequential-stimulus-presentation-old","86","259175","0.0-21.0-1.0","SS1619115296274","trial","","40","500","543.0400000004447","images/stimuli/spore_stims/complex_12_A_a.gif","images/stimuli/spore_stims/complex_18_A_b.gif","forced_long","","6","complex_dissimilar","images/stimuli/spore_stims/complex_18_A_b.gif","","","","",""
"","null","html-keyboard-response","87","260357","0.0-21.0-0.1","SS1619115296274","","","null","","","","","","<p><img src= images/blank.png width =""600"" height = ""600"" style=""position:fixed;top:50%; left:50%; transform: translate(-50%, -50%); border:5px solid black"">","","","","","","","",""
"","565.1849999994738","sequential-stimulus-presentation-old","88","261438","0.0-21.0-1.1","SS1619115296274","trial","","40","500","1065.1849999994738","images/stimuli/spore_stims/complex_12_A_a.gif","images/stimuli/spore_stims/complex_18_A_b.gif","forced_long","","6","complex_dissimilar","images/stimuli/spore_stims/complex_18_A_b.gif","","","","",""
"","null","html-keyboard-response","89","262421","0.0-21.0-0.2","SS1619115296274","","","null","","","","","","<p><img src= images/blank.png width =""600"" height = ""600"" style=""position:fixed;top:50%; left:50%; transform: translate(-50%, -50%); border:5px solid black"">","","","","","","","",""
"","397.32500000175787","sequential-stimulus-presentation-old","90","263326","0.0-21.0-1.2","SS1619115296274","trial","","40","500","897.3250000017579","images/stimuli/spore_stims/complex_12_A_a.gif","images/stimuli/spore_stims/complex_18_A_b.gif","forced_long","","6","complex_dissimilar","images/stimuli/spore_stims/complex_18_A_b.gif","","","","",""
"","null","html-keyboard-response","91","264515","0.0-21.0-0.3","SS1619115296274","","","null","","","","","","<p><img src= images/blank.png width =""600"" height = ""600"" style=""position:fixed;top:50%; left:50%; transform: translate(-50%, -50%); border:5px solid black"">","","","","","","","",""
"","673.6049999999232","sequential-stimulus-presentation-old","92","265698","0.0-21.0-1.3","SS1619115296274","trial","","40","500","1173.6049999999232","images/stimuli/spore_stims/complex_12_A_a.gif","images/stimuli/spore_stims/complex_18_A_b.gif","forced_long","","6","complex_dissimilar","images/stimuli/spore_stims/complex_18_A_b.gif","","","","",""
"","null","html-keyboard-response","93","266520","0.0-21.0-0.4","SS1619115296274","","","null","","","","","","<p><img src= images/blank.png width =""600"" height = ""600"" style=""position:fixed;top:50%; left:50%; transform: translate(-50%, -50%); border:5px solid black"">","","","","","","","",""
"","1032.515000002575","sequential-stimulus-presentation-old","94","268065","0.0-21.0-1.4","SS1619115296274","trial","","40","500","1532.515000002575","images/stimuli/spore_stims/complex_12_A_a.gif","images/stimuli/spore_stims/complex_18_A_b.gif","forced_long","","6","complex_dissimilar","images/stimuli/spore_stims/complex_18_A_b.gif","","","","",""
"","2494.845000001078","survey-multi-choice","95","270568","0.0-22.0","SS1619115296274","math_question","","","","","","","","","","","","{""Q0"":""16""}","[0]","16","",""
"","null","html-keyboard-response","96","271600","0.0-23.0-0.0","SS1619115296274","","","null","","","","","","<p><img src= images/blank.png width =""600"" height = ""600"" style=""position:fixed;top:50%; left:50%; transform: translate(-50%, -50%); border:5px solid black"">","","","","","","","",""
"","1221.044999998412","sequential-stimulus-presentation-old","97","272947","0.0-23.0-1.0","SS1619115296274","trial","","40","500","1721.044999998412","images/stimuli/spore_stims/complex_13_A_b.gif","images/stimuli/spore_stims/complex_10_A_a.gif","forced_short","","7","complex_dissimilar","images/stimuli/spore_stims/complex_10_A_a.gif","","","","",""
"","null","html-keyboard-response","98","273830","0.0-23.0-0.1","SS1619115296274","","","null","","","","","","<p><img src= images/blank.png width =""600"" height = ""600"" style=""position:fixed;top:50%; left:50%; transform: translate(-50%, -50%); border:5px solid black"">","","","","","","","",""
"","867.1599999979371","sequential-stimulus-presentation-old","99","275206","0.0-23.0-1.1","SS1619115296274","trial","","40","500","1367.1599999979371","images/stimuli/spore_stims/complex_13_A_b.gif","images/stimuli/spore_stims/complex_10_A_a.gif","forced_short","","7","complex_dissimilar","images/stimuli/spore_stims/complex_13_A_b.gif","","","","",""
"","null","html-keyboard-response","100","276373","0.0-23.0-0.2","SS1619115296274","","","null","","","","","","<p><img src= images/blank.png width =""600"" height = ""600"" style=""position:fixed;top:50%; left:50%; transform: translate(-50%, -50%); border:5px solid black"">","","","","","","","",""
"","345.40500000002794","sequential-stimulus-presentation-old","101","277234","0.0-23.0-1.2","SS1619115296274","trial","","40","500","845.4050000000279","images/stimuli/spore_stims/complex_13_A_b.gif","images/stimuli/spore_stims/complex_10_A_a.gif","forced_short","","7","complex_dissimilar","images/stimuli/spore_stims/complex_10_A_a.gif","","","","",""
"","null","html-keyboard-response","102","278333","0.0-23.0-0.3","SS1619115296274","","","null","","","","","","<p><img src= images/blank.png width =""600"" height = ""600"" style=""position:fixed;top:50%; left:50%; transform: translate(-50%, -50%); border:5px solid black"">","","","","","","","",""
"","1295.7249999999185","sequential-stimulus-presentation-old","103","280139","0.0-23.0-1.3","SS1619115296274","trial","","40","500","1795.7249999999185","images/stimuli/spore_stims/complex_13_A_b.gif","images/stimuli/spore_stims/complex_10_A_a.gif","forced_short","","7","complex_dissimilar","images/stimuli/spore_stims/complex_10_A_a.gif","","","","",""
"","2987.619999999879","survey-multi-choice","104","283135","0.0-24.0","SS1619115296274","math_question","","","","","","","","","","","","{""Q0"":""12""}","[0]","12","",""
"","null","html-keyboard-response","105","284002","0.0-25.0-0.0","SS1619115296274","","","null","","","","","","<p><img src= images/blank.png width =""600"" height = ""600"" style=""position:fixed;top:50%; left:50%; transform: translate(-50%, -50%); border:5px solid black"">","","","","","","","",""
"","41.22499999724096","sequential-stimulus-presentation-old","106","294057","0.0-25.0-1.0","SS1619115296274","trial","","40","500","541.224999997241","images/stimuli/spore_stims/simple_16_A_b.gif","images/stimuli/spore_stims/simple_18_A_a.gif","forced_long","","8","simple_dissimilar","images/stimuli/spore_stims/simple_18_A_a.gif","","","","",""
"","null","html-keyboard-response","107","295293","0.0-25.0-0.1","SS1619115296274","","","null","","","","","","<p><img src= images/blank.png width =""600"" height = ""600"" style=""position:fixed;top:50%; left:50%; transform: translate(-50%, -50%); border:5px solid black"">","","","","","","","",""
"","88.7299999994575","sequential-stimulus-presentation-old","108","295896","0.0-25.0-1.1","SS1619115296274","trial","","40","500","588.7299999994575","images/stimuli/spore_stims/simple_16_A_b.gif","images/stimuli/spore_stims/simple_18_A_a.gif","forced_long","","8","simple_dissimilar","images/stimuli/spore_stims/simple_16_A_b.gif","","","","",""
"","null","html-keyboard-response","109","296969","0.0-25.0-0.2","SS1619115296274","","","null","","","","","","<p><img src= images/blank.png width =""600"" height = ""600"" style=""position:fixed;top:50%; left:50%; transform: translate(-50%, -50%); border:5px solid black"">","","","","","","","",""
"","612.9499999988475","sequential-stimulus-presentation-old","110","298090","0.0-25.0-1.2","SS1619115296274","trial","","40","500","1112.9499999988475","images/stimuli/spore_stims/simple_16_A_b.gif","images/stimuli/spore_stims/simple_18_A_a.gif","forced_long","","8","simple_dissimilar","images/stimuli/spore_stims/simple_18_A_a.gif","","","","",""
"","null","html-keyboard-response","111","299105","0.0-25.0-0.3","SS1619115296274","","","null","","","","","","<p><img src= images/blank.png width =""600"" height = ""600"" style=""position:fixed;top:50%; left:50%; transform: translate(-50%, -50%); border:5px solid black"">","","","","","","","",""
"","630.8050000006333","sequential-stimulus-presentation-old","112","300247","0.0-25.0-1.3","SS1619115296274","trial","","40","500","1130.8050000006333","images/stimuli/spore_stims/simple_16_A_b.gif","images/stimuli/spore_stims/simple_18_A_a.gif","forced_long","","8","simple_dissimilar","images/stimuli/spore_stims/simple_18_A_a.gif","","","","",""
"","null","html-keyboard-response","113","301202","0.0-25.0-0.4","SS1619115296274","","","null","","","","","","<p><img src= images/blank.png width =""600"" height = ""600"" style=""position:fixed;top:50%; left:50%; transform: translate(-50%, -50%); border:5px solid black"">","","","","","","","",""
"","683.7999999988824","sequential-stimulus-presentation-old","114","302396","0.0-25.0-1.4","SS1619115296274","trial","","40","500","1183.7999999988824","images/stimuli/spore_stims/simple_16_A_b.gif","images/stimuli/spore_stims/simple_18_A_a.gif","forced_long","","8","simple_dissimilar","images/stimuli/spore_stims/simple_16_A_b.gif","","","","",""
"","2285.1749999972526","survey-multi-choice","115","304688","0.0-26.0","SS1619115296274","math_question","","","","","","","","","","","","{""Q0"":""6""}","[0]","6","",""
"","null","html-keyboard-response","116","305523","0.0-27.0-0.0","SS1619115296274","","","null","","","","","","<p><img src= images/blank.png width =""600"" height = ""600"" style=""position:fixed;top:50%; left:50%; transform: translate(-50%, -50%); border:5px solid black"">","","","","","","","",""
"","645.9549999999581","sequential-stimulus-presentation-old","117","306283","0.0-27.0-1.0","SS1619115296274","trial","","40","500","1145.954999999958","images/stimuli/spore_stims/simple_01_A_a.gif","images/stimuli/spore_stims/simple_03_A_b.gif","forced_short","","9","simple_dissimilar","images/stimuli/spore_stims/simple_03_A_b.gif","","","","",""
"","null","html-keyboard-response","118","307120","0.0-27.0-0.1","SS1619115296274","","","null","","","","","","<p><img src= images/blank.png width =""600"" height = ""600"" style=""position:fixed;top:50%; left:50%; transform: translate(-50%, -50%); border:5px solid black"">","","","","","","","",""
"","159.60000000271248","sequential-stimulus-presentation-old","119","307796","0.0-27.0-1.1","SS1619115296274","trial","","40","500","659.6000000027125","images/stimuli/spore_stims/simple_01_A_a.gif","images/stimuli/spore_stims/simple_03_A_b.gif","forced_short","","9","simple_dissimilar","images/stimuli/spore_stims/simple_03_A_b.gif","","","","",""
"","null","html-keyboard-response","120","308613","0.0-27.0-0.2","SS1619115296274","","","null","","","","","","<p><img src= images/blank.png width =""600"" height = ""600"" style=""position:fixed;top:50%; left:50%; transform: translate(-50%, -50%); border:5px solid black"">","","","","","","","",""
"","1019.9599999977509","sequential-stimulus-presentation-old","121","310143","0.0-27.0-1.2","SS1619115296274","trial","","40","500","1519.9599999977509","images/stimuli/spore_stims/simple_01_A_a.gif","images/stimuli/spore_stims/simple_03_A_b.gif","forced_short","","9","simple_dissimilar","images/stimuli/spore_stims/simple_01_A_a.gif","","","","",""
"","null","html-keyboard-response","122","311424","0.0-27.0-0.3","SS1619115296274","","","null","","","","","","<p><img src= images/blank.png width =""600"" height = ""600"" style=""position:fixed;top:50%; left:50%; transform: translate(-50%, -50%); border:5px solid black"">","","","","","","","",""
"","938.7099999985076","sequential-stimulus-presentation-old","123","312871","0.0-27.0-1.3","SS1619115296274","trial","","40","500","1438.7099999985076","images/stimuli/spore_stims/simple_01_A_a.gif","images/stimuli/spore_stims/simple_03_A_b.gif","forced_short","","9","simple_dissimilar","images/stimuli/spore_stims/simple_03_A_b.gif","","","","",""
"","2617.819999999483","survey-multi-choice","124","315497","0.0-28.0","SS1619115296274","math_question","","","","","","","","","","","","{""Q0"":""8""}","[0]","8","",""
"","null","html-keyboard-response","125","316340","0.0-29.0-0.0","SS1619115296274","","","null","","","","","","<p><img src= images/blank.png width =""600"" height = ""600"" style=""position:fixed;top:50%; left:50%; transform: translate(-50%, -50%); border:5px solid black"">","","","","","","","",""
"","612.8349999998463","sequential-stimulus-presentation-old","126","317462","0.0-29.0-1.0","SS1619115296274","trial","","40","500","1112.8349999998463","images/stimuli/spore_stims/simple_04_A_a.gif","images/stimuli/spore_stims/simple_15_A_b.gif","self_paced","","10","simple_dissimilar","images/stimuli/spore_stims/simple_15_A_b.gif","","","","",""
"","null","html-keyboard-response","127","318752","0.0-29.0-0.1","SS1619115296274","","","null","","","","","","<p><img src= images/blank.png width =""600"" height = ""600"" style=""position:fixed;top:50%; left:50%; transform: translate(-50%, -50%); border:5px solid black"">","","","","","","","",""
"","1279.984999997425","sequential-stimulus-presentation-old","128","320543","0.0-29.0-1.1","SS1619115296274","trial","","40","500","1779.984999997425","images/stimuli/spore_stims/simple_04_A_a.gif","images/stimuli/spore_stims/simple_15_A_b.gif","self_paced","","10","simple_dissimilar","images/stimuli/spore_stims/simple_15_A_b.gif","","","","",""
"","null","html-keyboard-response","129","321624","0.0-29.0-0.2","SS1619115296274","","","null","","","","","","<p><img src= images/blank.png width =""600"" height = ""600"" style=""position:fixed;top:50%; left:50%; transform: translate(-50%, -50%); border:5px solid black"">","","","","","","","",""
"","551.7800000016578","sequential-stimulus-presentation-old","130","322688","0.0-29.0-1.2","SS1619115296274","trial","","40","500","1051.7800000016578","images/stimuli/spore_stims/simple_04_A_a.gif","images/stimuli/spore_stims/simple_15_A_b.gif","self_paced","","10","simple_dissimilar","images/stimuli/spore_stims/simple_15_A_b.gif","","","","",""
"","null","html-keyboard-response","131","323625","0.0-29.0-0.3","SS1619115296274","","","null","","","","","","<p><img src= images/blank.png width =""600"" height = ""600"" style=""position:fixed;top:50%; left:50%; transform: translate(-50%, -50%); border:5px solid black"">","","","","","","","",""
"","434.39500000025146","sequential-stimulus-presentation-old","132","324574","0.0-29.0-1.3","SS1619115296274","trial","","40","500","934.3950000002515","images/stimuli/spore_stims/simple_04_A_a.gif","images/stimuli/spore_stims/simple_15_A_b.gif","self_paced","","10","simple_dissimilar","images/stimuli/spore_stims/simple_15_A_b.gif","","","","",""
"","null","html-keyboard-response","133","325700","0.0-29.0-0.4","SS1619115296274","","","null","","","","","","<p><img src= images/blank.png width =""600"" height = ""600"" style=""position:fixed;top:50%; left:50%; transform: translate(-50%, -50%); border:5px solid black"">","","","","","","","",""
"","539.1600000002654","sequential-stimulus-presentation-old","134","326752","0.0-29.0-1.4","SS1619115296274","trial","","40","500","1039.1600000002654","images/stimuli/spore_stims/simple_04_A_a.gif","images/stimuli/spore_stims/simple_15_A_b.gif","self_paced","","10","simple_dissimilar","images/stimuli/spore_stims/simple_15_A_b.gif","","","","",""
"","2352.8299999997835","survey-multi-choice","135","329112","0.0-30.0","SS1619115296274","math_question","","","","","","","","","","","","{""Q0"":""6""}","[0]","6","",""
"","null","html-keyboard-response","136","330285","0.0-31.0-0.0","SS1619115296274","","","null","","","","","","<p><img src= images/blank.png width =""600"" height = ""600"" style=""position:fixed;top:50%; left:50%; transform: translate(-50%, -50%); border:5px solid black"">","","","","","","","",""
"","625.8650000017951","sequential-stimulus-presentation-old","137","331026","0.0-31.0-1.0","SS1619115296274","trial","","40","500","1125.8650000017951","images/stimuli/spore_stims/complex_01_A_b.gif","images/stimuli/spore_stims/complex_06_A_a.gif","forced_short","","11","complex_dissimilar","images/stimuli/spore_stims/complex_06_A_a.gif","","","","",""
"","null","html-keyboard-response","138","332255","0.0-31.0-0.1","SS1619115296274","","","null","","","","","","<p><img src= images/blank.png width =""600"" height = ""600"" style=""position:fixed;top:50%; left:50%; transform: translate(-50%, -50%); border:5px solid black"">","","","","","","","",""
"","19.765000000945292","sequential-stimulus-presentation-old","139","332785","0.0-31.0-1.1","SS1619115296274","trial","","40","500","519.7650000009453","images/stimuli/spore_stims/complex_01_A_b.gif","images/stimuli/spore_stims/complex_06_A_a.gif","forced_short","","11","complex_dissimilar","images/stimuli/spore_stims/complex_06_A_a.gif","","","","",""
"","null","html-keyboard-response","140","333658","0.0-31.0-0.2","SS1619115296274","","","null","","","","","","<p><img src= images/blank.png width =""600"" height = ""600"" style=""position:fixed;top:50%; left:50%; transform: translate(-50%, -50%); border:5px solid black"">","","","","","","","",""
"","753.7650000012945","sequential-stimulus-presentation-old","141","334924","0.0-31.0-1.2","SS1619115296274","trial","","40","500","1253.7650000012945","images/stimuli/spore_stims/complex_01_A_b.gif","images/stimuli/spore_stims/complex_06_A_a.gif","forced_short","","11","complex_dissimilar","images/stimuli/spore_stims/complex_06_A_a.gif","","","","",""
"","null","html-keyboard-response","142","336177","0.0-31.0-0.3","SS1619115296274","","","null","","","","","","<p><img src= images/blank.png width =""600"" height = ""600"" style=""position:fixed;top:50%; left:50%; transform: translate(-50%, -50%); border:5px solid black"">","","","","","","","",""
"","982.5300000011921","sequential-stimulus-presentation-old","143","337669","0.0-31.0-1.3","SS1619115296274","trial","","40","500","1482.530000001192","images/stimuli/spore_stims/complex_01_A_b.gif","images/stimuli/spore_stims/complex_06_A_a.gif","forced_short","","11","complex_dissimilar","images/stimuli/spore_stims/complex_06_A_a.gif","","","","",""
"","null","html-keyboard-response","144","338686","0.0-31.0-0.4","SS1619115296274","","","null","","","","","","<p><img src= images/blank.png width =""600"" height = ""600"" style=""position:fixed;top:50%; left:50%; transform: translate(-50%, -50%); border:5px solid black"">","","","","","","","",""
"","527.5399999991059","sequential-stimulus-presentation-old","145","339729","0.0-31.0-1.4","SS1619115296274","trial","","40","500","1027.539999999106","images/stimuli/spore_stims/complex_01_A_b.gif","images/stimuli/spore_stims/complex_06_A_a.gif","forced_short","","11","complex_dissimilar","images/stimuli/spore_stims/complex_06_A_a.gif","","","","",""
"","null","html-keyboard-response","146","340663","0.0-31.0-0.5","SS1619115296274","","","null","","","","","","<p><img src= images/blank.png width =""600"" height = ""600"" style=""position:fixed;top:50%; left:50%; transform: translate(-50%, -50%); border:5px solid black"">","","","","","","","",""
"","354.64499999943655","sequential-stimulus-presentation-old","147","341534","0.0-31.0-1.5","SS1619115296274","trial","","40","500","854.6449999994365","images/stimuli/spore_stims/complex_01_A_b.gif","images/stimuli/spore_stims/complex_06_A_a.gif","forced_short","","11","complex_dissimilar","images/stimuli/spore_stims/complex_06_A_a.gif","","","","",""
"[{""page_index"":0,""viewing_time"":2428.4149999984656}]","2428.68499999895","instructions","148","343972","0.0-32.0","SS1619115296274","instructions","","","","","","","","","","","","","","","",""
"","3447.0099999998347","survey-likert","149","347429","0.0-33.0","SS1619115296274","similarity_question","","","","","","","","","","","","{""Q0"":4}","[0]","","images/stimuli/spore_stims/complex_18_A_b.gif","images/stimuli/spore_stims/complex_12_A_a.gif"
"","4034.359999997774","survey-likert","150","351475","0.0-34.0","SS1619115296274","similarity_question","","","","","","","","","","","","{""Q0"":2}","[0]","","images/stimuli/spore_stims/simple_11_A_a.gif","images/stimuli/spore_stims/simple_18_A_b.gif"
"","2863.2499999984866","survey-likert","151","354352","0.0-35.0","SS1619115296274","similarity_question","","","","","","","","","","","","{""Q0"":4}","[0]","","images/stimuli/spore_stims/simple_04_A_a.gif","images/stimuli/spore_stims/simple_15_A_b.gif"
"","2881.16500000254","survey-likert","152","357246","0.0-36.0","SS1619115296274","similarity_question","","","","","","","","","","","","{""Q0"":5}","[0]","","images/stimuli/spore_stims/simple_01_A_a.gif","images/stimuli/spore_stims/simple_03_A_b.gif"
"","4531.440000002505","survey-likert","153","361788","0.0-37.0","SS1619115296274","similarity_question","","","","","","","","","","","","{""Q0"":4}","[0]","","images/stimuli/spore_stims/complex_10_A_a.gif","images/stimuli/spore_stims/complex_13_A_b.gif"
"","3684.63999999949","survey-likert","154","365485","0.0-38.0","SS1619115296274","similarity_question","","","","","","","","","","","","{""Q0"":5}","[0]","","images/stimuli/spore_stims/simple_18_A_a.gif","images/stimuli/spore_stims/simple_16_A_b.gif"
"","4058.629999999539","survey-likert","155","369556","0.0-39.0","SS1619115296274","similarity_question","","","","","","","","","","","","{""Q0"":4}","[0]","","images/stimuli/spore_stims/simple_16_A_a.gif","images/stimuli/spore_stims/simple_14_A_b.gif"
"","4519.870000000112","survey-likert","156","374088","0.0-40.0","SS1619115296274","similarity_question","","","","","","","","","","","","{""Q0"":2}","[0]","","images/stimuli/spore_stims/complex_06_A_b.gif","images/stimuli/spore_stims/complex_05_A_a.gif"
"","3399.4000000020606","survey-likert","157","377499","0.0-41.0","SS1619115296274","similarity_question","","","","","","","","","","","","{""Q0"":6}","[0]","","images/stimuli/spore_stims/simple_06_A_a.gif","images/stimuli/spore_stims/simple_01_A_b.gif"
"","3549.895000000077","survey-likert","158","381061","0.0-42.0","SS1619115296274","similarity_question","","","","","","","","","","","","{""Q0"":2}","[0]","","images/stimuli/spore_stims/complex_05_A_b.gif","images/stimuli/spore_stims/complex_15_A_a.gif"
"","4424.030000001949","survey-likert","159","385499","0.0-43.0","SS1619115296274","similarity_question","","","","","","","","","","","","{""Q0"":1}","[0]","","images/stimuli/spore_stims/complex_08_A_a.gif","images/stimuli/spore_stims/complex_16_A_b.gif"
"","4625.425000002026","survey-likert","160","390143","0.0-44.0","SS1619115296274","similarity_question","","","","","","","","","","","","{""Q0"":4}","[0]","","images/stimuli/spore_stims/complex_06_A_a.gif","images/stimuli/spore_stims/complex_01_A_b.gif"
"[{""page_index"":0,""viewing_time"":2472.1799999970244}]","2472.545000000566","instructions","161","392630","0.0-45.0","SS1619115296274","instructions","","","","","","","","","","","","","","","",""
"","2923.6950000013458","survey-likert","162","395565","0.0-46.0","SS1619115296274","","","","","","","","","images/stimuli/spore_stims/simple_04_A_a.gif","","","","{""Q0"":1}","[0]","","",""
"","2520.5349999996834","survey-likert","163","398100","0.0-47.0","SS1619115296274","","","","","","","","","images/stimuli/spore_stims/complex_16_A_b.gif","","","","{""Q0"":6}","[0]","","",""
"","3162.11000000115","survey-likert","164","401275","0.0-48.0","SS1619115296274","","","","","","","","","images/stimuli/spore_stims/simple_03_A_b.gif","","","","{""Q0"":2}","[0]","","",""
"","2657.9249999995227","survey-likert","165","403947","0.0-49.0","SS1619115296274","","","","","","","","","images/stimuli/spore_stims/complex_06_A_a.gif","","","","{""Q0"":5}","[0]","","",""
"","2926.5599999999395","survey-likert","166","406886","0.0-50.0","SS1619115296274","","","","","","","","","images/stimuli/spore_stims/simple_06_A_a.gif","","","","{""Q0"":1}","[0]","","",""
"","3410.5800000033923","survey-likert","167","410310","0.0-51.0","SS1619115296274","","","","","","","","","images/stimuli/spore_stims/complex_10_A_a.gif","","","","{""Q0"":5}","[0]","","",""
"","3321.7100000001956","survey-likert","168","413645","0.0-52.0","SS1619115296274","","","","","","","","","images/stimuli/spore_stims/simple_11_A_a.gif","","","","{""Q0"":1}","[0]","","",""
"","2507.7850000016624","survey-likert","169","416164","0.0-53.0","SS1619115296274","","","","","","","","","images/stimuli/spore_stims/complex_18_A_b.gif","","","","{""Q0"":5}","[0]","","",""
"","2930.725000002014","survey-likert","170","419114","0.0-54.0","SS1619115296274","","","","","","","","","images/stimuli/spore_stims/simple_14_A_b.gif","","","","{""Q0"":0}","[0]","","",""
"","2083.0650000025053","survey-likert","171","421212","0.0-55.0","SS1619115296274","","","","","","","","","images/stimuli/spore_stims/complex_06_A_b.gif","","","","{""Q0"":4}","[0]","","",""
"","3657.8649999973713","survey-likert","172","424889","0.0-56.0","SS1619115296274","","","","","","","","","images/stimuli/spore_stims/complex_05_A_b.gif","","","","{""Q0"":5}","[0]","","",""
"","3152.269999998738","survey-likert","173","428055","0.0-57.0","SS1619115296274","","","","","","","","","images/stimuli/spore_stims/simple_18_A_a.gif","","","","{""Q0"":2}","[0]","","",""
"[{""page_index"":0,""viewing_time"":1462.6100000023143}]","1462.875000001106","instructions","174","429530","0.0-58.0","SS1619115296274","instructions","","","","","","","","","","","","","","","",""
"","2807.63499999739","demog-age","175","432353","0.0-59.0","SS1619115296274","","","","","","","","","","","","","{""age"":""36""}","","","",""
"","2273.395000000135","demog-ethnic-US","176","434649","0.0-60.0","SS1619115296274","","","","","","","","","","","","","{""ethnicity"":[""White""]}","[0]","","",""
"","4046.1900000009337","demog-gender-and-education","177","438710","0.0-61.0","SS1619115296274","","","","","","","","","","","","","{""gender"":""Male"",""education"":""Bachelor's Degree""}","[0,1]","","",""
"","9648.440000000817","survey-text","178","448373","0.0-62.0","SS1619115296274","feedback","","","","","","","","","","","","{""Q0"":""Everything worked well.""}","","","",""
"[{""page_index"":0,""viewing_time"":1192.7750000031665}]","1193.2600000000093","instructions","179","449581","0.0-63.0","SS1619115296274","instructions","","","","","","","","","","","","","","","",""
