"view_history","rt","trial_type","trial_index","time_elapsed","internal_node_id","subject","stimulus_type","trial_stimulus","key_press","minimum_viewing_duration","trial_looking_time","block_deviant","block_background","exposure_type","stimulus","block_number","block_type","stimulus_displayed","responses","question_order","math_correct_answer","stimulus_left","stimulus_right"
"[{""page_index"":0,""viewing_time"":2013.4050000051502}]","2013.6099999945145","instructions","0","2014","0.0-0.0","SS1619115458314","","","","","","","","","","","","","","","","",""
"[{""page_index"":0,""viewing_time"":7406.2250000133645},{""page_index"":1,""viewing_time"":6023.584999988088}]","13429.94999999064","instructions","1","17447","0.0-1.0","SS1619115458314","instructions","","","","","","","","","","","","","","","",""
"","6528.575000003912","sequential-stimulus-presentation-old","2","24477","0.0-2.0","SS1619115458314","","","40","500","7028.575000003912","null","null","self_paced","","","","","","","","",""
"","713.4950000036042","sequential-stimulus-presentation-old","3","25692","0.0-3.0","SS1619115458314","","","40","500","1213.4950000036042","null","null","self_paced","","","","","","","","",""
"[{""page_index"":0,""viewing_time"":10196.075000014389}]","10196.200000005774","instructions","4","35889","0.0-4.0","SS1619115458314","instructions","","","","","","","","","","","","","","","",""
"","707.2749999933876","sequential-stimulus-presentation-old","5","46616","0.0-5.0","SS1619115458314","","","40","500","1207.2749999933876","null","null","forced_long","","","","","","","","",""
"","3531.3850000093225","sequential-stimulus-presentation-old","6","50245","0.0-6.0","SS1619115458314","","","40","500","4031.3850000093225","null","null","forced_long","","","","","","","","",""
"[{""page_index"":0,""viewing_time"":2732.8550000092946}]","2733.005000016419","instructions","7","52979","0.0-7.0","SS1619115458314","instructions","","","","","","","","","","","","","","","",""
"[{""page_index"":0,""viewing_time"":3628.8000000058673},{""page_index"":1,""viewing_time"":4932.93999999878},{""page_index"":2,""viewing_time"":6261.230000003707},{""page_index"":3,""viewing_time"":1613.9299999922514},{""page_index"":4,""viewing_time"":1275.7700000074692}]","17712.865000008605","instructions","8","70693","0.0-8.0","SS1619115458314","instructions","","","","","","","","","","","","","","","",""
"","null","html-keyboard-response","9","71917","0.0-9.0-0.0","SS1619115458314","","","null","","","","","","<p><img src= images/blank.png width =""600"" height = ""600"" style=""position:fixed;top:50%; left:50%; transform: translate(-50%, -50%); border:5px solid black"">","","","","","","","",""
"","1708.4800000011455","sequential-stimulus-presentation-old","10","74129","0.0-9.0-1.0","SS1619115458314","trial","","40","500","2208.4800000011455","images/stimuli/spore_stims/complex_18_A_b.gif","images/stimuli/spore_stims/complex_19_A_a.gif","self_paced","","0","complex_dissimilar","images/stimuli/spore_stims/complex_19_A_a.gif","","","","",""
"","null","html-keyboard-response","11","74937","0.0-9.0-0.1","SS1619115458314","","","null","","","","","","<p><img src= images/blank.png width =""600"" height = ""600"" style=""position:fixed;top:50%; left:50%; transform: translate(-50%, -50%); border:5px solid black"">","","","","","","","",""
"","736.3149999873713","sequential-stimulus-presentation-old","12","76176","0.0-9.0-1.1","SS1619115458314","trial","","40","500","1236.3149999873713","images/stimuli/spore_stims/complex_18_A_b.gif","images/stimuli/spore_stims/complex_19_A_a.gif","self_paced","","0","complex_dissimilar","images/stimuli/spore_stims/complex_18_A_b.gif","","","","",""
"","null","html-keyboard-response","13","77013","0.0-9.0-0.2","SS1619115458314","","","null","","","","","","<p><img src= images/blank.png width =""600"" height = ""600"" style=""position:fixed;top:50%; left:50%; transform: translate(-50%, -50%); border:5px solid black"">","","","","","","","",""
"","396.83499999227934","sequential-stimulus-presentation-old","14","77912","0.0-9.0-1.2","SS1619115458314","trial","","40","500","896.8349999922793","images/stimuli/spore_stims/complex_18_A_b.gif","images/stimuli/spore_stims/complex_19_A_a.gif","self_paced","","0","complex_dissimilar","images/stimuli/spore_stims/complex_19_A_a.gif","","","","",""
"","null","html-keyboard-response","15","79148","0.0-9.0-0.3","SS1619115458314","","","null","","","","","","<p><img src= images/blank.png width =""600"" height = ""600"" style=""position:fixed;top:50%; left:50%; transform: translate(-50%, -50%); border:5px solid black"">","","","","","","","",""
"","4415.09500000393","sequential-stimulus-presentation-old","16","84074","0.0-9.0-1.3","SS1619115458314","trial","","40","500","4915.09500000393","images/stimuli/spore_stims/complex_18_A_b.gif","images/stimuli/spore_stims/complex_19_A_a.gif","self_paced","","0","complex_dissimilar","images/stimuli/spore_stims/complex_19_A_a.gif","","","","",""
"","null","html-keyboard-response","17","85068","0.0-9.0-0.4","SS1619115458314","","","null","","","","","","<p><img src= images/blank.png width =""600"" height = ""600"" style=""position:fixed;top:50%; left:50%; transform: translate(-50%, -50%); border:5px solid black"">","","","","","","","",""
"","190.80499999108724","sequential-stimulus-presentation-old","18","85766","0.0-9.0-1.4","SS1619115458314","trial","","40","500","690.8049999910872","images/stimuli/spore_stims/complex_18_A_b.gif","images/stimuli/spore_stims/complex_19_A_a.gif","self_paced","","0","complex_dissimilar","images/stimuli/spore_stims/complex_19_A_a.gif","","","","",""
"","3497.964999987744","survey-multi-choice","19","89269","0.0-10.0","SS1619115458314","math_question","","","","","","","","","","","","{""Q0"":""12""}","[0]","12","",""
"","null","html-keyboard-response","20","90276","0.0-11.0-0.0","SS1619115458314","","","null","","","","","","<p><img src= images/blank.png width =""600"" height = ""600"" style=""position:fixed;top:50%; left:50%; transform: translate(-50%, -50%); border:5px solid black"">","","","","","","","",""
"","742.4949999840464","sequential-stimulus-presentation-old","21","101027","0.0-11.0-1.0","SS1619115458314","trial","","40","500","1242.4949999840464","images/stimuli/spore_stims/complex_16_A_b.gif","images/stimuli/spore_stims/complex_09_A_a.gif","forced_long","","1","complex_dissimilar","images/stimuli/spore_stims/complex_09_A_a.gif","","","","",""
"","null","html-keyboard-response","22","102159","0.0-11.0-0.1","SS1619115458314","","","null","","","","","","<p><img src= images/blank.png width =""600"" height = ""600"" style=""position:fixed;top:50%; left:50%; transform: translate(-50%, -50%); border:5px solid black"">","","","","","","","",""
"","51.82499997317791","sequential-stimulus-presentation-old","23","102712","0.0-11.0-1.1","SS1619115458314","trial","","40","500","551.8249999731779","images/stimuli/spore_stims/complex_16_A_b.gif","images/stimuli/spore_stims/complex_09_A_a.gif","forced_long","","1","complex_dissimilar","images/stimuli/spore_stims/complex_16_A_b.gif","","","","",""
"","null","html-keyboard-response","24","104005","0.0-11.0-0.2","SS1619115458314","","","null","","","","","","<p><img src= images/blank.png width =""600"" height = ""600"" style=""position:fixed;top:50%; left:50%; transform: translate(-50%, -50%); border:5px solid black"">","","","","","","","",""
"","2466.615000012098","sequential-stimulus-presentation-old","25","106975","0.0-11.0-1.2","SS1619115458314","trial","","40","500","2966.615000012098","images/stimuli/spore_stims/complex_16_A_b.gif","images/stimuli/spore_stims/complex_09_A_a.gif","forced_long","","1","complex_dissimilar","images/stimuli/spore_stims/complex_09_A_a.gif","","","","",""
"","null","html-keyboard-response","26","108229","0.0-11.0-0.3","SS1619115458314","","","null","","","","","","<p><img src= images/blank.png width =""600"" height = ""600"" style=""position:fixed;top:50%; left:50%; transform: translate(-50%, -50%); border:5px solid black"">","","","","","","","",""
"","61.35000000358559","sequential-stimulus-presentation-old","27","108807","0.0-11.0-1.3","SS1619115458314","trial","","40","500","561.3500000035856","images/stimuli/spore_stims/complex_16_A_b.gif","images/stimuli/spore_stims/complex_09_A_a.gif","forced_long","","1","complex_dissimilar","images/stimuli/spore_stims/complex_09_A_a.gif","","","","",""
"","4762.985000008484","survey-multi-choice","28","113576","0.0-12.0","SS1619115458314","math_question","","","","","","","","","","","","{""Q0"":""7""}","[0]","7","",""
"","null","html-keyboard-response","29","114671","0.0-13.0-0.0","SS1619115458314","","","null","","","","","","<p><img src= images/blank.png width =""600"" height = ""600"" style=""position:fixed;top:50%; left:50%; transform: translate(-50%, -50%); border:5px solid black"">","","","","","","","",""
"","168.39999999501742","sequential-stimulus-presentation-old","30","115344","0.0-13.0-1.0","SS1619115458314","trial","","40","500","668.3999999950174","images/stimuli/spore_stims/complex_12_A_b.gif","images/stimuli/spore_stims/complex_13_A_a.gif","self_paced","","2","complex_dissimilar","images/stimuli/spore_stims/complex_13_A_a.gif","","","","",""
"","null","html-keyboard-response","31","116573","0.0-13.0-0.1","SS1619115458314","","","null","","","","","","<p><img src= images/blank.png width =""600"" height = ""600"" style=""position:fixed;top:50%; left:50%; transform: translate(-50%, -50%); border:5px solid black"">","","","","","","","",""
"","86.03999999468215","sequential-stimulus-presentation-old","32","117164","0.0-13.0-1.1","SS1619115458314","trial","","40","500","586.0399999946821","images/stimuli/spore_stims/complex_12_A_b.gif","images/stimuli/spore_stims/complex_13_A_a.gif","self_paced","","2","complex_dissimilar","images/stimuli/spore_stims/complex_13_A_a.gif","","","","",""
"","null","html-keyboard-response","33","118154","0.0-13.0-0.2","SS1619115458314","","","null","","","","","","<p><img src= images/blank.png width =""600"" height = ""600"" style=""position:fixed;top:50%; left:50%; transform: translate(-50%, -50%); border:5px solid black"">","","","","","","","",""
"","8.990000002086163","sequential-stimulus-presentation-old","34","118667","0.0-13.0-1.2","SS1619115458314","trial","","40","500","508.99000000208616","images/stimuli/spore_stims/complex_12_A_b.gif","images/stimuli/spore_stims/complex_13_A_a.gif","self_paced","","2","complex_dissimilar","images/stimuli/spore_stims/complex_13_A_a.gif","","","","",""
"","null","html-keyboard-response","35","119499","0.0-13.0-0.3","SS1619115458314","","","null","","","","","","<p><img src= images/blank.png width =""600"" height = ""600"" style=""position:fixed;top:50%; left:50%; transform: translate(-50%, -50%); border:5px solid black"">","","","","","","","",""
"","791.8199999839999","sequential-stimulus-presentation-old","36","120794","0.0-13.0-1.3","SS1619115458314","trial","","40","500","1291.8199999839999","images/stimuli/spore_stims/complex_12_A_b.gif","images/stimuli/spore_stims/complex_13_A_a.gif","self_paced","","2","complex_dissimilar","images/stimuli/spore_stims/complex_13_A_a.gif","","","","",""
"","3397.510000009788","survey-multi-choice","37","124193","0.0-14.0","SS1619115458314","math_question","","","","","","","","","","","","{""Q0"":""11""}","[0]","11","",""
"","null","html-keyboard-response","38","125174","0.0-15.0-0.0","SS1619115458314","","","null","","","","","","<p><img src= images/blank.png width =""600"" height = ""600"" style=""position:fixed;top:50%; left:50%; transform: translate(-50%, -50%); border:5px solid black"">","","","","","","","",""
"","215.46000000671484","sequential-stimulus-presentation-old","39","125893","0.0-15.0-1.0","SS1619115458314","trial","","40","500","715.4600000067148","images/stimuli/spore_stims/simple_20_A_b.gif","images/stimuli/spore_stims/simple_10_A_a.gif","self_paced","","3","simple_dissimilar","images/stimuli/spore_stims/simple_10_A_a.gif","","","","",""
"","null","html-keyboard-response","40","127071","0.0-15.0-0.1","SS1619115458314","","","null","","","","","","<p><img src= images/blank.png width =""600"" height = ""600"" style=""position:fixed;top:50%; left:50%; transform: translate(-50%, -50%); border:5px solid black"">","","","","","","","",""
"","472.42500001448207","sequential-stimulus-presentation-old","41","128053","0.0-15.0-1.1","SS1619115458314","trial","","40","500","972.4250000144821","images/stimuli/spore_stims/simple_20_A_b.gif","images/stimuli/spore_stims/simple_10_A_a.gif","self_paced","","3","simple_dissimilar","images/stimuli/spore_stims/simple_10_A_a.gif","","","","",""
"","null","html-keyboard-response","42","129190","0.0-15.0-0.2","SS1619115458314","","","null","","","","","","<p><img src= images/blank.png width =""600"" height = ""600"" style=""position:fixed;top:50%; left:50%; transform: translate(-50%, -50%); border:5px solid black"">","","","","","","","",""
"","573.1750000268221","sequential-stimulus-presentation-old","43","130283","0.0-15.0-1.2","SS1619115458314","trial","","40","500","1073.175000026822","images/stimuli/spore_stims/simple_20_A_b.gif","images/stimuli/spore_stims/simple_10_A_a.gif","self_paced","","3","simple_dissimilar","images/stimuli/spore_stims/simple_10_A_a.gif","","","","",""
"","null","html-keyboard-response","44","131199","0.0-15.0-0.3","SS1619115458314","","","null","","","","","","<p><img src= images/blank.png width =""600"" height = ""600"" style=""position:fixed;top:50%; left:50%; transform: translate(-50%, -50%); border:5px solid black"">","","","","","","","",""
"","646.3750000111759","sequential-stimulus-presentation-old","45","132348","0.0-15.0-1.3","SS1619115458314","trial","","40","500","1146.3750000111759","images/stimuli/spore_stims/simple_20_A_b.gif","images/stimuli/spore_stims/simple_10_A_a.gif","self_paced","","3","simple_dissimilar","images/stimuli/spore_stims/simple_10_A_a.gif","","","","",""
"","3002.7100000006612","survey-multi-choice","46","135352","0.0-16.0","SS1619115458314","math_question","","","","","","","","","","","","{""Q0"":""10""}","[0]","10","",""
"","null","html-keyboard-response","47","136225","0.0-17.0-0.0","SS1619115458314","","","null","","","","","","<p><img src= images/blank.png width =""600"" height = ""600"" style=""position:fixed;top:50%; left:50%; transform: translate(-50%, -50%); border:5px solid black"">","","","","","","","",""
"","396.44500002032146","sequential-stimulus-presentation-old","48","146624","0.0-17.0-1.0","SS1619115458314","trial","","40","500","896.4450000203215","images/stimuli/spore_stims/simple_06_A_a.gif","images/stimuli/spore_stims/simple_04_A_b.gif","forced_long","","4","simple_dissimilar","images/stimuli/spore_stims/simple_04_A_b.gif","","","","",""
"","null","html-keyboard-response","49","147604","0.0-17.0-0.1","SS1619115458314","","","null","","","","","","<p><img src= images/blank.png width =""600"" height = ""600"" style=""position:fixed;top:50%; left:50%; transform: translate(-50%, -50%); border:5px solid black"">","","","","","","","",""
"","1251.4050000172574","sequential-stimulus-presentation-old","50","149361","0.0-17.0-1.1","SS1619115458314","trial","","40","500","1751.4050000172574","images/stimuli/spore_stims/simple_06_A_a.gif","images/stimuli/spore_stims/simple_04_A_b.gif","forced_long","","4","simple_dissimilar","images/stimuli/spore_stims/simple_04_A_b.gif","","","","",""
"","null","html-keyboard-response","51","150629","0.0-17.0-0.2","SS1619115458314","","","null","","","","","","<p><img src= images/blank.png width =""600"" height = ""600"" style=""position:fixed;top:50%; left:50%; transform: translate(-50%, -50%); border:5px solid black"">","","","","","","","",""
"","628.934999986086","sequential-stimulus-presentation-old","52","151762","0.0-17.0-1.2","SS1619115458314","trial","","40","500","1128.934999986086","images/stimuli/spore_stims/simple_06_A_a.gif","images/stimuli/spore_stims/simple_04_A_b.gif","forced_long","","4","simple_dissimilar","images/stimuli/spore_stims/simple_04_A_b.gif","","","","",""
"","null","html-keyboard-response","53","152585","0.0-17.0-0.3","SS1619115458314","","","null","","","","","","<p><img src= images/blank.png width =""600"" height = ""600"" style=""position:fixed;top:50%; left:50%; transform: translate(-50%, -50%); border:5px solid black"">","","","","","","","",""
"","148.1050000002142","sequential-stimulus-presentation-old","54","153237","0.0-17.0-1.3","SS1619115458314","trial","","40","500","648.1050000002142","images/stimuli/spore_stims/simple_06_A_a.gif","images/stimuli/spore_stims/simple_04_A_b.gif","forced_long","","4","simple_dissimilar","images/stimuli/spore_stims/simple_04_A_b.gif","","","","",""
"","null","html-keyboard-response","55","154210","0.0-17.0-0.4","SS1619115458314","","","null","","","","","","<p><img src= images/blank.png width =""600"" height = ""600"" style=""position:fixed;top:50%; left:50%; transform: translate(-50%, -50%); border:5px solid black"">","","","","","","","",""
"","233.96499999216758","sequential-stimulus-presentation-old","56","154947","0.0-17.0-1.4","SS1619115458314","trial","","40","500","733.9649999921676","images/stimuli/spore_stims/simple_06_A_a.gif","images/stimuli/spore_stims/simple_04_A_b.gif","forced_long","","4","simple_dissimilar","images/stimuli/spore_stims/simple_04_A_b.gif","","","","",""
"","null","html-keyboard-response","57","155956","0.0-17.0-0.5","SS1619115458314","","","null","","","","","","<p><img src= images/blank.png width =""600"" height = ""600"" style=""position:fixed;top:50%; left:50%; transform: translate(-50%, -50%); border:5px solid black"">","","","","","","","",""
"","284.8099999828264","sequential-stimulus-presentation-old","58","156754","0.0-17.0-1.5","SS1619115458314","trial","","40","500","784.8099999828264","images/stimuli/spore_stims/simple_06_A_a.gif","images/stimuli/spore_stims/simple_04_A_b.gif","forced_long","","4","simple_dissimilar","images/stimuli/spore_stims/simple_04_A_b.gif","","","","",""
"","5099.404999986291","survey-multi-choice","59","161855","0.0-18.0","SS1619115458314","math_question","","","","","","","","","","","","{""Q0"":""16""}","[0]","16","",""
"","null","html-keyboard-response","60","162702","0.0-19.0-0.0","SS1619115458314","","","null","","","","","","<p><img src= images/blank.png width =""600"" height = ""600"" style=""position:fixed;top:50%; left:50%; transform: translate(-50%, -50%); border:5px solid black"">","","","","","","","",""
"","136.144999996759","sequential-stimulus-presentation-old","61","172856","0.0-19.0-1.0","SS1619115458314","trial","","40","500","636.144999996759","images/stimuli/spore_stims/simple_15_A_b.gif","images/stimuli/spore_stims/simple_05_A_a.gif","forced_long","","5","simple_dissimilar","images/stimuli/spore_stims/simple_05_A_a.gif","","","","",""
"","null","html-keyboard-response","62","173662","0.0-19.0-0.1","SS1619115458314","","","null","","","","","","<p><img src= images/blank.png width =""600"" height = ""600"" style=""position:fixed;top:50%; left:50%; transform: translate(-50%, -50%); border:5px solid black"">","","","","","","","",""
"","904.8900000052527","sequential-stimulus-presentation-old","63","175077","0.0-19.0-1.1","SS1619115458314","trial","","40","500","1404.8900000052527","images/stimuli/spore_stims/simple_15_A_b.gif","images/stimuli/spore_stims/simple_05_A_a.gif","forced_long","","5","simple_dissimilar","images/stimuli/spore_stims/simple_05_A_a.gif","","","","",""
"","null","html-keyboard-response","64","176107","0.0-19.0-0.2","SS1619115458314","","","null","","","","","","<p><img src= images/blank.png width =""600"" height = ""600"" style=""position:fixed;top:50%; left:50%; transform: translate(-50%, -50%); border:5px solid black"">","","","","","","","",""
"","553.3299999951851","sequential-stimulus-presentation-old","65","177163","0.0-19.0-1.2","SS1619115458314","trial","","40","500","1053.329999995185","images/stimuli/spore_stims/simple_15_A_b.gif","images/stimuli/spore_stims/simple_05_A_a.gif","forced_long","","5","simple_dissimilar","images/stimuli/spore_stims/simple_05_A_a.gif","","","","",""
"","null","html-keyboard-response","66","178123","0.0-19.0-0.3","SS1619115458314","","","null","","","","","","<p><img src= images/blank.png width =""600"" height = ""600"" style=""position:fixed;top:50%; left:50%; transform: translate(-50%, -50%); border:5px solid black"">","","","","","","","",""
"","424.3900000001304","sequential-stimulus-presentation-old","67","179068","0.0-19.0-1.3","SS1619115458314","trial","","40","500","924.3900000001304","images/stimuli/spore_stims/simple_15_A_b.gif","images/stimuli/spore_stims/simple_05_A_a.gif","forced_long","","5","simple_dissimilar","images/stimuli/spore_stims/simple_05_A_a.gif","","","","",""
"","null","html-keyboard-response","68","180160","0.0-19.0-0.4","SS1619115458314","","","null","","","","","","<p><img src= images/blank.png width =""600"" height = ""600"" style=""position:fixed;top:50%; left:50%; transform: translate(-50%, -50%); border:5px solid black"">","","","","","","","",""
"","304.3150000157766","sequential-stimulus-presentation-old","69","180973","0.0-19.0-1.4","SS1619115458314","trial","","40","500","804.3150000157766","images/stimuli/spore_stims/simple_15_A_b.gif","images/stimuli/spore_stims/simple_05_A_a.gif","forced_long","","5","simple_dissimilar","images/stimuli/spore_stims/simple_05_A_a.gif","","","","",""
"","null","html-keyboard-response","70","182200","0.0-19.0-0.5","SS1619115458314","","","null","","","","","","<p><img src= images/blank.png width =""600"" height = ""600"" style=""position:fixed;top:50%; left:50%; transform: translate(-50%, -50%); border:5px solid black"">","","","","","","","",""
"","261.11500000115484","sequential-stimulus-presentation-old","71","182965","0.0-19.0-1.5","SS1619115458314","trial","","40","500","761.1150000011548","images/stimuli/spore_stims/simple_15_A_b.gif","images/stimuli/spore_stims/simple_05_A_a.gif","forced_long","","5","simple_dissimilar","images/stimuli/spore_stims/simple_15_A_b.gif","","","","",""
"","3121.6700000222772","survey-multi-choice","72","186089","0.0-20.0","SS1619115458314","math_question","","","","","","","","","","","","{""Q0"":""9""}","[0]","9","",""
"","null","html-keyboard-response","73","187074","0.0-21.0-0.0","SS1619115458314","","","null","","","","","","<p><img src= images/blank.png width =""600"" height = ""600"" style=""position:fixed;top:50%; left:50%; transform: translate(-50%, -50%); border:5px solid black"">","","","","","","","",""
"","581.7249999963678","sequential-stimulus-presentation-old","74","197658","0.0-21.0-1.0","SS1619115458314","trial","","40","500","1081.7249999963678","images/stimuli/spore_stims/complex_04_A_a.gif","images/stimuli/spore_stims/complex_13_A_b.gif","forced_long","","6","complex_dissimilar","images/stimuli/spore_stims/complex_13_A_b.gif","","","","",""
"","null","html-keyboard-response","75","198877","0.0-21.0-0.1","SS1619115458314","","","null","","","","","","<p><img src= images/blank.png width =""600"" height = ""600"" style=""position:fixed;top:50%; left:50%; transform: translate(-50%, -50%); border:5px solid black"">","","","","","","","",""
"","757.2749999817461","sequential-stimulus-presentation-old","76","200137","0.0-21.0-1.1","SS1619115458314","trial","","40","500","1257.274999981746","images/stimuli/spore_stims/complex_04_A_a.gif","images/stimuli/spore_stims/complex_13_A_b.gif","forced_long","","6","complex_dissimilar","images/stimuli/spore_stims/complex_13_A_b.gif","","","","",""
"","null","html-keyboard-response","77","201247","0.0-21.0-0.2","SS1619115458314","","","null","","","","","","<p><img src= images/blank.png width =""600"" height = ""600"" style=""position:fixed;top:50%; left:50%; transform: translate(-50%, -50%); border:5px solid black"">","","","","","","","",""
"","369.7600000014063","sequential-stimulus-presentation-old","78","202118","0.0-21.0-1.2","SS1619115458314","trial","","40","500","869.7600000014063","images/stimuli/spore_stims/complex_04_A_a.gif","images/stimuli/spore_stims/complex_13_A_b.gif","forced_long","","6","complex_dissimilar","images/stimuli/spore_stims/complex_04_A_a.gif","","","","",""
"","null","html-keyboard-response","79","203402","0.0-21.0-0.3","SS1619115458314","","","null","","","","","","<p><img src= images/blank.png width =""600"" height = ""600"" style=""position:fixed;top:50%; left:50%; transform: translate(-50%, -50%); border:5px solid black"">","","","","","","","",""
"","200.09999998728745","sequential-stimulus-presentation-old","80","204119","0.0-21.0-1.3","SS1619115458314","trial","","40","500","700.0999999872874","images/stimuli/spore_stims/complex_04_A_a.gif","images/stimuli/spore_stims/complex_13_A_b.gif","forced_long","","6","complex_dissimilar","images/stimuli/spore_stims/complex_04_A_a.gif","","","","",""
"","null","html-keyboard-response","81","205237","0.0-21.0-0.4","SS1619115458314","","","null","","","","","","<p><img src= images/blank.png width =""600"" height = ""600"" style=""position:fixed;top:50%; left:50%; transform: translate(-50%, -50%); border:5px solid black"">","","","","","","","",""
"","197.9200000059791","sequential-stimulus-presentation-old","82","205937","0.0-21.0-1.4","SS1619115458314","trial","","40","500","697.9200000059791","images/stimuli/spore_stims/complex_04_A_a.gif","images/stimuli/spore_stims/complex_13_A_b.gif","forced_long","","6","complex_dissimilar","images/stimuli/spore_stims/complex_13_A_b.gif","","","","",""
"","3700.249999994412","survey-multi-choice","83","209639","0.0-22.0","SS1619115458314","math_question","","","","","","","","","","","","{""Q0"":""11""}","[0]","11","",""
"","null","html-keyboard-response","84","210506","0.0-23.0-0.0","SS1619115458314","","","null","","","","","","<p><img src= images/blank.png width =""600"" height = ""600"" style=""position:fixed;top:50%; left:50%; transform: translate(-50%, -50%); border:5px solid black"">","","","","","","","",""
"","858.4300000220537","sequential-stimulus-presentation-old","85","211479","0.0-23.0-1.0","SS1619115458314","trial","","40","500","1358.4300000220537","images/stimuli/spore_stims/complex_06_A_a.gif","images/stimuli/spore_stims/complex_05_A_b.gif","forced_short","","7","complex_dissimilar","images/stimuli/spore_stims/complex_05_A_b.gif","","","","",""
"","null","html-keyboard-response","86","212512","0.0-23.0-0.1","SS1619115458314","","","null","","","","","","<p><img src= images/blank.png width =""600"" height = ""600"" style=""position:fixed;top:50%; left:50%; transform: translate(-50%, -50%); border:5px solid black"">","","","","","","","",""
"","602.8400000068359","sequential-stimulus-presentation-old","87","213618","0.0-23.0-1.1","SS1619115458314","trial","","40","500","1102.840000006836","images/stimuli/spore_stims/complex_06_A_a.gif","images/stimuli/spore_stims/complex_05_A_b.gif","forced_short","","7","complex_dissimilar","images/stimuli/spore_stims/complex_05_A_b.gif","","","","",""
"","null","html-keyboard-response","88","214685","0.0-23.0-0.2","SS1619115458314","","","null","","","","","","<p><img src= images/blank.png width =""600"" height = ""600"" style=""position:fixed;top:50%; left:50%; transform: translate(-50%, -50%); border:5px solid black"">","","","","","","","",""
"","336.07499999925494","sequential-stimulus-presentation-old","89","215524","0.0-23.0-1.2","SS1619115458314","trial","","40","500","836.0749999992549","images/stimuli/spore_stims/complex_06_A_a.gif","images/stimuli/spore_stims/complex_05_A_b.gif","forced_short","","7","complex_dissimilar","images/stimuli/spore_stims/complex_06_A_a.gif","","","","",""
"","null","html-keyboard-response","90","216437","0.0-23.0-0.3","SS1619115458314","","","null","","","","","","<p><img src= images/blank.png width =""600"" height = ""600"" style=""position:fixed;top:50%; left:50%; transform: translate(-50%, -50%); border:5px solid black"">","","","","","","","",""
"","350.4100000136532","sequential-stimulus-presentation-old","91","217290","0.0-23.0-1.3","SS1619115458314","trial","","40","500","850.4100000136532","images/stimuli/spore_stims/complex_06_A_a.gif","images/stimuli/spore_stims/complex_05_A_b.gif","forced_short","","7","complex_dissimilar","images/stimuli/spore_stims/complex_05_A_b.gif","","","","",""
"","null","html-keyboard-response","92","218410","0.0-23.0-0.4","SS1619115458314","","","null","","","","","","<p><img src= images/blank.png width =""600"" height = ""600"" style=""position:fixed;top:50%; left:50%; transform: translate(-50%, -50%); border:5px solid black"">","","","","","","","",""
"","137.33999998657964","sequential-stimulus-presentation-old","93","219050","0.0-23.0-1.4","SS1619115458314","trial","","40","500","637.3399999865796","images/stimuli/spore_stims/complex_06_A_a.gif","images/stimuli/spore_stims/complex_05_A_b.gif","forced_short","","7","complex_dissimilar","images/stimuli/spore_stims/complex_05_A_b.gif","","","","",""
"","null","html-keyboard-response","94","220057","0.0-23.0-0.5","SS1619115458314","","","null","","","","","","<p><img src= images/blank.png width =""600"" height = ""600"" style=""position:fixed;top:50%; left:50%; transform: translate(-50%, -50%); border:5px solid black"">","","","","","","","",""
"","225.40500000468455","sequential-stimulus-presentation-old","95","220786","0.0-23.0-1.5","SS1619115458314","trial","","40","500","725.4050000046846","images/stimuli/spore_stims/complex_06_A_a.gif","images/stimuli/spore_stims/complex_05_A_b.gif","forced_short","","7","complex_dissimilar","images/stimuli/spore_stims/complex_06_A_a.gif","","","","",""
"","3801.485000003595","survey-multi-choice","96","224591","0.0-24.0","SS1619115458314","math_question","","","","","","","","","","","","{""Q0"":""12""}","[0]","12","",""
"","null","html-keyboard-response","97","225699","0.0-25.0-0.0","SS1619115458314","","","null","","","","","","<p><img src= images/blank.png width =""600"" height = ""600"" style=""position:fixed;top:50%; left:50%; transform: translate(-50%, -50%); border:5px solid black"">","","","","","","","",""
"","4781.9650000019465","sequential-stimulus-presentation-old","98","230596","0.0-25.0-1.0","SS1619115458314","trial","","40","500","5281.9650000019465","images/stimuli/spore_stims/complex_05_A_a.gif","images/stimuli/spore_stims/complex_14_A_b.gif","forced_short","","8","complex_dissimilar","images/stimuli/spore_stims/complex_14_A_b.gif","","","","",""
"","null","html-keyboard-response","99","231598","0.0-25.0-0.1","SS1619115458314","","","null","","","","","","<p><img src= images/blank.png width =""600"" height = ""600"" style=""position:fixed;top:50%; left:50%; transform: translate(-50%, -50%); border:5px solid black"">","","","","","","","",""
"","736.4900000102352","sequential-stimulus-presentation-old","100","232848","0.0-25.0-1.1","SS1619115458314","trial","","40","500","1236.4900000102352","images/stimuli/spore_stims/complex_05_A_a.gif","images/stimuli/spore_stims/complex_14_A_b.gif","forced_short","","8","complex_dissimilar","images/stimuli/spore_stims/complex_05_A_a.gif","","","","",""
"","null","html-keyboard-response","101","234074","0.0-25.0-0.2","SS1619115458314","","","null","","","","","","<p><img src= images/blank.png width =""600"" height = ""600"" style=""position:fixed;top:50%; left:50%; transform: translate(-50%, -50%); border:5px solid black"">","","","","","","","",""
"","194.790000008652","sequential-stimulus-presentation-old","102","234776","0.0-25.0-1.2","SS1619115458314","trial","","40","500","694.790000008652","images/stimuli/spore_stims/complex_05_A_a.gif","images/stimuli/spore_stims/complex_14_A_b.gif","forced_short","","8","complex_dissimilar","images/stimuli/spore_stims/complex_14_A_b.gif","","","","",""
"","null","html-keyboard-response","103","236078","0.0-25.0-0.3","SS1619115458314","","","null","","","","","","<p><img src= images/blank.png width =""600"" height = ""600"" style=""position:fixed;top:50%; left:50%; transform: translate(-50%, -50%); border:5px solid black"">","","","","","","","",""
"","174.40999997779727","sequential-stimulus-presentation-old","104","236760","0.0-25.0-1.3","SS1619115458314","trial","","40","500","674.4099999777973","images/stimuli/spore_stims/complex_05_A_a.gif","images/stimuli/spore_stims/complex_14_A_b.gif","forced_short","","8","complex_dissimilar","images/stimuli/spore_stims/complex_14_A_b.gif","","","","",""
"","3542.409999994561","survey-multi-choice","105","240306","0.0-26.0","SS1619115458314","math_question","","","","","","","","","","","","{""Q0"":""11""}","[0]","11","",""
"","null","html-keyboard-response","106","241551","0.0-27.0-0.0","SS1619115458314","","","null","","","","","","<p><img src= images/blank.png width =""600"" height = ""600"" style=""position:fixed;top:50%; left:50%; transform: translate(-50%, -50%); border:5px solid black"">","","","","","","","",""
"","430.2800000004936","sequential-stimulus-presentation-old","107","242086","0.0-27.0-1.0","SS1619115458314","trial","","40","500","930.2800000004936","images/stimuli/spore_stims/simple_06_A_b.gif","images/stimuli/spore_stims/simple_12_A_a.gif","forced_short","","9","simple_dissimilar","images/stimuli/spore_stims/simple_12_A_a.gif","","","","",""
"","null","html-keyboard-response","108","243285","0.0-27.0-0.1","SS1619115458314","","","null","","","","","","<p><img src= images/blank.png width =""600"" height = ""600"" style=""position:fixed;top:50%; left:50%; transform: translate(-50%, -50%); border:5px solid black"">","","","","","","","",""
"","307.9049999942072","sequential-stimulus-presentation-old","109","244100","0.0-27.0-1.1","SS1619115458314","trial","","40","500","807.9049999942072","images/stimuli/spore_stims/simple_06_A_b.gif","images/stimuli/spore_stims/simple_12_A_a.gif","forced_short","","9","simple_dissimilar","images/stimuli/spore_stims/simple_12_A_a.gif","","","","",""
"","null","html-keyboard-response","110","245025","0.0-27.0-0.2","SS1619115458314","","","null","","","","","","<p><img src= images/blank.png width =""600"" height = ""600"" style=""position:fixed;top:50%; left:50%; transform: translate(-50%, -50%); border:5px solid black"">","","","","","","","",""
"","239.9849999928847","sequential-stimulus-presentation-old","111","245784","0.0-27.0-1.2","SS1619115458314","trial","","40","500","739.9849999928847","images/stimuli/spore_stims/simple_06_A_b.gif","images/stimuli/spore_stims/simple_12_A_a.gif","forced_short","","9","simple_dissimilar","images/stimuli/spore_stims/simple_12_A_a.gif","","","","",""
"","null","html-keyboard-response","112","246985","0.0-27.0-0.3","SS1619115458314","","","null","","","","","","<p><img src= images/blank.png width =""600"" height = ""600"" style=""position:fixed;top:50%; left:50%; transform: translate(-50%, -50%); border:5px solid black"">","","","","","","","",""
"","47.74000000907108","sequential-stimulus-presentation-old","113","247536","0.0-27.0-1.3","SS1619115458314","trial","","40","500","547.7400000090711","images/stimuli/spore_stims/simple_06_A_b.gif","images/stimuli/spore_stims/simple_12_A_a.gif","forced_short","","9","simple_dissimilar","images/stimuli/spore_stims/simple_06_A_b.gif","","","","",""
"","3177.495000010822","survey-multi-choice","114","250715","0.0-28.0","SS1619115458314","math_question","","","","","","","","","","","","{""Q0"":""18""}","[0]","18","",""
"","null","html-keyboard-response","115","251990","0.0-29.0-0.0","SS1619115458314","","","null","","","","","","<p><img src= images/blank.png width =""600"" height = ""600"" style=""position:fixed;top:50%; left:50%; transform: translate(-50%, -50%); border:5px solid black"">","","","","","","","",""
"","390.29999999911524","sequential-stimulus-presentation-old","116","252899","0.0-29.0-1.0","SS1619115458314","trial","","40","500","890.2999999991152","images/stimuli/spore_stims/simple_16_A_a.gif","images/stimuli/spore_stims/simple_09_A_b.gif","self_paced","","10","simple_dissimilar","images/stimuli/spore_stims/simple_09_A_b.gif","","","","",""
"","null","html-keyboard-response","117","254188","0.0-29.0-0.1","SS1619115458314","","","null","","","","","","<p><img src= images/blank.png width =""600"" height = ""600"" style=""position:fixed;top:50%; left:50%; transform: translate(-50%, -50%); border:5px solid black"">","","","","","","","",""
"","220.195000001695","sequential-stimulus-presentation-old","118","254924","0.0-29.0-1.1","SS1619115458314","trial","","40","500","720.195000001695","images/stimuli/spore_stims/simple_16_A_a.gif","images/stimuli/spore_stims/simple_09_A_b.gif","self_paced","","10","simple_dissimilar","images/stimuli/spore_stims/simple_09_A_b.gif","","","","",""
"","null","html-keyboard-response","119","256086","0.0-29.0-0.2","SS1619115458314","","","null","","","","","","<p><img src= images/blank.png width =""600"" height = ""600"" style=""position:fixed;top:50%; left:50%; transform: translate(-50%, -50%); border:5px solid black"">","","","","","","","",""
"","24.19000002555549","sequential-stimulus-presentation-old","120","256613","0.0-29.0-1.2","SS1619115458314","trial","","40","500","524.1900000255555","images/stimuli/spore_stims/simple_16_A_a.gif","images/stimuli/spore_stims/simple_09_A_b.gif","self_paced","","10","simple_dissimilar","images/stimuli/spore_stims/simple_09_A_b.gif","","","","",""
"","null","html-keyboard-response","121","257813","0.0-29.0-0.3","SS1619115458314","","","null","","","","","","<p><img src= images/blank.png width =""600"" height = ""600"" style=""position:fixed;top:50%; left:50%; transform: translate(-50%, -50%); border:5px solid black"">","","","","","","","",""
"","26.184999995166436","sequential-stimulus-presentation-old","122","258344","0.0-29.0-1.3","SS1619115458314","trial","","40","500","526.1849999951664","images/stimuli/spore_stims/simple_16_A_a.gif","images/stimuli/spore_stims/simple_09_A_b.gif","self_paced","","10","simple_dissimilar","images/stimuli/spore_stims/simple_09_A_b.gif","","","","",""
"","null","html-keyboard-response","123","259585","0.0-29.0-0.4","SS1619115458314","","","null","","","","","","<p><img src= images/blank.png width =""600"" height = ""600"" style=""position:fixed;top:50%; left:50%; transform: translate(-50%, -50%); border:5px solid black"">","","","","","","","",""
"","54.260000004433095","sequential-stimulus-presentation-old","124","260142","0.0-29.0-1.4","SS1619115458314","trial","","40","500","554.2600000044331","images/stimuli/spore_stims/simple_16_A_a.gif","images/stimuli/spore_stims/simple_09_A_b.gif","self_paced","","10","simple_dissimilar","images/stimuli/spore_stims/simple_09_A_b.gif","","","","",""
"","3308.0750000081025","survey-multi-choice","125","263453","0.0-30.0","SS1619115458314","math_question","","","","","","","","","","","","{""Q0"":""9""}","[0]","9","",""
"","null","html-keyboard-response","126","264604","0.0-31.0-0.0","SS1619115458314","","","null","","","","","","<p><img src= images/blank.png width =""600"" height = ""600"" style=""position:fixed;top:50%; left:50%; transform: translate(-50%, -50%); border:5px solid black"">","","","","","","","",""
"","370.1700000092387","sequential-stimulus-presentation-old","127","265080","0.0-31.0-1.0","SS1619115458314","trial","","40","500","870.1700000092387","images/stimuli/spore_stims/simple_17_A_b.gif","images/stimuli/spore_stims/simple_19_A_a.gif","forced_short","","11","simple_dissimilar","images/stimuli/spore_stims/simple_19_A_a.gif","","","","",""
"","null","html-keyboard-response","128","266079","0.0-31.0-0.1","SS1619115458314","","","null","","","","","","<p><img src= images/blank.png width =""600"" height = ""600"" style=""position:fixed;top:50%; left:50%; transform: translate(-50%, -50%); border:5px solid black"">","","","","","","","",""
"","205.0699999963399","sequential-stimulus-presentation-old","129","266789","0.0-31.0-1.1","SS1619115458314","trial","","40","500","705.0699999963399","images/stimuli/spore_stims/simple_17_A_b.gif","images/stimuli/spore_stims/simple_19_A_a.gif","forced_short","","11","simple_dissimilar","images/stimuli/spore_stims/simple_17_A_b.gif","","","","",""
"","null","html-keyboard-response","130","267827","0.0-31.0-0.2","SS1619115458314","","","null","","","","","","<p><img src= images/blank.png width =""600"" height = ""600"" style=""position:fixed;top:50%; left:50%; transform: translate(-50%, -50%); border:5px solid black"">","","","","","","","",""
"","74.85500001348555","sequential-stimulus-presentation-old","131","268407","0.0-31.0-1.2","SS1619115458314","trial","","40","500","574.8550000134856","images/stimuli/spore_stims/simple_17_A_b.gif","images/stimuli/spore_stims/simple_19_A_a.gif","forced_short","","11","simple_dissimilar","images/stimuli/spore_stims/simple_19_A_a.gif","","","","",""
"","null","html-keyboard-response","132","269438","0.0-31.0-0.3","SS1619115458314","","","null","","","","","","<p><img src= images/blank.png width =""600"" height = ""600"" style=""position:fixed;top:50%; left:50%; transform: translate(-50%, -50%); border:5px solid black"">","","","","","","","",""
"","95.97999998368323","sequential-stimulus-presentation-old","133","270037","0.0-31.0-1.3","SS1619115458314","trial","","40","500","595.9799999836832","images/stimuli/spore_stims/simple_17_A_b.gif","images/stimuli/spore_stims/simple_19_A_a.gif","forced_short","","11","simple_dissimilar","images/stimuli/spore_stims/simple_17_A_b.gif","","","","",""
"","null","html-keyboard-response","134","271176","0.0-31.0-0.4","SS1619115458314","","","null","","","","","","<p><img src= images/blank.png width =""600"" height = ""600"" style=""position:fixed;top:50%; left:50%; transform: translate(-50%, -50%); border:5px solid black"">","","","","","","","",""
"","218.24499999638647","sequential-stimulus-presentation-old","135","271899","0.0-31.0-1.4","SS1619115458314","trial","","40","500","718.2449999963865","images/stimuli/spore_stims/simple_17_A_b.gif","images/stimuli/spore_stims/simple_19_A_a.gif","forced_short","","11","simple_dissimilar","images/stimuli/spore_stims/simple_19_A_a.gif","","","","",""
"[{""page_index"":0,""viewing_time"":3396.9799999904353}]","3397.174999990966","instructions","136","275299","0.0-32.0","SS1619115458314","instructions","","","","","","","","","","","","","","","",""
"","6875","survey-likert","137","282178","0.0-33.0","SS1619115458314","similarity_question","","","","","","","","","","","","{""Q0"":0}","[0]","","images/stimuli/spore_stims/complex_16_A_b.gif","images/stimuli/spore_stims/complex_09_A_a.gif"
"","3628.7149999989197","survey-likert","138","285809","0.0-34.0","SS1619115458314","similarity_question","","","","","","","","","","","","{""Q0"":5}","[0]","","images/stimuli/spore_stims/simple_06_A_b.gif","images/stimuli/spore_stims/simple_12_A_a.gif"
"","4264.735000004293","survey-likert","139","290077","0.0-35.0","SS1619115458314","similarity_question","","","","","","","","","","","","{""Q0"":4}","[0]","","images/stimuli/spore_stims/simple_09_A_b.gif","images/stimuli/spore_stims/simple_16_A_a.gif"
"","2809.9749999819323","survey-likert","140","292889","0.0-36.0","SS1619115458314","similarity_question","","","","","","","","","","","","{""Q0"":4}","[0]","","images/stimuli/spore_stims/simple_06_A_a.gif","images/stimuli/spore_stims/simple_04_A_b.gif"
"","7468.345000001136","survey-likert","141","300360","0.0-37.0","SS1619115458314","similarity_question","","","","","","","","","","","","{""Q0"":5}","[0]","","images/stimuli/spore_stims/complex_19_A_a.gif","images/stimuli/spore_stims/complex_18_A_b.gif"
"","8592.32999998494","survey-likert","142","308955","0.0-38.0","SS1619115458314","similarity_question","","","","","","","","","","","","{""Q0"":4}","[0]","","images/stimuli/spore_stims/complex_04_A_a.gif","images/stimuli/spore_stims/complex_13_A_b.gif"
"","3813.945000001695","survey-likert","143","312772","0.0-39.0","SS1619115458314","similarity_question","","","","","","","","","","","","{""Q0"":5}","[0]","","images/stimuli/spore_stims/simple_05_A_a.gif","images/stimuli/spore_stims/simple_15_A_b.gif"
"","2824.3749999965075","survey-likert","144","315600","0.0-40.0","SS1619115458314","similarity_question","","","","","","","","","","","","{""Q0"":4}","[0]","","images/stimuli/spore_stims/simple_10_A_a.gif","images/stimuli/spore_stims/simple_20_A_b.gif"
"","4603.335000021616","survey-likert","145","320207","0.0-41.0","SS1619115458314","similarity_question","","","","","","","","","","","","{""Q0"":2}","[0]","","images/stimuli/spore_stims/complex_05_A_a.gif","images/stimuli/spore_stims/complex_14_A_b.gif"
"","2956.2149999837857","survey-likert","146","323167","0.0-42.0","SS1619115458314","similarity_question","","","","","","","","","","","","{""Q0"":5}","[0]","","images/stimuli/spore_stims/simple_17_A_b.gif","images/stimuli/spore_stims/simple_19_A_a.gif"
"","5762.549999984913","survey-likert","147","328933","0.0-43.0","SS1619115458314","similarity_question","","","","","","","","","","","","{""Q0"":2}","[0]","","images/stimuli/spore_stims/complex_13_A_a.gif","images/stimuli/spore_stims/complex_12_A_b.gif"
"","3465.439999999944","survey-likert","148","332401","0.0-44.0","SS1619115458314","similarity_question","","","","","","","","","","","","{""Q0"":2}","[0]","","images/stimuli/spore_stims/complex_05_A_b.gif","images/stimuli/spore_stims/complex_06_A_a.gif"
"[{""page_index"":0,""viewing_time"":3035.9999999927823}]","3036.2500000046566","instructions","149","335439","0.0-45.0","SS1619115458314","instructions","","","","","","","","","","","","","","","",""
"","6470.725000021048","survey-likert","150","341913","0.0-46.0","SS1619115458314","","","","","","","","","images/stimuli/spore_stims/simple_06_A_a.gif","","","","{""Q0"":0}","[0]","","",""
"","3021.7349999875296","survey-likert","151","344937","0.0-47.0","SS1619115458314","","","","","","","","","images/stimuli/spore_stims/complex_09_A_a.gif","","","","{""Q0"":6}","[0]","","",""
"","2240.850000001956","survey-likert","152","347181","0.0-48.0","SS1619115458314","","","","","","","","","images/stimuli/spore_stims/simple_20_A_b.gif","","","","{""Q0"":0}","[0]","","",""
"","2271.7999999877065","survey-likert","153","349455","0.0-49.0","SS1619115458314","","","","","","","","","images/stimuli/spore_stims/simple_15_A_b.gif","","","","{""Q0"":0}","[0]","","",""
"","2482.5549999950454","survey-likert","154","351940","0.0-50.0","SS1619115458314","","","","","","","","","images/stimuli/spore_stims/complex_06_A_a.gif","","","","{""Q0"":6}","[0]","","",""
"","2592.3299999849405","survey-likert","155","354535","0.0-51.0","SS1619115458314","","","","","","","","","images/stimuli/spore_stims/simple_19_A_a.gif","","","","{""Q0"":0}","[0]","","",""
"","2459.709999995539","survey-likert","156","356998","0.0-52.0","SS1619115458314","","","","","","","","","images/stimuli/spore_stims/complex_13_A_b.gif","","","","{""Q0"":6}","[0]","","",""
"","2607.510000001639","survey-likert","157","359607","0.0-53.0","SS1619115458314","","","","","","","","","images/stimuli/spore_stims/simple_12_A_a.gif","","","","{""Q0"":1}","[0]","","",""
"","2732.419999985723","survey-likert","158","362343","0.0-54.0","SS1619115458314","","","","","","","","","images/stimuli/spore_stims/complex_14_A_b.gif","","","","{""Q0"":6}","[0]","","",""
"","3386.2500000104774","survey-likert","159","365731","0.0-55.0","SS1619115458314","","","","","","","","","images/stimuli/spore_stims/complex_19_A_a.gif","","","","{""Q0"":6}","[0]","","",""
"","2606.599999999162","survey-likert","160","368341","0.0-56.0","SS1619115458314","","","","","","","","","images/stimuli/spore_stims/complex_12_A_b.gif","","","","{""Q0"":6}","[0]","","",""
"","2457.944999972824","survey-likert","161","370803","0.0-57.0","SS1619115458314","","","","","","","","","images/stimuli/spore_stims/simple_16_A_a.gif","","","","{""Q0"":2}","[0]","","",""
"[{""page_index"":0,""viewing_time"":6575.325000012526}]","6575.460000021849","instructions","162","377381","0.0-58.0","SS1619115458314","instructions","","","","","","","","","","","","","","","",""
"","3279.339999979129","demog-age","163","380663","0.0-59.0","SS1619115458314","","","","","","","","","","","","","{""age"":""55""}","","","",""
"","2737.6550000044517","demog-ethnic-US","164","383405","0.0-60.0","SS1619115458314","","","","","","","","","","","","","{""ethnicity"":[""White""]}","[0]","","",""
"","6206.594999996014","demog-gender-and-education","165","389615","0.0-61.0","SS1619115458314","","","","","","","","","","","","","{""gender"":""Female"",""education"":""Associate Degree/Technical certification""}","[0,1]","","",""
"","5823.175000026822","survey-text","166","395443","0.0-62.0","SS1619115458314","feedback","","","","","","","","","","","","{""Q0"":""none""}","","","",""
"[{""page_index"":0,""viewing_time"":1820.6399999908172}]","1820.8299999823794","instructions","167","397266","0.0-63.0","SS1619115458314","instructions","","","","","","","","","","","","","","","",""
