"view_history","rt","trial_type","trial_index","time_elapsed","internal_node_id","subject","stimulus_type","trial_stimulus","key_press","minimum_viewing_duration","trial_looking_time","block_deviant","block_background","exposure_type","stimulus","block_number","block_type","stimulus_displayed","responses","question_order","math_correct_answer","stimulus_left","stimulus_right"
"[{""page_index"":0,""viewing_time"":5426.32000008598}]","5426.805000286549","instructions","0","5428","0.0-0.0","SS1619114612955","","","","","","","","","","","","","","","","",""
"[{""page_index"":0,""viewing_time"":6109.040000010282},{""page_index"":1,""viewing_time"":9175.60000019148}]","15284.815000370145","instructions","1","22716","0.0-1.0","SS1619114612955","instructions","","","","","","","","","","","","","","","",""
"","4849.994999822229","sequential-stimulus-presentation-old","2","28069","0.0-2.0","SS1619114612955","","","40","500","5349.994999822229","null","null","self_paced","","","","","","","","",""
"","1265.9399998374283","sequential-stimulus-presentation-old","3","29837","0.0-3.0","SS1619114612955","","","40","500","1765.9399998374283","null","null","self_paced","","","","","","","","",""
"[{""page_index"":0,""viewing_time"":7637.269999831915}]","7637.445000000298","instructions","4","37476","0.0-4.0","SS1619114612955","instructions","","","","","","","","","","","","","","","",""
"","885.695000179112","sequential-stimulus-presentation-old","5","48364","0.0-5.0","SS1619114612955","","","40","500","1385.695000179112","null","null","forced_long","","","","","","","","",""
"","2018.2449999265373","sequential-stimulus-presentation-old","6","50485","0.0-6.0","SS1619114612955","","","40","500","2518.2449999265373","null","null","forced_long","","","","","","","","",""
"[{""page_index"":0,""viewing_time"":2966.0749998874962}]","2966.289999894798","instructions","7","53452","0.0-7.0","SS1619114612955","instructions","","","","","","","","","","","","","","","",""
"[{""page_index"":0,""viewing_time"":4023.0999998748302},{""page_index"":1,""viewing_time"":3327.855000272393},{""page_index"":2,""viewing_time"":1703.7999997846782},{""page_index"":3,""viewing_time"":1472.37000009045},{""page_index"":4,""viewing_time"":1112.4200001358986}]","11639.69499990344","instructions","8","65092","0.0-8.0","SS1619114612955","instructions","","","","","","","","","","","","","","","",""
"","null","html-keyboard-response","9","66053","0.0-9.0-0.0","SS1619114612955","","","null","","","","","","<p><img src= images/blank.png width =""600"" height = ""600"" style=""position:fixed;top:50%; left:50%; transform: translate(-50%, -50%); border:5px solid black"">","","","","","","","",""
"","707.5300002470613","sequential-stimulus-presentation-old","10","76764","0.0-9.0-1.0","SS1619114612955","trial","","40","500","1207.5300002470613","images/stimuli/spore_stims/complex_07_A_a.gif","images/stimuli/spore_stims/complex_09_A_b.gif","forced_long","","0","complex_dissimilar","images/stimuli/spore_stims/complex_09_A_b.gif","","","","",""
"","null","html-keyboard-response","11","77750","0.0-9.0-0.1","SS1619114612955","","","null","","","","","","<p><img src= images/blank.png width =""600"" height = ""600"" style=""position:fixed;top:50%; left:50%; transform: translate(-50%, -50%); border:5px solid black"">","","","","","","","",""
"","3999.485000036657","sequential-stimulus-presentation-old","12","82252","0.0-9.0-1.1","SS1619114612955","trial","","40","500","4499.485000036657","images/stimuli/spore_stims/complex_07_A_a.gif","images/stimuli/spore_stims/complex_09_A_b.gif","forced_long","","0","complex_dissimilar","images/stimuli/spore_stims/complex_09_A_b.gif","","","","",""
"","null","html-keyboard-response","13","83377","0.0-9.0-0.2","SS1619114612955","","","null","","","","","","<p><img src= images/blank.png width =""600"" height = ""600"" style=""position:fixed;top:50%; left:50%; transform: translate(-50%, -50%); border:5px solid black"">","","","","","","","",""
"","586.1650002188981","sequential-stimulus-presentation-old","14","84468","0.0-9.0-1.2","SS1619114612955","trial","","40","500","1086.165000218898","images/stimuli/spore_stims/complex_07_A_a.gif","images/stimuli/spore_stims/complex_09_A_b.gif","forced_long","","0","complex_dissimilar","images/stimuli/spore_stims/complex_09_A_b.gif","","","","",""
"","null","html-keyboard-response","15","85589","0.0-9.0-0.3","SS1619114612955","","","null","","","","","","<p><img src= images/blank.png width =""600"" height = ""600"" style=""position:fixed;top:50%; left:50%; transform: translate(-50%, -50%); border:5px solid black"">","","","","","","","",""
"","6224.720000289381","sequential-stimulus-presentation-old","16","92316","0.0-9.0-1.3","SS1619114612955","trial","","40","500","6724.720000289381","images/stimuli/spore_stims/complex_07_A_a.gif","images/stimuli/spore_stims/complex_09_A_b.gif","forced_long","","0","complex_dissimilar","images/stimuli/spore_stims/complex_09_A_b.gif","","","","",""
"","null","html-keyboard-response","17","93481","0.0-9.0-0.4","SS1619114612955","","","null","","","","","","<p><img src= images/blank.png width =""600"" height = ""600"" style=""position:fixed;top:50%; left:50%; transform: translate(-50%, -50%); border:5px solid black"">","","","","","","","",""
"","292.30500012636185","sequential-stimulus-presentation-old","18","94276","0.0-9.0-1.4","SS1619114612955","trial","","40","500","792.3050001263618","images/stimuli/spore_stims/complex_07_A_a.gif","images/stimuli/spore_stims/complex_09_A_b.gif","forced_long","","0","complex_dissimilar","images/stimuli/spore_stims/complex_07_A_a.gif","","","","",""
"","null","html-keyboard-response","19","95243","0.0-9.0-0.5","SS1619114612955","","","null","","","","","","<p><img src= images/blank.png width =""600"" height = ""600"" style=""position:fixed;top:50%; left:50%; transform: translate(-50%, -50%); border:5px solid black"">","","","","","","","",""
"","444.4599999114871","sequential-stimulus-presentation-old","20","96191","0.0-9.0-1.5","SS1619114612955","trial","","40","500","944.4599999114871","images/stimuli/spore_stims/complex_07_A_a.gif","images/stimuli/spore_stims/complex_09_A_b.gif","forced_long","","0","complex_dissimilar","images/stimuli/spore_stims/complex_07_A_a.gif","","","","",""
"","3413.2700003683567","survey-multi-choice","21","99610","0.0-10.0","SS1619114612955","math_question","","","","","","","","","","","","{""Q0"":""9""}","[0]","9","",""
"","null","html-keyboard-response","22","100503","0.0-11.0-0.0","SS1619114612955","","","null","","","","","","<p><img src= images/blank.png width =""600"" height = ""600"" style=""position:fixed;top:50%; left:50%; transform: translate(-50%, -50%); border:5px solid black"">","","","","","","","",""
"","795.9750001318753","sequential-stimulus-presentation-old","23","101803","0.0-11.0-1.0","SS1619114612955","trial","","40","500","1295.9750001318753","images/stimuli/spore_stims/complex_13_A_a.gif","images/stimuli/spore_stims/complex_14_A_b.gif","self_paced","","1","complex_dissimilar","images/stimuli/spore_stims/complex_14_A_b.gif","","","","",""
"","null","html-keyboard-response","24","103080","0.0-11.0-0.1","SS1619114612955","","","null","","","","","","<p><img src= images/blank.png width =""600"" height = ""600"" style=""position:fixed;top:50%; left:50%; transform: translate(-50%, -50%); border:5px solid black"">","","","","","","","",""
"","3.879999741911888","sequential-stimulus-presentation-old","25","103587","0.0-11.0-1.1","SS1619114612955","trial","","40","500","503.8799997419119","images/stimuli/spore_stims/complex_13_A_a.gif","images/stimuli/spore_stims/complex_14_A_b.gif","self_paced","","1","complex_dissimilar","images/stimuli/spore_stims/complex_14_A_b.gif","","","","",""
"","null","html-keyboard-response","26","104845","0.0-11.0-0.2","SS1619114612955","","","null","","","","","","<p><img src= images/blank.png width =""600"" height = ""600"" style=""position:fixed;top:50%; left:50%; transform: translate(-50%, -50%); border:5px solid black"">","","","","","","","",""
"","120.5850001424551","sequential-stimulus-presentation-old","27","105468","0.0-11.0-1.2","SS1619114612955","trial","","40","500","620.5850001424551","images/stimuli/spore_stims/complex_13_A_a.gif","images/stimuli/spore_stims/complex_14_A_b.gif","self_paced","","1","complex_dissimilar","images/stimuli/spore_stims/complex_14_A_b.gif","","","","",""
"","null","html-keyboard-response","28","106751","0.0-11.0-0.3","SS1619114612955","","","null","","","","","","<p><img src= images/blank.png width =""600"" height = ""600"" style=""position:fixed;top:50%; left:50%; transform: translate(-50%, -50%); border:5px solid black"">","","","","","","","",""
"","525.9949997998774","sequential-stimulus-presentation-old","29","107780","0.0-11.0-1.3","SS1619114612955","trial","","40","500","1025.9949997998774","images/stimuli/spore_stims/complex_13_A_a.gif","images/stimuli/spore_stims/complex_14_A_b.gif","self_paced","","1","complex_dissimilar","images/stimuli/spore_stims/complex_14_A_b.gif","","","","",""
"","null","html-keyboard-response","30","108843","0.0-11.0-0.4","SS1619114612955","","","null","","","","","","<p><img src= images/blank.png width =""600"" height = ""600"" style=""position:fixed;top:50%; left:50%; transform: translate(-50%, -50%); border:5px solid black"">","","","","","","","",""
"","746.2400002405047","sequential-stimulus-presentation-old","31","110091","0.0-11.0-1.4","SS1619114612955","trial","","40","500","1246.2400002405047","images/stimuli/spore_stims/complex_13_A_a.gif","images/stimuli/spore_stims/complex_14_A_b.gif","self_paced","","1","complex_dissimilar","images/stimuli/spore_stims/complex_14_A_b.gif","","","","",""
"","null","html-keyboard-response","32","111164","0.0-11.0-0.5","SS1619114612955","","","null","","","","","","<p><img src= images/blank.png width =""600"" height = ""600"" style=""position:fixed;top:50%; left:50%; transform: translate(-50%, -50%); border:5px solid black"">","","","","","","","",""
"","532.0300003513694","sequential-stimulus-presentation-old","33","112199","0.0-11.0-1.5","SS1619114612955","trial","","40","500","1032.0300003513694","images/stimuli/spore_stims/complex_13_A_a.gif","images/stimuli/spore_stims/complex_14_A_b.gif","self_paced","","1","complex_dissimilar","images/stimuli/spore_stims/complex_14_A_b.gif","","","","",""
"","2890.895000193268","survey-multi-choice","34","115092","0.0-12.0","SS1619114612955","math_question","","","","","","","","","","","","{""Q0"":""7""}","[0]","7","",""
"","null","html-keyboard-response","35","116121","0.0-13.0-0.0","SS1619114612955","","","null","","","","","","<p><img src= images/blank.png width =""600"" height = ""600"" style=""position:fixed;top:50%; left:50%; transform: translate(-50%, -50%); border:5px solid black"">","","","","","","","",""
"","8554.710000287741","sequential-stimulus-presentation-old","36","134677","0.0-13.0-1.0","SS1619114612955","trial","","40","500","9054.710000287741","images/stimuli/spore_stims/simple_16_A_a.gif","images/stimuli/spore_stims/simple_20_A_b.gif","forced_long","","2","simple_dissimilar","images/stimuli/spore_stims/simple_20_A_b.gif","","","","",""
"","null","html-keyboard-response","37","135838","0.0-13.0-0.1","SS1619114612955","","","null","","","","","","<p><img src= images/blank.png width =""600"" height = ""600"" style=""position:fixed;top:50%; left:50%; transform: translate(-50%, -50%); border:5px solid black"">","","","","","","","",""
"","1958.3600000478327","sequential-stimulus-presentation-old","38","138300","0.0-13.0-1.1","SS1619114612955","trial","","40","500","2458.3600000478327","images/stimuli/spore_stims/simple_16_A_a.gif","images/stimuli/spore_stims/simple_20_A_b.gif","forced_long","","2","simple_dissimilar","images/stimuli/spore_stims/simple_20_A_b.gif","","","","",""
"","null","html-keyboard-response","39","139439","0.0-13.0-0.2","SS1619114612955","","","null","","","","","","<p><img src= images/blank.png width =""600"" height = ""600"" style=""position:fixed;top:50%; left:50%; transform: translate(-50%, -50%); border:5px solid black"">","","","","","","","",""
"","213.98500027135015","sequential-stimulus-presentation-old","40","140156","0.0-13.0-1.2","SS1619114612955","trial","","40","500","713.9850002713501","images/stimuli/spore_stims/simple_16_A_a.gif","images/stimuli/spore_stims/simple_20_A_b.gif","forced_long","","2","simple_dissimilar","images/stimuli/spore_stims/simple_20_A_b.gif","","","","",""
"","null","html-keyboard-response","41","141031","0.0-13.0-0.3","SS1619114612955","","","null","","","","","","<p><img src= images/blank.png width =""600"" height = ""600"" style=""position:fixed;top:50%; left:50%; transform: translate(-50%, -50%); border:5px solid black"">","","","","","","","",""
"","239.41999999806285","sequential-stimulus-presentation-old","42","141772","0.0-13.0-1.3","SS1619114612955","trial","","40","500","739.4199999980628","images/stimuli/spore_stims/simple_16_A_a.gif","images/stimuli/spore_stims/simple_20_A_b.gif","forced_long","","2","simple_dissimilar","images/stimuli/spore_stims/simple_16_A_a.gif","","","","",""
"","null","html-keyboard-response","43","142610","0.0-13.0-0.4","SS1619114612955","","","null","","","","","","<p><img src= images/blank.png width =""600"" height = ""600"" style=""position:fixed;top:50%; left:50%; transform: translate(-50%, -50%); border:5px solid black"">","","","","","","","",""
"","395.72999998927116","sequential-stimulus-presentation-old","44","143507","0.0-13.0-1.4","SS1619114612955","trial","","40","500","895.7299999892712","images/stimuli/spore_stims/simple_16_A_a.gif","images/stimuli/spore_stims/simple_20_A_b.gif","forced_long","","2","simple_dissimilar","images/stimuli/spore_stims/simple_16_A_a.gif","","","","",""
"","3032.734999898821","survey-multi-choice","45","146541","0.0-14.0","SS1619114612955","math_question","","","","","","","","","","","","{""Q0"":""4""}","[0]","4","",""
"","null","html-keyboard-response","46","147599","0.0-15.0-0.0","SS1619114612955","","","null","","","","","","<p><img src= images/blank.png width =""600"" height = ""600"" style=""position:fixed;top:50%; left:50%; transform: translate(-50%, -50%); border:5px solid black"">","","","","","","","",""
"","942.5699999555945","sequential-stimulus-presentation-old","47","148646","0.0-15.0-1.0","SS1619114612955","trial","","40","500","1442.5699999555945","images/stimuli/spore_stims/simple_15_A_b.gif","images/stimuli/spore_stims/simple_10_A_a.gif","forced_short","","3","simple_dissimilar","images/stimuli/spore_stims/simple_10_A_a.gif","","","","",""
"","null","html-keyboard-response","48","149827","0.0-15.0-0.1","SS1619114612955","","","null","","","","","","<p><img src= images/blank.png width =""600"" height = ""600"" style=""position:fixed;top:50%; left:50%; transform: translate(-50%, -50%); border:5px solid black"">","","","","","","","",""
"","4241.719999816269","sequential-stimulus-presentation-old","49","154571","0.0-15.0-1.1","SS1619114612955","trial","","40","500","4741.719999816269","images/stimuli/spore_stims/simple_15_A_b.gif","images/stimuli/spore_stims/simple_10_A_a.gif","forced_short","","3","simple_dissimilar","images/stimuli/spore_stims/simple_10_A_a.gif","","","","",""
"","null","html-keyboard-response","50","155533","0.0-15.0-0.2","SS1619114612955","","","null","","","","","","<p><img src= images/blank.png width =""600"" height = ""600"" style=""position:fixed;top:50%; left:50%; transform: translate(-50%, -50%); border:5px solid black"">","","","","","","","",""
"","54.86500030383468","sequential-stimulus-presentation-old","51","156092","0.0-15.0-1.2","SS1619114612955","trial","","40","500","554.8650003038347","images/stimuli/spore_stims/simple_15_A_b.gif","images/stimuli/spore_stims/simple_10_A_a.gif","forced_short","","3","simple_dissimilar","images/stimuli/spore_stims/simple_10_A_a.gif","","","","",""
"","null","html-keyboard-response","52","157164","0.0-15.0-0.3","SS1619114612955","","","null","","","","","","<p><img src= images/blank.png width =""600"" height = ""600"" style=""position:fixed;top:50%; left:50%; transform: translate(-50%, -50%); border:5px solid black"">","","","","","","","",""
"","74.33500001206994","sequential-stimulus-presentation-old","53","157741","0.0-15.0-1.3","SS1619114612955","trial","","40","500","574.3350000120699","images/stimuli/spore_stims/simple_15_A_b.gif","images/stimuli/spore_stims/simple_10_A_a.gif","forced_short","","3","simple_dissimilar","images/stimuli/spore_stims/simple_15_A_b.gif","","","","",""
"","null","html-keyboard-response","54","159024","0.0-15.0-0.4","SS1619114612955","","","null","","","","","","<p><img src= images/blank.png width =""600"" height = ""600"" style=""position:fixed;top:50%; left:50%; transform: translate(-50%, -50%); border:5px solid black"">","","","","","","","",""
"","45.37499975413084","sequential-stimulus-presentation-old","55","159572","0.0-15.0-1.4","SS1619114612955","trial","","40","500","545.3749997541308","images/stimuli/spore_stims/simple_15_A_b.gif","images/stimuli/spore_stims/simple_10_A_a.gif","forced_short","","3","simple_dissimilar","images/stimuli/spore_stims/simple_10_A_a.gif","","","","",""
"","null","html-keyboard-response","56","160801","0.0-15.0-0.5","SS1619114612955","","","null","","","","","","<p><img src= images/blank.png width =""600"" height = ""600"" style=""position:fixed;top:50%; left:50%; transform: translate(-50%, -50%); border:5px solid black"">","","","","","","","",""
"","290.2750000357628","sequential-stimulus-presentation-old","57","161596","0.0-15.0-1.5","SS1619114612955","trial","","40","500","790.2750000357628","images/stimuli/spore_stims/simple_15_A_b.gif","images/stimuli/spore_stims/simple_10_A_a.gif","forced_short","","3","simple_dissimilar","images/stimuli/spore_stims/simple_10_A_a.gif","","","","",""
"","3238.3150001987815","survey-multi-choice","58","164836","0.0-16.0","SS1619114612955","math_question","","","","","","","","","","","","{""Q0"":""10""}","[0]","10","",""
"","null","html-keyboard-response","59","165692","0.0-17.0-0.0","SS1619114612955","","","null","","","","","","<p><img src= images/blank.png width =""600"" height = ""600"" style=""position:fixed;top:50%; left:50%; transform: translate(-50%, -50%); border:5px solid black"">","","","","","","","",""
"","692.2249998897314","sequential-stimulus-presentation-old","60","166491","0.0-17.0-1.0","SS1619114612955","trial","","40","500","1192.2249998897314","images/stimuli/spore_stims/complex_15_A_a.gif","images/stimuli/spore_stims/complex_17_A_b.gif","forced_short","","4","complex_dissimilar","images/stimuli/spore_stims/complex_17_A_b.gif","","","","",""
"","null","html-keyboard-response","61","167455","0.0-17.0-0.1","SS1619114612955","","","null","","","","","","<p><img src= images/blank.png width =""600"" height = ""600"" style=""position:fixed;top:50%; left:50%; transform: translate(-50%, -50%); border:5px solid black"">","","","","","","","",""
"","1248.2199999503791","sequential-stimulus-presentation-old","62","169206","0.0-17.0-1.1","SS1619114612955","trial","","40","500","1748.2199999503791","images/stimuli/spore_stims/complex_15_A_a.gif","images/stimuli/spore_stims/complex_17_A_b.gif","forced_short","","4","complex_dissimilar","images/stimuli/spore_stims/complex_17_A_b.gif","","","","",""
"","null","html-keyboard-response","63","170197","0.0-17.0-0.2","SS1619114612955","","","null","","","","","","<p><img src= images/blank.png width =""600"" height = ""600"" style=""position:fixed;top:50%; left:50%; transform: translate(-50%, -50%); border:5px solid black"">","","","","","","","",""
"","111.28500010818243","sequential-stimulus-presentation-old","64","170812","0.0-17.0-1.2","SS1619114612955","trial","","40","500","611.2850001081824","images/stimuli/spore_stims/complex_15_A_a.gif","images/stimuli/spore_stims/complex_17_A_b.gif","forced_short","","4","complex_dissimilar","images/stimuli/spore_stims/complex_17_A_b.gif","","","","",""
"","null","html-keyboard-response","65","171788","0.0-17.0-0.3","SS1619114612955","","","null","","","","","","<p><img src= images/blank.png width =""600"" height = ""600"" style=""position:fixed;top:50%; left:50%; transform: translate(-50%, -50%); border:5px solid black"">","","","","","","","",""
"","1895.580000244081","sequential-stimulus-presentation-old","66","174188","0.0-17.0-1.3","SS1619114612955","trial","","40","500","2395.580000244081","images/stimuli/spore_stims/complex_15_A_a.gif","images/stimuli/spore_stims/complex_17_A_b.gif","forced_short","","4","complex_dissimilar","images/stimuli/spore_stims/complex_17_A_b.gif","","","","",""
"","null","html-keyboard-response","67","175320","0.0-17.0-0.4","SS1619114612955","","","null","","","","","","<p><img src= images/blank.png width =""600"" height = ""600"" style=""position:fixed;top:50%; left:50%; transform: translate(-50%, -50%); border:5px solid black"">","","","","","","","",""
"","268.82000034675","sequential-stimulus-presentation-old","68","176092","0.0-17.0-1.4","SS1619114612955","trial","","40","500","768.82000034675","images/stimuli/spore_stims/complex_15_A_a.gif","images/stimuli/spore_stims/complex_17_A_b.gif","forced_short","","4","complex_dissimilar","images/stimuli/spore_stims/complex_15_A_a.gif","","","","",""
"","null","html-keyboard-response","69","176904","0.0-17.0-0.5","SS1619114612955","","","null","","","","","","<p><img src= images/blank.png width =""600"" height = ""600"" style=""position:fixed;top:50%; left:50%; transform: translate(-50%, -50%); border:5px solid black"">","","","","","","","",""
"","81.43000025302172","sequential-stimulus-presentation-old","70","177491","0.0-17.0-1.5","SS1619114612955","trial","","40","500","581.4300002530217","images/stimuli/spore_stims/complex_15_A_a.gif","images/stimuli/spore_stims/complex_17_A_b.gif","forced_short","","4","complex_dissimilar","images/stimuli/spore_stims/complex_17_A_b.gif","","","","",""
"","3023.304999805987","survey-multi-choice","71","180516","0.0-18.0","SS1619114612955","math_question","","","","","","","","","","","","{""Q0"":""12""}","[0]","12","",""
"","null","html-keyboard-response","72","181468","0.0-19.0-0.0","SS1619114612955","","","null","","","","","","<p><img src= images/blank.png width =""600"" height = ""600"" style=""position:fixed;top:50%; left:50%; transform: translate(-50%, -50%); border:5px solid black"">","","","","","","","",""
"","135.8199999667704","sequential-stimulus-presentation-old","73","182108","0.0-19.0-1.0","SS1619114612955","trial","","40","500","635.8199999667704","images/stimuli/spore_stims/complex_18_A_a.gif","images/stimuli/spore_stims/complex_05_A_b.gif","self_paced","","5","complex_dissimilar","images/stimuli/spore_stims/complex_05_A_b.gif","","","","",""
"","null","html-keyboard-response","74","183248","0.0-19.0-0.1","SS1619114612955","","","null","","","","","","<p><img src= images/blank.png width =""600"" height = ""600"" style=""position:fixed;top:50%; left:50%; transform: translate(-50%, -50%); border:5px solid black"">","","","","","","","",""
"","83.26999982818961","sequential-stimulus-presentation-old","75","183835","0.0-19.0-1.1","SS1619114612955","trial","","40","500","583.2699998281896","images/stimuli/spore_stims/complex_18_A_a.gif","images/stimuli/spore_stims/complex_05_A_b.gif","self_paced","","5","complex_dissimilar","images/stimuli/spore_stims/complex_05_A_b.gif","","","","",""
"","null","html-keyboard-response","76","184900","0.0-19.0-0.2","SS1619114612955","","","null","","","","","","<p><img src= images/blank.png width =""600"" height = ""600"" style=""position:fixed;top:50%; left:50%; transform: translate(-50%, -50%); border:5px solid black"">","","","","","","","",""
"","329.1599997319281","sequential-stimulus-presentation-old","77","185733","0.0-19.0-1.2","SS1619114612955","trial","","40","500","829.1599997319281","images/stimuli/spore_stims/complex_18_A_a.gif","images/stimuli/spore_stims/complex_05_A_b.gif","self_paced","","5","complex_dissimilar","images/stimuli/spore_stims/complex_18_A_a.gif","","","","",""
"","null","html-keyboard-response","78","186702","0.0-19.0-0.3","SS1619114612955","","","null","","","","","","<p><img src= images/blank.png width =""600"" height = ""600"" style=""position:fixed;top:50%; left:50%; transform: translate(-50%, -50%); border:5px solid black"">","","","","","","","",""
"","71.53499964624643","sequential-stimulus-presentation-old","79","187277","0.0-19.0-1.3","SS1619114612955","trial","","40","500","571.5349996462464","images/stimuli/spore_stims/complex_18_A_a.gif","images/stimuli/spore_stims/complex_05_A_b.gif","self_paced","","5","complex_dissimilar","images/stimuli/spore_stims/complex_18_A_a.gif","","","","",""
"","null","html-keyboard-response","80","188398","0.0-19.0-0.4","SS1619114612955","","","null","","","","","","<p><img src= images/blank.png width =""600"" height = ""600"" style=""position:fixed;top:50%; left:50%; transform: translate(-50%, -50%); border:5px solid black"">","","","","","","","",""
"","544.1799997352064","sequential-stimulus-presentation-old","81","189444","0.0-19.0-1.4","SS1619114612955","trial","","40","500","1044.1799997352064","images/stimuli/spore_stims/complex_18_A_a.gif","images/stimuli/spore_stims/complex_05_A_b.gif","self_paced","","5","complex_dissimilar","images/stimuli/spore_stims/complex_05_A_b.gif","","","","",""
"","2710.2899998426437","survey-multi-choice","82","192157","0.0-20.0","SS1619114612955","math_question","","","","","","","","","","","","{""Q0"":""10""}","[0]","10","",""
"","null","html-keyboard-response","83","193006","0.0-21.0-0.0","SS1619114612955","","","null","","","","","","<p><img src= images/blank.png width =""600"" height = ""600"" style=""position:fixed;top:50%; left:50%; transform: translate(-50%, -50%); border:5px solid black"">","","","","","","","",""
"","1154.0899998508394","sequential-stimulus-presentation-old","84","204164","0.0-21.0-1.0","SS1619114612955","trial","","40","500","1654.0899998508394","images/stimuli/spore_stims/simple_05_A_a.gif","images/stimuli/spore_stims/simple_12_A_b.gif","forced_long","","6","simple_dissimilar","images/stimuli/spore_stims/simple_12_A_b.gif","","","","",""
"","null","html-keyboard-response","85","205083","0.0-21.0-0.1","SS1619114612955","","","null","","","","","","<p><img src= images/blank.png width =""600"" height = ""600"" style=""position:fixed;top:50%; left:50%; transform: translate(-50%, -50%); border:5px solid black"">","","","","","","","",""
"","259.6950000151992","sequential-stimulus-presentation-old","86","205845","0.0-21.0-1.1","SS1619114612955","trial","","40","500","759.6950000151992","images/stimuli/spore_stims/simple_05_A_a.gif","images/stimuli/spore_stims/simple_12_A_b.gif","forced_long","","6","simple_dissimilar","images/stimuli/spore_stims/simple_12_A_b.gif","","","","",""
"","null","html-keyboard-response","87","206946","0.0-21.0-0.2","SS1619114612955","","","null","","","","","","<p><img src= images/blank.png width =""600"" height = ""600"" style=""position:fixed;top:50%; left:50%; transform: translate(-50%, -50%); border:5px solid black"">","","","","","","","",""
"","395.215000025928","sequential-stimulus-presentation-old","88","207844","0.0-21.0-1.2","SS1619114612955","trial","","40","500","895.215000025928","images/stimuli/spore_stims/simple_05_A_a.gif","images/stimuli/spore_stims/simple_12_A_b.gif","forced_long","","6","simple_dissimilar","images/stimuli/spore_stims/simple_12_A_b.gif","","","","",""
"","null","html-keyboard-response","89","208794","0.0-21.0-0.3","SS1619114612955","","","null","","","","","","<p><img src= images/blank.png width =""600"" height = ""600"" style=""position:fixed;top:50%; left:50%; transform: translate(-50%, -50%); border:5px solid black"">","","","","","","","",""
"","74.37499985098839","sequential-stimulus-presentation-old","90","209371","0.0-21.0-1.3","SS1619114612955","trial","","40","500","574.3749998509884","images/stimuli/spore_stims/simple_05_A_a.gif","images/stimuli/spore_stims/simple_12_A_b.gif","forced_long","","6","simple_dissimilar","images/stimuli/spore_stims/simple_12_A_b.gif","","","","",""
"","null","html-keyboard-response","91","210480","0.0-21.0-0.4","SS1619114612955","","","null","","","","","","<p><img src= images/blank.png width =""600"" height = ""600"" style=""position:fixed;top:50%; left:50%; transform: translate(-50%, -50%); border:5px solid black"">","","","","","","","",""
"","314.5699999295175","sequential-stimulus-presentation-old","92","211301","0.0-21.0-1.4","SS1619114612955","trial","","40","500","814.5699999295175","images/stimuli/spore_stims/simple_05_A_a.gif","images/stimuli/spore_stims/simple_12_A_b.gif","forced_long","","6","simple_dissimilar","images/stimuli/spore_stims/simple_12_A_b.gif","","","","",""
"","null","html-keyboard-response","93","212251","0.0-21.0-0.5","SS1619114612955","","","null","","","","","","<p><img src= images/blank.png width =""600"" height = ""600"" style=""position:fixed;top:50%; left:50%; transform: translate(-50%, -50%); border:5px solid black"">","","","","","","","",""
"","4042.654999997467","sequential-stimulus-presentation-old","94","216796","0.0-21.0-1.5","SS1619114612955","trial","","40","500","4542.654999997467","images/stimuli/spore_stims/simple_05_A_a.gif","images/stimuli/spore_stims/simple_12_A_b.gif","forced_long","","6","simple_dissimilar","images/stimuli/spore_stims/simple_12_A_b.gif","","","","",""
"","3654.5450002886355","survey-multi-choice","95","220452","0.0-22.0","SS1619114612955","math_question","","","","","","","","","","","","{""Q0"":""14""}","[0]","14","",""
"","null","html-keyboard-response","96","221680","0.0-23.0-0.0","SS1619114612955","","","null","","","","","","<p><img src= images/blank.png width =""600"" height = ""600"" style=""position:fixed;top:50%; left:50%; transform: translate(-50%, -50%); border:5px solid black"">","","","","","","","",""
"","2339.505000039935","sequential-stimulus-presentation-old","97","224524","0.0-23.0-1.0","SS1619114612955","trial","","40","500","2839.505000039935","images/stimuli/spore_stims/simple_11_A_a.gif","images/stimuli/spore_stims/simple_04_A_b.gif","self_paced","","7","simple_dissimilar","images/stimuli/spore_stims/simple_04_A_b.gif","","","","",""
"","null","html-keyboard-response","98","225631","0.0-23.0-0.1","SS1619114612955","","","null","","","","","","<p><img src= images/blank.png width =""600"" height = ""600"" style=""position:fixed;top:50%; left:50%; transform: translate(-50%, -50%); border:5px solid black"">","","","","","","","",""
"","63.039999920874834","sequential-stimulus-presentation-old","99","226196","0.0-23.0-1.1","SS1619114612955","trial","","40","500","563.0399999208748","images/stimuli/spore_stims/simple_11_A_a.gif","images/stimuli/spore_stims/simple_04_A_b.gif","self_paced","","7","simple_dissimilar","images/stimuli/spore_stims/simple_04_A_b.gif","","","","",""
"","null","html-keyboard-response","100","227213","0.0-23.0-0.2","SS1619114612955","","","null","","","","","","<p><img src= images/blank.png width =""600"" height = ""600"" style=""position:fixed;top:50%; left:50%; transform: translate(-50%, -50%); border:5px solid black"">","","","","","","","",""
"","113.34999976679683","sequential-stimulus-presentation-old","101","227829","0.0-23.0-1.2","SS1619114612955","trial","","40","500","613.3499997667968","images/stimuli/spore_stims/simple_11_A_a.gif","images/stimuli/spore_stims/simple_04_A_b.gif","self_paced","","7","simple_dissimilar","images/stimuli/spore_stims/simple_04_A_b.gif","","","","",""
"","null","html-keyboard-response","102","228723","0.0-23.0-0.3","SS1619114612955","","","null","","","","","","<p><img src= images/blank.png width =""600"" height = ""600"" style=""position:fixed;top:50%; left:50%; transform: translate(-50%, -50%); border:5px solid black"">","","","","","","","",""
"","145.49500029534101","sequential-stimulus-presentation-old","103","229371","0.0-23.0-1.3","SS1619114612955","trial","","40","500","645.495000295341","images/stimuli/spore_stims/simple_11_A_a.gif","images/stimuli/spore_stims/simple_04_A_b.gif","self_paced","","7","simple_dissimilar","images/stimuli/spore_stims/simple_04_A_b.gif","","","","",""
"","null","html-keyboard-response","104","230286","0.0-23.0-0.4","SS1619114612955","","","null","","","","","","<p><img src= images/blank.png width =""600"" height = ""600"" style=""position:fixed;top:50%; left:50%; transform: translate(-50%, -50%); border:5px solid black"">","","","","","","","",""
"","68.37499979883432","sequential-stimulus-presentation-old","105","230859","0.0-23.0-1.4","SS1619114612955","trial","","40","500","568.3749997988343","images/stimuli/spore_stims/simple_11_A_a.gif","images/stimuli/spore_stims/simple_04_A_b.gif","self_paced","","7","simple_dissimilar","images/stimuli/spore_stims/simple_04_A_b.gif","","","","",""
"","null","html-keyboard-response","106","231824","0.0-23.0-0.5","SS1619114612955","","","null","","","","","","<p><img src= images/blank.png width =""600"" height = ""600"" style=""position:fixed;top:50%; left:50%; transform: translate(-50%, -50%); border:5px solid black"">","","","","","","","",""
"","115.2449999935925","sequential-stimulus-presentation-old","107","232443","0.0-23.0-1.5","SS1619114612955","trial","","40","500","615.2449999935925","images/stimuli/spore_stims/simple_11_A_a.gif","images/stimuli/spore_stims/simple_04_A_b.gif","self_paced","","7","simple_dissimilar","images/stimuli/spore_stims/simple_04_A_b.gif","","","","",""
"","2718.745000194758","survey-multi-choice","108","235164","0.0-24.0","SS1619114612955","math_question","","","","","","","","","","","","{""Q0"":""6""}","[0]","6","",""
"","null","html-keyboard-response","109","236326","0.0-25.0-0.0","SS1619114612955","","","null","","","","","","<p><img src= images/blank.png width =""600"" height = ""600"" style=""position:fixed;top:50%; left:50%; transform: translate(-50%, -50%); border:5px solid black"">","","","","","","","",""
"","862.8600002266467","sequential-stimulus-presentation-old","110","237292","0.0-25.0-1.0","SS1619114612955","trial","","40","500","1362.8600002266467","images/stimuli/spore_stims/simple_04_A_a.gif","images/stimuli/spore_stims/simple_19_A_b.gif","forced_short","","8","simple_dissimilar","images/stimuli/spore_stims/simple_19_A_b.gif","","","","",""
"","null","html-keyboard-response","111","238375","0.0-25.0-0.1","SS1619114612955","","","null","","","","","","<p><img src= images/blank.png width =""600"" height = ""600"" style=""position:fixed;top:50%; left:50%; transform: translate(-50%, -50%); border:5px solid black"">","","","","","","","",""
"","281.2149999663234","sequential-stimulus-presentation-old","112","239159","0.0-25.0-1.1","SS1619114612955","trial","","40","500","781.2149999663234","images/stimuli/spore_stims/simple_04_A_a.gif","images/stimuli/spore_stims/simple_19_A_b.gif","forced_short","","8","simple_dissimilar","images/stimuli/spore_stims/simple_04_A_a.gif","","","","",""
"","null","html-keyboard-response","113","240397","0.0-25.0-0.2","SS1619114612955","","","null","","","","","","<p><img src= images/blank.png width =""600"" height = ""600"" style=""position:fixed;top:50%; left:50%; transform: translate(-50%, -50%); border:5px solid black"">","","","","","","","",""
"","40.99000012502074","sequential-stimulus-presentation-old","114","240940","0.0-25.0-1.2","SS1619114612955","trial","","40","500","540.9900001250207","images/stimuli/spore_stims/simple_04_A_a.gif","images/stimuli/spore_stims/simple_19_A_b.gif","forced_short","","8","simple_dissimilar","images/stimuli/spore_stims/simple_19_A_b.gif","","","","",""
"","null","html-keyboard-response","115","241901","0.0-25.0-0.3","SS1619114612955","","","null","","","","","","<p><img src= images/blank.png width =""600"" height = ""600"" style=""position:fixed;top:50%; left:50%; transform: translate(-50%, -50%); border:5px solid black"">","","","","","","","",""
"","23.294999729841948","sequential-stimulus-presentation-old","116","242427","0.0-25.0-1.3","SS1619114612955","trial","","40","500","523.294999729842","images/stimuli/spore_stims/simple_04_A_a.gif","images/stimuli/spore_stims/simple_19_A_b.gif","forced_short","","8","simple_dissimilar","images/stimuli/spore_stims/simple_19_A_b.gif","","","","",""
"","null","html-keyboard-response","117","243253","0.0-25.0-0.4","SS1619114612955","","","null","","","","","","<p><img src= images/blank.png width =""600"" height = ""600"" style=""position:fixed;top:50%; left:50%; transform: translate(-50%, -50%); border:5px solid black"">","","","","","","","",""
"","38.8799998909235","sequential-stimulus-presentation-old","118","243795","0.0-25.0-1.4","SS1619114612955","trial","","40","500","538.8799998909235","images/stimuli/spore_stims/simple_04_A_a.gif","images/stimuli/spore_stims/simple_19_A_b.gif","forced_short","","8","simple_dissimilar","images/stimuli/spore_stims/simple_19_A_b.gif","","","","",""
"","null","html-keyboard-response","119","244755","0.0-25.0-0.5","SS1619114612955","","","null","","","","","","<p><img src= images/blank.png width =""600"" height = ""600"" style=""position:fixed;top:50%; left:50%; transform: translate(-50%, -50%); border:5px solid black"">","","","","","","","",""
"","0.924999825656414","sequential-stimulus-presentation-old","120","245259","0.0-25.0-1.5","SS1619114612955","trial","","40","500","500.9249998256564","images/stimuli/spore_stims/simple_04_A_a.gif","images/stimuli/spore_stims/simple_19_A_b.gif","forced_short","","8","simple_dissimilar","images/stimuli/spore_stims/simple_19_A_b.gif","","","","",""
"","2685.8649998903275","survey-multi-choice","121","247947","0.0-26.0","SS1619114612955","math_question","","","","","","","","","","","","{""Q0"":""8""}","[0]","8","",""
"","null","html-keyboard-response","122","249248","0.0-27.0-0.0","SS1619114612955","","","null","","","","","","<p><img src= images/blank.png width =""600"" height = ""600"" style=""position:fixed;top:50%; left:50%; transform: translate(-50%, -50%); border:5px solid black"">","","","","","","","",""
"","517.2649999149144","sequential-stimulus-presentation-old","123","249868","0.0-27.0-1.0","SS1619114612955","trial","","40","500","1017.2649999149144","images/stimuli/spore_stims/complex_10_A_a.gif","images/stimuli/spore_stims/complex_07_A_b.gif","forced_short","","9","complex_dissimilar","images/stimuli/spore_stims/complex_07_A_b.gif","","","","",""
"","null","html-keyboard-response","124","250795","0.0-27.0-0.1","SS1619114612955","","","null","","","","","","<p><img src= images/blank.png width =""600"" height = ""600"" style=""position:fixed;top:50%; left:50%; transform: translate(-50%, -50%); border:5px solid black"">","","","","","","","",""
"","1592.9400003515184","sequential-stimulus-presentation-old","125","252891","0.0-27.0-1.1","SS1619114612955","trial","","40","500","2092.9400003515184","images/stimuli/spore_stims/complex_10_A_a.gif","images/stimuli/spore_stims/complex_07_A_b.gif","forced_short","","9","complex_dissimilar","images/stimuli/spore_stims/complex_07_A_b.gif","","","","",""
"","null","html-keyboard-response","126","253882","0.0-27.0-0.2","SS1619114612955","","","null","","","","","","<p><img src= images/blank.png width =""600"" height = ""600"" style=""position:fixed;top:50%; left:50%; transform: translate(-50%, -50%); border:5px solid black"">","","","","","","","",""
"","201.66500005871058","sequential-stimulus-presentation-old","127","254587","0.0-27.0-1.2","SS1619114612955","trial","","40","500","701.6650000587106","images/stimuli/spore_stims/complex_10_A_a.gif","images/stimuli/spore_stims/complex_07_A_b.gif","forced_short","","9","complex_dissimilar","images/stimuli/spore_stims/complex_07_A_b.gif","","","","",""
"","null","html-keyboard-response","128","255687","0.0-27.0-0.3","SS1619114612955","","","null","","","","","","<p><img src= images/blank.png width =""600"" height = ""600"" style=""position:fixed;top:50%; left:50%; transform: translate(-50%, -50%); border:5px solid black"">","","","","","","","",""
"","155.3549999371171","sequential-stimulus-presentation-old","129","256347","0.0-27.0-1.3","SS1619114612955","trial","","40","500","655.3549999371171","images/stimuli/spore_stims/complex_10_A_a.gif","images/stimuli/spore_stims/complex_07_A_b.gif","forced_short","","9","complex_dissimilar","images/stimuli/spore_stims/complex_07_A_b.gif","","","","",""
"","null","html-keyboard-response","130","257510","0.0-27.0-0.4","SS1619114612955","","","null","","","","","","<p><img src= images/blank.png width =""600"" height = ""600"" style=""position:fixed;top:50%; left:50%; transform: translate(-50%, -50%); border:5px solid black"">","","","","","","","",""
"","54.77500008419156","sequential-stimulus-presentation-old","131","258069","0.0-27.0-1.4","SS1619114612955","trial","","40","500","554.7750000841916","images/stimuli/spore_stims/complex_10_A_a.gif","images/stimuli/spore_stims/complex_07_A_b.gif","forced_short","","9","complex_dissimilar","images/stimuli/spore_stims/complex_10_A_a.gif","","","","",""
"","3747.1649996005","survey-multi-choice","132","261819","0.0-28.0","SS1619114612955","math_question","","","","","","","","","","","","{""Q0"":""13""}","[0]","13","",""
"","null","html-keyboard-response","133","262788","0.0-29.0-0.0","SS1619114612955","","","null","","","","","","<p><img src= images/blank.png width =""600"" height = ""600"" style=""position:fixed;top:50%; left:50%; transform: translate(-50%, -50%); border:5px solid black"">","","","","","","","",""
"","596.2950000539422","sequential-stimulus-presentation-old","134","273388","0.0-29.0-1.0","SS1619114612955","trial","","40","500","1096.2950000539422","images/stimuli/spore_stims/complex_01_A_a.gif","images/stimuli/spore_stims/complex_02_A_b.gif","forced_long","","10","complex_dissimilar","images/stimuli/spore_stims/complex_02_A_b.gif","","","","",""
"","null","html-keyboard-response","135","274594","0.0-29.0-0.1","SS1619114612955","","","null","","","","","","<p><img src= images/blank.png width =""600"" height = ""600"" style=""position:fixed;top:50%; left:50%; transform: translate(-50%, -50%); border:5px solid black"">","","","","","","","",""
"","2098.694999702275","sequential-stimulus-presentation-old","136","277195","0.0-29.0-1.1","SS1619114612955","trial","","40","500","2598.694999702275","images/stimuli/spore_stims/complex_01_A_a.gif","images/stimuli/spore_stims/complex_02_A_b.gif","forced_long","","10","complex_dissimilar","images/stimuli/spore_stims/complex_01_A_a.gif","","","","",""
"","null","html-keyboard-response","137","278425","0.0-29.0-0.2","SS1619114612955","","","null","","","","","","<p><img src= images/blank.png width =""600"" height = ""600"" style=""position:fixed;top:50%; left:50%; transform: translate(-50%, -50%); border:5px solid black"">","","","","","","","",""
"","65.8799996599555","sequential-stimulus-presentation-old","138","278995","0.0-29.0-1.2","SS1619114612955","trial","","40","500","565.8799996599555","images/stimuli/spore_stims/complex_01_A_a.gif","images/stimuli/spore_stims/complex_02_A_b.gif","forced_long","","10","complex_dissimilar","images/stimuli/spore_stims/complex_02_A_b.gif","","","","",""
"","null","html-keyboard-response","139","280075","0.0-29.0-0.3","SS1619114612955","","","null","","","","","","<p><img src= images/blank.png width =""600"" height = ""600"" style=""position:fixed;top:50%; left:50%; transform: translate(-50%, -50%); border:5px solid black"">","","","","","","","",""
"","25.08999966084957","sequential-stimulus-presentation-old","140","280604","0.0-29.0-1.3","SS1619114612955","trial","","40","500","525.0899996608496","images/stimuli/spore_stims/complex_01_A_a.gif","images/stimuli/spore_stims/complex_02_A_b.gif","forced_long","","10","complex_dissimilar","images/stimuli/spore_stims/complex_02_A_b.gif","","","","",""
"","null","html-keyboard-response","141","281680","0.0-29.0-0.4","SS1619114612955","","","null","","","","","","<p><img src= images/blank.png width =""600"" height = ""600"" style=""position:fixed;top:50%; left:50%; transform: translate(-50%, -50%); border:5px solid black"">","","","","","","","",""
"","22.94500032439828","sequential-stimulus-presentation-old","142","282211","0.0-29.0-1.4","SS1619114612955","trial","","40","500","522.9450003243983","images/stimuli/spore_stims/complex_01_A_a.gif","images/stimuli/spore_stims/complex_02_A_b.gif","forced_long","","10","complex_dissimilar","images/stimuli/spore_stims/complex_02_A_b.gif","","","","",""
"","2702.1099999547005","survey-multi-choice","143","284915","0.0-30.0","SS1619114612955","math_question","","","","","","","","","","","","{""Q0"":""15""}","[0]","15","",""
"","null","html-keyboard-response","144","286127","0.0-31.0-0.0","SS1619114612955","","","null","","","","","","<p><img src= images/blank.png width =""600"" height = ""600"" style=""position:fixed;top:50%; left:50%; transform: translate(-50%, -50%); border:5px solid black"">","","","","","","","",""
"","256.9899996742606","sequential-stimulus-presentation-old","145","286890","0.0-31.0-1.0","SS1619114612955","trial","","40","500","756.9899996742606","images/stimuli/spore_stims/simple_15_A_a.gif","images/stimuli/spore_stims/simple_18_A_b.gif","self_paced","","11","simple_dissimilar","images/stimuli/spore_stims/simple_18_A_b.gif","","","","",""
"","null","html-keyboard-response","146","287890","0.0-31.0-0.1","SS1619114612955","","","null","","","","","","<p><img src= images/blank.png width =""600"" height = ""600"" style=""position:fixed;top:50%; left:50%; transform: translate(-50%, -50%); border:5px solid black"">","","","","","","","",""
"","1161.3449999131262","sequential-stimulus-presentation-old","147","289556","0.0-31.0-1.1","SS1619114612955","trial","","40","500","1661.3449999131262","images/stimuli/spore_stims/simple_15_A_a.gif","images/stimuli/spore_stims/simple_18_A_b.gif","self_paced","","11","simple_dissimilar","images/stimuli/spore_stims/simple_18_A_b.gif","","","","",""
"","null","html-keyboard-response","148","290848","0.0-31.0-0.2","SS1619114612955","","","null","","","","","","<p><img src= images/blank.png width =""600"" height = ""600"" style=""position:fixed;top:50%; left:50%; transform: translate(-50%, -50%); border:5px solid black"">","","","","","","","",""
"","427.49999975785613","sequential-stimulus-presentation-old","149","291779","0.0-31.0-1.2","SS1619114612955","trial","","40","500","927.4999997578561","images/stimuli/spore_stims/simple_15_A_a.gif","images/stimuli/spore_stims/simple_18_A_b.gif","self_paced","","11","simple_dissimilar","images/stimuli/spore_stims/simple_18_A_b.gif","","","","",""
"","null","html-keyboard-response","150","292956","0.0-31.0-0.3","SS1619114612955","","","null","","","","","","<p><img src= images/blank.png width =""600"" height = ""600"" style=""position:fixed;top:50%; left:50%; transform: translate(-50%, -50%); border:5px solid black"">","","","","","","","",""
"","358.32999972626567","sequential-stimulus-presentation-old","151","293818","0.0-31.0-1.3","SS1619114612955","trial","","40","500","858.3299997262657","images/stimuli/spore_stims/simple_15_A_a.gif","images/stimuli/spore_stims/simple_18_A_b.gif","self_paced","","11","simple_dissimilar","images/stimuli/spore_stims/simple_18_A_b.gif","","","","",""
"","null","html-keyboard-response","152","294967","0.0-31.0-0.4","SS1619114612955","","","null","","","","","","<p><img src= images/blank.png width =""600"" height = ""600"" style=""position:fixed;top:50%; left:50%; transform: translate(-50%, -50%); border:5px solid black"">","","","","","","","",""
"","706.9149999879301","sequential-stimulus-presentation-old","153","296179","0.0-31.0-1.4","SS1619114612955","trial","","40","500","1206.91499998793","images/stimuli/spore_stims/simple_15_A_a.gif","images/stimuli/spore_stims/simple_18_A_b.gif","self_paced","","11","simple_dissimilar","images/stimuli/spore_stims/simple_15_A_a.gif","","","","",""
"","null","html-keyboard-response","154","297423","0.0-31.0-0.5","SS1619114612955","","","null","","","","","","<p><img src= images/blank.png width =""600"" height = ""600"" style=""position:fixed;top:50%; left:50%; transform: translate(-50%, -50%); border:5px solid black"">","","","","","","","",""
"","300.80499965697527","sequential-stimulus-presentation-old","155","298227","0.0-31.0-1.5","SS1619114612955","trial","","40","500","800.8049996569753","images/stimuli/spore_stims/simple_15_A_a.gif","images/stimuli/spore_stims/simple_18_A_b.gif","self_paced","","11","simple_dissimilar","images/stimuli/spore_stims/simple_15_A_a.gif","","","","",""
"[{""page_index"":0,""viewing_time"":2949.494999833405}]","2949.6999997645617","instructions","156","301179","0.0-32.0","SS1619114612955","instructions","","","","","","","","","","","","","","","",""
"","5764.979999978095","survey-likert","157","306947","0.0-33.0","SS1619114612955","similarity_question","","","","","","","","","","","","{""Q0"":3}","[0]","","images/stimuli/spore_stims/simple_12_A_b.gif","images/stimuli/spore_stims/simple_05_A_a.gif"
"","2621.300000231713","survey-likert","158","309572","0.0-34.0","SS1619114612955","similarity_question","","","","","","","","","","","","{""Q0"":2}","[0]","","images/stimuli/spore_stims/simple_15_A_b.gif","images/stimuli/spore_stims/simple_10_A_a.gif"
"","2675.0199999660254","survey-likert","159","312251","0.0-35.0","SS1619114612955","similarity_question","","","","","","","","","","","","{""Q0"":1}","[0]","","images/stimuli/spore_stims/simple_20_A_b.gif","images/stimuli/spore_stims/simple_16_A_a.gif"
"","2013.8150001876056","survey-likert","160","314267","0.0-36.0","SS1619114612955","similarity_question","","","","","","","","","","","","{""Q0"":1}","[0]","","images/stimuli/spore_stims/simple_18_A_b.gif","images/stimuli/spore_stims/simple_15_A_a.gif"
"","2564.524999819696","survey-likert","161","316835","0.0-37.0","SS1619114612955","similarity_question","","","","","","","","","","","","{""Q0"":4}","[0]","","images/stimuli/spore_stims/complex_18_A_a.gif","images/stimuli/spore_stims/complex_05_A_b.gif"
"","2355.9050001204014","survey-likert","162","319195","0.0-38.0","SS1619114612955","similarity_question","","","","","","","","","","","","{""Q0"":3}","[0]","","images/stimuli/spore_stims/complex_10_A_a.gif","images/stimuli/spore_stims/complex_07_A_b.gif"
"","2069.7750002145767","survey-likert","163","321267","0.0-39.0","SS1619114612955","similarity_question","","","","","","","","","","","","{""Q0"":2}","[0]","","images/stimuli/spore_stims/simple_04_A_b.gif","images/stimuli/spore_stims/simple_11_A_a.gif"
"","1764.7100002504885","survey-likert","164","323035","0.0-40.0","SS1619114612955","similarity_question","","","","","","","","","","","","{""Q0"":2}","[0]","","images/stimuli/spore_stims/simple_19_A_b.gif","images/stimuli/spore_stims/simple_04_A_a.gif"
"","4613.170000258833","survey-likert","165","327651","0.0-41.0","SS1619114612955","similarity_question","","","","","","","","","","","","{""Q0"":5}","[0]","","images/stimuli/spore_stims/complex_15_A_a.gif","images/stimuli/spore_stims/complex_17_A_b.gif"
"","5501.344999764115","survey-likert","166","333155","0.0-42.0","SS1619114612955","similarity_question","","","","","","","","","","","","{""Q0"":3}","[0]","","images/stimuli/spore_stims/complex_09_A_b.gif","images/stimuli/spore_stims/complex_07_A_a.gif"
"","1972.014999948442","survey-likert","167","335131","0.0-43.0","SS1619114612955","similarity_question","","","","","","","","","","","","{""Q0"":2}","[0]","","images/stimuli/spore_stims/complex_14_A_b.gif","images/stimuli/spore_stims/complex_13_A_a.gif"
"","3523.9699999801815","survey-likert","168","338659","0.0-44.0","SS1619114612955","similarity_question","","","","","","","","","","","","{""Q0"":2}","[0]","","images/stimuli/spore_stims/complex_02_A_b.gif","images/stimuli/spore_stims/complex_01_A_a.gif"
"[{""page_index"":0,""viewing_time"":2749.4250000454485}]","2749.569999985397","instructions","169","341410","0.0-45.0","SS1619114612955","instructions","","","","","","","","","","","","","","","",""
"","2477.4349997751415","survey-likert","170","343891","0.0-46.0","SS1619114612955","","","","","","","","","images/stimuli/spore_stims/simple_10_A_a.gif","","","","{""Q0"":1}","[0]","","",""
"","1925.3299999982119","survey-likert","171","345819","0.0-47.0","SS1619114612955","","","","","","","","","images/stimuli/spore_stims/simple_18_A_b.gif","","","","{""Q0"":2}","[0]","","",""
"","3196.3650002144277","survey-likert","172","349019","0.0-48.0","SS1619114612955","","","","","","","","","images/stimuli/spore_stims/simple_12_A_b.gif","","","","{""Q0"":1}","[0]","","",""
"","2253.610000014305","survey-likert","173","351275","0.0-49.0","SS1619114612955","","","","","","","","","images/stimuli/spore_stims/simple_04_A_a.gif","","","","{""Q0"":0}","[0]","","",""
"","3862.475000321865","survey-likert","174","355141","0.0-50.0","SS1619114612955","","","","","","","","","images/stimuli/spore_stims/complex_15_A_a.gif","","","","{""Q0"":4}","[0]","","",""
"","2107.4599996209145","survey-likert","175","357251","0.0-51.0","SS1619114612955","","","","","","","","","images/stimuli/spore_stims/simple_11_A_a.gif","","","","{""Q0"":2}","[0]","","",""
"","2748.600000049919","survey-likert","176","360003","0.0-52.0","SS1619114612955","","","","","","","","","images/stimuli/spore_stims/complex_14_A_b.gif","","","","{""Q0"":5}","[0]","","",""
"","2372.9300000704825","survey-likert","177","362378","0.0-53.0","SS1619114612955","","","","","","","","","images/stimuli/spore_stims/complex_18_A_a.gif","","","","{""Q0"":5}","[0]","","",""
"","2701.640000101179","survey-likert","178","365083","0.0-54.0","SS1619114612955","","","","","","","","","images/stimuli/spore_stims/complex_07_A_b.gif","","","","{""Q0"":5}","[0]","","",""
"","2252.4899998679757","survey-likert","179","367339","0.0-55.0","SS1619114612955","","","","","","","","","images/stimuli/spore_stims/simple_16_A_a.gif","","","","{""Q0"":2}","[0]","","",""
"","3629.2150001972914","survey-likert","180","370971","0.0-56.0","SS1619114612955","","","","","","","","","images/stimuli/spore_stims/complex_02_A_b.gif","","","","{""Q0"":4}","[0]","","",""
"","2659.715000074357","survey-likert","181","373634","0.0-57.0","SS1619114612955","","","","","","","","","images/stimuli/spore_stims/complex_07_A_a.gif","","","","{""Q0"":4}","[0]","","",""
"[{""page_index"":0,""viewing_time"":1621.385000180453}]","1621.5450000017881","instructions","182","375259","0.0-58.0","SS1619114612955","instructions","","","","","","","","","","","","","","","",""
"","2696.940000168979","demog-age","183","377971","0.0-59.0","SS1619114612955","","","","","","","","","","","","","{""age"":""56""}","","","",""
"","2620.8950001746416","demog-ethnic-US","184","380597","0.0-60.0","SS1619114612955","","","","","","","","","","","","","{""ethnicity"":[""White""]}","[0]","","",""
"","3508.385000284761","demog-gender-and-education","185","384109","0.0-61.0","SS1619114612955","","","","","","","","","","","","","{""gender"":""Male"",""education"":""Bachelor's Degree""}","[0,1]","","",""
"","21890.73000010103","survey-text","186","406002","0.0-62.0","SS1619114612955","feedback","","","","","","","","","","","","{""Q0"":""Only a 10 minute timer on HIT, so had to rush to complete in time.""}","","","",""
"[{""page_index"":0,""viewing_time"":1316.6549997404218}]","1316.8599996715784","instructions","187","407323","0.0-63.0","SS1619114612955","instructions","","","","","","","","","","","","","","","",""
