"view_history","rt","trial_type","trial_index","time_elapsed","internal_node_id","subject","stimulus_type","trial_stimulus","key_press","minimum_viewing_duration","trial_looking_time","block_deviant","block_background","exposure_type","stimulus","block_number","block_type","stimulus_displayed","responses","question_order","math_correct_answer","stimulus_left","stimulus_right"
"[{""page_index"":0,""viewing_time"":35197.714999998425}]","35198.10499999949","instructions","0","35199","0.0-0.0","SS1619115431977","","","","","","","","","","","","","","","","",""
"[{""page_index"":0,""viewing_time"":13733.46500000116},{""page_index"":1,""viewing_time"":944.2699999999604}]","14677.930000001652","instructions","1","52430","0.0-1.0","SS1619115431977","instructions","","","","","","","","","","","","","","","",""
"","5647.644999997283","sequential-stimulus-presentation-old","2","58583","0.0-2.0","SS1619115431977","","","40","500","6147.644999997283","null","null","self_paced","","","","","","","","",""
"","134.69000000259257","sequential-stimulus-presentation-old","3","59221","0.0-3.0","SS1619115431977","","","40","500","634.6900000025926","null","null","self_paced","","","","","","","","",""
"[{""page_index"":0,""viewing_time"":870.0199999984761}]","870.2349999985017","instructions","4","60093","0.0-4.0","SS1619115431977","instructions","","","","","","","","","","","","","","","",""
"","3171.519999999873","sequential-stimulus-presentation-old","5","73268","0.0-5.0","SS1619115431977","","","40","500","3671.519999999873","null","null","forced_long","","","","","","","","",""
"","63.5500000025786","sequential-stimulus-presentation-old","6","73436","0.0-6.0","SS1619115431977","","","40","500","563.5500000025786","null","null","forced_long","","","","","","","","",""
"[{""page_index"":0,""viewing_time"":1293.9249999981257}]","1294.129999998404","instructions","7","74732","0.0-7.0","SS1619115431977","instructions","","","","","","","","","","","","","","","",""
"[{""page_index"":0,""viewing_time"":270.01499999823864},{""page_index"":1,""viewing_time"":559.5099999991362},{""page_index"":2,""viewing_time"":359.96499999964726},{""page_index"":3,""viewing_time"":680.0500000026659},{""page_index"":4,""viewing_time"":392.4449999976787}]","2262.2299999966344","instructions","8","76996","0.0-8.0","SS1619115431977","instructions","","","","","","","","","","","","","","","",""
"","null","html-keyboard-response","9","78212","0.0-9.0-0.0","SS1619115431977","","","null","","","","","","<p><img src= images/blank.png width =""600"" height = ""600"" style=""position:fixed;top:50%; left:50%; transform: translate(-50%, -50%); border:5px solid black"">","","","","","","","",""
"","2097.5299999990966","sequential-stimulus-presentation-old","10","90315","0.0-9.0-1.0","SS1619115431977","trial","","40","500","2597.5299999990966","images/stimuli/spore_stims/complex_16_A_a.gif","images/stimuli/spore_stims/complex_04_A_b.gif","forced_long","","0","complex_dissimilar","images/stimuli/spore_stims/complex_04_A_b.gif","","","","",""
"","null","html-keyboard-response","11","91416","0.0-9.0-0.1","SS1619115431977","","","null","","","","","","<p><img src= images/blank.png width =""600"" height = ""600"" style=""position:fixed;top:50%; left:50%; transform: translate(-50%, -50%); border:5px solid black"">","","","","","","","",""
"","27.365000001736917","sequential-stimulus-presentation-old","12","91947","0.0-9.0-1.1","SS1619115431977","trial","","40","500","527.3650000017369","images/stimuli/spore_stims/complex_16_A_a.gif","images/stimuli/spore_stims/complex_04_A_b.gif","forced_long","","0","complex_dissimilar","images/stimuli/spore_stims/complex_16_A_a.gif","","","","",""
"","null","html-keyboard-response","13","92911","0.0-9.0-0.2","SS1619115431977","","","null","","","","","","<p><img src= images/blank.png width =""600"" height = ""600"" style=""position:fixed;top:50%; left:50%; transform: translate(-50%, -50%); border:5px solid black"">","","","","","","","",""
"","91.39499999946565","sequential-stimulus-presentation-old","14","93507","0.0-9.0-1.2","SS1619115431977","trial","","40","500","591.3949999994657","images/stimuli/spore_stims/complex_16_A_a.gif","images/stimuli/spore_stims/complex_04_A_b.gif","forced_long","","0","complex_dissimilar","images/stimuli/spore_stims/complex_04_A_b.gif","","","","",""
"","null","html-keyboard-response","15","94559","0.0-9.0-0.3","SS1619115431977","","","null","","","","","","<p><img src= images/blank.png width =""600"" height = ""600"" style=""position:fixed;top:50%; left:50%; transform: translate(-50%, -50%); border:5px solid black"">","","","","","","","",""
"","181.30000000019209","sequential-stimulus-presentation-old","16","95245","0.0-9.0-1.3","SS1619115431977","trial","","40","500","681.3000000001921","images/stimuli/spore_stims/complex_16_A_a.gif","images/stimuli/spore_stims/complex_04_A_b.gif","forced_long","","0","complex_dissimilar","images/stimuli/spore_stims/complex_16_A_a.gif","","","","",""
"","14406.44500000053","survey-multi-choice","17","109657","0.0-10.0","SS1619115431977","math_question","","","","","","","","","","","","{""Q0"":""7""}","[0]","7","",""
"","null","html-keyboard-response","18","110921","0.0-11.0-0.0","SS1619115431977","","","null","","","","","","<p><img src= images/blank.png width =""600"" height = ""600"" style=""position:fixed;top:50%; left:50%; transform: translate(-50%, -50%); border:5px solid black"">","","","","","","","",""
"","21016.43000000331","sequential-stimulus-presentation-old","19","132445","0.0-11.0-1.0","SS1619115431977","trial","","40","500","21516.43000000331","images/stimuli/spore_stims/complex_09_A_b.gif","images/stimuli/spore_stims/complex_07_A_a.gif","self_paced","","1","complex_dissimilar","images/stimuli/spore_stims/complex_07_A_a.gif","","","","",""
"","null","html-keyboard-response","20","133444","0.0-11.0-0.1","SS1619115431977","","","null","","","","","","<p><img src= images/blank.png width =""600"" height = ""600"" style=""position:fixed;top:50%; left:50%; transform: translate(-50%, -50%); border:5px solid black"">","","","","","","","",""
"","62.80500000139","sequential-stimulus-presentation-old","21","134013","0.0-11.0-1.1","SS1619115431977","trial","","40","500","562.80500000139","images/stimuli/spore_stims/complex_09_A_b.gif","images/stimuli/spore_stims/complex_07_A_a.gif","self_paced","","1","complex_dissimilar","images/stimuli/spore_stims/complex_07_A_a.gif","","","","",""
"","null","html-keyboard-response","22","134879","0.0-11.0-0.2","SS1619115431977","","","null","","","","","","<p><img src= images/blank.png width =""600"" height = ""600"" style=""position:fixed;top:50%; left:50%; transform: translate(-50%, -50%); border:5px solid black"">","","","","","","","",""
"","108.60499999762396","sequential-stimulus-presentation-old","23","135491","0.0-11.0-1.2","SS1619115431977","trial","","40","500","608.604999997624","images/stimuli/spore_stims/complex_09_A_b.gif","images/stimuli/spore_stims/complex_07_A_a.gif","self_paced","","1","complex_dissimilar","images/stimuli/spore_stims/complex_09_A_b.gif","","","","",""
"","null","html-keyboard-response","24","136765","0.0-11.0-0.3","SS1619115431977","","","null","","","","","","<p><img src= images/blank.png width =""600"" height = ""600"" style=""position:fixed;top:50%; left:50%; transform: translate(-50%, -50%); border:5px solid black"">","","","","","","","",""
"","151.5049999979965","sequential-stimulus-presentation-old","25","137419","0.0-11.0-1.3","SS1619115431977","trial","","40","500","651.5049999979965","images/stimuli/spore_stims/complex_09_A_b.gif","images/stimuli/spore_stims/complex_07_A_a.gif","self_paced","","1","complex_dissimilar","images/stimuli/spore_stims/complex_07_A_a.gif","","","","",""
"","2758.1299999983457","survey-multi-choice","26","140180","0.0-12.0","SS1619115431977","math_question","","","","","","","","","","","","{""Q0"":""10""}","[0]","10","",""
"","null","html-keyboard-response","27","141079","0.0-13.0-0.0","SS1619115431977","","","null","","","","","","<p><img src= images/blank.png width =""600"" height = ""600"" style=""position:fixed;top:50%; left:50%; transform: translate(-50%, -50%); border:5px solid black"">","","","","","","","",""
"","37.20999999859487","sequential-stimulus-presentation-old","28","141219","0.0-13.0-1.0","SS1619115431977","trial","","40","500","537.2099999985949","images/stimuli/spore_stims/simple_11_A_b.gif","images/stimuli/spore_stims/simple_08_A_a.gif","forced_short","","2","simple_dissimilar","images/stimuli/spore_stims/simple_08_A_a.gif","","","","",""
"","null","html-keyboard-response","29","142122","0.0-13.0-0.1","SS1619115431977","","","null","","","","","","<p><img src= images/blank.png width =""600"" height = ""600"" style=""position:fixed;top:50%; left:50%; transform: translate(-50%, -50%); border:5px solid black"">","","","","","","","",""
"","219.2849999992177","sequential-stimulus-presentation-old","30","142843","0.0-13.0-1.1","SS1619115431977","trial","","40","500","719.2849999992177","images/stimuli/spore_stims/simple_11_A_b.gif","images/stimuli/spore_stims/simple_08_A_a.gif","forced_short","","2","simple_dissimilar","images/stimuli/spore_stims/simple_08_A_a.gif","","","","",""
"","null","html-keyboard-response","31","144051","0.0-13.0-0.2","SS1619115431977","","","null","","","","","","<p><img src= images/blank.png width =""600"" height = ""600"" style=""position:fixed;top:50%; left:50%; transform: translate(-50%, -50%); border:5px solid black"">","","","","","","","",""
"","135.14999999824795","sequential-stimulus-presentation-old","32","144691","0.0-13.0-1.2","SS1619115431977","trial","","40","500","635.149999998248","images/stimuli/spore_stims/simple_11_A_b.gif","images/stimuli/spore_stims/simple_08_A_a.gif","forced_short","","2","simple_dissimilar","images/stimuli/spore_stims/simple_08_A_a.gif","","","","",""
"","null","html-keyboard-response","33","145662","0.0-13.0-0.3","SS1619115431977","","","null","","","","","","<p><img src= images/blank.png width =""600"" height = ""600"" style=""position:fixed;top:50%; left:50%; transform: translate(-50%, -50%); border:5px solid black"">","","","","","","","",""
"","125.06000000212225","sequential-stimulus-presentation-old","34","146291","0.0-13.0-1.3","SS1619115431977","trial","","40","500","625.0600000021223","images/stimuli/spore_stims/simple_11_A_b.gif","images/stimuli/spore_stims/simple_08_A_a.gif","forced_short","","2","simple_dissimilar","images/stimuli/spore_stims/simple_08_A_a.gif","","","","",""
"","null","html-keyboard-response","35","147508","0.0-13.0-0.4","SS1619115431977","","","null","","","","","","<p><img src= images/blank.png width =""600"" height = ""600"" style=""position:fixed;top:50%; left:50%; transform: translate(-50%, -50%); border:5px solid black"">","","","","","","","",""
"","30.58999999848311","sequential-stimulus-presentation-old","36","148043","0.0-13.0-1.4","SS1619115431977","trial","","40","500","530.5899999984831","images/stimuli/spore_stims/simple_11_A_b.gif","images/stimuli/spore_stims/simple_08_A_a.gif","forced_short","","2","simple_dissimilar","images/stimuli/spore_stims/simple_08_A_a.gif","","","","",""
"","null","html-keyboard-response","37","149178","0.0-13.0-0.5","SS1619115431977","","","null","","","","","","<p><img src= images/blank.png width =""600"" height = ""600"" style=""position:fixed;top:50%; left:50%; transform: translate(-50%, -50%); border:5px solid black"">","","","","","","","",""
"","199.9199999991106","sequential-stimulus-presentation-old","38","149883","0.0-13.0-1.5","SS1619115431977","trial","","40","500","699.9199999991106","images/stimuli/spore_stims/simple_11_A_b.gif","images/stimuli/spore_stims/simple_08_A_a.gif","forced_short","","2","simple_dissimilar","images/stimuli/spore_stims/simple_11_A_b.gif","","","","",""
"","4893.819999997504","survey-multi-choice","39","154783","0.0-14.0","SS1619115431977","math_question","","","","","","","","","","","","{""Q0"":""8""}","[0]","8","",""
"","null","html-keyboard-response","40","156160","0.0-15.0-0.0","SS1619115431977","","","null","","","","","","<p><img src= images/blank.png width =""600"" height = ""600"" style=""position:fixed;top:50%; left:50%; transform: translate(-50%, -50%); border:5px solid black"">","","","","","","","",""
"","125.24499999926775","sequential-stimulus-presentation-old","41","156788","0.0-15.0-1.0","SS1619115431977","trial","","40","500","625.2449999992677","images/stimuli/spore_stims/simple_05_A_a.gif","images/stimuli/spore_stims/simple_14_A_b.gif","self_paced","","3","simple_dissimilar","images/stimuli/spore_stims/simple_14_A_b.gif","","","","",""
"","null","html-keyboard-response","42","158060","0.0-15.0-0.1","SS1619115431977","","","null","","","","","","<p><img src= images/blank.png width =""600"" height = ""600"" style=""position:fixed;top:50%; left:50%; transform: translate(-50%, -50%); border:5px solid black"">","","","","","","","",""
"","143.29500000167172","sequential-stimulus-presentation-old","43","158709","0.0-15.0-1.1","SS1619115431977","trial","","40","500","643.2950000016717","images/stimuli/spore_stims/simple_05_A_a.gif","images/stimuli/spore_stims/simple_14_A_b.gif","self_paced","","3","simple_dissimilar","images/stimuli/spore_stims/simple_14_A_b.gif","","","","",""
"","null","html-keyboard-response","44","159944","0.0-15.0-0.2","SS1619115431977","","","null","","","","","","<p><img src= images/blank.png width =""600"" height = ""600"" style=""position:fixed;top:50%; left:50%; transform: translate(-50%, -50%); border:5px solid black"">","","","","","","","",""
"","252.85499999881722","sequential-stimulus-presentation-old","45","160700","0.0-15.0-1.2","SS1619115431977","trial","","40","500","752.8549999988172","images/stimuli/spore_stims/simple_05_A_a.gif","images/stimuli/spore_stims/simple_14_A_b.gif","self_paced","","3","simple_dissimilar","images/stimuli/spore_stims/simple_14_A_b.gif","","","","",""
"","null","html-keyboard-response","46","161583","0.0-15.0-0.3","SS1619115431977","","","null","","","","","","<p><img src= images/blank.png width =""600"" height = ""600"" style=""position:fixed;top:50%; left:50%; transform: translate(-50%, -50%); border:5px solid black"">","","","","","","","",""
"","212.97000000049593","sequential-stimulus-presentation-old","47","162300","0.0-15.0-1.3","SS1619115431977","trial","","40","500","712.9700000004959","images/stimuli/spore_stims/simple_05_A_a.gif","images/stimuli/spore_stims/simple_14_A_b.gif","self_paced","","3","simple_dissimilar","images/stimuli/spore_stims/simple_14_A_b.gif","","","","",""
"","null","html-keyboard-response","48","163491","0.0-15.0-0.4","SS1619115431977","","","null","","","","","","<p><img src= images/blank.png width =""600"" height = ""600"" style=""position:fixed;top:50%; left:50%; transform: translate(-50%, -50%); border:5px solid black"">","","","","","","","",""
"","111.64999999891734","sequential-stimulus-presentation-old","49","164108","0.0-15.0-1.4","SS1619115431977","trial","","40","500","611.6499999989173","images/stimuli/spore_stims/simple_05_A_a.gif","images/stimuli/spore_stims/simple_14_A_b.gif","self_paced","","3","simple_dissimilar","images/stimuli/spore_stims/simple_05_A_a.gif","","","","",""
"","4759.429999998247","survey-multi-choice","50","168870","0.0-16.0","SS1619115431977","math_question","","","","","","","","","","","","{""Q0"":""11""}","[0]","11","",""
"","null","html-keyboard-response","51","170080","0.0-17.0-0.0","SS1619115431977","","","null","","","","","","<p><img src= images/blank.png width =""600"" height = ""600"" style=""position:fixed;top:50%; left:50%; transform: translate(-50%, -50%); border:5px solid black"">","","","","","","","",""
"","124.63000000207103","sequential-stimulus-presentation-old","52","180212","0.0-17.0-1.0","SS1619115431977","trial","","40","500","624.630000002071","images/stimuli/spore_stims/simple_18_A_a.gif","images/stimuli/spore_stims/simple_04_A_b.gif","forced_long","","4","simple_dissimilar","images/stimuli/spore_stims/simple_04_A_b.gif","","","","",""
"","null","html-keyboard-response","53","181413","0.0-17.0-0.1","SS1619115431977","","","null","","","","","","<p><img src= images/blank.png width =""600"" height = ""600"" style=""position:fixed;top:50%; left:50%; transform: translate(-50%, -50%); border:5px solid black"">","","","","","","","",""
"","203.74500000252738","sequential-stimulus-presentation-old","54","182124","0.0-17.0-1.1","SS1619115431977","trial","","40","500","703.7450000025274","images/stimuli/spore_stims/simple_18_A_a.gif","images/stimuli/spore_stims/simple_04_A_b.gif","forced_long","","4","simple_dissimilar","images/stimuli/spore_stims/simple_04_A_b.gif","","","","",""
"","null","html-keyboard-response","55","183270","0.0-17.0-0.2","SS1619115431977","","","null","","","","","","<p><img src= images/blank.png width =""600"" height = ""600"" style=""position:fixed;top:50%; left:50%; transform: translate(-50%, -50%); border:5px solid black"">","","","","","","","",""
"","252.69000000116648","sequential-stimulus-presentation-old","56","184028","0.0-17.0-1.2","SS1619115431977","trial","","40","500","752.6900000011665","images/stimuli/spore_stims/simple_18_A_a.gif","images/stimuli/spore_stims/simple_04_A_b.gif","forced_long","","4","simple_dissimilar","images/stimuli/spore_stims/simple_04_A_b.gif","","","","",""
"","null","html-keyboard-response","57","185175","0.0-17.0-0.3","SS1619115431977","","","null","","","","","","<p><img src= images/blank.png width =""600"" height = ""600"" style=""position:fixed;top:50%; left:50%; transform: translate(-50%, -50%); border:5px solid black"">","","","","","","","",""
"","69.44499999735854","sequential-stimulus-presentation-old","58","185747","0.0-17.0-1.3","SS1619115431977","trial","","40","500","569.4449999973585","images/stimuli/spore_stims/simple_18_A_a.gif","images/stimuli/spore_stims/simple_04_A_b.gif","forced_long","","4","simple_dissimilar","images/stimuli/spore_stims/simple_04_A_b.gif","","","","",""
"","null","html-keyboard-response","59","186605","0.0-17.0-0.4","SS1619115431977","","","null","","","","","","<p><img src= images/blank.png width =""600"" height = ""600"" style=""position:fixed;top:50%; left:50%; transform: translate(-50%, -50%); border:5px solid black"">","","","","","","","",""
"","15.315000000555301","sequential-stimulus-presentation-old","60","187123","0.0-17.0-1.4","SS1619115431977","trial","","40","500","515.3150000005553","images/stimuli/spore_stims/simple_18_A_a.gif","images/stimuli/spore_stims/simple_04_A_b.gif","forced_long","","4","simple_dissimilar","images/stimuli/spore_stims/simple_04_A_b.gif","","","","",""
"","4909.249999996973","survey-multi-choice","61","192036","0.0-18.0","SS1619115431977","math_question","","","","","","","","","","","","{""Q0"":""11""}","[0]","11","",""
"","null","html-keyboard-response","62","193183","0.0-19.0-0.0","SS1619115431977","","","null","","","","","","<p><img src= images/blank.png width =""600"" height = ""600"" style=""position:fixed;top:50%; left:50%; transform: translate(-50%, -50%); border:5px solid black"">","","","","","","","",""
"","37.19500000079279","sequential-stimulus-presentation-old","63","203227","0.0-19.0-1.0","SS1619115431977","trial","","40","500","537.1950000007928","images/stimuli/spore_stims/simple_10_A_b.gif","images/stimuli/spore_stims/simple_03_A_a.gif","forced_long","","5","simple_dissimilar","images/stimuli/spore_stims/simple_03_A_a.gif","","","","",""
"","null","html-keyboard-response","64","204272","0.0-19.0-0.1","SS1619115431977","","","null","","","","","","<p><img src= images/blank.png width =""600"" height = ""600"" style=""position:fixed;top:50%; left:50%; transform: translate(-50%, -50%); border:5px solid black"">","","","","","","","",""
"","46.11999999906402","sequential-stimulus-presentation-old","65","204826","0.0-19.0-1.1","SS1619115431977","trial","","40","500","546.119999999064","images/stimuli/spore_stims/simple_10_A_b.gif","images/stimuli/spore_stims/simple_03_A_a.gif","forced_long","","5","simple_dissimilar","images/stimuli/spore_stims/simple_03_A_a.gif","","","","",""
"","null","html-keyboard-response","66","205815","0.0-19.0-0.2","SS1619115431977","","","null","","","","","","<p><img src= images/blank.png width =""600"" height = ""600"" style=""position:fixed;top:50%; left:50%; transform: translate(-50%, -50%); border:5px solid black"">","","","","","","","",""
"","10.13000000239117","sequential-stimulus-presentation-old","67","206331","0.0-19.0-1.2","SS1619115431977","trial","","40","500","510.13000000239117","images/stimuli/spore_stims/simple_10_A_b.gif","images/stimuli/spore_stims/simple_03_A_a.gif","forced_long","","5","simple_dissimilar","images/stimuli/spore_stims/simple_03_A_a.gif","","","","",""
"","null","html-keyboard-response","68","207318","0.0-19.0-0.3","SS1619115431977","","","null","","","","","","<p><img src= images/blank.png width =""600"" height = ""600"" style=""position:fixed;top:50%; left:50%; transform: translate(-50%, -50%); border:5px solid black"">","","","","","","","",""
"","183.68499999996857","sequential-stimulus-presentation-old","69","208010","0.0-19.0-1.3","SS1619115431977","trial","","40","500","683.6849999999686","images/stimuli/spore_stims/simple_10_A_b.gif","images/stimuli/spore_stims/simple_03_A_a.gif","forced_long","","5","simple_dissimilar","images/stimuli/spore_stims/simple_03_A_a.gif","","","","",""
"","null","html-keyboard-response","70","209090","0.0-19.0-0.4","SS1619115431977","","","null","","","","","","<p><img src= images/blank.png width =""600"" height = ""600"" style=""position:fixed;top:50%; left:50%; transform: translate(-50%, -50%); border:5px solid black"">","","","","","","","",""
"","120.94499999875552","sequential-stimulus-presentation-old","71","209715","0.0-19.0-1.4","SS1619115431977","trial","","40","500","620.9449999987555","images/stimuli/spore_stims/simple_10_A_b.gif","images/stimuli/spore_stims/simple_03_A_a.gif","forced_long","","5","simple_dissimilar","images/stimuli/spore_stims/simple_10_A_b.gif","","","","",""
"","null","html-keyboard-response","72","210591","0.0-19.0-0.5","SS1619115431977","","","null","","","","","","<p><img src= images/blank.png width =""600"" height = ""600"" style=""position:fixed;top:50%; left:50%; transform: translate(-50%, -50%); border:5px solid black"">","","","","","","","",""
"","16.919999998208368","sequential-stimulus-presentation-old","73","211114","0.0-19.0-1.5","SS1619115431977","trial","","40","500","516.9199999982084","images/stimuli/spore_stims/simple_10_A_b.gif","images/stimuli/spore_stims/simple_03_A_a.gif","forced_long","","5","simple_dissimilar","images/stimuli/spore_stims/simple_03_A_a.gif","","","","",""
"","13762.719999998808","survey-multi-choice","74","224886","0.0-20.0","SS1619115431977","math_question","","","","","","","","","","","","{""Q0"":""6""}","[0]","6","",""
"","null","html-keyboard-response","75","226149","0.0-21.0-0.0","SS1619115431977","","","null","","","","","","<p><img src= images/blank.png width =""600"" height = ""600"" style=""position:fixed;top:50%; left:50%; transform: translate(-50%, -50%); border:5px solid black"">","","","","","","","",""
"","85.89500000016415","sequential-stimulus-presentation-old","76","226740","0.0-21.0-1.0","SS1619115431977","trial","","40","500","585.8950000001641","images/stimuli/spore_stims/simple_01_A_b.gif","images/stimuli/spore_stims/simple_14_A_a.gif","self_paced","","6","simple_dissimilar","images/stimuli/spore_stims/simple_14_A_a.gif","","","","",""
"","null","html-keyboard-response","77","227636","0.0-21.0-0.1","SS1619115431977","","","null","","","","","","<p><img src= images/blank.png width =""600"" height = ""600"" style=""position:fixed;top:50%; left:50%; transform: translate(-50%, -50%); border:5px solid black"">","","","","","","","",""
"","62.72499999977299","sequential-stimulus-presentation-old","78","228204","0.0-21.0-1.1","SS1619115431977","trial","","40","500","562.724999999773","images/stimuli/spore_stims/simple_01_A_b.gif","images/stimuli/spore_stims/simple_14_A_a.gif","self_paced","","6","simple_dissimilar","images/stimuli/spore_stims/simple_14_A_a.gif","","","","",""
"","null","html-keyboard-response","79","229213","0.0-21.0-0.2","SS1619115431977","","","null","","","","","","<p><img src= images/blank.png width =""600"" height = ""600"" style=""position:fixed;top:50%; left:50%; transform: translate(-50%, -50%); border:5px solid black"">","","","","","","","",""
"","108.30999999961932","sequential-stimulus-presentation-old","80","229827","0.0-21.0-1.2","SS1619115431977","trial","","40","500","608.3099999996193","images/stimuli/spore_stims/simple_01_A_b.gif","images/stimuli/spore_stims/simple_14_A_a.gif","self_paced","","6","simple_dissimilar","images/stimuli/spore_stims/simple_14_A_a.gif","","","","",""
"","null","html-keyboard-response","81","230859","0.0-21.0-0.3","SS1619115431977","","","null","","","","","","<p><img src= images/blank.png width =""600"" height = ""600"" style=""position:fixed;top:50%; left:50%; transform: translate(-50%, -50%); border:5px solid black"">","","","","","","","",""
"","65.52000000010594","sequential-stimulus-presentation-old","82","231428","0.0-21.0-1.3","SS1619115431977","trial","","40","500","565.5200000001059","images/stimuli/spore_stims/simple_01_A_b.gif","images/stimuli/spore_stims/simple_14_A_a.gif","self_paced","","6","simple_dissimilar","images/stimuli/spore_stims/simple_01_A_b.gif","","","","",""
"","null","html-keyboard-response","83","232432","0.0-21.0-0.4","SS1619115431977","","","null","","","","","","<p><img src= images/blank.png width =""600"" height = ""600"" style=""position:fixed;top:50%; left:50%; transform: translate(-50%, -50%); border:5px solid black"">","","","","","","","",""
"","145.3700000020035","sequential-stimulus-presentation-old","84","233084","0.0-21.0-1.4","SS1619115431977","trial","","40","500","645.3700000020035","images/stimuli/spore_stims/simple_01_A_b.gif","images/stimuli/spore_stims/simple_14_A_a.gif","self_paced","","6","simple_dissimilar","images/stimuli/spore_stims/simple_14_A_a.gif","","","","",""
"","16556.730000000214","survey-multi-choice","85","249645","0.0-22.0","SS1619115431977","math_question","","","","","","","","","","","","{""Q0"":""13""}","[0]","13","",""
"","null","html-keyboard-response","86","250865","0.0-23.0-0.0","SS1619115431977","","","null","","","","","","<p><img src= images/blank.png width =""600"" height = ""600"" style=""position:fixed;top:50%; left:50%; transform: translate(-50%, -50%); border:5px solid black"">","","","","","","","",""
"","1079.2549999969197","sequential-stimulus-presentation-old","87","252051","0.0-23.0-1.0","SS1619115431977","trial","","40","500","1579.2549999969197","images/stimuli/spore_stims/complex_10_A_b.gif","images/stimuli/spore_stims/complex_03_A_a.gif","forced_short","","7","complex_dissimilar","images/stimuli/spore_stims/complex_03_A_a.gif","","","","",""
"","null","html-keyboard-response","88","253248","0.0-23.0-0.1","SS1619115431977","","","null","","","","","","<p><img src= images/blank.png width =""600"" height = ""600"" style=""position:fixed;top:50%; left:50%; transform: translate(-50%, -50%); border:5px solid black"">","","","","","","","",""
"","54.854999998467974","sequential-stimulus-presentation-old","89","253835","0.0-23.0-1.1","SS1619115431977","trial","","40","500","554.854999998468","images/stimuli/spore_stims/complex_10_A_b.gif","images/stimuli/spore_stims/complex_03_A_a.gif","forced_short","","7","complex_dissimilar","images/stimuli/spore_stims/complex_03_A_a.gif","","","","",""
"","null","html-keyboard-response","90","254809","0.0-23.0-0.2","SS1619115431977","","","null","","","","","","<p><img src= images/blank.png width =""600"" height = ""600"" style=""position:fixed;top:50%; left:50%; transform: translate(-50%, -50%); border:5px solid black"">","","","","","","","",""
"","112.08999999874504","sequential-stimulus-presentation-old","91","255427","0.0-23.0-1.2","SS1619115431977","trial","","40","500","612.089999998745","images/stimuli/spore_stims/complex_10_A_b.gif","images/stimuli/spore_stims/complex_03_A_a.gif","forced_short","","7","complex_dissimilar","images/stimuli/spore_stims/complex_10_A_b.gif","","","","",""
"","null","html-keyboard-response","92","256346","0.0-23.0-0.3","SS1619115431977","","","null","","","","","","<p><img src= images/blank.png width =""600"" height = ""600"" style=""position:fixed;top:50%; left:50%; transform: translate(-50%, -50%); border:5px solid black"">","","","","","","","",""
"","157.84999999956926","sequential-stimulus-presentation-old","93","257011","0.0-23.0-1.3","SS1619115431977","trial","","40","500","657.8499999995693","images/stimuli/spore_stims/complex_10_A_b.gif","images/stimuli/spore_stims/complex_03_A_a.gif","forced_short","","7","complex_dissimilar","images/stimuli/spore_stims/complex_10_A_b.gif","","","","",""
"","null","html-keyboard-response","94","258127","0.0-23.0-0.4","SS1619115431977","","","null","","","","","","<p><img src= images/blank.png width =""600"" height = ""600"" style=""position:fixed;top:50%; left:50%; transform: translate(-50%, -50%); border:5px solid black"">","","","","","","","",""
"","193.86000000301283","sequential-stimulus-presentation-old","95","258827","0.0-23.0-1.4","SS1619115431977","trial","","40","500","693.8600000030128","images/stimuli/spore_stims/complex_10_A_b.gif","images/stimuli/spore_stims/complex_03_A_a.gif","forced_short","","7","complex_dissimilar","images/stimuli/spore_stims/complex_03_A_a.gif","","","","",""
"","6947.935000000172","survey-multi-choice","96","265780","0.0-24.0","SS1619115431977","math_question","","","","","","","","","","","","{""Q0"":""17""}","[0]","17","",""
"","null","html-keyboard-response","97","267055","0.0-25.0-0.0","SS1619115431977","","","null","","","","","","<p><img src= images/blank.png width =""600"" height = ""600"" style=""position:fixed;top:50%; left:50%; transform: translate(-50%, -50%); border:5px solid black"">","","","","","","","",""
"","327.4700000002049","sequential-stimulus-presentation-old","98","267490","0.0-25.0-1.0","SS1619115431977","trial","","40","500","827.4700000002049","images/stimuli/spore_stims/simple_15_A_b.gif","images/stimuli/spore_stims/simple_10_A_a.gif","forced_short","","8","simple_dissimilar","images/stimuli/spore_stims/simple_10_A_a.gif","","","","",""
"","null","html-keyboard-response","99","268790","0.0-25.0-0.1","SS1619115431977","","","null","","","","","","<p><img src= images/blank.png width =""600"" height = ""600"" style=""position:fixed;top:50%; left:50%; transform: translate(-50%, -50%); border:5px solid black"">","","","","","","","",""
"","64.1250000007567","sequential-stimulus-presentation-old","100","269362","0.0-25.0-1.1","SS1619115431977","trial","","40","500","564.1250000007567","images/stimuli/spore_stims/simple_15_A_b.gif","images/stimuli/spore_stims/simple_10_A_a.gif","forced_short","","8","simple_dissimilar","images/stimuli/spore_stims/simple_10_A_a.gif","","","","",""
"","null","html-keyboard-response","101","270576","0.0-25.0-0.2","SS1619115431977","","","null","","","","","","<p><img src= images/blank.png width =""600"" height = ""600"" style=""position:fixed;top:50%; left:50%; transform: translate(-50%, -50%); border:5px solid black"">","","","","","","","",""
"","90.08000000176253","sequential-stimulus-presentation-old","102","271170","0.0-25.0-1.2","SS1619115431977","trial","","40","500","590.0800000017625","images/stimuli/spore_stims/simple_15_A_b.gif","images/stimuli/spore_stims/simple_10_A_a.gif","forced_short","","8","simple_dissimilar","images/stimuli/spore_stims/simple_10_A_a.gif","","","","",""
"","null","html-keyboard-response","103","272127","0.0-25.0-0.3","SS1619115431977","","","null","","","","","","<p><img src= images/blank.png width =""600"" height = ""600"" style=""position:fixed;top:50%; left:50%; transform: translate(-50%, -50%); border:5px solid black"">","","","","","","","",""
"","224.89499999943655","sequential-stimulus-presentation-old","104","272858","0.0-25.0-1.3","SS1619115431977","trial","","40","500","724.8949999994365","images/stimuli/spore_stims/simple_15_A_b.gif","images/stimuli/spore_stims/simple_10_A_a.gif","forced_short","","8","simple_dissimilar","images/stimuli/spore_stims/simple_10_A_a.gif","","","","",""
"","null","html-keyboard-response","105","273911","0.0-25.0-0.4","SS1619115431977","","","null","","","","","","<p><img src= images/blank.png width =""600"" height = ""600"" style=""position:fixed;top:50%; left:50%; transform: translate(-50%, -50%); border:5px solid black"">","","","","","","","",""
"","128.92999999894528","sequential-stimulus-presentation-old","106","274546","0.0-25.0-1.4","SS1619115431977","trial","","40","500","628.9299999989453","images/stimuli/spore_stims/simple_15_A_b.gif","images/stimuli/spore_stims/simple_10_A_a.gif","forced_short","","8","simple_dissimilar","images/stimuli/spore_stims/simple_15_A_b.gif","","","","",""
"","2907.6600000007893","survey-multi-choice","107","277461","0.0-26.0","SS1619115431977","math_question","","","","","","","","","","","","{""Q0"":""5""}","[0]","5","",""
"","null","html-keyboard-response","108","278557","0.0-27.0-0.0","SS1619115431977","","","null","","","","","","<p><img src= images/blank.png width =""600"" height = ""600"" style=""position:fixed;top:50%; left:50%; transform: translate(-50%, -50%); border:5px solid black"">","","","","","","","",""
"","73.74999999953434","sequential-stimulus-presentation-old","109","288635","0.0-27.0-1.0","SS1619115431977","trial","","40","500","573.7499999995343","images/stimuli/spore_stims/complex_18_A_a.gif","images/stimuli/spore_stims/complex_06_A_b.gif","forced_long","","9","complex_dissimilar","images/stimuli/spore_stims/complex_06_A_b.gif","","","","",""
"","null","html-keyboard-response","110","289467","0.0-27.0-0.1","SS1619115431977","","","null","","","","","","<p><img src= images/blank.png width =""600"" height = ""600"" style=""position:fixed;top:50%; left:50%; transform: translate(-50%, -50%); border:5px solid black"">","","","","","","","",""
"","51.644999999552965","sequential-stimulus-presentation-old","111","290027","0.0-27.0-1.1","SS1619115431977","trial","","40","500","551.644999999553","images/stimuli/spore_stims/complex_18_A_a.gif","images/stimuli/spore_stims/complex_06_A_b.gif","forced_long","","9","complex_dissimilar","images/stimuli/spore_stims/complex_06_A_b.gif","","","","",""
"","null","html-keyboard-response","112","290954","0.0-27.0-0.2","SS1619115431977","","","null","","","","","","<p><img src= images/blank.png width =""600"" height = ""600"" style=""position:fixed;top:50%; left:50%; transform: translate(-50%, -50%); border:5px solid black"">","","","","","","","",""
"","145.69499999925029","sequential-stimulus-presentation-old","113","291603","0.0-27.0-1.2","SS1619115431977","trial","","40","500","645.6949999992503","images/stimuli/spore_stims/complex_18_A_a.gif","images/stimuli/spore_stims/complex_06_A_b.gif","forced_long","","9","complex_dissimilar","images/stimuli/spore_stims/complex_06_A_b.gif","","","","",""
"","null","html-keyboard-response","114","292564","0.0-27.0-0.3","SS1619115431977","","","null","","","","","","<p><img src= images/blank.png width =""600"" height = ""600"" style=""position:fixed;top:50%; left:50%; transform: translate(-50%, -50%); border:5px solid black"">","","","","","","","",""
"","67.51999999687541","sequential-stimulus-presentation-old","115","293139","0.0-27.0-1.3","SS1619115431977","trial","","40","500","567.5199999968754","images/stimuli/spore_stims/complex_18_A_a.gif","images/stimuli/spore_stims/complex_06_A_b.gif","forced_long","","9","complex_dissimilar","images/stimuli/spore_stims/complex_06_A_b.gif","","","","",""
"","null","html-keyboard-response","116","294083","0.0-27.0-0.4","SS1619115431977","","","null","","","","","","<p><img src= images/blank.png width =""600"" height = ""600"" style=""position:fixed;top:50%; left:50%; transform: translate(-50%, -50%); border:5px solid black"">","","","","","","","",""
"","173.91499999933876","sequential-stimulus-presentation-old","117","294763","0.0-27.0-1.4","SS1619115431977","trial","","40","500","673.9149999993388","images/stimuli/spore_stims/complex_18_A_a.gif","images/stimuli/spore_stims/complex_06_A_b.gif","forced_long","","9","complex_dissimilar","images/stimuli/spore_stims/complex_06_A_b.gif","","","","",""
"","3204.409999998461","survey-multi-choice","118","297973","0.0-28.0","SS1619115431977","math_question","","","","","","","","","","","","{""Q0"":""11""}","[0]","11","",""
"","null","html-keyboard-response","119","299146","0.0-29.0-0.0","SS1619115431977","","","null","","","","","","<p><img src= images/blank.png width =""600"" height = ""600"" style=""position:fixed;top:50%; left:50%; transform: translate(-50%, -50%); border:5px solid black"">","","","","","","","",""
"","102.23499999847263","sequential-stimulus-presentation-old","120","299755","0.0-29.0-1.0","SS1619115431977","trial","","40","500","602.2349999984726","images/stimuli/spore_stims/complex_06_A_a.gif","images/stimuli/spore_stims/complex_20_A_b.gif","self_paced","","10","complex_dissimilar","images/stimuli/spore_stims/complex_20_A_b.gif","","","","",""
"","null","html-keyboard-response","121","300753","0.0-29.0-0.1","SS1619115431977","","","null","","","","","","<p><img src= images/blank.png width =""600"" height = ""600"" style=""position:fixed;top:50%; left:50%; transform: translate(-50%, -50%); border:5px solid black"">","","","","","","","",""
"","17.71500000177184","sequential-stimulus-presentation-old","122","301274","0.0-29.0-1.1","SS1619115431977","trial","","40","500","517.7150000017718","images/stimuli/spore_stims/complex_06_A_a.gif","images/stimuli/spore_stims/complex_20_A_b.gif","self_paced","","10","complex_dissimilar","images/stimuli/spore_stims/complex_06_A_a.gif","","","","",""
"","null","html-keyboard-response","123","302270","0.0-29.0-0.2","SS1619115431977","","","null","","","","","","<p><img src= images/blank.png width =""600"" height = ""600"" style=""position:fixed;top:50%; left:50%; transform: translate(-50%, -50%); border:5px solid black"">","","","","","","","",""
"","189.67499999783468","sequential-stimulus-presentation-old","124","302966","0.0-29.0-1.2","SS1619115431977","trial","","40","500","689.6749999978347","images/stimuli/spore_stims/complex_06_A_a.gif","images/stimuli/spore_stims/complex_20_A_b.gif","self_paced","","10","complex_dissimilar","images/stimuli/spore_stims/complex_06_A_a.gif","","","","",""
"","null","html-keyboard-response","125","304230","0.0-29.0-0.3","SS1619115431977","","","null","","","","","","<p><img src= images/blank.png width =""600"" height = ""600"" style=""position:fixed;top:50%; left:50%; transform: translate(-50%, -50%); border:5px solid black"">","","","","","","","",""
"","173.56000000290805","sequential-stimulus-presentation-old","126","304906","0.0-29.0-1.3","SS1619115431977","trial","","40","500","673.560000002908","images/stimuli/spore_stims/complex_06_A_a.gif","images/stimuli/spore_stims/complex_20_A_b.gif","self_paced","","10","complex_dissimilar","images/stimuli/spore_stims/complex_20_A_b.gif","","","","",""
"","3726.825000001525","survey-multi-choice","127","308636","0.0-30.0","SS1619115431977","math_question","","","","","","","","","","","","{""Q0"":""10""}","[0]","10","",""
"","null","html-keyboard-response","128","309516","0.0-31.0-0.0","SS1619115431977","","","null","","","","","","<p><img src= images/blank.png width =""600"" height = ""600"" style=""position:fixed;top:50%; left:50%; transform: translate(-50%, -50%); border:5px solid black"">","","","","","","","",""
"","617.2350000015576","sequential-stimulus-presentation-old","129","310242","0.0-31.0-1.0","SS1619115431977","trial","","40","500","1117.2350000015576","images/stimuli/spore_stims/complex_15_A_b.gif","images/stimuli/spore_stims/complex_05_A_a.gif","forced_short","","11","complex_dissimilar","images/stimuli/spore_stims/complex_05_A_a.gif","","","","",""
"","null","html-keyboard-response","130","311129","0.0-31.0-0.1","SS1619115431977","","","null","","","","","","<p><img src= images/blank.png width =""600"" height = ""600"" style=""position:fixed;top:50%; left:50%; transform: translate(-50%, -50%); border:5px solid black"">","","","","","","","",""
"","57.0850000003702","sequential-stimulus-presentation-old","131","311690","0.0-31.0-1.1","SS1619115431977","trial","","40","500","557.0850000003702","images/stimuli/spore_stims/complex_15_A_b.gif","images/stimuli/spore_stims/complex_05_A_a.gif","forced_short","","11","complex_dissimilar","images/stimuli/spore_stims/complex_05_A_a.gif","","","","",""
"","null","html-keyboard-response","132","312606","0.0-31.0-0.2","SS1619115431977","","","null","","","","","","<p><img src= images/blank.png width =""600"" height = ""600"" style=""position:fixed;top:50%; left:50%; transform: translate(-50%, -50%); border:5px solid black"">","","","","","","","",""
"","101.55500000109896","sequential-stimulus-presentation-old","133","313211","0.0-31.0-1.2","SS1619115431977","trial","","40","500","601.555000001099","images/stimuli/spore_stims/complex_15_A_b.gif","images/stimuli/spore_stims/complex_05_A_a.gif","forced_short","","11","complex_dissimilar","images/stimuli/spore_stims/complex_05_A_a.gif","","","","",""
"","null","html-keyboard-response","134","314382","0.0-31.0-0.3","SS1619115431977","","","null","","","","","","<p><img src= images/blank.png width =""600"" height = ""600"" style=""position:fixed;top:50%; left:50%; transform: translate(-50%, -50%); border:5px solid black"">","","","","","","","",""
"","1.224999999976717","sequential-stimulus-presentation-old","135","314890","0.0-31.0-1.3","SS1619115431977","trial","","40","500","501.2249999999767","images/stimuli/spore_stims/complex_15_A_b.gif","images/stimuli/spore_stims/complex_05_A_a.gif","forced_short","","11","complex_dissimilar","images/stimuli/spore_stims/complex_05_A_a.gif","","","","",""
"","null","html-keyboard-response","136","315857","0.0-31.0-0.4","SS1619115431977","","","null","","","","","","<p><img src= images/blank.png width =""600"" height = ""600"" style=""position:fixed;top:50%; left:50%; transform: translate(-50%, -50%); border:5px solid black"">","","","","","","","",""
"","189.81000000343192","sequential-stimulus-presentation-old","137","316554","0.0-31.0-1.4","SS1619115431977","trial","","40","500","689.8100000034319","images/stimuli/spore_stims/complex_15_A_b.gif","images/stimuli/spore_stims/complex_05_A_a.gif","forced_short","","11","complex_dissimilar","images/stimuli/spore_stims/complex_05_A_a.gif","","","","",""
"","null","html-keyboard-response","138","317662","0.0-31.0-0.5","SS1619115431977","","","null","","","","","","<p><img src= images/blank.png width =""600"" height = ""600"" style=""position:fixed;top:50%; left:50%; transform: translate(-50%, -50%); border:5px solid black"">","","","","","","","",""
"","24.770000000018626","sequential-stimulus-presentation-old","139","318194","0.0-31.0-1.5","SS1619115431977","trial","","40","500","524.7700000000186","images/stimuli/spore_stims/complex_15_A_b.gif","images/stimuli/spore_stims/complex_05_A_a.gif","forced_short","","11","complex_dissimilar","images/stimuli/spore_stims/complex_05_A_a.gif","","","","",""
"[{""page_index"":0,""viewing_time"":1372.6450000031036}]","1372.9000000021188","instructions","140","319570","0.0-32.0","SS1619115431977","instructions","","","","","","","","","","","","","","","",""
"","4251.170000003185","survey-likert","141","323829","0.0-33.0","SS1619115431977","similarity_question","","","","","","","","","","","","{""Q0"":4}","[0]","","images/stimuli/spore_stims/simple_14_A_b.gif","images/stimuli/spore_stims/simple_05_A_a.gif"
"","1095.01999999705","survey-likert","142","324932","0.0-34.0","SS1619115431977","similarity_question","","","","","","","","","","","","{""Q0"":3}","[0]","","images/stimuli/spore_stims/simple_11_A_b.gif","images/stimuli/spore_stims/simple_08_A_a.gif"
"","3511.319999997737","survey-likert","143","328451","0.0-35.0","SS1619115431977","similarity_question","","","","","","","","","","","","{""Q0"":4}","[0]","","images/stimuli/spore_stims/complex_07_A_a.gif","images/stimuli/spore_stims/complex_09_A_b.gif"
"","2692.8200000001816","survey-likert","144","331148","0.0-36.0","SS1619115431977","similarity_question","","","","","","","","","","","","{""Q0"":5}","[0]","","images/stimuli/spore_stims/complex_03_A_a.gif","images/stimuli/spore_stims/complex_10_A_b.gif"
"","1472.6300000001793","survey-likert","145","332628","0.0-37.0","SS1619115431977","similarity_question","","","","","","","","","","","","{""Q0"":4}","[0]","","images/stimuli/spore_stims/simple_10_A_b.gif","images/stimuli/spore_stims/simple_03_A_a.gif"
"","1751.0650000003516","survey-likert","146","334387","0.0-38.0","SS1619115431977","similarity_question","","","","","","","","","","","","{""Q0"":3}","[0]","","images/stimuli/spore_stims/complex_20_A_b.gif","images/stimuli/spore_stims/complex_06_A_a.gif"
"","1339.944999999716","survey-likert","147","335730","0.0-39.0","SS1619115431977","similarity_question","","","","","","","","","","","","{""Q0"":4}","[0]","","images/stimuli/spore_stims/complex_18_A_a.gif","images/stimuli/spore_stims/complex_06_A_b.gif"
"","1244.3450000028242","survey-likert","148","336981","0.0-40.0","SS1619115431977","similarity_question","","","","","","","","","","","","{""Q0"":5}","[0]","","images/stimuli/spore_stims/complex_15_A_b.gif","images/stimuli/spore_stims/complex_05_A_a.gif"
"","1420.6750000012107","survey-likert","149","338406","0.0-41.0","SS1619115431977","similarity_question","","","","","","","","","","","","{""Q0"":4}","[0]","","images/stimuli/spore_stims/complex_16_A_a.gif","images/stimuli/spore_stims/complex_04_A_b.gif"
"","1616.0949999976438","survey-likert","150","340029","0.0-42.0","SS1619115431977","similarity_question","","","","","","","","","","","","{""Q0"":4}","[0]","","images/stimuli/spore_stims/simple_15_A_b.gif","images/stimuli/spore_stims/simple_10_A_a.gif"
"","1268.1699999993434","survey-likert","151","341301","0.0-43.0","SS1619115431977","similarity_question","","","","","","","","","","","","{""Q0"":3}","[0]","","images/stimuli/spore_stims/simple_14_A_a.gif","images/stimuli/spore_stims/simple_01_A_b.gif"
"","1545.1199999988894","survey-likert","152","342853","0.0-44.0","SS1619115431977","similarity_question","","","","","","","","","","","","{""Q0"":5}","[0]","","images/stimuli/spore_stims/simple_18_A_a.gif","images/stimuli/spore_stims/simple_04_A_b.gif"
"[{""page_index"":0,""viewing_time"":975.9350000022096}]","976.3349999993807","instructions","153","343836","0.0-45.0","SS1619115431977","instructions","","","","","","","","","","","","","","","",""
"","1681.7149999988033","survey-likert","154","345525","0.0-46.0","SS1619115431977","","","","","","","","","images/stimuli/spore_stims/complex_18_A_a.gif","","","","{""Q0"":4}","[0]","","",""
"","2871.6999999996624","survey-likert","155","348405","0.0-47.0","SS1619115431977","","","","","","","","","images/stimuli/spore_stims/simple_05_A_a.gif","","","","{""Q0"":3}","[0]","","",""
"","1328.704999999958","survey-likert","156","349741","0.0-48.0","SS1619115431977","","","","","","","","","images/stimuli/spore_stims/complex_04_A_b.gif","","","","{""Q0"":5}","[0]","","",""
"","1111.6450000008335","survey-likert","157","350861","0.0-49.0","SS1619115431977","","","","","","","","","images/stimuli/spore_stims/simple_11_A_b.gif","","","","{""Q0"":4}","[0]","","",""
"","1719.3000000006869","survey-likert","158","352589","0.0-50.0","SS1619115431977","","","","","","","","","images/stimuli/spore_stims/complex_07_A_a.gif","","","","{""Q0"":5}","[0]","","",""
"","1198.6049999977695","survey-likert","159","353797","0.0-51.0","SS1619115431977","","","","","","","","","images/stimuli/spore_stims/simple_18_A_a.gif","","","","{""Q0"":4}","[0]","","",""
"","1096.929999999702","survey-likert","160","354901","0.0-52.0","SS1619115431977","","","","","","","","","images/stimuli/spore_stims/simple_03_A_a.gif","","","","{""Q0"":5}","[0]","","",""
"","1183.1399999973946","survey-likert","161","356093","0.0-53.0","SS1619115431977","","","","","","","","","images/stimuli/spore_stims/simple_15_A_b.gif","","","","{""Q0"":4}","[0]","","",""
"","1150.8899999971618","survey-likert","162","357252","0.0-54.0","SS1619115431977","","","","","","","","","images/stimuli/spore_stims/complex_10_A_b.gif","","","","{""Q0"":4}","[0]","","",""
"","1716.0899999981048","survey-likert","163","358972","0.0-55.0","SS1619115431977","","","","","","","","","images/stimuli/spore_stims/complex_05_A_a.gif","","","","{""Q0"":3}","[0]","","",""
"","1324.5949999982258","survey-likert","164","360301","0.0-56.0","SS1619115431977","","","","","","","","","images/stimuli/spore_stims/simple_01_A_b.gif","","","","{""Q0"":5}","[0]","","",""
"","1247.7400000025518","survey-likert","165","361557","0.0-57.0","SS1619115431977","","","","","","","","","images/stimuli/spore_stims/complex_20_A_b.gif","","","","{""Q0"":4}","[0]","","",""
"[{""page_index"":0,""viewing_time"":1192.9449999988428}]","1193.359999997425","instructions","166","362756","0.0-58.0","SS1619115431977","instructions","","","","","","","","","","","","","","","",""
"","3182.120000001276","demog-age","167","365948","0.0-59.0","SS1619115431977","","","","","","","","","","","","","{""age"":""29""}","","","",""
"","2027.9349999982514","demog-ethnic-US","168","367989","0.0-60.0","SS1619115431977","","","","","","","","","","","","","{""ethnicity"":[""Asian""]}","[0]","","",""
"","6109.864999998477","demog-gender-and-education","169","374109","0.0-61.0","SS1619115431977","","","","","","","","","","","","","{""gender"":""Male"",""education"":""Bachelor's Degree""}","[0,1]","","",""
"","4294.260000002396","survey-text","170","378412","0.0-62.0","SS1619115431977","feedback","","","","","","","","","","","","{""Q0"":""no""}","","","",""
"[{""page_index"":0,""viewing_time"":897.3150000019232}]","897.7550000017509","instructions","171","379315","0.0-63.0","SS1619115431977","instructions","","","","","","","","","","","","","","","",""
