"view_history","rt","trial_type","trial_index","time_elapsed","internal_node_id","subject","stimulus_type","trial_stimulus","key_press","minimum_viewing_duration","trial_looking_time","block_deviant","block_background","exposure_type","stimulus","block_number","block_type","stimulus_displayed","responses","question_order","math_correct_answer","stimulus_left","stimulus_right"
"[{""page_index"":0,""viewing_time"":1822.6900000008754}]","1823.1300000334159","instructions","0","1826","0.0-0.0","SS1619114562036","","","","","","","","","","","","","","","","",""
"[{""page_index"":0,""viewing_time"":9268.775000004098},{""page_index"":1,""viewing_time"":3387.9200000083074}]","12656.970000010915","instructions","1","16485","0.0-1.0","SS1619114562036","instructions","","","","","","","","","","","","","","","",""
"","3567.434999975376","sequential-stimulus-presentation-old","2","20555","0.0-2.0","SS1619114562036","","","40","500","4067.434999975376","null","null","self_paced","","","","","","","","",""
"","1236.945000011474","sequential-stimulus-presentation-old","3","22308","0.0-3.0","SS1619114562036","","","40","500","1736.945000011474","null","null","self_paced","","","","","","","","",""
"[{""page_index"":0,""viewing_time"":16647.494999982882}]","16647.85499998834","instructions","4","38957","0.0-4.0","SS1619114562036","instructions","","","","","","","","","","","","","","","",""
"","2293.690000020433","sequential-stimulus-presentation-old","5","51254","0.0-5.0","SS1619114562036","","","40","500","2793.690000020433","null","null","forced_long","","","","","","","","",""
"","1485.0149999838322","sequential-stimulus-presentation-old","6","52843","0.0-6.0","SS1619114562036","","","40","500","1985.0149999838322","null","null","forced_long","","","","","","","","",""
"[{""page_index"":0,""viewing_time"":3826.390000001993}]","3826.694999996107","instructions","7","56671","0.0-7.0","SS1619114562036","instructions","","","","","","","","","","","","","","","",""
"[{""page_index"":0,""viewing_time"":5769.224999996368},{""page_index"":1,""viewing_time"":4119.709999999031},{""page_index"":2,""viewing_time"":2636.0250000143424},{""page_index"":3,""viewing_time"":1459.145000029821},{""page_index"":4,""viewing_time"":1050.3150000004098}]","15034.730000013951","instructions","8","71707","0.0-8.0","SS1619114562036","instructions","","","","","","","","","","","","","","","",""
"","null","html-keyboard-response","9","72718","0.0-9.0-0.0","SS1619114562036","","","null","","","","","","<p><img src= images/blank.png width =""600"" height = ""600"" style=""position:fixed;top:50%; left:50%; transform: translate(-50%, -50%); border:5px solid black"">","","","","","","","",""
"","453.10499996412545","sequential-stimulus-presentation-old","10","73276","0.0-9.0-1.0","SS1619114562036","trial","","40","500","953.1049999641255","images/stimuli/spore_stims/simple_14_A_b.gif","images/stimuli/spore_stims/simple_06_A_a.gif","forced_short","","0","simple_dissimilar","images/stimuli/spore_stims/simple_06_A_a.gif","","","","",""
"","null","html-keyboard-response","11","74336","0.0-9.0-0.1","SS1619114562036","","","null","","","","","","<p><img src= images/blank.png width =""600"" height = ""600"" style=""position:fixed;top:50%; left:50%; transform: translate(-50%, -50%); border:5px solid black"">","","","","","","","",""
"","2197.0150000415742","sequential-stimulus-presentation-old","12","77037","0.0-9.0-1.1","SS1619114562036","trial","","40","500","2697.0150000415742","images/stimuli/spore_stims/simple_14_A_b.gif","images/stimuli/spore_stims/simple_06_A_a.gif","forced_short","","0","simple_dissimilar","images/stimuli/spore_stims/simple_06_A_a.gif","","","","",""
"","null","html-keyboard-response","13","77932","0.0-9.0-0.2","SS1619114562036","","","null","","","","","","<p><img src= images/blank.png width =""600"" height = ""600"" style=""position:fixed;top:50%; left:50%; transform: translate(-50%, -50%); border:5px solid black"">","","","","","","","",""
"","416.0649999976158","sequential-stimulus-presentation-old","14","78851","0.0-9.0-1.2","SS1619114562036","trial","","40","500","916.0649999976158","images/stimuli/spore_stims/simple_14_A_b.gif","images/stimuli/spore_stims/simple_06_A_a.gif","forced_short","","0","simple_dissimilar","images/stimuli/spore_stims/simple_06_A_a.gif","","","","",""
"","null","html-keyboard-response","15","80001","0.0-9.0-0.3","SS1619114562036","","","null","","","","","","<p><img src= images/blank.png width =""600"" height = ""600"" style=""position:fixed;top:50%; left:50%; transform: translate(-50%, -50%); border:5px solid black"">","","","","","","","",""
"","170.37500004516914","sequential-stimulus-presentation-old","16","80675","0.0-9.0-1.3","SS1619114562036","trial","","40","500","670.3750000451691","images/stimuli/spore_stims/simple_14_A_b.gif","images/stimuli/spore_stims/simple_06_A_a.gif","forced_short","","0","simple_dissimilar","images/stimuli/spore_stims/simple_06_A_a.gif","","","","",""
"","null","html-keyboard-response","17","81615","0.0-9.0-0.4","SS1619114562036","","","null","","","","","","<p><img src= images/blank.png width =""600"" height = ""600"" style=""position:fixed;top:50%; left:50%; transform: translate(-50%, -50%); border:5px solid black"">","","","","","","","",""
"","81.74500003224239","sequential-stimulus-presentation-old","18","82200","0.0-9.0-1.4","SS1619114562036","trial","","40","500","581.7450000322424","images/stimuli/spore_stims/simple_14_A_b.gif","images/stimuli/spore_stims/simple_06_A_a.gif","forced_short","","0","simple_dissimilar","images/stimuli/spore_stims/simple_14_A_b.gif","","","","",""
"","null","html-keyboard-response","19","83215","0.0-9.0-0.5","SS1619114562036","","","null","","","","","","<p><img src= images/blank.png width =""600"" height = ""600"" style=""position:fixed;top:50%; left:50%; transform: translate(-50%, -50%); border:5px solid black"">","","","","","","","",""
"","792.6300000399351","sequential-stimulus-presentation-old","20","84512","0.0-9.0-1.5","SS1619114562036","trial","","40","500","1292.630000039935","images/stimuli/spore_stims/simple_14_A_b.gif","images/stimuli/spore_stims/simple_06_A_a.gif","forced_short","","0","simple_dissimilar","images/stimuli/spore_stims/simple_06_A_a.gif","","","","",""
"","4038.844999973662","survey-multi-choice","21","88554","0.0-10.0","SS1619114562036","math_question","","","","","","","","","","","","{""Q0"":""10""}","[0]","10","",""
"","null","html-keyboard-response","22","89855","0.0-11.0-0.0","SS1619114562036","","","null","","","","","","<p><img src= images/blank.png width =""600"" height = ""600"" style=""position:fixed;top:50%; left:50%; transform: translate(-50%, -50%); border:5px solid black"">","","","","","","","",""
"","228.34999999031425","sequential-stimulus-presentation-old","23","90588","0.0-11.0-1.0","SS1619114562036","trial","","40","500","728.3499999903142","images/stimuli/spore_stims/complex_04_A_b.gif","images/stimuli/spore_stims/complex_19_A_a.gif","self_paced","","1","complex_dissimilar","images/stimuli/spore_stims/complex_19_A_a.gif","","","","",""
"","null","html-keyboard-response","24","91750","0.0-11.0-0.1","SS1619114562036","","","null","","","","","","<p><img src= images/blank.png width =""600"" height = ""600"" style=""position:fixed;top:50%; left:50%; transform: translate(-50%, -50%); border:5px solid black"">","","","","","","","",""
"","244.22500003129244","sequential-stimulus-presentation-old","25","92507","0.0-11.0-1.1","SS1619114562036","trial","","40","500","744.2250000312924","images/stimuli/spore_stims/complex_04_A_b.gif","images/stimuli/spore_stims/complex_19_A_a.gif","self_paced","","1","complex_dissimilar","images/stimuli/spore_stims/complex_19_A_a.gif","","","","",""
"","null","html-keyboard-response","26","93596","0.0-11.0-0.2","SS1619114562036","","","null","","","","","","<p><img src= images/blank.png width =""600"" height = ""600"" style=""position:fixed;top:50%; left:50%; transform: translate(-50%, -50%); border:5px solid black"">","","","","","","","",""
"","301.52500001713634","sequential-stimulus-presentation-old","27","94400","0.0-11.0-1.2","SS1619114562036","trial","","40","500","801.5250000171363","images/stimuli/spore_stims/complex_04_A_b.gif","images/stimuli/spore_stims/complex_19_A_a.gif","self_paced","","1","complex_dissimilar","images/stimuli/spore_stims/complex_04_A_b.gif","","","","",""
"","null","html-keyboard-response","28","95586","0.0-11.0-0.3","SS1619114562036","","","null","","","","","","<p><img src= images/blank.png width =""600"" height = ""600"" style=""position:fixed;top:50%; left:50%; transform: translate(-50%, -50%); border:5px solid black"">","","","","","","","",""
"","169.44000002695248","sequential-stimulus-presentation-old","29","96258","0.0-11.0-1.3","SS1619114562036","trial","","40","500","669.4400000269525","images/stimuli/spore_stims/complex_04_A_b.gif","images/stimuli/spore_stims/complex_19_A_a.gif","self_paced","","1","complex_dissimilar","images/stimuli/spore_stims/complex_19_A_a.gif","","","","",""
"","3387.73499999661","survey-multi-choice","30","99647","0.0-12.0","SS1619114562036","math_question","","","","","","","","","","","","{""Q0"":""9""}","[0]","9","",""
"","null","html-keyboard-response","31","100840","0.0-13.0-0.0","SS1619114562036","","","null","","","","","","<p><img src= images/blank.png width =""600"" height = ""600"" style=""position:fixed;top:50%; left:50%; transform: translate(-50%, -50%); border:5px solid black"">","","","","","","","",""
"","538.2499999832362","sequential-stimulus-presentation-old","32","111382","0.0-13.0-1.0","SS1619114562036","trial","","40","500","1038.2499999832362","images/stimuli/spore_stims/complex_12_A_b.gif","images/stimuli/spore_stims/complex_15_A_a.gif","forced_long","","2","complex_dissimilar","images/stimuli/spore_stims/complex_15_A_a.gif","","","","",""
"","null","html-keyboard-response","33","112210","0.0-13.0-0.1","SS1619114562036","","","null","","","","","","<p><img src= images/blank.png width =""600"" height = ""600"" style=""position:fixed;top:50%; left:50%; transform: translate(-50%, -50%); border:5px solid black"">","","","","","","","",""
"","601.1750000179745","sequential-stimulus-presentation-old","34","113314","0.0-13.0-1.1","SS1619114562036","trial","","40","500","1101.1750000179745","images/stimuli/spore_stims/complex_12_A_b.gif","images/stimuli/spore_stims/complex_15_A_a.gif","forced_long","","2","complex_dissimilar","images/stimuli/spore_stims/complex_15_A_a.gif","","","","",""
"","null","html-keyboard-response","35","114137","0.0-13.0-0.2","SS1619114562036","","","null","","","","","","<p><img src= images/blank.png width =""600"" height = ""600"" style=""position:fixed;top:50%; left:50%; transform: translate(-50%, -50%); border:5px solid black"">","","","","","","","",""
"","385.0799999781884","sequential-stimulus-presentation-old","36","115026","0.0-13.0-1.2","SS1619114562036","trial","","40","500","885.0799999781884","images/stimuli/spore_stims/complex_12_A_b.gif","images/stimuli/spore_stims/complex_15_A_a.gif","forced_long","","2","complex_dissimilar","images/stimuli/spore_stims/complex_12_A_b.gif","","","","",""
"","null","html-keyboard-response","37","116063","0.0-13.0-0.3","SS1619114562036","","","null","","","","","","<p><img src= images/blank.png width =""600"" height = ""600"" style=""position:fixed;top:50%; left:50%; transform: translate(-50%, -50%); border:5px solid black"">","","","","","","","",""
"","177.70500003825873","sequential-stimulus-presentation-old","38","116743","0.0-13.0-1.3","SS1619114562036","trial","","40","500","677.7050000382587","images/stimuli/spore_stims/complex_12_A_b.gif","images/stimuli/spore_stims/complex_15_A_a.gif","forced_long","","2","complex_dissimilar","images/stimuli/spore_stims/complex_15_A_a.gif","","","","",""
"","null","html-keyboard-response","39","117773","0.0-13.0-0.4","SS1619114562036","","","null","","","","","","<p><img src= images/blank.png width =""600"" height = ""600"" style=""position:fixed;top:50%; left:50%; transform: translate(-50%, -50%); border:5px solid black"">","","","","","","","",""
"","482.29499999433756","sequential-stimulus-presentation-old","40","118768","0.0-13.0-1.4","SS1619114562036","trial","","40","500","982.2949999943376","images/stimuli/spore_stims/complex_12_A_b.gif","images/stimuli/spore_stims/complex_15_A_a.gif","forced_long","","2","complex_dissimilar","images/stimuli/spore_stims/complex_15_A_a.gif","","","","",""
"","null","html-keyboard-response","41","119966","0.0-13.0-0.5","SS1619114562036","","","null","","","","","","<p><img src= images/blank.png width =""600"" height = ""600"" style=""position:fixed;top:50%; left:50%; transform: translate(-50%, -50%); border:5px solid black"">","","","","","","","",""
"","223.71500002918765","sequential-stimulus-presentation-old","42","120692","0.0-13.0-1.5","SS1619114562036","trial","","40","500","723.7150000291876","images/stimuli/spore_stims/complex_12_A_b.gif","images/stimuli/spore_stims/complex_15_A_a.gif","forced_long","","2","complex_dissimilar","images/stimuli/spore_stims/complex_15_A_a.gif","","","","",""
"","3550.595000036992","survey-multi-choice","43","124245","0.0-14.0","SS1619114562036","math_question","","","","","","","","","","","","{""Q0"":""7""}","[0]","7","",""
"","null","html-keyboard-response","44","125272","0.0-15.0-0.0","SS1619114562036","","","null","","","","","","<p><img src= images/blank.png width =""600"" height = ""600"" style=""position:fixed;top:50%; left:50%; transform: translate(-50%, -50%); border:5px solid black"">","","","","","","","",""
"","296.0099999909289","sequential-stimulus-presentation-old","45","135572","0.0-15.0-1.0","SS1619114562036","trial","","40","500","796.0099999909289","images/stimuli/spore_stims/simple_17_A_b.gif","images/stimuli/spore_stims/simple_07_A_a.gif","forced_long","","3","simple_dissimilar","images/stimuli/spore_stims/simple_07_A_a.gif","","","","",""
"","null","html-keyboard-response","46","136428","0.0-15.0-0.1","SS1619114562036","","","null","","","","","","<p><img src= images/blank.png width =""600"" height = ""600"" style=""position:fixed;top:50%; left:50%; transform: translate(-50%, -50%); border:5px solid black"">","","","","","","","",""
"","3208.760000008624","sequential-stimulus-presentation-old","47","140152","0.0-15.0-1.1","SS1619114562036","trial","","40","500","3708.760000008624","images/stimuli/spore_stims/simple_17_A_b.gif","images/stimuli/spore_stims/simple_07_A_a.gif","forced_long","","3","simple_dissimilar","images/stimuli/spore_stims/simple_17_A_b.gif","","","","",""
"","null","html-keyboard-response","48","141178","0.0-15.0-0.2","SS1619114562036","","","null","","","","","","<p><img src= images/blank.png width =""600"" height = ""600"" style=""position:fixed;top:50%; left:50%; transform: translate(-50%, -50%); border:5px solid black"">","","","","","","","",""
"","453.8549999706447","sequential-stimulus-presentation-old","49","142135","0.0-15.0-1.2","SS1619114562036","trial","","40","500","953.8549999706447","images/stimuli/spore_stims/simple_17_A_b.gif","images/stimuli/spore_stims/simple_07_A_a.gif","forced_long","","3","simple_dissimilar","images/stimuli/spore_stims/simple_07_A_a.gif","","","","",""
"","null","html-keyboard-response","50","143078","0.0-15.0-0.3","SS1619114562036","","","null","","","","","","<p><img src= images/blank.png width =""600"" height = ""600"" style=""position:fixed;top:50%; left:50%; transform: translate(-50%, -50%); border:5px solid black"">","","","","","","","",""
"","523.3700000098906","sequential-stimulus-presentation-old","51","144103","0.0-15.0-1.3","SS1619114562036","trial","","40","500","1023.3700000098906","images/stimuli/spore_stims/simple_17_A_b.gif","images/stimuli/spore_stims/simple_07_A_a.gif","forced_long","","3","simple_dissimilar","images/stimuli/spore_stims/simple_17_A_b.gif","","","","",""
"","3104.3550000176765","survey-multi-choice","52","147210","0.0-16.0","SS1619114562036","math_question","","","","","","","","","","","","{""Q0"":""10""}","[0]","10","",""
"","null","html-keyboard-response","53","148274","0.0-17.0-0.0","SS1619114562036","","","null","","","","","","<p><img src= images/blank.png width =""600"" height = ""600"" style=""position:fixed;top:50%; left:50%; transform: translate(-50%, -50%); border:5px solid black"">","","","","","","","",""
"","636.7350000073202","sequential-stimulus-presentation-old","54","149015","0.0-17.0-1.0","SS1619114562036","trial","","40","500","1136.7350000073202","images/stimuli/spore_stims/simple_15_A_a.gif","images/stimuli/spore_stims/simple_01_A_b.gif","forced_short","","4","simple_dissimilar","images/stimuli/spore_stims/simple_01_A_b.gif","","","","",""
"","null","html-keyboard-response","55","149909","0.0-17.0-0.1","SS1619114562036","","","null","","","","","","<p><img src= images/blank.png width =""600"" height = ""600"" style=""position:fixed;top:50%; left:50%; transform: translate(-50%, -50%); border:5px solid black"">","","","","","","","",""
"","1344.104999967385","sequential-stimulus-presentation-old","56","151770","0.0-17.0-1.1","SS1619114562036","trial","","40","500","1844.104999967385","images/stimuli/spore_stims/simple_15_A_a.gif","images/stimuli/spore_stims/simple_01_A_b.gif","forced_short","","4","simple_dissimilar","images/stimuli/spore_stims/simple_01_A_b.gif","","","","",""
"","null","html-keyboard-response","57","152871","0.0-17.0-0.2","SS1619114562036","","","null","","","","","","<p><img src= images/blank.png width =""600"" height = ""600"" style=""position:fixed;top:50%; left:50%; transform: translate(-50%, -50%); border:5px solid black"">","","","","","","","",""
"","6.0400000074878335","sequential-stimulus-presentation-old","58","153380","0.0-17.0-1.2","SS1619114562036","trial","","40","500","506.04000000748783","images/stimuli/spore_stims/simple_15_A_a.gif","images/stimuli/spore_stims/simple_01_A_b.gif","forced_short","","4","simple_dissimilar","images/stimuli/spore_stims/simple_01_A_b.gif","","","","",""
"","null","html-keyboard-response","59","154659","0.0-17.0-0.3","SS1619114562036","","","null","","","","","","<p><img src= images/blank.png width =""600"" height = ""600"" style=""position:fixed;top:50%; left:50%; transform: translate(-50%, -50%); border:5px solid black"">","","","","","","","",""
"","38.46000001067296","sequential-stimulus-presentation-old","60","155202","0.0-17.0-1.3","SS1619114562036","trial","","40","500","538.460000010673","images/stimuli/spore_stims/simple_15_A_a.gif","images/stimuli/spore_stims/simple_01_A_b.gif","forced_short","","4","simple_dissimilar","images/stimuli/spore_stims/simple_01_A_b.gif","","","","",""
"","null","html-keyboard-response","61","156304","0.0-17.0-0.4","SS1619114562036","","","null","","","","","","<p><img src= images/blank.png width =""600"" height = ""600"" style=""position:fixed;top:50%; left:50%; transform: translate(-50%, -50%); border:5px solid black"">","","","","","","","",""
"","1632.8400000347756","sequential-stimulus-presentation-old","62","158449","0.0-17.0-1.4","SS1619114562036","trial","","40","500","2132.8400000347756","images/stimuli/spore_stims/simple_15_A_a.gif","images/stimuli/spore_stims/simple_01_A_b.gif","forced_short","","4","simple_dissimilar","images/stimuli/spore_stims/simple_01_A_b.gif","","","","",""
"","null","html-keyboard-response","63","159565","0.0-17.0-0.5","SS1619114562036","","","null","","","","","","<p><img src= images/blank.png width =""600"" height = ""600"" style=""position:fixed;top:50%; left:50%; transform: translate(-50%, -50%); border:5px solid black"">","","","","","","","",""
"","5.460000014863908","sequential-stimulus-presentation-old","64","160073","0.0-17.0-1.5","SS1619114562036","trial","","40","500","505.4600000148639","images/stimuli/spore_stims/simple_15_A_a.gif","images/stimuli/spore_stims/simple_01_A_b.gif","forced_short","","4","simple_dissimilar","images/stimuli/spore_stims/simple_01_A_b.gif","","","","",""
"","2690.119999984745","survey-multi-choice","65","162766","0.0-18.0","SS1619114562036","math_question","","","","","","","","","","","","{""Q0"":""6""}","[0]","6","",""
"","null","html-keyboard-response","66","163764","0.0-19.0-0.0","SS1619114562036","","","null","","","","","","<p><img src= images/blank.png width =""600"" height = ""600"" style=""position:fixed;top:50%; left:50%; transform: translate(-50%, -50%); border:5px solid black"">","","","","","","","",""
"","363.855000003241","sequential-stimulus-presentation-old","67","164230","0.0-19.0-1.0","SS1619114562036","trial","","40","500","863.855000003241","images/stimuli/spore_stims/complex_16_A_a.gif","images/stimuli/spore_stims/complex_09_A_b.gif","forced_short","","5","complex_dissimilar","images/stimuli/spore_stims/complex_09_A_b.gif","","","","",""
"","null","html-keyboard-response","68","165397","0.0-19.0-0.1","SS1619114562036","","","null","","","","","","<p><img src= images/blank.png width =""600"" height = ""600"" style=""position:fixed;top:50%; left:50%; transform: translate(-50%, -50%); border:5px solid black"">","","","","","","","",""
"","3803.7699999986216","sequential-stimulus-presentation-old","69","169705","0.0-19.0-1.1","SS1619114562036","trial","","40","500","4303.769999998622","images/stimuli/spore_stims/complex_16_A_a.gif","images/stimuli/spore_stims/complex_09_A_b.gif","forced_short","","5","complex_dissimilar","images/stimuli/spore_stims/complex_09_A_b.gif","","","","",""
"","null","html-keyboard-response","70","170787","0.0-19.0-0.2","SS1619114562036","","","null","","","","","","<p><img src= images/blank.png width =""600"" height = ""600"" style=""position:fixed;top:50%; left:50%; transform: translate(-50%, -50%); border:5px solid black"">","","","","","","","",""
"","1049.0900000440888","sequential-stimulus-presentation-old","71","172347","0.0-19.0-1.2","SS1619114562036","trial","","40","500","1549.0900000440888","images/stimuli/spore_stims/complex_16_A_a.gif","images/stimuli/spore_stims/complex_09_A_b.gif","forced_short","","5","complex_dissimilar","images/stimuli/spore_stims/complex_09_A_b.gif","","","","",""
"","null","html-keyboard-response","72","173209","0.0-19.0-0.3","SS1619114562036","","","null","","","","","","<p><img src= images/blank.png width =""600"" height = ""600"" style=""position:fixed;top:50%; left:50%; transform: translate(-50%, -50%); border:5px solid black"">","","","","","","","",""
"","179.55000000074506","sequential-stimulus-presentation-old","73","173893","0.0-19.0-1.3","SS1619114562036","trial","","40","500","679.5500000007451","images/stimuli/spore_stims/complex_16_A_a.gif","images/stimuli/spore_stims/complex_09_A_b.gif","forced_short","","5","complex_dissimilar","images/stimuli/spore_stims/complex_09_A_b.gif","","","","",""
"","null","html-keyboard-response","74","174934","0.0-19.0-0.4","SS1619114562036","","","null","","","","","","<p><img src= images/blank.png width =""600"" height = ""600"" style=""position:fixed;top:50%; left:50%; transform: translate(-50%, -50%); border:5px solid black"">","","","","","","","",""
"","1772.4500000476837","sequential-stimulus-presentation-old","75","177209","0.0-19.0-1.4","SS1619114562036","trial","","40","500","2272.4500000476837","images/stimuli/spore_stims/complex_16_A_a.gif","images/stimuli/spore_stims/complex_09_A_b.gif","forced_short","","5","complex_dissimilar","images/stimuli/spore_stims/complex_09_A_b.gif","","","","",""
"","null","html-keyboard-response","76","178388","0.0-19.0-0.5","SS1619114562036","","","null","","","","","","<p><img src= images/blank.png width =""600"" height = ""600"" style=""position:fixed;top:50%; left:50%; transform: translate(-50%, -50%); border:5px solid black"">","","","","","","","",""
"","149.6599999954924","sequential-stimulus-presentation-old","77","179041","0.0-19.0-1.5","SS1619114562036","trial","","40","500","649.6599999954924","images/stimuli/spore_stims/complex_16_A_a.gif","images/stimuli/spore_stims/complex_09_A_b.gif","forced_short","","5","complex_dissimilar","images/stimuli/spore_stims/complex_09_A_b.gif","","","","",""
"","2801.470000005793","survey-multi-choice","78","181845","0.0-20.0","SS1619114562036","math_question","","","","","","","","","","","","{""Q0"":""9""}","[0]","9","",""
"","null","html-keyboard-response","79","183026","0.0-21.0-0.0","SS1619114562036","","","null","","","","","","<p><img src= images/blank.png width =""600"" height = ""600"" style=""position:fixed;top:50%; left:50%; transform: translate(-50%, -50%); border:5px solid black"">","","","","","","","",""
"","444.17000003159046","sequential-stimulus-presentation-old","80","183574","0.0-21.0-1.0","SS1619114562036","trial","","40","500","944.1700000315905","images/stimuli/spore_stims/complex_19_A_b.gif","images/stimuli/spore_stims/complex_03_A_a.gif","forced_short","","6","complex_dissimilar","images/stimuli/spore_stims/complex_03_A_a.gif","","","","",""
"","null","html-keyboard-response","81","184706","0.0-21.0-0.1","SS1619114562036","","","null","","","","","","<p><img src= images/blank.png width =""600"" height = ""600"" style=""position:fixed;top:50%; left:50%; transform: translate(-50%, -50%); border:5px solid black"">","","","","","","","",""
"","1227.7049999684095","sequential-stimulus-presentation-old","82","186437","0.0-21.0-1.1","SS1619114562036","trial","","40","500","1727.7049999684095","images/stimuli/spore_stims/complex_19_A_b.gif","images/stimuli/spore_stims/complex_03_A_a.gif","forced_short","","6","complex_dissimilar","images/stimuli/spore_stims/complex_03_A_a.gif","","","","",""
"","null","html-keyboard-response","83","187596","0.0-21.0-0.2","SS1619114562036","","","null","","","","","","<p><img src= images/blank.png width =""600"" height = ""600"" style=""position:fixed;top:50%; left:50%; transform: translate(-50%, -50%); border:5px solid black"">","","","","","","","",""
"","239.17499999515712","sequential-stimulus-presentation-old","84","188338","0.0-21.0-1.2","SS1619114562036","trial","","40","500","739.1749999951571","images/stimuli/spore_stims/complex_19_A_b.gif","images/stimuli/spore_stims/complex_03_A_a.gif","forced_short","","6","complex_dissimilar","images/stimuli/spore_stims/complex_19_A_b.gif","","","","",""
"","null","html-keyboard-response","85","189472","0.0-21.0-0.3","SS1619114562036","","","null","","","","","","<p><img src= images/blank.png width =""600"" height = ""600"" style=""position:fixed;top:50%; left:50%; transform: translate(-50%, -50%); border:5px solid black"">","","","","","","","",""
"","848.2400000211783","sequential-stimulus-presentation-old","86","190827","0.0-21.0-1.3","SS1619114562036","trial","","40","500","1348.2400000211783","images/stimuli/spore_stims/complex_19_A_b.gif","images/stimuli/spore_stims/complex_03_A_a.gif","forced_short","","6","complex_dissimilar","images/stimuli/spore_stims/complex_03_A_a.gif","","","","",""
"","null","html-keyboard-response","87","191729","0.0-21.0-0.4","SS1619114562036","","","null","","","","","","<p><img src= images/blank.png width =""600"" height = ""600"" style=""position:fixed;top:50%; left:50%; transform: translate(-50%, -50%); border:5px solid black"">","","","","","","","",""
"","281.8599999882281","sequential-stimulus-presentation-old","88","192515","0.0-21.0-1.4","SS1619114562036","trial","","40","500","781.8599999882281","images/stimuli/spore_stims/complex_19_A_b.gif","images/stimuli/spore_stims/complex_03_A_a.gif","forced_short","","6","complex_dissimilar","images/stimuli/spore_stims/complex_03_A_a.gif","","","","",""
"","2753.5700000007637","survey-multi-choice","89","195272","0.0-22.0","SS1619114562036","math_question","","","","","","","","","","","","{""Q0"":""9""}","[0]","9","",""
"","null","html-keyboard-response","90","196179","0.0-23.0-0.0","SS1619114562036","","","null","","","","","","<p><img src= images/blank.png width =""600"" height = ""600"" style=""position:fixed;top:50%; left:50%; transform: translate(-50%, -50%); border:5px solid black"">","","","","","","","",""
"","1319.1099999821745","sequential-stimulus-presentation-old","91","198002","0.0-23.0-1.0","SS1619114562036","trial","","40","500","1819.1099999821745","images/stimuli/spore_stims/simple_17_A_a.gif","images/stimuli/spore_stims/simple_11_A_b.gif","self_paced","","7","simple_dissimilar","images/stimuli/spore_stims/simple_11_A_b.gif","","","","",""
"","null","html-keyboard-response","92","199174","0.0-23.0-0.1","SS1619114562036","","","null","","","","","","<p><img src= images/blank.png width =""600"" height = ""600"" style=""position:fixed;top:50%; left:50%; transform: translate(-50%, -50%); border:5px solid black"">","","","","","","","",""
"","285.68500000983477","sequential-stimulus-presentation-old","93","199964","0.0-23.0-1.1","SS1619114562036","trial","","40","500","785.6850000098348","images/stimuli/spore_stims/simple_17_A_a.gif","images/stimuli/spore_stims/simple_11_A_b.gif","self_paced","","7","simple_dissimilar","images/stimuli/spore_stims/simple_17_A_a.gif","","","","",""
"","null","html-keyboard-response","94","201182","0.0-23.0-0.2","SS1619114562036","","","null","","","","","","<p><img src= images/blank.png width =""600"" height = ""600"" style=""position:fixed;top:50%; left:50%; transform: translate(-50%, -50%); border:5px solid black"">","","","","","","","",""
"","1075.6399999954738","sequential-stimulus-presentation-old","95","202761","0.0-23.0-1.2","SS1619114562036","trial","","40","500","1575.6399999954738","images/stimuli/spore_stims/simple_17_A_a.gif","images/stimuli/spore_stims/simple_11_A_b.gif","self_paced","","7","simple_dissimilar","images/stimuli/spore_stims/simple_11_A_b.gif","","","","",""
"","null","html-keyboard-response","96","203962","0.0-23.0-0.3","SS1619114562036","","","null","","","","","","<p><img src= images/blank.png width =""600"" height = ""600"" style=""position:fixed;top:50%; left:50%; transform: translate(-50%, -50%); border:5px solid black"">","","","","","","","",""
"","216.83500002836809","sequential-stimulus-presentation-old","97","204682","0.0-23.0-1.3","SS1619114562036","trial","","40","500","716.8350000283681","images/stimuli/spore_stims/simple_17_A_a.gif","images/stimuli/spore_stims/simple_11_A_b.gif","self_paced","","7","simple_dissimilar","images/stimuli/spore_stims/simple_11_A_b.gif","","","","",""
"","2504.1300000157207","survey-multi-choice","98","207190","0.0-24.0","SS1619114562036","math_question","","","","","","","","","","","","{""Q0"":""5""}","[0]","5","",""
"","null","html-keyboard-response","99","208411","0.0-25.0-0.0","SS1619114562036","","","null","","","","","","<p><img src= images/blank.png width =""600"" height = ""600"" style=""position:fixed;top:50%; left:50%; transform: translate(-50%, -50%); border:5px solid black"">","","","","","","","",""
"","1490.0600000401028","sequential-stimulus-presentation-old","100","210406","0.0-25.0-1.0","SS1619114562036","trial","","40","500","1990.0600000401028","images/stimuli/spore_stims/complex_20_A_a.gif","images/stimuli/spore_stims/complex_14_A_b.gif","self_paced","","8","complex_dissimilar","images/stimuli/spore_stims/complex_14_A_b.gif","","","","",""
"","null","html-keyboard-response","101","211509","0.0-25.0-0.1","SS1619114562036","","","null","","","","","","<p><img src= images/blank.png width =""600"" height = ""600"" style=""position:fixed;top:50%; left:50%; transform: translate(-50%, -50%); border:5px solid black"">","","","","","","","",""
"","1386.2450000015087","sequential-stimulus-presentation-old","102","213400","0.0-25.0-1.1","SS1619114562036","trial","","40","500","1886.2450000015087","images/stimuli/spore_stims/complex_20_A_a.gif","images/stimuli/spore_stims/complex_14_A_b.gif","self_paced","","8","complex_dissimilar","images/stimuli/spore_stims/complex_14_A_b.gif","","","","",""
"","null","html-keyboard-response","103","214362","0.0-25.0-0.2","SS1619114562036","","","null","","","","","","<p><img src= images/blank.png width =""600"" height = ""600"" style=""position:fixed;top:50%; left:50%; transform: translate(-50%, -50%); border:5px solid black"">","","","","","","","",""
"","153.30000000540167","sequential-stimulus-presentation-old","104","215019","0.0-25.0-1.2","SS1619114562036","trial","","40","500","653.3000000054017","images/stimuli/spore_stims/complex_20_A_a.gif","images/stimuli/spore_stims/complex_14_A_b.gif","self_paced","","8","complex_dissimilar","images/stimuli/spore_stims/complex_14_A_b.gif","","","","",""
"","null","html-keyboard-response","105","215929","0.0-25.0-0.3","SS1619114562036","","","null","","","","","","<p><img src= images/blank.png width =""600"" height = ""600"" style=""position:fixed;top:50%; left:50%; transform: translate(-50%, -50%); border:5px solid black"">","","","","","","","",""
"","111.9450000114739","sequential-stimulus-presentation-old","106","216544","0.0-25.0-1.3","SS1619114562036","trial","","40","500","611.9450000114739","images/stimuli/spore_stims/complex_20_A_a.gif","images/stimuli/spore_stims/complex_14_A_b.gif","self_paced","","8","complex_dissimilar","images/stimuli/spore_stims/complex_14_A_b.gif","","","","",""
"","null","html-keyboard-response","107","217620","0.0-25.0-0.4","SS1619114562036","","","null","","","","","","<p><img src= images/blank.png width =""600"" height = ""600"" style=""position:fixed;top:50%; left:50%; transform: translate(-50%, -50%); border:5px solid black"">","","","","","","","",""
"","260.8100000070408","sequential-stimulus-presentation-old","108","218387","0.0-25.0-1.4","SS1619114562036","trial","","40","500","760.8100000070408","images/stimuli/spore_stims/complex_20_A_a.gif","images/stimuli/spore_stims/complex_14_A_b.gif","self_paced","","8","complex_dissimilar","images/stimuli/spore_stims/complex_14_A_b.gif","","","","",""
"","2729.540000029374","survey-multi-choice","109","221119","0.0-26.0","SS1619114562036","math_question","","","","","","","","","","","","{""Q0"":""9""}","[0]","9","",""
"","null","html-keyboard-response","110","222296","0.0-27.0-0.0","SS1619114562036","","","null","","","","","","<p><img src= images/blank.png width =""600"" height = ""600"" style=""position:fixed;top:50%; left:50%; transform: translate(-50%, -50%); border:5px solid black"">","","","","","","","",""
"","759.520000021439","sequential-stimulus-presentation-old","111","233058","0.0-27.0-1.0","SS1619114562036","trial","","40","500","1259.520000021439","images/stimuli/spore_stims/complex_08_A_a.gif","images/stimuli/spore_stims/complex_07_A_b.gif","forced_long","","9","complex_dissimilar","images/stimuli/spore_stims/complex_07_A_b.gif","","","","",""
"","null","html-keyboard-response","112","234082","0.0-27.0-0.1","SS1619114562036","","","null","","","","","","<p><img src= images/blank.png width =""600"" height = ""600"" style=""position:fixed;top:50%; left:50%; transform: translate(-50%, -50%); border:5px solid black"">","","","","","","","",""
"","1011.0749999876134","sequential-stimulus-presentation-old","113","235597","0.0-27.0-1.1","SS1619114562036","trial","","40","500","1511.0749999876134","images/stimuli/spore_stims/complex_08_A_a.gif","images/stimuli/spore_stims/complex_07_A_b.gif","forced_long","","9","complex_dissimilar","images/stimuli/spore_stims/complex_07_A_b.gif","","","","",""
"","null","html-keyboard-response","114","236681","0.0-27.0-0.2","SS1619114562036","","","null","","","","","","<p><img src= images/blank.png width =""600"" height = ""600"" style=""position:fixed;top:50%; left:50%; transform: translate(-50%, -50%); border:5px solid black"">","","","","","","","",""
"","81.2949999817647","sequential-stimulus-presentation-old","115","237265","0.0-27.0-1.2","SS1619114562036","trial","","40","500","581.2949999817647","images/stimuli/spore_stims/complex_08_A_a.gif","images/stimuli/spore_stims/complex_07_A_b.gif","forced_long","","9","complex_dissimilar","images/stimuli/spore_stims/complex_07_A_b.gif","","","","",""
"","null","html-keyboard-response","116","238216","0.0-27.0-0.3","SS1619114562036","","","null","","","","","","<p><img src= images/blank.png width =""600"" height = ""600"" style=""position:fixed;top:50%; left:50%; transform: translate(-50%, -50%); border:5px solid black"">","","","","","","","",""
"","178.48000000230968","sequential-stimulus-presentation-old","117","238899","0.0-27.0-1.3","SS1619114562036","trial","","40","500","678.4800000023097","images/stimuli/spore_stims/complex_08_A_a.gif","images/stimuli/spore_stims/complex_07_A_b.gif","forced_long","","9","complex_dissimilar","images/stimuli/spore_stims/complex_07_A_b.gif","","","","",""
"","null","html-keyboard-response","118","239958","0.0-27.0-0.4","SS1619114562036","","","null","","","","","","<p><img src= images/blank.png width =""600"" height = ""600"" style=""position:fixed;top:50%; left:50%; transform: translate(-50%, -50%); border:5px solid black"">","","","","","","","",""
"","148.56000000145286","sequential-stimulus-presentation-old","119","240610","0.0-27.0-1.4","SS1619114562036","trial","","40","500","648.5600000014529","images/stimuli/spore_stims/complex_08_A_a.gif","images/stimuli/spore_stims/complex_07_A_b.gif","forced_long","","9","complex_dissimilar","images/stimuli/spore_stims/complex_07_A_b.gif","","","","",""
"","null","html-keyboard-response","120","241837","0.0-27.0-0.5","SS1619114562036","","","null","","","","","","<p><img src= images/blank.png width =""600"" height = ""600"" style=""position:fixed;top:50%; left:50%; transform: translate(-50%, -50%); border:5px solid black"">","","","","","","","",""
"","138.09999998193234","sequential-stimulus-presentation-old","121","242479","0.0-27.0-1.5","SS1619114562036","trial","","40","500","638.0999999819323","images/stimuli/spore_stims/complex_08_A_a.gif","images/stimuli/spore_stims/complex_07_A_b.gif","forced_long","","9","complex_dissimilar","images/stimuli/spore_stims/complex_08_A_a.gif","","","","",""
"","3308.8250000146218","survey-multi-choice","122","245791","0.0-28.0","SS1619114562036","math_question","","","","","","","","","","","","{""Q0"":""13""}","[0]","13","",""
"","null","html-keyboard-response","123","247081","0.0-29.0-0.0","SS1619114562036","","","null","","","","","","<p><img src= images/blank.png width =""600"" height = ""600"" style=""position:fixed;top:50%; left:50%; transform: translate(-50%, -50%); border:5px solid black"">","","","","","","","",""
"","1060.4449999518692","sequential-stimulus-presentation-old","124","258149","0.0-29.0-1.0","SS1619114562036","trial","","40","500","1560.4449999518692","images/stimuli/spore_stims/simple_11_A_a.gif","images/stimuli/spore_stims/simple_05_A_b.gif","forced_long","","10","simple_dissimilar","images/stimuli/spore_stims/simple_05_A_b.gif","","","","",""
"","null","html-keyboard-response","125","259387","0.0-29.0-0.1","SS1619114562036","","","null","","","","","","<p><img src= images/blank.png width =""600"" height = ""600"" style=""position:fixed;top:50%; left:50%; transform: translate(-50%, -50%); border:5px solid black"">","","","","","","","",""
"","1984.6499999985099","sequential-stimulus-presentation-old","126","261876","0.0-29.0-1.1","SS1619114562036","trial","","40","500","2484.64999999851","images/stimuli/spore_stims/simple_11_A_a.gif","images/stimuli/spore_stims/simple_05_A_b.gif","forced_long","","10","simple_dissimilar","images/stimuli/spore_stims/simple_11_A_a.gif","","","","",""
"","null","html-keyboard-response","127","262934","0.0-29.0-0.2","SS1619114562036","","","null","","","","","","<p><img src= images/blank.png width =""600"" height = ""600"" style=""position:fixed;top:50%; left:50%; transform: translate(-50%, -50%); border:5px solid black"">","","","","","","","",""
"","1368.4699999867007","sequential-stimulus-presentation-old","128","264806","0.0-29.0-1.2","SS1619114562036","trial","","40","500","1868.4699999867007","images/stimuli/spore_stims/simple_11_A_a.gif","images/stimuli/spore_stims/simple_05_A_b.gif","forced_long","","10","simple_dissimilar","images/stimuli/spore_stims/simple_05_A_b.gif","","","","",""
"","null","html-keyboard-response","129","266052","0.0-29.0-0.3","SS1619114562036","","","null","","","","","","<p><img src= images/blank.png width =""600"" height = ""600"" style=""position:fixed;top:50%; left:50%; transform: translate(-50%, -50%); border:5px solid black"">","","","","","","","",""
"","1095.1249999925494","sequential-stimulus-presentation-old","130","267659","0.0-29.0-1.3","SS1619114562036","trial","","40","500","1595.1249999925494","images/stimuli/spore_stims/simple_11_A_a.gif","images/stimuli/spore_stims/simple_05_A_b.gif","forced_long","","10","simple_dissimilar","images/stimuli/spore_stims/simple_11_A_a.gif","","","","",""
"","null","html-keyboard-response","131","268743","0.0-29.0-0.4","SS1619114562036","","","null","","","","","","<p><img src= images/blank.png width =""600"" height = ""600"" style=""position:fixed;top:50%; left:50%; transform: translate(-50%, -50%); border:5px solid black"">","","","","","","","",""
"","150.29999997932464","sequential-stimulus-presentation-old","132","269397","0.0-29.0-1.4","SS1619114562036","trial","","40","500","650.2999999793246","images/stimuli/spore_stims/simple_11_A_a.gif","images/stimuli/spore_stims/simple_05_A_b.gif","forced_long","","10","simple_dissimilar","images/stimuli/spore_stims/simple_05_A_b.gif","","","","",""
"","2735.2700000046752","survey-multi-choice","133","272135","0.0-30.0","SS1619114562036","math_question","","","","","","","","","","","","{""Q0"":""3""}","[0]","3","",""
"","null","html-keyboard-response","134","273225","0.0-31.0-0.0","SS1619114562036","","","null","","","","","","<p><img src= images/blank.png width =""600"" height = ""600"" style=""position:fixed;top:50%; left:50%; transform: translate(-50%, -50%); border:5px solid black"">","","","","","","","",""
"","7.280000019818544","sequential-stimulus-presentation-old","135","273741","0.0-31.0-1.0","SS1619114562036","trial","","40","500","507.28000001981854","images/stimuli/spore_stims/simple_12_A_a.gif","images/stimuli/spore_stims/simple_13_A_b.gif","self_paced","","11","simple_dissimilar","images/stimuli/spore_stims/simple_13_A_b.gif","","","","",""
"","null","html-keyboard-response","136","274744","0.0-31.0-0.1","SS1619114562036","","","null","","","","","","<p><img src= images/blank.png width =""600"" height = ""600"" style=""position:fixed;top:50%; left:50%; transform: translate(-50%, -50%); border:5px solid black"">","","","","","","","",""
"","205.4350000107661","sequential-stimulus-presentation-old","137","275455","0.0-31.0-1.1","SS1619114562036","trial","","40","500","705.4350000107661","images/stimuli/spore_stims/simple_12_A_a.gif","images/stimuli/spore_stims/simple_13_A_b.gif","self_paced","","11","simple_dissimilar","images/stimuli/spore_stims/simple_13_A_b.gif","","","","",""
"","null","html-keyboard-response","138","276265","0.0-31.0-0.2","SS1619114562036","","","null","","","","","","<p><img src= images/blank.png width =""600"" height = ""600"" style=""position:fixed;top:50%; left:50%; transform: translate(-50%, -50%); border:5px solid black"">","","","","","","","",""
"","206.53999998467043","sequential-stimulus-presentation-old","139","276977","0.0-31.0-1.2","SS1619114562036","trial","","40","500","706.5399999846704","images/stimuli/spore_stims/simple_12_A_a.gif","images/stimuli/spore_stims/simple_13_A_b.gif","self_paced","","11","simple_dissimilar","images/stimuli/spore_stims/simple_13_A_b.gif","","","","",""
"","null","html-keyboard-response","140","278130","0.0-31.0-0.3","SS1619114562036","","","null","","","","","","<p><img src= images/blank.png width =""600"" height = ""600"" style=""position:fixed;top:50%; left:50%; transform: translate(-50%, -50%); border:5px solid black"">","","","","","","","",""
"","673.0550000211224","sequential-stimulus-presentation-old","141","279308","0.0-31.0-1.3","SS1619114562036","trial","","40","500","1173.0550000211224","images/stimuli/spore_stims/simple_12_A_a.gif","images/stimuli/spore_stims/simple_13_A_b.gif","self_paced","","11","simple_dissimilar","images/stimuli/spore_stims/simple_12_A_a.gif","","","","",""
"","null","html-keyboard-response","142","280313","0.0-31.0-0.4","SS1619114562036","","","null","","","","","","<p><img src= images/blank.png width =""600"" height = ""600"" style=""position:fixed;top:50%; left:50%; transform: translate(-50%, -50%); border:5px solid black"">","","","","","","","",""
"","745.7849999773316","sequential-stimulus-presentation-old","143","281564","0.0-31.0-1.4","SS1619114562036","trial","","40","500","1245.7849999773316","images/stimuli/spore_stims/simple_12_A_a.gif","images/stimuli/spore_stims/simple_13_A_b.gif","self_paced","","11","simple_dissimilar","images/stimuli/spore_stims/simple_13_A_b.gif","","","","",""
"[{""page_index"":0,""viewing_time"":2874.82500000624}]","2875.1199999824166","instructions","144","284442","0.0-32.0","SS1619114562036","instructions","","","","","","","","","","","","","","","",""
"","7855.499999946915","survey-likert","145","292302","0.0-33.0","SS1619114562036","similarity_question","","","","","","","","","","","","{""Q0"":4}","[0]","","images/stimuli/spore_stims/complex_14_A_b.gif","images/stimuli/spore_stims/complex_20_A_a.gif"
"","5427.4399999994785","survey-likert","146","297733","0.0-34.0","SS1619114562036","similarity_question","","","","","","","","","","","","{""Q0"":2}","[0]","","images/stimuli/spore_stims/simple_17_A_b.gif","images/stimuli/spore_stims/simple_07_A_a.gif"
"","3344.5899999933317","survey-likert","147","301081","0.0-35.0","SS1619114562036","similarity_question","","","","","","","","","","","","{""Q0"":1}","[0]","","images/stimuli/spore_stims/simple_11_A_a.gif","images/stimuli/spore_stims/simple_05_A_b.gif"
"","2944.6749999769963","survey-likert","148","304029","0.0-36.0","SS1619114562036","similarity_question","","","","","","","","","","","","{""Q0"":4}","[0]","","images/stimuli/spore_stims/simple_12_A_a.gif","images/stimuli/spore_stims/simple_13_A_b.gif"
"","4128.8799999747425","survey-likert","149","308162","0.0-37.0","SS1619114562036","similarity_question","","","","","","","","","","","","{""Q0"":5}","[0]","","images/stimuli/spore_stims/complex_19_A_b.gif","images/stimuli/spore_stims/complex_03_A_a.gif"
"","3600.139999995008","survey-likert","150","311767","0.0-38.0","SS1619114562036","similarity_question","","","","","","","","","","","","{""Q0"":5}","[0]","","images/stimuli/spore_stims/simple_11_A_b.gif","images/stimuli/spore_stims/simple_17_A_a.gif"
"","3771.8149999855086","survey-likert","151","315542","0.0-39.0","SS1619114562036","similarity_question","","","","","","","","","","","","{""Q0"":4}","[0]","","images/stimuli/spore_stims/simple_14_A_b.gif","images/stimuli/spore_stims/simple_06_A_a.gif"
"","4734.445000009146","survey-likert","152","320280","0.0-40.0","SS1619114562036","similarity_question","","","","","","","","","","","","{""Q0"":1}","[0]","","images/stimuli/spore_stims/complex_15_A_a.gif","images/stimuli/spore_stims/complex_12_A_b.gif"
"","5267.8650000016205","survey-likert","153","325553","0.0-41.0","SS1619114562036","similarity_question","","","","","","","","","","","","{""Q0"":0}","[0]","","images/stimuli/spore_stims/complex_09_A_b.gif","images/stimuli/spore_stims/complex_16_A_a.gif"
"","4042.0150000136346","survey-likert","154","329601","0.0-42.0","SS1619114562036","similarity_question","","","","","","","","","","","","{""Q0"":2}","[0]","","images/stimuli/spore_stims/simple_15_A_a.gif","images/stimuli/spore_stims/simple_01_A_b.gif"
"","5013.5299999965355","survey-likert","155","334618","0.0-43.0","SS1619114562036","similarity_question","","","","","","","","","","","","{""Q0"":4}","[0]","","images/stimuli/spore_stims/complex_19_A_a.gif","images/stimuli/spore_stims/complex_04_A_b.gif"
"","6505.669999984093","survey-likert","156","341127","0.0-44.0","SS1619114562036","similarity_question","","","","","","","","","","","","{""Q0"":2}","[0]","","images/stimuli/spore_stims/complex_08_A_a.gif","images/stimuli/spore_stims/complex_07_A_b.gif"
"[{""page_index"":0,""viewing_time"":1406.2900000135414}]","1406.5950000076555","instructions","157","342538","0.0-45.0","SS1619114562036","instructions","","","","","","","","","","","","","","","",""
"","3099.7450000140816","survey-likert","158","345642","0.0-46.0","SS1619114562036","","","","","","","","","images/stimuli/spore_stims/complex_07_A_b.gif","","","","{""Q0"":5}","[0]","","",""
"","2470.6950000254437","survey-likert","159","348117","0.0-47.0","SS1619114562036","","","","","","","","","images/stimuli/spore_stims/simple_01_A_b.gif","","","","{""Q0"":0}","[0]","","",""
"","2633.7499999790452","survey-likert","160","350755","0.0-48.0","SS1619114562036","","","","","","","","","images/stimuli/spore_stims/simple_12_A_a.gif","","","","{""Q0"":1}","[0]","","",""
"","2335.80499998061","survey-likert","161","353095","0.0-49.0","SS1619114562036","","","","","","","","","images/stimuli/spore_stims/simple_17_A_b.gif","","","","{""Q0"":1}","[0]","","",""
"","2015.5200000153854","survey-likert","162","355114","0.0-50.0","SS1619114562036","","","","","","","","","images/stimuli/spore_stims/simple_11_A_a.gif","","","","{""Q0"":1}","[0]","","",""
"","2425.3099999623373","survey-likert","163","357543","0.0-51.0","SS1619114562036","","","","","","","","","images/stimuli/spore_stims/complex_15_A_a.gif","","","","{""Q0"":6}","[0]","","",""
"","2938.720000034664","survey-likert","164","360484","0.0-52.0","SS1619114562036","","","","","","","","","images/stimuli/spore_stims/complex_03_A_a.gif","","","","{""Q0"":5}","[0]","","",""
"","2240.9049999550916","survey-likert","165","362729","0.0-53.0","SS1619114562036","","","","","","","","","images/stimuli/spore_stims/simple_17_A_a.gif","","","","{""Q0"":1}","[0]","","",""
"","2578.410000016447","survey-likert","166","365311","0.0-54.0","SS1619114562036","","","","","","","","","images/stimuli/spore_stims/complex_19_A_a.gif","","","","{""Q0"":6}","[0]","","",""
"","2545.624999969732","survey-likert","167","367860","0.0-55.0","SS1619114562036","","","","","","","","","images/stimuli/spore_stims/complex_16_A_a.gif","","","","{""Q0"":6}","[0]","","",""
"","2208.310000016354","survey-likert","168","370072","0.0-56.0","SS1619114562036","","","","","","","","","images/stimuli/spore_stims/complex_20_A_a.gif","","","","{""Q0"":5}","[0]","","",""
"","2640.480000001844","survey-likert","169","372716","0.0-57.0","SS1619114562036","","","","","","","","","images/stimuli/spore_stims/simple_06_A_a.gif","","","","{""Q0"":1}","[0]","","",""
"[{""page_index"":0,""viewing_time"":1246.8599999556318}]","1247.2149999812245","instructions","170","373967","0.0-58.0","SS1619114562036","instructions","","","","","","","","","","","","","","","",""
"","2422.9099999647588","demog-age","171","376395","0.0-59.0","SS1619114562036","","","","","","","","","","","","","{""age"":""37""}","","","",""
"","3069.5599999744445","demog-ethnic-US","172","379473","0.0-60.0","SS1619114562036","","","","","","","","","","","","","{""ethnicity"":[""White""]}","[0]","","",""
"","3441.0749999806285","demog-gender-and-education","173","382918","0.0-61.0","SS1619114562036","","","","","","","","","","","","","{""gender"":""Female"",""education"":""Bachelor's Degree""}","[0,1]","","",""
"","4937.830000009853","survey-text","174","387861","0.0-62.0","SS1619114562036","feedback","","","","","","","","","","","","{""Q0"":""No issues""}","","","",""
"[{""page_index"":0,""viewing_time"":1132.6199999894015}]","1132.874999952037","instructions","175","388998","0.0-63.0","SS1619114562036","instructions","","","","","","","","","","","","","","","",""
