view_history,rt,trial_type,trial_index,time_elapsed,internal_node_id,subject,stimulus_type,trial_stimulus,key_press,minimum_viewing_duration,trial_looking_time,block_deviant,block_background,exposure_type,stimulus,block_number,block_type,stimulus_displayed,responses,question_order,math_correct_answer,stimulus_left,stimulus_right
"[{""page_index"":0,""viewing_time"":10396.999999997206}]",10397.464999987278,instructions,0,10398,0.0-0.0,SS1619125619115,NA,NA,NA,NA,NA,NA,NA,NA,NA,NA,NA,NA,NA,NA,NA,NA,NA
"[{""page_index"":0,""viewing_time"":56433.26999997953},{""page_index"":1,""viewing_time"":7733.2900000037625}]",64166.70499998145,instructions,1,76566,0.0-1.0,SS1619125619115,instructions,NA,NA,NA,NA,NA,NA,NA,NA,NA,NA,NA,NA,NA,NA,NA,NA
NA,5302.474999974947,sequential-stimulus-presentation-old,2,82371,0.0-2.0,SS1619125619115,NA,NA,40,500,5802.474999974947,null,null,self_paced,NA,NA,NA,NA,NA,NA,NA,NA,NA
NA,5562.504999979865,sequential-stimulus-presentation-old,3,88435,0.0-3.0,SS1619125619115,NA,NA,40,500,6062.504999979865,null,null,self_paced,NA,NA,NA,NA,NA,NA,NA,NA,NA
"[{""page_index"":0,""viewing_time"":20400.445000006584}]",20400.59000000474,instructions,4,108836,0.0-4.0,SS1619125619115,instructions,NA,NA,NA,NA,NA,NA,NA,NA,NA,NA,NA,NA,NA,NA,NA,NA
NA,421.65999999269843,sequential-stimulus-presentation-old,5,119260,0.0-5.0,SS1619125619115,NA,NA,40,500,921.6599999926984,null,null,forced_long,NA,NA,NA,NA,NA,NA,NA,NA,NA
NA,1963.545000005979,sequential-stimulus-presentation-old,6,121325,0.0-6.0,SS1619125619115,NA,NA,40,500,2463.545000005979,null,null,forced_long,NA,NA,NA,NA,NA,NA,NA,NA,NA
"[{""page_index"":0,""viewing_time"":2714.354999974603}]",2714.4899999839254,instructions,7,124040,0.0-7.0,SS1619125619115,instructions,NA,NA,NA,NA,NA,NA,NA,NA,NA,NA,NA,NA,NA,NA,NA,NA
"[{""page_index"":0,""viewing_time"":11452.30000000447},{""page_index"":1,""viewing_time"":7532.9449999844655},{""page_index"":2,""viewing_time"":5731.2500000116415},{""page_index"":3,""viewing_time"":1771.8799999856856},{""page_index"":4,""viewing_time"":1554.9200000241399}]",28043.44000000856,instructions,8,152084,0.0-8.0,SS1619125619115,instructions,NA,NA,NA,NA,NA,NA,NA,NA,NA,NA,NA,NA,NA,NA,NA,NA
NA,null,html-keyboard-response,9,152929,0.0-9.0-0.0,SS1619125619115,NA,NA,null,NA,NA,NA,NA,NA,"<p><img src= images/blank.png width =""600"" height = ""600"" style=""position:fixed;top:50%; left:50%; transform: translate(-50%, -50%); border:5px solid black"">",NA,NA,NA,NA,NA,NA,NA,NA
NA,145352.84999999567,sequential-stimulus-presentation-old,10,298785,0.0-9.0-1.0,SS1619125619115,trial,NA,40,500,145852.84999999567,images/stimuli/spore_stims/simple_02_A_a.gif,images/stimuli/spore_stims/simple_19_A_b.gif,self_paced,NA,0,simple_dissimilar,images/stimuli/spore_stims/simple_19_A_b.gif,NA,NA,NA,NA,NA
NA,null,html-keyboard-response,11,299830,0.0-9.0-0.1,SS1619125619115,NA,NA,null,NA,NA,NA,NA,NA,"<p><img src= images/blank.png width =""600"" height = ""600"" style=""position:fixed;top:50%; left:50%; transform: translate(-50%, -50%); border:5px solid black"">",NA,NA,NA,NA,NA,NA,NA,NA
NA,17853.040000016335,sequential-stimulus-presentation-old,12,318185,0.0-9.0-1.1,SS1619125619115,trial,NA,40,500,18353.040000016335,images/stimuli/spore_stims/simple_02_A_a.gif,images/stimuli/spore_stims/simple_19_A_b.gif,self_paced,NA,0,simple_dissimilar,images/stimuli/spore_stims/simple_19_A_b.gif,NA,NA,NA,NA,NA
NA,null,html-keyboard-response,13,319264,0.0-9.0-0.2,SS1619125619115,NA,NA,null,NA,NA,NA,NA,NA,"<p><img src= images/blank.png width =""600"" height = ""600"" style=""position:fixed;top:50%; left:50%; transform: translate(-50%, -50%); border:5px solid black"">",NA,NA,NA,NA,NA,NA,NA,NA
NA,14590.720000007423,sequential-stimulus-presentation-old,14,334356,0.0-9.0-1.2,SS1619125619115,trial,NA,40,500,15090.720000007423,images/stimuli/spore_stims/simple_02_A_a.gif,images/stimuli/spore_stims/simple_19_A_b.gif,self_paced,NA,0,simple_dissimilar,images/stimuli/spore_stims/simple_19_A_b.gif,NA,NA,NA,NA,NA
NA,null,html-keyboard-response,15,335343,0.0-9.0-0.3,SS1619125619115,NA,NA,null,NA,NA,NA,NA,NA,"<p><img src= images/blank.png width =""600"" height = ""600"" style=""position:fixed;top:50%; left:50%; transform: translate(-50%, -50%); border:5px solid black"">",NA,NA,NA,NA,NA,NA,NA,NA
NA,93362.24499999662,sequential-stimulus-presentation-old,16,429208,0.0-9.0-1.3,SS1619125619115,trial,NA,40,500,93862.24499999662,images/stimuli/spore_stims/simple_02_A_a.gif,images/stimuli/spore_stims/simple_19_A_b.gif,self_paced,NA,0,simple_dissimilar,images/stimuli/spore_stims/simple_02_A_a.gif,NA,NA,NA,NA,NA
NA,null,html-keyboard-response,17,430409,0.0-9.0-0.4,SS1619125619115,NA,NA,null,NA,NA,NA,NA,NA,"<p><img src= images/blank.png width =""600"" height = ""600"" style=""position:fixed;top:50%; left:50%; transform: translate(-50%, -50%); border:5px solid black"">",NA,NA,NA,NA,NA,NA,NA,NA
NA,1703.0650000087917,sequential-stimulus-presentation-old,18,432613,0.0-9.0-1.4,SS1619125619115,trial,NA,40,500,2203.0650000087917,images/stimuli/spore_stims/simple_02_A_a.gif,images/stimuli/spore_stims/simple_19_A_b.gif,self_paced,NA,0,simple_dissimilar,images/stimuli/spore_stims/simple_19_A_b.gif,NA,NA,NA,NA,NA
NA,6907.37000000081,survey-multi-choice,19,439523,0.0-10.0,SS1619125619115,math_question,NA,NA,NA,NA,NA,NA,NA,NA,NA,NA,NA,"{""Q0"":""7""}",[0],7,NA,NA
NA,null,html-keyboard-response,20,440551,0.0-11.0-0.0,SS1619125619115,NA,NA,null,NA,NA,NA,NA,NA,"<p><img src= images/blank.png width =""600"" height = ""600"" style=""position:fixed;top:50%; left:50%; transform: translate(-50%, -50%); border:5px solid black"">",NA,NA,NA,NA,NA,NA,NA,NA
NA,7485.4599999962375,sequential-stimulus-presentation-old,21,448540,0.0-11.0-1.0,SS1619125619115,trial,NA,40,500,7985.4599999962375,images/stimuli/spore_stims/complex_07_A_b.gif,images/stimuli/spore_stims/complex_13_A_a.gif,self_paced,NA,1,complex_dissimilar,images/stimuli/spore_stims/complex_13_A_a.gif,NA,NA,NA,NA,NA
NA,null,html-keyboard-response,22,449656,0.0-11.0-0.1,SS1619125619115,NA,NA,null,NA,NA,NA,NA,NA,"<p><img src= images/blank.png width =""600"" height = ""600"" style=""position:fixed;top:50%; left:50%; transform: translate(-50%, -50%); border:5px solid black"">",NA,NA,NA,NA,NA,NA,NA,NA
NA,7349.244999990333,sequential-stimulus-presentation-old,23,457508,0.0-11.0-1.1,SS1619125619115,trial,NA,40,500,7849.244999990333,images/stimuli/spore_stims/complex_07_A_b.gif,images/stimuli/spore_stims/complex_13_A_a.gif,self_paced,NA,1,complex_dissimilar,images/stimuli/spore_stims/complex_13_A_a.gif,NA,NA,NA,NA,NA
NA,null,html-keyboard-response,24,458741,0.0-11.0-0.2,SS1619125619115,NA,NA,null,NA,NA,NA,NA,NA,"<p><img src= images/blank.png width =""600"" height = ""600"" style=""position:fixed;top:50%; left:50%; transform: translate(-50%, -50%); border:5px solid black"">",NA,NA,NA,NA,NA,NA,NA,NA
NA,3078.110000002198,sequential-stimulus-presentation-old,25,462322,0.0-11.0-1.2,SS1619125619115,trial,NA,40,500,3578.110000002198,images/stimuli/spore_stims/complex_07_A_b.gif,images/stimuli/spore_stims/complex_13_A_a.gif,self_paced,NA,1,complex_dissimilar,images/stimuli/spore_stims/complex_13_A_a.gif,NA,NA,NA,NA,NA
NA,null,html-keyboard-response,26,463376,0.0-11.0-0.3,SS1619125619115,NA,NA,null,NA,NA,NA,NA,NA,"<p><img src= images/blank.png width =""600"" height = ""600"" style=""position:fixed;top:50%; left:50%; transform: translate(-50%, -50%); border:5px solid black"">",NA,NA,NA,NA,NA,NA,NA,NA
NA,1804.119999986142,sequential-stimulus-presentation-old,27,465682,0.0-11.0-1.3,SS1619125619115,trial,NA,40,500,2304.119999986142,images/stimuli/spore_stims/complex_07_A_b.gif,images/stimuli/spore_stims/complex_13_A_a.gif,self_paced,NA,1,complex_dissimilar,images/stimuli/spore_stims/complex_13_A_a.gif,NA,NA,NA,NA,NA
NA,null,html-keyboard-response,28,466755,0.0-11.0-0.4,SS1619125619115,NA,NA,null,NA,NA,NA,NA,NA,"<p><img src= images/blank.png width =""600"" height = ""600"" style=""position:fixed;top:50%; left:50%; transform: translate(-50%, -50%); border:5px solid black"">",NA,NA,NA,NA,NA,NA,NA,NA
NA,1339.3050000013318,sequential-stimulus-presentation-old,29,468597,0.0-11.0-1.4,SS1619125619115,trial,NA,40,500,1839.3050000013318,images/stimuli/spore_stims/complex_07_A_b.gif,images/stimuli/spore_stims/complex_13_A_a.gif,self_paced,NA,1,complex_dissimilar,images/stimuli/spore_stims/complex_13_A_a.gif,NA,NA,NA,NA,NA
NA,null,html-keyboard-response,30,469584,0.0-11.0-0.5,SS1619125619115,NA,NA,null,NA,NA,NA,NA,NA,"<p><img src= images/blank.png width =""600"" height = ""600"" style=""position:fixed;top:50%; left:50%; transform: translate(-50%, -50%); border:5px solid black"">",NA,NA,NA,NA,NA,NA,NA,NA
NA,2322.2100000130013,sequential-stimulus-presentation-old,31,472408,0.0-11.0-1.5,SS1619125619115,trial,NA,40,500,2822.2100000130013,images/stimuli/spore_stims/complex_07_A_b.gif,images/stimuli/spore_stims/complex_13_A_a.gif,self_paced,NA,1,complex_dissimilar,images/stimuli/spore_stims/complex_13_A_a.gif,NA,NA,NA,NA,NA
NA,3789.9949999991804,survey-multi-choice,32,476199,0.0-12.0,SS1619125619115,math_question,NA,NA,NA,NA,NA,NA,NA,NA,NA,NA,NA,"{""Q0"":""6""}",[0],6,NA,NA
NA,null,html-keyboard-response,33,477404,0.0-13.0-0.0,SS1619125619115,NA,NA,null,NA,NA,NA,NA,NA,"<p><img src= images/blank.png width =""600"" height = ""600"" style=""position:fixed;top:50%; left:50%; transform: translate(-50%, -50%); border:5px solid black"">",NA,NA,NA,NA,NA,NA,NA,NA
NA,1176.1800000094809,sequential-stimulus-presentation-old,34,478683,0.0-13.0-1.0,SS1619125619115,trial,NA,40,500,1676.1800000094809,images/stimuli/spore_stims/simple_15_A_a.gif,images/stimuli/spore_stims/simple_03_A_b.gif,forced_short,NA,2,simple_dissimilar,images/stimuli/spore_stims/simple_03_A_b.gif,NA,NA,NA,NA,NA
NA,null,html-keyboard-response,35,479800,0.0-13.0-0.1,SS1619125619115,NA,NA,null,NA,NA,NA,NA,NA,"<p><img src= images/blank.png width =""600"" height = ""600"" style=""position:fixed;top:50%; left:50%; transform: translate(-50%, -50%); border:5px solid black"">",NA,NA,NA,NA,NA,NA,NA,NA
NA,5641.229999979259,sequential-stimulus-presentation-old,36,485944,0.0-13.0-1.1,SS1619125619115,trial,NA,40,500,6141.229999979259,images/stimuli/spore_stims/simple_15_A_a.gif,images/stimuli/spore_stims/simple_03_A_b.gif,forced_short,NA,2,simple_dissimilar,images/stimuli/spore_stims/simple_03_A_b.gif,NA,NA,NA,NA,NA
NA,null,html-keyboard-response,37,486930,0.0-13.0-0.2,SS1619125619115,NA,NA,null,NA,NA,NA,NA,NA,"<p><img src= images/blank.png width =""600"" height = ""600"" style=""position:fixed;top:50%; left:50%; transform: translate(-50%, -50%); border:5px solid black"">",NA,NA,NA,NA,NA,NA,NA,NA
NA,3429.280000011204,sequential-stimulus-presentation-old,38,490862,0.0-13.0-1.2,SS1619125619115,trial,NA,40,500,3929.280000011204,images/stimuli/spore_stims/simple_15_A_a.gif,images/stimuli/spore_stims/simple_03_A_b.gif,forced_short,NA,2,simple_dissimilar,images/stimuli/spore_stims/simple_03_A_b.gif,NA,NA,NA,NA,NA
NA,null,html-keyboard-response,39,491830,0.0-13.0-0.3,SS1619125619115,NA,NA,null,NA,NA,NA,NA,NA,"<p><img src= images/blank.png width =""600"" height = ""600"" style=""position:fixed;top:50%; left:50%; transform: translate(-50%, -50%); border:5px solid black"">",NA,NA,NA,NA,NA,NA,NA,NA
NA,5551.60999999498,sequential-stimulus-presentation-old,40,497884,0.0-13.0-1.3,SS1619125619115,trial,NA,40,500,6051.60999999498,images/stimuli/spore_stims/simple_15_A_a.gif,images/stimuli/spore_stims/simple_03_A_b.gif,forced_short,NA,2,simple_dissimilar,images/stimuli/spore_stims/simple_03_A_b.gif,NA,NA,NA,NA,NA
NA,null,html-keyboard-response,41,498990,0.0-13.0-0.4,SS1619125619115,NA,NA,null,NA,NA,NA,NA,NA,"<p><img src= images/blank.png width =""600"" height = ""600"" style=""position:fixed;top:50%; left:50%; transform: translate(-50%, -50%); border:5px solid black"">",NA,NA,NA,NA,NA,NA,NA,NA
NA,4613.305000006221,sequential-stimulus-presentation-old,42,504107,0.0-13.0-1.4,SS1619125619115,trial,NA,40,500,5113.305000006221,images/stimuli/spore_stims/simple_15_A_a.gif,images/stimuli/spore_stims/simple_03_A_b.gif,forced_short,NA,2,simple_dissimilar,images/stimuli/spore_stims/simple_15_A_a.gif,NA,NA,NA,NA,NA
NA,null,html-keyboard-response,43,505175,0.0-13.0-0.5,SS1619125619115,NA,NA,null,NA,NA,NA,NA,NA,"<p><img src= images/blank.png width =""600"" height = ""600"" style=""position:fixed;top:50%; left:50%; transform: translate(-50%, -50%); border:5px solid black"">",NA,NA,NA,NA,NA,NA,NA,NA
NA,3877.2299999836832,sequential-stimulus-presentation-old,44,509555,0.0-13.0-1.5,SS1619125619115,trial,NA,40,500,4377.229999983683,images/stimuli/spore_stims/simple_15_A_a.gif,images/stimuli/spore_stims/simple_03_A_b.gif,forced_short,NA,2,simple_dissimilar,images/stimuli/spore_stims/simple_03_A_b.gif,NA,NA,NA,NA,NA
NA,3978.980000014417,survey-multi-choice,45,513535,0.0-14.0,SS1619125619115,math_question,NA,NA,NA,NA,NA,NA,NA,NA,NA,NA,NA,"{""Q0"":""10""}",[0],10,NA,NA
NA,null,html-keyboard-response,46,514497,0.0-15.0-0.0,SS1619125619115,NA,NA,null,NA,NA,NA,NA,NA,"<p><img src= images/blank.png width =""600"" height = ""600"" style=""position:fixed;top:50%; left:50%; transform: translate(-50%, -50%); border:5px solid black"">",NA,NA,NA,NA,NA,NA,NA,NA
NA,2307.3999999905936,sequential-stimulus-presentation-old,47,517307,0.0-15.0-1.0,SS1619125619115,trial,NA,40,500,2807.3999999905936,images/stimuli/spore_stims/complex_15_A_b.gif,images/stimuli/spore_stims/complex_05_A_a.gif,self_paced,NA,3,complex_dissimilar,images/stimuli/spore_stims/complex_05_A_a.gif,NA,NA,NA,NA,NA
NA,null,html-keyboard-response,48,518600,0.0-15.0-0.1,SS1619125619115,NA,NA,null,NA,NA,NA,NA,NA,"<p><img src= images/blank.png width =""600"" height = ""600"" style=""position:fixed;top:50%; left:50%; transform: translate(-50%, -50%); border:5px solid black"">",NA,NA,NA,NA,NA,NA,NA,NA
NA,965.2850000129547,sequential-stimulus-presentation-old,49,520068,0.0-15.0-1.1,SS1619125619115,trial,NA,40,500,1465.2850000129547,images/stimuli/spore_stims/complex_15_A_b.gif,images/stimuli/spore_stims/complex_05_A_a.gif,self_paced,NA,3,complex_dissimilar,images/stimuli/spore_stims/complex_05_A_a.gif,NA,NA,NA,NA,NA
NA,null,html-keyboard-response,50,521204,0.0-15.0-0.2,SS1619125619115,NA,NA,null,NA,NA,NA,NA,NA,"<p><img src= images/blank.png width =""600"" height = ""600"" style=""position:fixed;top:50%; left:50%; transform: translate(-50%, -50%); border:5px solid black"">",NA,NA,NA,NA,NA,NA,NA,NA
NA,1885.599999979604,sequential-stimulus-presentation-old,51,523593,0.0-15.0-1.2,SS1619125619115,trial,NA,40,500,2385.599999979604,images/stimuli/spore_stims/complex_15_A_b.gif,images/stimuli/spore_stims/complex_05_A_a.gif,self_paced,NA,3,complex_dissimilar,images/stimuli/spore_stims/complex_05_A_a.gif,NA,NA,NA,NA,NA
NA,null,html-keyboard-response,52,524683,0.0-15.0-0.3,SS1619125619115,NA,NA,null,NA,NA,NA,NA,NA,"<p><img src= images/blank.png width =""600"" height = ""600"" style=""position:fixed;top:50%; left:50%; transform: translate(-50%, -50%); border:5px solid black"">",NA,NA,NA,NA,NA,NA,NA,NA
NA,1887.3099999909755,sequential-stimulus-presentation-old,53,527073,0.0-15.0-1.3,SS1619125619115,trial,NA,40,500,2387.3099999909755,images/stimuli/spore_stims/complex_15_A_b.gif,images/stimuli/spore_stims/complex_05_A_a.gif,self_paced,NA,3,complex_dissimilar,images/stimuli/spore_stims/complex_05_A_a.gif,NA,NA,NA,NA,NA
NA,null,html-keyboard-response,54,528195,0.0-15.0-0.4,SS1619125619115,NA,NA,null,NA,NA,NA,NA,NA,"<p><img src= images/blank.png width =""600"" height = ""600"" style=""position:fixed;top:50%; left:50%; transform: translate(-50%, -50%); border:5px solid black"">",NA,NA,NA,NA,NA,NA,NA,NA
NA,4306.814999989001,sequential-stimulus-presentation-old,55,533005,0.0-15.0-1.4,SS1619125619115,trial,NA,40,500,4806.814999989001,images/stimuli/spore_stims/complex_15_A_b.gif,images/stimuli/spore_stims/complex_05_A_a.gif,self_paced,NA,3,complex_dissimilar,images/stimuli/spore_stims/complex_15_A_b.gif,NA,NA,NA,NA,NA
NA,null,html-keyboard-response,56,533828,0.0-15.0-0.5,SS1619125619115,NA,NA,null,NA,NA,NA,NA,NA,"<p><img src= images/blank.png width =""600"" height = ""600"" style=""position:fixed;top:50%; left:50%; transform: translate(-50%, -50%); border:5px solid black"">",NA,NA,NA,NA,NA,NA,NA,NA
NA,2279.260000010254,sequential-stimulus-presentation-old,57,536610,0.0-15.0-1.5,SS1619125619115,trial,NA,40,500,2779.260000010254,images/stimuli/spore_stims/complex_15_A_b.gif,images/stimuli/spore_stims/complex_05_A_a.gif,self_paced,NA,3,complex_dissimilar,images/stimuli/spore_stims/complex_15_A_b.gif,NA,NA,NA,NA,NA
NA,4178.160000010394,survey-multi-choice,58,540789,0.0-16.0,SS1619125619115,math_question,NA,NA,NA,NA,NA,NA,NA,NA,NA,NA,NA,"{""Q0"":""9""}",[0],9,NA,NA
NA,null,html-keyboard-response,59,541993,0.0-17.0-0.0,SS1619125619115,NA,NA,null,NA,NA,NA,NA,NA,"<p><img src= images/blank.png width =""600"" height = ""600"" style=""position:fixed;top:50%; left:50%; transform: translate(-50%, -50%); border:5px solid black"">",NA,NA,NA,NA,NA,NA,NA,NA
NA,1094.1949999833014,sequential-stimulus-presentation-old,60,553090,0.0-17.0-1.0,SS1619125619115,trial,NA,40,500,1594.1949999833014,images/stimuli/spore_stims/complex_03_A_b.gif,images/stimuli/spore_stims/complex_14_A_a.gif,forced_long,NA,4,complex_dissimilar,images/stimuli/spore_stims/complex_14_A_a.gif,NA,NA,NA,NA,NA
NA,null,html-keyboard-response,61,554330,0.0-17.0-0.1,SS1619125619115,NA,NA,null,NA,NA,NA,NA,NA,"<p><img src= images/blank.png width =""600"" height = ""600"" style=""position:fixed;top:50%; left:50%; transform: translate(-50%, -50%); border:5px solid black"">",NA,NA,NA,NA,NA,NA,NA,NA
NA,510.3999999992084,sequential-stimulus-presentation-old,62,555343,0.0-17.0-1.1,SS1619125619115,trial,NA,40,500,1010.3999999992084,images/stimuli/spore_stims/complex_03_A_b.gif,images/stimuli/spore_stims/complex_14_A_a.gif,forced_long,NA,4,complex_dissimilar,images/stimuli/spore_stims/complex_14_A_a.gif,NA,NA,NA,NA,NA
NA,null,html-keyboard-response,63,556395,0.0-17.0-0.2,SS1619125619115,NA,NA,null,NA,NA,NA,NA,NA,"<p><img src= images/blank.png width =""600"" height = ""600"" style=""position:fixed;top:50%; left:50%; transform: translate(-50%, -50%); border:5px solid black"">",NA,NA,NA,NA,NA,NA,NA,NA
NA,1217.239999998128,sequential-stimulus-presentation-old,64,558115,0.0-17.0-1.2,SS1619125619115,trial,NA,40,500,1717.239999998128,images/stimuli/spore_stims/complex_03_A_b.gif,images/stimuli/spore_stims/complex_14_A_a.gif,forced_long,NA,4,complex_dissimilar,images/stimuli/spore_stims/complex_14_A_a.gif,NA,NA,NA,NA,NA
NA,null,html-keyboard-response,65,558979,0.0-17.0-0.3,SS1619125619115,NA,NA,null,NA,NA,NA,NA,NA,"<p><img src= images/blank.png width =""600"" height = ""600"" style=""position:fixed;top:50%; left:50%; transform: translate(-50%, -50%); border:5px solid black"">",NA,NA,NA,NA,NA,NA,NA,NA
NA,3447.3349999752827,sequential-stimulus-presentation-old,66,562929,0.0-17.0-1.3,SS1619125619115,trial,NA,40,500,3947.3349999752827,images/stimuli/spore_stims/complex_03_A_b.gif,images/stimuli/spore_stims/complex_14_A_a.gif,forced_long,NA,4,complex_dissimilar,images/stimuli/spore_stims/complex_14_A_a.gif,NA,NA,NA,NA,NA
NA,null,html-keyboard-response,67,563767,0.0-17.0-0.4,SS1619125619115,NA,NA,null,NA,NA,NA,NA,NA,"<p><img src= images/blank.png width =""600"" height = ""600"" style=""position:fixed;top:50%; left:50%; transform: translate(-50%, -50%); border:5px solid black"">",NA,NA,NA,NA,NA,NA,NA,NA
NA,2589.46499999729,sequential-stimulus-presentation-old,68,566859,0.0-17.0-1.4,SS1619125619115,trial,NA,40,500,3089.46499999729,images/stimuli/spore_stims/complex_03_A_b.gif,images/stimuli/spore_stims/complex_14_A_a.gif,forced_long,NA,4,complex_dissimilar,images/stimuli/spore_stims/complex_03_A_b.gif,NA,NA,NA,NA,NA
NA,4348.70500001125,survey-multi-choice,69,571209,0.0-18.0,SS1619125619115,math_question,NA,NA,NA,NA,NA,NA,NA,NA,NA,NA,NA,"{""Q0"":""10""}",[0],10,NA,NA
NA,null,html-keyboard-response,70,572017,0.0-19.0-0.0,SS1619125619115,NA,NA,null,NA,NA,NA,NA,NA,"<p><img src= images/blank.png width =""600"" height = ""600"" style=""position:fixed;top:50%; left:50%; transform: translate(-50%, -50%); border:5px solid black"">",NA,NA,NA,NA,NA,NA,NA,NA
NA,858.3100000105333,sequential-stimulus-presentation-old,71,572979,0.0-19.0-1.0,SS1619125619115,trial,NA,40,500,1358.3100000105333,images/stimuli/spore_stims/complex_19_A_a.gif,images/stimuli/spore_stims/complex_08_A_b.gif,forced_short,NA,5,complex_dissimilar,images/stimuli/spore_stims/complex_08_A_b.gif,NA,NA,NA,NA,NA
NA,null,html-keyboard-response,72,574181,0.0-19.0-0.1,SS1619125619115,NA,NA,null,NA,NA,NA,NA,NA,"<p><img src= images/blank.png width =""600"" height = ""600"" style=""position:fixed;top:50%; left:50%; transform: translate(-50%, -50%); border:5px solid black"">",NA,NA,NA,NA,NA,NA,NA,NA
NA,776.4749999914784,sequential-stimulus-presentation-old,73,575461,0.0-19.0-1.1,SS1619125619115,trial,NA,40,500,1276.4749999914784,images/stimuli/spore_stims/complex_19_A_a.gif,images/stimuli/spore_stims/complex_08_A_b.gif,forced_short,NA,5,complex_dissimilar,images/stimuli/spore_stims/complex_08_A_b.gif,NA,NA,NA,NA,NA
NA,null,html-keyboard-response,74,576292,0.0-19.0-0.2,SS1619125619115,NA,NA,null,NA,NA,NA,NA,NA,"<p><img src= images/blank.png width =""600"" height = ""600"" style=""position:fixed;top:50%; left:50%; transform: translate(-50%, -50%); border:5px solid black"">",NA,NA,NA,NA,NA,NA,NA,NA
NA,2137.3200000089128,sequential-stimulus-presentation-old,75,578934,0.0-19.0-1.2,SS1619125619115,trial,NA,40,500,2637.3200000089128,images/stimuli/spore_stims/complex_19_A_a.gif,images/stimuli/spore_stims/complex_08_A_b.gif,forced_short,NA,5,complex_dissimilar,images/stimuli/spore_stims/complex_08_A_b.gif,NA,NA,NA,NA,NA
NA,null,html-keyboard-response,76,579915,0.0-19.0-0.3,SS1619125619115,NA,NA,null,NA,NA,NA,NA,NA,"<p><img src= images/blank.png width =""600"" height = ""600"" style=""position:fixed;top:50%; left:50%; transform: translate(-50%, -50%); border:5px solid black"">",NA,NA,NA,NA,NA,NA,NA,NA
NA,826.2999999860767,sequential-stimulus-presentation-old,77,581245,0.0-19.0-1.3,SS1619125619115,trial,NA,40,500,1326.2999999860767,images/stimuli/spore_stims/complex_19_A_a.gif,images/stimuli/spore_stims/complex_08_A_b.gif,forced_short,NA,5,complex_dissimilar,images/stimuli/spore_stims/complex_08_A_b.gif,NA,NA,NA,NA,NA
NA,null,html-keyboard-response,78,582353,0.0-19.0-0.4,SS1619125619115,NA,NA,null,NA,NA,NA,NA,NA,"<p><img src= images/blank.png width =""600"" height = ""600"" style=""position:fixed;top:50%; left:50%; transform: translate(-50%, -50%); border:5px solid black"">",NA,NA,NA,NA,NA,NA,NA,NA
NA,1120.329999976093,sequential-stimulus-presentation-old,79,583977,0.0-19.0-1.4,SS1619125619115,trial,NA,40,500,1620.329999976093,images/stimuli/spore_stims/complex_19_A_a.gif,images/stimuli/spore_stims/complex_08_A_b.gif,forced_short,NA,5,complex_dissimilar,images/stimuli/spore_stims/complex_08_A_b.gif,NA,NA,NA,NA,NA
NA,null,html-keyboard-response,80,584826,0.0-19.0-0.5,SS1619125619115,NA,NA,null,NA,NA,NA,NA,NA,"<p><img src= images/blank.png width =""600"" height = ""600"" style=""position:fixed;top:50%; left:50%; transform: translate(-50%, -50%); border:5px solid black"">",NA,NA,NA,NA,NA,NA,NA,NA
NA,986.479999992298,sequential-stimulus-presentation-old,81,586315,0.0-19.0-1.5,SS1619125619115,trial,NA,40,500,1486.479999992298,images/stimuli/spore_stims/complex_19_A_a.gif,images/stimuli/spore_stims/complex_08_A_b.gif,forced_short,NA,5,complex_dissimilar,images/stimuli/spore_stims/complex_08_A_b.gif,NA,NA,NA,NA,NA
NA,2760.5550000153016,survey-multi-choice,82,589077,0.0-20.0,SS1619125619115,math_question,NA,NA,NA,NA,NA,NA,NA,NA,NA,NA,NA,"{""Q0"":""5""}",[0],5,NA,NA
NA,null,html-keyboard-response,83,590072,0.0-21.0-0.0,SS1619125619115,NA,NA,null,NA,NA,NA,NA,NA,"<p><img src= images/blank.png width =""600"" height = ""600"" style=""position:fixed;top:50%; left:50%; transform: translate(-50%, -50%); border:5px solid black"">",NA,NA,NA,NA,NA,NA,NA,NA
NA,700.459999992745,sequential-stimulus-presentation-old,84,600775,0.0-21.0-1.0,SS1619125619115,trial,NA,40,500,1200.459999992745,images/stimuli/spore_stims/simple_17_A_a.gif,images/stimuli/spore_stims/simple_16_A_b.gif,forced_long,NA,6,simple_dissimilar,images/stimuli/spore_stims/simple_16_A_b.gif,NA,NA,NA,NA,NA
NA,null,html-keyboard-response,85,602054,0.0-21.0-0.1,SS1619125619115,NA,NA,null,NA,NA,NA,NA,NA,"<p><img src= images/blank.png width =""600"" height = ""600"" style=""position:fixed;top:50%; left:50%; transform: translate(-50%, -50%); border:5px solid black"">",NA,NA,NA,NA,NA,NA,NA,NA
NA,660.3749999776483,sequential-stimulus-presentation-old,86,603228,0.0-21.0-1.1,SS1619125619115,trial,NA,40,500,1160.3749999776483,images/stimuli/spore_stims/simple_17_A_a.gif,images/stimuli/spore_stims/simple_16_A_b.gif,forced_long,NA,6,simple_dissimilar,images/stimuli/spore_stims/simple_16_A_b.gif,NA,NA,NA,NA,NA
NA,null,html-keyboard-response,87,604097,0.0-21.0-0.2,SS1619125619115,NA,NA,null,NA,NA,NA,NA,NA,"<p><img src= images/blank.png width =""600"" height = ""600"" style=""position:fixed;top:50%; left:50%; transform: translate(-50%, -50%); border:5px solid black"">",NA,NA,NA,NA,NA,NA,NA,NA
NA,1286.5850000234786,sequential-stimulus-presentation-old,88,605886,0.0-21.0-1.2,SS1619125619115,trial,NA,40,500,1786.5850000234786,images/stimuli/spore_stims/simple_17_A_a.gif,images/stimuli/spore_stims/simple_16_A_b.gif,forced_long,NA,6,simple_dissimilar,images/stimuli/spore_stims/simple_16_A_b.gif,NA,NA,NA,NA,NA
NA,null,html-keyboard-response,89,607018,0.0-21.0-0.3,SS1619125619115,NA,NA,null,NA,NA,NA,NA,NA,"<p><img src= images/blank.png width =""600"" height = ""600"" style=""position:fixed;top:50%; left:50%; transform: translate(-50%, -50%); border:5px solid black"">",NA,NA,NA,NA,NA,NA,NA,NA
NA,851.5349999943282,sequential-stimulus-presentation-old,90,608373,0.0-21.0-1.3,SS1619125619115,trial,NA,40,500,1351.5349999943282,images/stimuli/spore_stims/simple_17_A_a.gif,images/stimuli/spore_stims/simple_16_A_b.gif,forced_long,NA,6,simple_dissimilar,images/stimuli/spore_stims/simple_16_A_b.gif,NA,NA,NA,NA,NA
NA,null,html-keyboard-response,91,609671,0.0-21.0-0.4,SS1619125619115,NA,NA,null,NA,NA,NA,NA,NA,"<p><img src= images/blank.png width =""600"" height = ""600"" style=""position:fixed;top:50%; left:50%; transform: translate(-50%, -50%); border:5px solid black"">",NA,NA,NA,NA,NA,NA,NA,NA
NA,622.6150000002235,sequential-stimulus-presentation-old,92,610797,0.0-21.0-1.4,SS1619125619115,trial,NA,40,500,1122.6150000002235,images/stimuli/spore_stims/simple_17_A_a.gif,images/stimuli/spore_stims/simple_16_A_b.gif,forced_long,NA,6,simple_dissimilar,images/stimuli/spore_stims/simple_16_A_b.gif,NA,NA,NA,NA,NA
NA,null,html-keyboard-response,93,611799,0.0-21.0-0.5,SS1619125619115,NA,NA,null,NA,NA,NA,NA,NA,"<p><img src= images/blank.png width =""600"" height = ""600"" style=""position:fixed;top:50%; left:50%; transform: translate(-50%, -50%); border:5px solid black"">",NA,NA,NA,NA,NA,NA,NA,NA
NA,1120.360000000801,sequential-stimulus-presentation-old,94,613421,0.0-21.0-1.5,SS1619125619115,trial,NA,40,500,1620.360000000801,images/stimuli/spore_stims/simple_17_A_a.gif,images/stimuli/spore_stims/simple_16_A_b.gif,forced_long,NA,6,simple_dissimilar,images/stimuli/spore_stims/simple_16_A_b.gif,NA,NA,NA,NA,NA
NA,7208.775000006426,survey-multi-choice,95,620631,0.0-22.0,SS1619125619115,math_question,NA,NA,NA,NA,NA,NA,NA,NA,NA,NA,NA,"{""Q0"":""7""}",[0],7,NA,NA
NA,null,html-keyboard-response,96,621755,0.0-23.0-0.0,SS1619125619115,NA,NA,null,NA,NA,NA,NA,NA,"<p><img src= images/blank.png width =""600"" height = ""600"" style=""position:fixed;top:50%; left:50%; transform: translate(-50%, -50%); border:5px solid black"">",NA,NA,NA,NA,NA,NA,NA,NA
NA,366.5800000017043,sequential-stimulus-presentation-old,97,632124,0.0-23.0-1.0,SS1619125619115,trial,NA,40,500,866.5800000017043,images/stimuli/spore_stims/simple_02_A_b.gif,images/stimuli/spore_stims/simple_05_A_a.gif,forced_long,NA,7,simple_dissimilar,images/stimuli/spore_stims/simple_05_A_a.gif,NA,NA,NA,NA,NA
NA,null,html-keyboard-response,98,633249,0.0-23.0-0.1,SS1619125619115,NA,NA,null,NA,NA,NA,NA,NA,"<p><img src= images/blank.png width =""600"" height = ""600"" style=""position:fixed;top:50%; left:50%; transform: translate(-50%, -50%); border:5px solid black"">",NA,NA,NA,NA,NA,NA,NA,NA
NA,323.56499999877997,sequential-stimulus-presentation-old,99,634075,0.0-23.0-1.1,SS1619125619115,trial,NA,40,500,823.56499999878,images/stimuli/spore_stims/simple_02_A_b.gif,images/stimuli/spore_stims/simple_05_A_a.gif,forced_long,NA,7,simple_dissimilar,images/stimuli/spore_stims/simple_05_A_a.gif,NA,NA,NA,NA,NA
NA,null,html-keyboard-response,100,635148,0.0-23.0-0.2,SS1619125619115,NA,NA,null,NA,NA,NA,NA,NA,"<p><img src= images/blank.png width =""600"" height = ""600"" style=""position:fixed;top:50%; left:50%; transform: translate(-50%, -50%); border:5px solid black"">",NA,NA,NA,NA,NA,NA,NA,NA
NA,1642.3899999936111,sequential-stimulus-presentation-old,101,637292,0.0-23.0-1.2,SS1619125619115,trial,NA,40,500,2142.389999993611,images/stimuli/spore_stims/simple_02_A_b.gif,images/stimuli/spore_stims/simple_05_A_a.gif,forced_long,NA,7,simple_dissimilar,images/stimuli/spore_stims/simple_05_A_a.gif,NA,NA,NA,NA,NA
NA,null,html-keyboard-response,102,638324,0.0-23.0-0.3,SS1619125619115,NA,NA,null,NA,NA,NA,NA,NA,"<p><img src= images/blank.png width =""600"" height = ""600"" style=""position:fixed;top:50%; left:50%; transform: translate(-50%, -50%); border:5px solid black"">",NA,NA,NA,NA,NA,NA,NA,NA
NA,1482.2500000009313,sequential-stimulus-presentation-old,103,640309,0.0-23.0-1.3,SS1619125619115,trial,NA,40,500,1982.2500000009313,images/stimuli/spore_stims/simple_02_A_b.gif,images/stimuli/spore_stims/simple_05_A_a.gif,forced_long,NA,7,simple_dissimilar,images/stimuli/spore_stims/simple_05_A_a.gif,NA,NA,NA,NA,NA
NA,2780.5499999958556,survey-multi-choice,104,643091,0.0-24.0,SS1619125619115,math_question,NA,NA,NA,NA,NA,NA,NA,NA,NA,NA,NA,"{""Q0"":""6""}",[0],6,NA,NA
NA,null,html-keyboard-response,105,644273,0.0-25.0-0.0,SS1619125619115,NA,NA,null,NA,NA,NA,NA,NA,"<p><img src= images/blank.png width =""600"" height = ""600"" style=""position:fixed;top:50%; left:50%; transform: translate(-50%, -50%); border:5px solid black"">",NA,NA,NA,NA,NA,NA,NA,NA
NA,981.6100000170991,sequential-stimulus-presentation-old,106,645357,0.0-25.0-1.0,SS1619125619115,trial,NA,40,500,1481.610000017099,images/stimuli/spore_stims/simple_20_A_a.gif,images/stimuli/spore_stims/simple_04_A_b.gif,forced_short,NA,8,simple_dissimilar,images/stimuli/spore_stims/simple_04_A_b.gif,NA,NA,NA,NA,NA
NA,null,html-keyboard-response,107,646356,0.0-25.0-0.1,SS1619125619115,NA,NA,null,NA,NA,NA,NA,NA,"<p><img src= images/blank.png width =""600"" height = ""600"" style=""position:fixed;top:50%; left:50%; transform: translate(-50%, -50%); border:5px solid black"">",NA,NA,NA,NA,NA,NA,NA,NA
NA,221.42000001622364,sequential-stimulus-presentation-old,108,647080,0.0-25.0-1.1,SS1619125619115,trial,NA,40,500,721.4200000162236,images/stimuli/spore_stims/simple_20_A_a.gif,images/stimuli/spore_stims/simple_04_A_b.gif,forced_short,NA,8,simple_dissimilar,images/stimuli/spore_stims/simple_04_A_b.gif,NA,NA,NA,NA,NA
NA,null,html-keyboard-response,109,648274,0.0-25.0-0.2,SS1619125619115,NA,NA,null,NA,NA,NA,NA,NA,"<p><img src= images/blank.png width =""600"" height = ""600"" style=""position:fixed;top:50%; left:50%; transform: translate(-50%, -50%); border:5px solid black"">",NA,NA,NA,NA,NA,NA,NA,NA
NA,757.4150000000373,sequential-stimulus-presentation-old,110,649533,0.0-25.0-1.2,SS1619125619115,trial,NA,40,500,1257.4150000000373,images/stimuli/spore_stims/simple_20_A_a.gif,images/stimuli/spore_stims/simple_04_A_b.gif,forced_short,NA,8,simple_dissimilar,images/stimuli/spore_stims/simple_04_A_b.gif,NA,NA,NA,NA,NA
NA,null,html-keyboard-response,111,650589,0.0-25.0-0.3,SS1619125619115,NA,NA,null,NA,NA,NA,NA,NA,"<p><img src= images/blank.png width =""600"" height = ""600"" style=""position:fixed;top:50%; left:50%; transform: translate(-50%, -50%); border:5px solid black"">",NA,NA,NA,NA,NA,NA,NA,NA
NA,1043.504999979632,sequential-stimulus-presentation-old,112,652134,0.0-25.0-1.3,SS1619125619115,trial,NA,40,500,1543.504999979632,images/stimuli/spore_stims/simple_20_A_a.gif,images/stimuli/spore_stims/simple_04_A_b.gif,forced_short,NA,8,simple_dissimilar,images/stimuli/spore_stims/simple_04_A_b.gif,NA,NA,NA,NA,NA
NA,null,html-keyboard-response,113,653132,0.0-25.0-0.4,SS1619125619115,NA,NA,null,NA,NA,NA,NA,NA,"<p><img src= images/blank.png width =""600"" height = ""600"" style=""position:fixed;top:50%; left:50%; transform: translate(-50%, -50%); border:5px solid black"">",NA,NA,NA,NA,NA,NA,NA,NA
NA,906.440000020666,sequential-stimulus-presentation-old,114,654540,0.0-25.0-1.4,SS1619125619115,trial,NA,40,500,1406.440000020666,images/stimuli/spore_stims/simple_20_A_a.gif,images/stimuli/spore_stims/simple_04_A_b.gif,forced_short,NA,8,simple_dissimilar,images/stimuli/spore_stims/simple_04_A_b.gif,NA,NA,NA,NA,NA
NA,null,html-keyboard-response,115,655454,0.0-25.0-0.5,SS1619125619115,NA,NA,null,NA,NA,NA,NA,NA,"<p><img src= images/blank.png width =""600"" height = ""600"" style=""position:fixed;top:50%; left:50%; transform: translate(-50%, -50%); border:5px solid black"">",NA,NA,NA,NA,NA,NA,NA,NA
NA,1151.6699999920093,sequential-stimulus-presentation-old,116,657107,0.0-25.0-1.5,SS1619125619115,trial,NA,40,500,1651.6699999920093,images/stimuli/spore_stims/simple_20_A_a.gif,images/stimuli/spore_stims/simple_04_A_b.gif,forced_short,NA,8,simple_dissimilar,images/stimuli/spore_stims/simple_04_A_b.gif,NA,NA,NA,NA,NA
NA,2972.159999975702,survey-multi-choice,117,660081,0.0-26.0,SS1619125619115,math_question,NA,NA,NA,NA,NA,NA,NA,NA,NA,NA,NA,"{""Q0"":""5""}",[0],5,NA,NA
NA,null,html-keyboard-response,118,661305,0.0-27.0-0.0,SS1619125619115,NA,NA,null,NA,NA,NA,NA,NA,"<p><img src= images/blank.png width =""600"" height = ""600"" style=""position:fixed;top:50%; left:50%; transform: translate(-50%, -50%); border:5px solid black"">",NA,NA,NA,NA,NA,NA,NA,NA
NA,741.5299999993294,sequential-stimulus-presentation-old,119,662149,0.0-27.0-1.0,SS1619125619115,trial,NA,40,500,1241.5299999993294,images/stimuli/spore_stims/complex_16_A_b.gif,images/stimuli/spore_stims/complex_18_A_a.gif,forced_short,NA,9,complex_dissimilar,images/stimuli/spore_stims/complex_18_A_a.gif,NA,NA,NA,NA,NA
NA,null,html-keyboard-response,120,662963,0.0-27.0-0.1,SS1619125619115,NA,NA,null,NA,NA,NA,NA,NA,"<p><img src= images/blank.png width =""600"" height = ""600"" style=""position:fixed;top:50%; left:50%; transform: translate(-50%, -50%); border:5px solid black"">",NA,NA,NA,NA,NA,NA,NA,NA
NA,1296.5550000080839,sequential-stimulus-presentation-old,121,664761,0.0-27.0-1.1,SS1619125619115,trial,NA,40,500,1796.5550000080839,images/stimuli/spore_stims/complex_16_A_b.gif,images/stimuli/spore_stims/complex_18_A_a.gif,forced_short,NA,9,complex_dissimilar,images/stimuli/spore_stims/complex_16_A_b.gif,NA,NA,NA,NA,NA
NA,null,html-keyboard-response,122,665953,0.0-27.0-0.2,SS1619125619115,NA,NA,null,NA,NA,NA,NA,NA,"<p><img src= images/blank.png width =""600"" height = ""600"" style=""position:fixed;top:50%; left:50%; transform: translate(-50%, -50%); border:5px solid black"">",NA,NA,NA,NA,NA,NA,NA,NA
NA,3695.7650000113063,sequential-stimulus-presentation-old,123,670151,0.0-27.0-1.2,SS1619125619115,trial,NA,40,500,4195.765000011306,images/stimuli/spore_stims/complex_16_A_b.gif,images/stimuli/spore_stims/complex_18_A_a.gif,forced_short,NA,9,complex_dissimilar,images/stimuli/spore_stims/complex_18_A_a.gif,NA,NA,NA,NA,NA
NA,null,html-keyboard-response,124,670969,0.0-27.0-0.3,SS1619125619115,NA,NA,null,NA,NA,NA,NA,NA,"<p><img src= images/blank.png width =""600"" height = ""600"" style=""position:fixed;top:50%; left:50%; transform: translate(-50%, -50%); border:5px solid black"">",NA,NA,NA,NA,NA,NA,NA,NA
NA,533.5100000083912,sequential-stimulus-presentation-old,125,672005,0.0-27.0-1.3,SS1619125619115,trial,NA,40,500,1033.5100000083912,images/stimuli/spore_stims/complex_16_A_b.gif,images/stimuli/spore_stims/complex_18_A_a.gif,forced_short,NA,9,complex_dissimilar,images/stimuli/spore_stims/complex_18_A_a.gif,NA,NA,NA,NA,NA
NA,null,html-keyboard-response,126,673151,0.0-27.0-0.4,SS1619125619115,NA,NA,null,NA,NA,NA,NA,NA,"<p><img src= images/blank.png width =""600"" height = ""600"" style=""position:fixed;top:50%; left:50%; transform: translate(-50%, -50%); border:5px solid black"">",NA,NA,NA,NA,NA,NA,NA,NA
NA,3231.520000001183,sequential-stimulus-presentation-old,127,676887,0.0-27.0-1.4,SS1619125619115,trial,NA,40,500,3731.520000001183,images/stimuli/spore_stims/complex_16_A_b.gif,images/stimuli/spore_stims/complex_18_A_a.gif,forced_short,NA,9,complex_dissimilar,images/stimuli/spore_stims/complex_16_A_b.gif,NA,NA,NA,NA,NA
NA,3977.3299999942537,survey-multi-choice,128,680866,0.0-28.0,SS1619125619115,math_question,NA,NA,NA,NA,NA,NA,NA,NA,NA,NA,NA,"{""Q0"":""13""}",[0],13,NA,NA
NA,null,html-keyboard-response,129,682091,0.0-29.0-0.0,SS1619125619115,NA,NA,null,NA,NA,NA,NA,NA,"<p><img src= images/blank.png width =""600"" height = ""600"" style=""position:fixed;top:50%; left:50%; transform: translate(-50%, -50%); border:5px solid black"">",NA,NA,NA,NA,NA,NA,NA,NA
NA,384.5750000036787,sequential-stimulus-presentation-old,130,692486,0.0-29.0-1.0,SS1619125619115,trial,NA,40,500,884.5750000036787,images/stimuli/spore_stims/complex_12_A_b.gif,images/stimuli/spore_stims/complex_17_A_a.gif,forced_long,NA,10,complex_dissimilar,images/stimuli/spore_stims/complex_17_A_a.gif,NA,NA,NA,NA,NA
NA,null,html-keyboard-response,131,693487,0.0-29.0-0.1,SS1619125619115,NA,NA,null,NA,NA,NA,NA,NA,"<p><img src= images/blank.png width =""600"" height = ""600"" style=""position:fixed;top:50%; left:50%; transform: translate(-50%, -50%); border:5px solid black"">",NA,NA,NA,NA,NA,NA,NA,NA
NA,1045.4999999783468,sequential-stimulus-presentation-old,132,695036,0.0-29.0-1.1,SS1619125619115,trial,NA,40,500,1545.4999999783468,images/stimuli/spore_stims/complex_12_A_b.gif,images/stimuli/spore_stims/complex_17_A_a.gif,forced_long,NA,10,complex_dissimilar,images/stimuli/spore_stims/complex_17_A_a.gif,NA,NA,NA,NA,NA
NA,null,html-keyboard-response,133,695936,0.0-29.0-0.2,SS1619125619115,NA,NA,null,NA,NA,NA,NA,NA,"<p><img src= images/blank.png width =""600"" height = ""600"" style=""position:fixed;top:50%; left:50%; transform: translate(-50%, -50%); border:5px solid black"">",NA,NA,NA,NA,NA,NA,NA,NA
NA,780.4949999845121,sequential-stimulus-presentation-old,134,697220,0.0-29.0-1.2,SS1619125619115,trial,NA,40,500,1280.494999984512,images/stimuli/spore_stims/complex_12_A_b.gif,images/stimuli/spore_stims/complex_17_A_a.gif,forced_long,NA,10,complex_dissimilar,images/stimuli/spore_stims/complex_17_A_a.gif,NA,NA,NA,NA,NA
NA,null,html-keyboard-response,135,698295,0.0-29.0-0.3,SS1619125619115,NA,NA,null,NA,NA,NA,NA,NA,"<p><img src= images/blank.png width =""600"" height = ""600"" style=""position:fixed;top:50%; left:50%; transform: translate(-50%, -50%); border:5px solid black"">",NA,NA,NA,NA,NA,NA,NA,NA
NA,1867.5349999975879,sequential-stimulus-presentation-old,136,700666,0.0-29.0-1.3,SS1619125619115,trial,NA,40,500,2367.534999997588,images/stimuli/spore_stims/complex_12_A_b.gif,images/stimuli/spore_stims/complex_17_A_a.gif,forced_long,NA,10,complex_dissimilar,images/stimuli/spore_stims/complex_17_A_a.gif,NA,NA,NA,NA,NA
NA,4500.154999986989,survey-multi-choice,137,705168,0.0-30.0,SS1619125619115,math_question,NA,NA,NA,NA,NA,NA,NA,NA,NA,NA,NA,"{""Q0"":""10""}",[0],10,NA,NA
NA,null,html-keyboard-response,138,706311,0.0-31.0-0.0,SS1619125619115,NA,NA,null,NA,NA,NA,NA,NA,"<p><img src= images/blank.png width =""600"" height = ""600"" style=""position:fixed;top:50%; left:50%; transform: translate(-50%, -50%); border:5px solid black"">",NA,NA,NA,NA,NA,NA,NA,NA
NA,125.44000000343658,sequential-stimulus-presentation-old,139,706940,0.0-31.0-1.0,SS1619125619115,trial,NA,40,500,625.4400000034366,images/stimuli/spore_stims/simple_11_A_a.gif,images/stimuli/spore_stims/simple_10_A_b.gif,self_paced,NA,11,simple_dissimilar,images/stimuli/spore_stims/simple_10_A_b.gif,NA,NA,NA,NA,NA
NA,null,html-keyboard-response,140,708027,0.0-31.0-0.1,SS1619125619115,NA,NA,null,NA,NA,NA,NA,NA,"<p><img src= images/blank.png width =""600"" height = ""600"" style=""position:fixed;top:50%; left:50%; transform: translate(-50%, -50%); border:5px solid black"">",NA,NA,NA,NA,NA,NA,NA,NA
NA,52.59499998646788,sequential-stimulus-presentation-old,141,708583,0.0-31.0-1.1,SS1619125619115,trial,NA,40,500,552.5949999864679,images/stimuli/spore_stims/simple_11_A_a.gif,images/stimuli/spore_stims/simple_10_A_b.gif,self_paced,NA,11,simple_dissimilar,images/stimuli/spore_stims/simple_10_A_b.gif,NA,NA,NA,NA,NA
NA,null,html-keyboard-response,142,709582,0.0-31.0-0.2,SS1619125619115,NA,NA,null,NA,NA,NA,NA,NA,"<p><img src= images/blank.png width =""600"" height = ""600"" style=""position:fixed;top:50%; left:50%; transform: translate(-50%, -50%); border:5px solid black"">",NA,NA,NA,NA,NA,NA,NA,NA
NA,26.389999984530732,sequential-stimulus-presentation-old,143,710112,0.0-31.0-1.2,SS1619125619115,trial,NA,40,500,526.3899999845307,images/stimuli/spore_stims/simple_11_A_a.gif,images/stimuli/spore_stims/simple_10_A_b.gif,self_paced,NA,11,simple_dissimilar,images/stimuli/spore_stims/simple_10_A_b.gif,NA,NA,NA,NA,NA
NA,null,html-keyboard-response,144,711205,0.0-31.0-0.3,SS1619125619115,NA,NA,null,NA,NA,NA,NA,NA,"<p><img src= images/blank.png width =""600"" height = ""600"" style=""position:fixed;top:50%; left:50%; transform: translate(-50%, -50%); border:5px solid black"">",NA,NA,NA,NA,NA,NA,NA,NA
NA,23.50999999907799,sequential-stimulus-presentation-old,145,711732,0.0-31.0-1.3,SS1619125619115,trial,NA,40,500,523.509999999078,images/stimuli/spore_stims/simple_11_A_a.gif,images/stimuli/spore_stims/simple_10_A_b.gif,self_paced,NA,11,simple_dissimilar,images/stimuli/spore_stims/simple_11_A_a.gif,NA,NA,NA,NA,NA
"[{""page_index"":0,""viewing_time"":6814.320000004955}]",6814.470000012079,instructions,146,718548,0.0-32.0,SS1619125619115,instructions,NA,NA,NA,NA,NA,NA,NA,NA,NA,NA,NA,NA,NA,NA,NA,NA
NA,7760.725000000093,survey-likert,147,726311,0.0-33.0,SS1619125619115,similarity_question,NA,NA,NA,NA,NA,NA,NA,NA,NA,NA,NA,"{""Q0"":2}",[0],NA,images/stimuli/spore_stims/complex_15_A_b.gif,images/stimuli/spore_stims/complex_05_A_a.gif
NA,2219.104999996489,survey-likert,148,728533,0.0-34.0,SS1619125619115,similarity_question,NA,NA,NA,NA,NA,NA,NA,NA,NA,NA,NA,"{""Q0"":5}",[0],NA,images/stimuli/spore_stims/simple_16_A_b.gif,images/stimuli/spore_stims/simple_17_A_a.gif
NA,4652.390000002924,survey-likert,149,733188,0.0-35.0,SS1619125619115,similarity_question,NA,NA,NA,NA,NA,NA,NA,NA,NA,NA,NA,"{""Q0"":5}",[0],NA,images/stimuli/spore_stims/complex_07_A_b.gif,images/stimuli/spore_stims/complex_13_A_a.gif
NA,2330.39000001736,survey-likert,150,735521,0.0-36.0,SS1619125619115,similarity_question,NA,NA,NA,NA,NA,NA,NA,NA,NA,NA,NA,"{""Q0"":4}",[0],NA,images/stimuli/spore_stims/complex_19_A_a.gif,images/stimuli/spore_stims/complex_08_A_b.gif
NA,4291.540000005625,survey-likert,151,739815,0.0-37.0,SS1619125619115,similarity_question,NA,NA,NA,NA,NA,NA,NA,NA,NA,NA,NA,"{""Q0"":3}",[0],NA,images/stimuli/spore_stims/simple_04_A_b.gif,images/stimuli/spore_stims/simple_20_A_a.gif
NA,3032.309999980498,survey-likert,152,742850,0.0-38.0,SS1619125619115,similarity_question,NA,NA,NA,NA,NA,NA,NA,NA,NA,NA,NA,"{""Q0"":3}",[0],NA,images/stimuli/spore_stims/complex_12_A_b.gif,images/stimuli/spore_stims/complex_17_A_a.gif
NA,2231.0949999955483,survey-likert,153,745084,0.0-39.0,SS1619125619115,similarity_question,NA,NA,NA,NA,NA,NA,NA,NA,NA,NA,NA,"{""Q0"":4}",[0],NA,images/stimuli/spore_stims/simple_02_A_a.gif,images/stimuli/spore_stims/simple_19_A_b.gif
NA,2836.509999993723,survey-likert,154,747923,0.0-40.0,SS1619125619115,similarity_question,NA,NA,NA,NA,NA,NA,NA,NA,NA,NA,NA,"{""Q0"":4}",[0],NA,images/stimuli/spore_stims/complex_16_A_b.gif,images/stimuli/spore_stims/complex_18_A_a.gif
NA,3068.329999980051,survey-likert,155,750994,0.0-41.0,SS1619125619115,similarity_question,NA,NA,NA,NA,NA,NA,NA,NA,NA,NA,NA,"{""Q0"":6}",[0],NA,images/stimuli/spore_stims/simple_02_A_b.gif,images/stimuli/spore_stims/simple_05_A_a.gif
NA,2638.3700000005774,survey-likert,156,753635,0.0-42.0,SS1619125619115,similarity_question,NA,NA,NA,NA,NA,NA,NA,NA,NA,NA,NA,"{""Q0"":4}",[0],NA,images/stimuli/spore_stims/complex_03_A_b.gif,images/stimuli/spore_stims/complex_14_A_a.gif
NA,2070.705000020098,survey-likert,157,755708,0.0-43.0,SS1619125619115,similarity_question,NA,NA,NA,NA,NA,NA,NA,NA,NA,NA,NA,"{""Q0"":2}",[0],NA,images/stimuli/spore_stims/simple_10_A_b.gif,images/stimuli/spore_stims/simple_11_A_a.gif
NA,2992.324999999255,survey-likert,158,758703,0.0-44.0,SS1619125619115,similarity_question,NA,NA,NA,NA,NA,NA,NA,NA,NA,NA,NA,"{""Q0"":2}",[0],NA,images/stimuli/spore_stims/simple_15_A_a.gif,images/stimuli/spore_stims/simple_03_A_b.gif
"[{""page_index"":0,""viewing_time"":8234.480000013718}]",8234.62999999174,instructions,159,766940,0.0-45.0,SS1619125619115,instructions,NA,NA,NA,NA,NA,NA,NA,NA,NA,NA,NA,NA,NA,NA,NA,NA
NA,3944.794999988517,survey-likert,160,770887,0.0-46.0,SS1619125619115,NA,NA,NA,NA,NA,NA,NA,NA,images/stimuli/spore_stims/complex_08_A_b.gif,NA,NA,NA,"{""Q0"":5}",[0],NA,NA,NA
NA,2934.1199999907985,survey-likert,161,773824,0.0-47.0,SS1619125619115,NA,NA,NA,NA,NA,NA,NA,NA,images/stimuli/spore_stims/complex_12_A_b.gif,NA,NA,NA,"{""Q0"":6}",[0],NA,NA,NA
NA,1768.450000003213,survey-likert,162,775595,0.0-48.0,SS1619125619115,NA,NA,NA,NA,NA,NA,NA,NA,images/stimuli/spore_stims/simple_02_A_b.gif,NA,NA,NA,"{""Q0"":0}",[0],NA,NA,NA
NA,2065.340000001015,survey-likert,163,777663,0.0-49.0,SS1619125619115,NA,NA,NA,NA,NA,NA,NA,NA,images/stimuli/spore_stims/simple_11_A_a.gif,NA,NA,NA,"{""Q0"":1}",[0],NA,NA,NA
NA,2866.634999983944,survey-likert,164,780532,0.0-50.0,SS1619125619115,NA,NA,NA,NA,NA,NA,NA,NA,images/stimuli/spore_stims/simple_04_A_b.gif,NA,NA,NA,"{""Q0"":0}",[0],NA,NA,NA
NA,2133.124999993015,survey-likert,165,782668,0.0-51.0,SS1619125619115,NA,NA,NA,NA,NA,NA,NA,NA,images/stimuli/spore_stims/complex_14_A_a.gif,NA,NA,NA,"{""Q0"":5}",[0],NA,NA,NA
NA,2143.244999984745,survey-likert,166,784814,0.0-52.0,SS1619125619115,NA,NA,NA,NA,NA,NA,NA,NA,images/stimuli/spore_stims/simple_03_A_b.gif,NA,NA,NA,"{""Q0"":0}",[0],NA,NA,NA
NA,2364.53000002075,survey-likert,167,787181,0.0-53.0,SS1619125619115,NA,NA,NA,NA,NA,NA,NA,NA,images/stimuli/spore_stims/complex_15_A_b.gif,NA,NA,NA,"{""Q0"":5}",[0],NA,NA,NA
NA,1686.069999996107,survey-likert,168,788870,0.0-54.0,SS1619125619115,NA,NA,NA,NA,NA,NA,NA,NA,images/stimuli/spore_stims/simple_16_A_b.gif,NA,NA,NA,"{""Q0"":0}",[0],NA,NA,NA
NA,2129.1249999776483,survey-likert,169,791002,0.0-55.0,SS1619125619115,NA,NA,NA,NA,NA,NA,NA,NA,images/stimuli/spore_stims/simple_19_A_b.gif,NA,NA,NA,"{""Q0"":2}",[0],NA,NA,NA
NA,2849.2799999949057,survey-likert,170,793854,0.0-56.0,SS1619125619115,NA,NA,NA,NA,NA,NA,NA,NA,images/stimuli/spore_stims/complex_18_A_a.gif,NA,NA,NA,"{""Q0"":6}",[0],NA,NA,NA
NA,2477.2249999805354,survey-likert,171,796334,0.0-57.0,SS1619125619115,NA,NA,NA,NA,NA,NA,NA,NA,images/stimuli/spore_stims/complex_07_A_b.gif,NA,NA,NA,"{""Q0"":6}",[0],NA,NA,NA
"[{""page_index"":0,""viewing_time"":2745.324999996228}]",2745.4800000123214,instructions,172,799082,0.0-58.0,SS1619125619115,instructions,NA,NA,NA,NA,NA,NA,NA,NA,NA,NA,NA,NA,NA,NA,NA,NA
NA,2814.125000004424,demog-age,173,801899,0.0-59.0,SS1619125619115,NA,NA,NA,NA,NA,NA,NA,NA,NA,NA,NA,NA,"{""age"":""19""}",NA,NA,NA,NA
NA,4949.259999993956,demog-ethnic-US,174,806853,0.0-60.0,SS1619125619115,NA,NA,NA,NA,NA,NA,NA,NA,NA,NA,NA,NA,"{""ethnicity"":[""White""]}",[0],NA,NA,NA
NA,12090.844999998808,demog-gender-and-education,175,818947,0.0-61.0,SS1619125619115,NA,NA,NA,NA,NA,NA,NA,NA,NA,NA,NA,NA,"{""gender"":""Male"",""education"":""Some high school""}","[0,1]",NA,NA,NA
NA,25661.7350000015,survey-text,176,844611,0.0-62.0,SS1619125619115,feedback,NA,NA,NA,NA,NA,NA,NA,NA,NA,NA,NA,"{""Q0"":""I couldn't enter experiment at first but I managed to enter.""}",NA,NA,NA,NA
"[{""page_index"":0,""viewing_time"":1954.360000003362}]",1954.5000000216532,instructions,177,846568,0.0-63.0,SS1619125619115,instructions,NA,NA,NA,NA,NA,NA,NA,NA,NA,NA,NA,NA,NA,NA,NA,NA
"[{""page_index"":0,""viewing_time"":1077}]",1077,instructions,0,1079,0.0-0.0,SS1619125642562,NA,NA,NA,NA,NA,NA,NA,NA,NA,NA,NA,NA,NA,NA,NA,NA,NA
"[{""page_index"":0,""viewing_time"":31017},{""page_index"":1,""viewing_time"":42006}]",73023,instructions,1,76108,0.0-1.0,SS1619125642562,instructions,NA,NA,NA,NA,NA,NA,NA,NA,NA,NA,NA,NA,NA,NA,NA,NA
NA,22256,sequential-stimulus-presentation-old,2,98877,0.0-2.0,SS1619125642562,NA,NA,40,500,22756,null,null,self_paced,NA,NA,NA,NA,NA,NA,NA,NA,NA
NA,11815,sequential-stimulus-presentation-old,3,111206,0.0-3.0,SS1619125642562,NA,NA,40,500,12315,null,null,self_paced,NA,NA,NA,NA,NA,NA,NA,NA,NA
"[{""page_index"":0,""viewing_time"":21972}]",21972,instructions,4,133179,0.0-4.0,SS1619125642562,instructions,NA,NA,NA,NA,NA,NA,NA,NA,NA,NA,NA,NA,NA,NA,NA,NA
NA,3493,sequential-stimulus-presentation-old,5,146678,0.0-5.0,SS1619125642562,NA,NA,40,500,3993,null,null,forced_long,NA,NA,NA,NA,NA,NA,NA,NA,NA
NA,15050,sequential-stimulus-presentation-old,6,161846,0.0-6.0,SS1619125642562,NA,NA,40,500,15550,null,null,forced_long,NA,NA,NA,NA,NA,NA,NA,NA,NA
"[{""page_index"":0,""viewing_time"":2310}]",2310,instructions,7,164156,0.0-7.0,SS1619125642562,instructions,NA,NA,NA,NA,NA,NA,NA,NA,NA,NA,NA,NA,NA,NA,NA,NA
"[{""page_index"":0,""viewing_time"":12301},{""page_index"":1,""viewing_time"":18234},{""page_index"":2,""viewing_time"":31737},{""page_index"":3,""viewing_time"":1387},{""page_index"":4,""viewing_time"":1635}]",65294,instructions,8,229451,0.0-8.0,SS1619125642562,instructions,NA,NA,NA,NA,NA,NA,NA,NA,NA,NA,NA,NA,NA,NA,NA,NA
NA,null,html-keyboard-response,9,230626,0.0-9.0-0.0,SS1619125642562,NA,NA,null,NA,NA,NA,NA,NA,"<p><img src= images/blank.png width =""600"" height = ""600"" style=""position:fixed;top:50%; left:50%; transform: translate(-50%, -50%); border:5px solid black"">",NA,NA,NA,NA,NA,NA,NA,NA
NA,644,sequential-stimulus-presentation-old,10,241286,0.0-9.0-1.0,SS1619125642562,trial,NA,40,500,1144,images/stimuli/spore_stims/complex_20_A_a.gif,images/stimuli/spore_stims/complex_01_A_b.gif,forced_long,NA,0,complex_dissimilar,images/stimuli/spore_stims/complex_01_A_b.gif,NA,NA,NA,NA,NA
NA,null,html-keyboard-response,11,242195,0.0-9.0-0.1,SS1619125642562,NA,NA,null,NA,NA,NA,NA,NA,"<p><img src= images/blank.png width =""600"" height = ""600"" style=""position:fixed;top:50%; left:50%; transform: translate(-50%, -50%); border:5px solid black"">",NA,NA,NA,NA,NA,NA,NA,NA
NA,2412,sequential-stimulus-presentation-old,12,245117,0.0-9.0-1.1,SS1619125642562,trial,NA,40,500,2912,images/stimuli/spore_stims/complex_20_A_a.gif,images/stimuli/spore_stims/complex_01_A_b.gif,forced_long,NA,0,complex_dissimilar,images/stimuli/spore_stims/complex_20_A_a.gif,NA,NA,NA,NA,NA
NA,null,html-keyboard-response,13,245946,0.0-9.0-0.2,SS1619125642562,NA,NA,null,NA,NA,NA,NA,NA,"<p><img src= images/blank.png width =""600"" height = ""600"" style=""position:fixed;top:50%; left:50%; transform: translate(-50%, -50%); border:5px solid black"">",NA,NA,NA,NA,NA,NA,NA,NA
NA,82,sequential-stimulus-presentation-old,14,246542,0.0-9.0-1.2,SS1619125642562,trial,NA,40,500,582,images/stimuli/spore_stims/complex_20_A_a.gif,images/stimuli/spore_stims/complex_01_A_b.gif,forced_long,NA,0,complex_dissimilar,images/stimuli/spore_stims/complex_01_A_b.gif,NA,NA,NA,NA,NA
NA,null,html-keyboard-response,15,247525,0.0-9.0-0.3,SS1619125642562,NA,NA,null,NA,NA,NA,NA,NA,"<p><img src= images/blank.png width =""600"" height = ""600"" style=""position:fixed;top:50%; left:50%; transform: translate(-50%, -50%); border:5px solid black"">",NA,NA,NA,NA,NA,NA,NA,NA
NA,9063,sequential-stimulus-presentation-old,16,257109,0.0-9.0-1.3,SS1619125642562,trial,NA,40,500,9563,images/stimuli/spore_stims/complex_20_A_a.gif,images/stimuli/spore_stims/complex_01_A_b.gif,forced_long,NA,0,complex_dissimilar,images/stimuli/spore_stims/complex_01_A_b.gif,NA,NA,NA,NA,NA
NA,null,html-keyboard-response,17,258265,0.0-9.0-0.4,SS1619125642562,NA,NA,null,NA,NA,NA,NA,NA,"<p><img src= images/blank.png width =""600"" height = ""600"" style=""position:fixed;top:50%; left:50%; transform: translate(-50%, -50%); border:5px solid black"">",NA,NA,NA,NA,NA,NA,NA,NA
NA,173,sequential-stimulus-presentation-old,18,258949,0.0-9.0-1.4,SS1619125642562,trial,NA,40,500,673,images/stimuli/spore_stims/complex_20_A_a.gif,images/stimuli/spore_stims/complex_01_A_b.gif,forced_long,NA,0,complex_dissimilar,images/stimuli/spore_stims/complex_01_A_b.gif,NA,NA,NA,NA,NA
NA,2788,survey-multi-choice,19,261738,0.0-10.0,SS1619125642562,math_question,NA,NA,NA,NA,NA,NA,NA,NA,NA,NA,NA,"{""Q0"":""11""}",[0],11,NA,NA
NA,null,html-keyboard-response,20,262956,0.0-11.0-0.0,SS1619125642562,NA,NA,null,NA,NA,NA,NA,NA,"<p><img src= images/blank.png width =""600"" height = ""600"" style=""position:fixed;top:50%; left:50%; transform: translate(-50%, -50%); border:5px solid black"">",NA,NA,NA,NA,NA,NA,NA,NA
NA,1146,sequential-stimulus-presentation-old,21,264622,0.0-11.0-1.0,SS1619125642562,trial,NA,40,500,1646,images/stimuli/spore_stims/complex_17_A_b.gif,images/stimuli/spore_stims/complex_11_A_a.gif,self_paced,NA,1,complex_dissimilar,images/stimuli/spore_stims/complex_11_A_a.gif,NA,NA,NA,NA,NA
NA,null,html-keyboard-response,22,265655,0.0-11.0-0.1,SS1619125642562,NA,NA,null,NA,NA,NA,NA,NA,"<p><img src= images/blank.png width =""600"" height = ""600"" style=""position:fixed;top:50%; left:50%; transform: translate(-50%, -50%); border:5px solid black"">",NA,NA,NA,NA,NA,NA,NA,NA
NA,213,sequential-stimulus-presentation-old,23,266389,0.0-11.0-1.1,SS1619125642562,trial,NA,40,500,713,images/stimuli/spore_stims/complex_17_A_b.gif,images/stimuli/spore_stims/complex_11_A_a.gif,self_paced,NA,1,complex_dissimilar,images/stimuli/spore_stims/complex_11_A_a.gif,NA,NA,NA,NA,NA
NA,null,html-keyboard-response,24,267275,0.0-11.0-0.2,SS1619125642562,NA,NA,null,NA,NA,NA,NA,NA,"<p><img src= images/blank.png width =""600"" height = ""600"" style=""position:fixed;top:50%; left:50%; transform: translate(-50%, -50%); border:5px solid black"">",NA,NA,NA,NA,NA,NA,NA,NA
NA,342,sequential-stimulus-presentation-old,25,268128,0.0-11.0-1.2,SS1619125642562,trial,NA,40,500,842,images/stimuli/spore_stims/complex_17_A_b.gif,images/stimuli/spore_stims/complex_11_A_a.gif,self_paced,NA,1,complex_dissimilar,images/stimuli/spore_stims/complex_11_A_a.gif,NA,NA,NA,NA,NA
NA,null,html-keyboard-response,26,268945,0.0-11.0-0.3,SS1619125642562,NA,NA,null,NA,NA,NA,NA,NA,"<p><img src= images/blank.png width =""600"" height = ""600"" style=""position:fixed;top:50%; left:50%; transform: translate(-50%, -50%); border:5px solid black"">",NA,NA,NA,NA,NA,NA,NA,NA
NA,37,sequential-stimulus-presentation-old,27,269503,0.0-11.0-1.3,SS1619125642562,trial,NA,40,500,537,images/stimuli/spore_stims/complex_17_A_b.gif,images/stimuli/spore_stims/complex_11_A_a.gif,self_paced,NA,1,complex_dissimilar,images/stimuli/spore_stims/complex_17_A_b.gif,NA,NA,NA,NA,NA
NA,null,html-keyboard-response,28,270386,0.0-11.0-0.4,SS1619125642562,NA,NA,null,NA,NA,NA,NA,NA,"<p><img src= images/blank.png width =""600"" height = ""600"" style=""position:fixed;top:50%; left:50%; transform: translate(-50%, -50%); border:5px solid black"">",NA,NA,NA,NA,NA,NA,NA,NA
NA,2597,sequential-stimulus-presentation-old,29,273502,0.0-11.0-1.4,SS1619125642562,trial,NA,40,500,3097,images/stimuli/spore_stims/complex_17_A_b.gif,images/stimuli/spore_stims/complex_11_A_a.gif,self_paced,NA,1,complex_dissimilar,images/stimuli/spore_stims/complex_11_A_a.gif,NA,NA,NA,NA,NA
NA,null,html-keyboard-response,30,274606,0.0-11.0-0.5,SS1619125642562,NA,NA,null,NA,NA,NA,NA,NA,"<p><img src= images/blank.png width =""600"" height = ""600"" style=""position:fixed;top:50%; left:50%; transform: translate(-50%, -50%); border:5px solid black"">",NA,NA,NA,NA,NA,NA,NA,NA
NA,4448,sequential-stimulus-presentation-old,31,279573,0.0-11.0-1.5,SS1619125642562,trial,NA,40,500,4948,images/stimuli/spore_stims/complex_17_A_b.gif,images/stimuli/spore_stims/complex_11_A_a.gif,self_paced,NA,1,complex_dissimilar,images/stimuli/spore_stims/complex_17_A_b.gif,NA,NA,NA,NA,NA
NA,1700,survey-multi-choice,32,281277,0.0-12.0,SS1619125642562,math_question,NA,NA,NA,NA,NA,NA,NA,NA,NA,NA,NA,"{""Q0"":""9""}",[0],9,NA,NA
NA,null,html-keyboard-response,33,282255,0.0-13.0-0.0,SS1619125642562,NA,NA,null,NA,NA,NA,NA,NA,"<p><img src= images/blank.png width =""600"" height = ""600"" style=""position:fixed;top:50%; left:50%; transform: translate(-50%, -50%); border:5px solid black"">",NA,NA,NA,NA,NA,NA,NA,NA
NA,1644,sequential-stimulus-presentation-old,34,284406,0.0-13.0-1.0,SS1619125642562,trial,NA,40,500,2144,images/stimuli/spore_stims/complex_04_A_a.gif,images/stimuli/spore_stims/complex_06_A_b.gif,self_paced,NA,2,complex_dissimilar,images/stimuli/spore_stims/complex_06_A_b.gif,NA,NA,NA,NA,NA
NA,null,html-keyboard-response,35,285641,0.0-13.0-0.1,SS1619125642562,NA,NA,null,NA,NA,NA,NA,NA,"<p><img src= images/blank.png width =""600"" height = ""600"" style=""position:fixed;top:50%; left:50%; transform: translate(-50%, -50%); border:5px solid black"">",NA,NA,NA,NA,NA,NA,NA,NA
NA,22330,sequential-stimulus-presentation-old,36,308485,0.0-13.0-1.1,SS1619125642562,trial,NA,40,500,22830,images/stimuli/spore_stims/complex_04_A_a.gif,images/stimuli/spore_stims/complex_06_A_b.gif,self_paced,NA,2,complex_dissimilar,images/stimuli/spore_stims/complex_06_A_b.gif,NA,NA,NA,NA,NA
NA,null,html-keyboard-response,37,309355,0.0-13.0-0.2,SS1619125642562,NA,NA,null,NA,NA,NA,NA,NA,"<p><img src= images/blank.png width =""600"" height = ""600"" style=""position:fixed;top:50%; left:50%; transform: translate(-50%, -50%); border:5px solid black"">",NA,NA,NA,NA,NA,NA,NA,NA
NA,14236,sequential-stimulus-presentation-old,38,324101,0.0-13.0-1.2,SS1619125642562,trial,NA,40,500,14736,images/stimuli/spore_stims/complex_04_A_a.gif,images/stimuli/spore_stims/complex_06_A_b.gif,self_paced,NA,2,complex_dissimilar,images/stimuli/spore_stims/complex_06_A_b.gif,NA,NA,NA,NA,NA
NA,null,html-keyboard-response,39,325155,0.0-13.0-0.3,SS1619125642562,NA,NA,null,NA,NA,NA,NA,NA,"<p><img src= images/blank.png width =""600"" height = ""600"" style=""position:fixed;top:50%; left:50%; transform: translate(-50%, -50%); border:5px solid black"">",NA,NA,NA,NA,NA,NA,NA,NA
NA,8906,sequential-stimulus-presentation-old,40,334565,0.0-13.0-1.3,SS1619125642562,trial,NA,40,500,9406,images/stimuli/spore_stims/complex_04_A_a.gif,images/stimuli/spore_stims/complex_06_A_b.gif,self_paced,NA,2,complex_dissimilar,images/stimuli/spore_stims/complex_06_A_b.gif,NA,NA,NA,NA,NA
NA,null,html-keyboard-response,41,335596,0.0-13.0-0.4,SS1619125642562,NA,NA,null,NA,NA,NA,NA,NA,"<p><img src= images/blank.png width =""600"" height = ""600"" style=""position:fixed;top:50%; left:50%; transform: translate(-50%, -50%); border:5px solid black"">",NA,NA,NA,NA,NA,NA,NA,NA
NA,1034,sequential-stimulus-presentation-old,42,337150,0.0-13.0-1.4,SS1619125642562,trial,NA,40,500,1534,images/stimuli/spore_stims/complex_04_A_a.gif,images/stimuli/spore_stims/complex_06_A_b.gif,self_paced,NA,2,complex_dissimilar,images/stimuli/spore_stims/complex_06_A_b.gif,NA,NA,NA,NA,NA
NA,null,html-keyboard-response,43,338335,0.0-13.0-0.5,SS1619125642562,NA,NA,null,NA,NA,NA,NA,NA,"<p><img src= images/blank.png width =""600"" height = ""600"" style=""position:fixed;top:50%; left:50%; transform: translate(-50%, -50%); border:5px solid black"">",NA,NA,NA,NA,NA,NA,NA,NA
NA,2790,sequential-stimulus-presentation-old,44,341646,0.0-13.0-1.5,SS1619125642562,trial,NA,40,500,3290,images/stimuli/spore_stims/complex_04_A_a.gif,images/stimuli/spore_stims/complex_06_A_b.gif,self_paced,NA,2,complex_dissimilar,images/stimuli/spore_stims/complex_04_A_a.gif,NA,NA,NA,NA,NA
NA,1902,survey-multi-choice,45,343550,0.0-14.0,SS1619125642562,math_question,NA,NA,NA,NA,NA,NA,NA,NA,NA,NA,NA,"{""Q0"":""9""}",[0],9,NA,NA
NA,null,html-keyboard-response,46,344853,0.0-15.0-0.0,SS1619125642562,NA,NA,null,NA,NA,NA,NA,NA,"<p><img src= images/blank.png width =""600"" height = ""600"" style=""position:fixed;top:50%; left:50%; transform: translate(-50%, -50%); border:5px solid black"">",NA,NA,NA,NA,NA,NA,NA,NA
NA,612,sequential-stimulus-presentation-old,47,355478,0.0-15.0-1.0,SS1619125642562,trial,NA,40,500,1112,images/stimuli/spore_stims/simple_12_A_a.gif,images/stimuli/spore_stims/simple_20_A_b.gif,forced_long,NA,3,simple_dissimilar,images/stimuli/spore_stims/simple_20_A_b.gif,NA,NA,NA,NA,NA
NA,null,html-keyboard-response,48,356612,0.0-15.0-0.1,SS1619125642562,NA,NA,null,NA,NA,NA,NA,NA,"<p><img src= images/blank.png width =""600"" height = ""600"" style=""position:fixed;top:50%; left:50%; transform: translate(-50%, -50%); border:5px solid black"">",NA,NA,NA,NA,NA,NA,NA,NA
NA,977,sequential-stimulus-presentation-old,49,358101,0.0-15.0-1.1,SS1619125642562,trial,NA,40,500,1477,images/stimuli/spore_stims/simple_12_A_a.gif,images/stimuli/spore_stims/simple_20_A_b.gif,forced_long,NA,3,simple_dissimilar,images/stimuli/spore_stims/simple_20_A_b.gif,NA,NA,NA,NA,NA
NA,null,html-keyboard-response,50,359045,0.0-15.0-0.2,SS1619125642562,NA,NA,null,NA,NA,NA,NA,NA,"<p><img src= images/blank.png width =""600"" height = ""600"" style=""position:fixed;top:50%; left:50%; transform: translate(-50%, -50%); border:5px solid black"">",NA,NA,NA,NA,NA,NA,NA,NA
NA,2336,sequential-stimulus-presentation-old,51,361902,0.0-15.0-1.2,SS1619125642562,trial,NA,40,500,2836,images/stimuli/spore_stims/simple_12_A_a.gif,images/stimuli/spore_stims/simple_20_A_b.gif,forced_long,NA,3,simple_dissimilar,images/stimuli/spore_stims/simple_20_A_b.gif,NA,NA,NA,NA,NA
NA,null,html-keyboard-response,52,363065,0.0-15.0-0.3,SS1619125642562,NA,NA,null,NA,NA,NA,NA,NA,"<p><img src= images/blank.png width =""600"" height = ""600"" style=""position:fixed;top:50%; left:50%; transform: translate(-50%, -50%); border:5px solid black"">",NA,NA,NA,NA,NA,NA,NA,NA
NA,8884,sequential-stimulus-presentation-old,53,372470,0.0-15.0-1.3,SS1619125642562,trial,NA,40,500,9384,images/stimuli/spore_stims/simple_12_A_a.gif,images/stimuli/spore_stims/simple_20_A_b.gif,forced_long,NA,3,simple_dissimilar,images/stimuli/spore_stims/simple_12_A_a.gif,NA,NA,NA,NA,NA
NA,null,html-keyboard-response,54,373655,0.0-15.0-0.4,SS1619125642562,NA,NA,null,NA,NA,NA,NA,NA,"<p><img src= images/blank.png width =""600"" height = ""600"" style=""position:fixed;top:50%; left:50%; transform: translate(-50%, -50%); border:5px solid black"">",NA,NA,NA,NA,NA,NA,NA,NA
NA,6185,sequential-stimulus-presentation-old,55,380349,0.0-15.0-1.4,SS1619125642562,trial,NA,40,500,6685,images/stimuli/spore_stims/simple_12_A_a.gif,images/stimuli/spore_stims/simple_20_A_b.gif,forced_long,NA,3,simple_dissimilar,images/stimuli/spore_stims/simple_20_A_b.gif,NA,NA,NA,NA,NA
NA,null,html-keyboard-response,56,381565,0.0-15.0-0.5,SS1619125642562,NA,NA,null,NA,NA,NA,NA,NA,"<p><img src= images/blank.png width =""600"" height = ""600"" style=""position:fixed;top:50%; left:50%; transform: translate(-50%, -50%); border:5px solid black"">",NA,NA,NA,NA,NA,NA,NA,NA
NA,5616,sequential-stimulus-presentation-old,57,387702,0.0-15.0-1.5,SS1619125642562,trial,NA,40,500,6116,images/stimuli/spore_stims/simple_12_A_a.gif,images/stimuli/spore_stims/simple_20_A_b.gif,forced_long,NA,3,simple_dissimilar,images/stimuli/spore_stims/simple_12_A_a.gif,NA,NA,NA,NA,NA
NA,1805,survey-multi-choice,58,389507,0.0-16.0,SS1619125642562,math_question,NA,NA,NA,NA,NA,NA,NA,NA,NA,NA,NA,"{""Q0"":""7""}",[0],7,NA,NA
NA,null,html-keyboard-response,59,390785,0.0-17.0-0.0,SS1619125642562,NA,NA,null,NA,NA,NA,NA,NA,"<p><img src= images/blank.png width =""600"" height = ""600"" style=""position:fixed;top:50%; left:50%; transform: translate(-50%, -50%); border:5px solid black"">",NA,NA,NA,NA,NA,NA,NA,NA
NA,4477,sequential-stimulus-presentation-old,60,395782,0.0-17.0-1.0,SS1619125642562,trial,NA,40,500,4977,images/stimuli/spore_stims/simple_11_A_b.gif,images/stimuli/spore_stims/simple_18_A_a.gif,self_paced,NA,4,simple_dissimilar,images/stimuli/spore_stims/simple_18_A_a.gif,NA,NA,NA,NA,NA
NA,null,html-keyboard-response,61,396996,0.0-17.0-0.1,SS1619125642562,NA,NA,null,NA,NA,NA,NA,NA,"<p><img src= images/blank.png width =""600"" height = ""600"" style=""position:fixed;top:50%; left:50%; transform: translate(-50%, -50%); border:5px solid black"">",NA,NA,NA,NA,NA,NA,NA,NA
NA,378,sequential-stimulus-presentation-old,62,397894,0.0-17.0-1.1,SS1619125642562,trial,NA,40,500,878,images/stimuli/spore_stims/simple_11_A_b.gif,images/stimuli/spore_stims/simple_18_A_a.gif,self_paced,NA,4,simple_dissimilar,images/stimuli/spore_stims/simple_18_A_a.gif,NA,NA,NA,NA,NA
NA,null,html-keyboard-response,63,399119,0.0-17.0-0.2,SS1619125642562,NA,NA,null,NA,NA,NA,NA,NA,"<p><img src= images/blank.png width =""600"" height = ""600"" style=""position:fixed;top:50%; left:50%; transform: translate(-50%, -50%); border:5px solid black"">",NA,NA,NA,NA,NA,NA,NA,NA
NA,5104,sequential-stimulus-presentation-old,64,404743,0.0-17.0-1.2,SS1619125642562,trial,NA,40,500,5604,images/stimuli/spore_stims/simple_11_A_b.gif,images/stimuli/spore_stims/simple_18_A_a.gif,self_paced,NA,4,simple_dissimilar,images/stimuli/spore_stims/simple_18_A_a.gif,NA,NA,NA,NA,NA
NA,null,html-keyboard-response,65,405652,0.0-17.0-0.3,SS1619125642562,NA,NA,null,NA,NA,NA,NA,NA,"<p><img src= images/blank.png width =""600"" height = ""600"" style=""position:fixed;top:50%; left:50%; transform: translate(-50%, -50%); border:5px solid black"">",NA,NA,NA,NA,NA,NA,NA,NA
NA,2457,sequential-stimulus-presentation-old,66,408622,0.0-17.0-1.3,SS1619125642562,trial,NA,40,500,2957,images/stimuli/spore_stims/simple_11_A_b.gif,images/stimuli/spore_stims/simple_18_A_a.gif,self_paced,NA,4,simple_dissimilar,images/stimuli/spore_stims/simple_18_A_a.gif,NA,NA,NA,NA,NA
NA,1703,survey-multi-choice,67,410329,0.0-18.0,SS1619125642562,math_question,NA,NA,NA,NA,NA,NA,NA,NA,NA,NA,NA,"{""Q0"":""13""}",[0],13,NA,NA
NA,null,html-keyboard-response,68,411166,0.0-19.0-0.0,SS1619125642562,NA,NA,null,NA,NA,NA,NA,NA,"<p><img src= images/blank.png width =""600"" height = ""600"" style=""position:fixed;top:50%; left:50%; transform: translate(-50%, -50%); border:5px solid black"">",NA,NA,NA,NA,NA,NA,NA,NA
NA,13486,sequential-stimulus-presentation-old,69,434661,0.0-19.0-1.0,SS1619125642562,trial,NA,40,500,13986,images/stimuli/spore_stims/complex_20_A_b.gif,images/stimuli/spore_stims/complex_13_A_a.gif,forced_long,NA,5,complex_dissimilar,images/stimuli/spore_stims/complex_13_A_a.gif,NA,NA,NA,NA,NA
NA,null,html-keyboard-response,70,435735,0.0-19.0-0.1,SS1619125642562,NA,NA,null,NA,NA,NA,NA,NA,"<p><img src= images/blank.png width =""600"" height = ""600"" style=""position:fixed;top:50%; left:50%; transform: translate(-50%, -50%); border:5px solid black"">",NA,NA,NA,NA,NA,NA,NA,NA
NA,25597,sequential-stimulus-presentation-old,71,461854,0.0-19.0-1.1,SS1619125642562,trial,NA,40,500,26097,images/stimuli/spore_stims/complex_20_A_b.gif,images/stimuli/spore_stims/complex_13_A_a.gif,forced_long,NA,5,complex_dissimilar,images/stimuli/spore_stims/complex_13_A_a.gif,NA,NA,NA,NA,NA
NA,null,html-keyboard-response,72,463106,0.0-19.0-0.2,SS1619125642562,NA,NA,null,NA,NA,NA,NA,NA,"<p><img src= images/blank.png width =""600"" height = ""600"" style=""position:fixed;top:50%; left:50%; transform: translate(-50%, -50%); border:5px solid black"">",NA,NA,NA,NA,NA,NA,NA,NA
NA,3461,sequential-stimulus-presentation-old,73,467086,0.0-19.0-1.2,SS1619125642562,trial,NA,40,500,3961,images/stimuli/spore_stims/complex_20_A_b.gif,images/stimuli/spore_stims/complex_13_A_a.gif,forced_long,NA,5,complex_dissimilar,images/stimuli/spore_stims/complex_13_A_a.gif,NA,NA,NA,NA,NA
NA,null,html-keyboard-response,74,468386,0.0-19.0-0.3,SS1619125642562,NA,NA,null,NA,NA,NA,NA,NA,"<p><img src= images/blank.png width =""600"" height = ""600"" style=""position:fixed;top:50%; left:50%; transform: translate(-50%, -50%); border:5px solid black"">",NA,NA,NA,NA,NA,NA,NA,NA
NA,11532,sequential-stimulus-presentation-old,75,480437,0.0-19.0-1.3,SS1619125642562,trial,NA,40,500,12032,images/stimuli/spore_stims/complex_20_A_b.gif,images/stimuli/spore_stims/complex_13_A_a.gif,forced_long,NA,5,complex_dissimilar,images/stimuli/spore_stims/complex_20_A_b.gif,NA,NA,NA,NA,NA
NA,null,html-keyboard-response,76,481677,0.0-19.0-0.4,SS1619125642562,NA,NA,null,NA,NA,NA,NA,NA,"<p><img src= images/blank.png width =""600"" height = ""600"" style=""position:fixed;top:50%; left:50%; transform: translate(-50%, -50%); border:5px solid black"">",NA,NA,NA,NA,NA,NA,NA,NA
NA,11107,sequential-stimulus-presentation-old,77,493302,0.0-19.0-1.4,SS1619125642562,trial,NA,40,500,11607,images/stimuli/spore_stims/complex_20_A_b.gif,images/stimuli/spore_stims/complex_13_A_a.gif,forced_long,NA,5,complex_dissimilar,images/stimuli/spore_stims/complex_13_A_a.gif,NA,NA,NA,NA,NA
NA,2377,survey-multi-choice,78,495686,0.0-20.0,SS1619125642562,math_question,NA,NA,NA,NA,NA,NA,NA,NA,NA,NA,NA,"{""Q0"":""11""}",[0],11,NA,NA
NA,null,html-keyboard-response,79,496856,0.0-21.0-0.0,SS1619125642562,NA,NA,null,NA,NA,NA,NA,NA,"<p><img src= images/blank.png width =""600"" height = ""600"" style=""position:fixed;top:50%; left:50%; transform: translate(-50%, -50%); border:5px solid black"">",NA,NA,NA,NA,NA,NA,NA,NA
NA,901,sequential-stimulus-presentation-old,80,497878,0.0-21.0-1.0,SS1619125642562,trial,NA,40,500,1401,images/stimuli/spore_stims/complex_12_A_a.gif,images/stimuli/spore_stims/complex_16_A_b.gif,forced_short,NA,6,complex_dissimilar,images/stimuli/spore_stims/complex_16_A_b.gif,NA,NA,NA,NA,NA
NA,null,html-keyboard-response,81,498785,0.0-21.0-0.1,SS1619125642562,NA,NA,null,NA,NA,NA,NA,NA,"<p><img src= images/blank.png width =""600"" height = ""600"" style=""position:fixed;top:50%; left:50%; transform: translate(-50%, -50%); border:5px solid black"">",NA,NA,NA,NA,NA,NA,NA,NA
NA,6125,sequential-stimulus-presentation-old,82,505430,0.0-21.0-1.1,SS1619125642562,trial,NA,40,500,6625,images/stimuli/spore_stims/complex_12_A_a.gif,images/stimuli/spore_stims/complex_16_A_b.gif,forced_short,NA,6,complex_dissimilar,images/stimuli/spore_stims/complex_12_A_a.gif,NA,NA,NA,NA,NA
NA,null,html-keyboard-response,83,506526,0.0-21.0-0.2,SS1619125642562,NA,NA,null,NA,NA,NA,NA,NA,"<p><img src= images/blank.png width =""600"" height = ""600"" style=""position:fixed;top:50%; left:50%; transform: translate(-50%, -50%); border:5px solid black"">",NA,NA,NA,NA,NA,NA,NA,NA
NA,5985,sequential-stimulus-presentation-old,84,513031,0.0-21.0-1.2,SS1619125642562,trial,NA,40,500,6485,images/stimuli/spore_stims/complex_12_A_a.gif,images/stimuli/spore_stims/complex_16_A_b.gif,forced_short,NA,6,complex_dissimilar,images/stimuli/spore_stims/complex_16_A_b.gif,NA,NA,NA,NA,NA
NA,null,html-keyboard-response,85,513876,0.0-21.0-0.3,SS1619125642562,NA,NA,null,NA,NA,NA,NA,NA,"<p><img src= images/blank.png width =""600"" height = ""600"" style=""position:fixed;top:50%; left:50%; transform: translate(-50%, -50%); border:5px solid black"">",NA,NA,NA,NA,NA,NA,NA,NA
NA,5644,sequential-stimulus-presentation-old,86,520029,0.0-21.0-1.3,SS1619125642562,trial,NA,40,500,6144,images/stimuli/spore_stims/complex_12_A_a.gif,images/stimuli/spore_stims/complex_16_A_b.gif,forced_short,NA,6,complex_dissimilar,images/stimuli/spore_stims/complex_16_A_b.gif,NA,NA,NA,NA,NA
NA,null,html-keyboard-response,87,521086,0.0-21.0-0.4,SS1619125642562,NA,NA,null,NA,NA,NA,NA,NA,"<p><img src= images/blank.png width =""600"" height = ""600"" style=""position:fixed;top:50%; left:50%; transform: translate(-50%, -50%); border:5px solid black"">",NA,NA,NA,NA,NA,NA,NA,NA
NA,15609,sequential-stimulus-presentation-old,88,537215,0.0-21.0-1.4,SS1619125642562,trial,NA,40,500,16109,images/stimuli/spore_stims/complex_12_A_a.gif,images/stimuli/spore_stims/complex_16_A_b.gif,forced_short,NA,6,complex_dissimilar,images/stimuli/spore_stims/complex_16_A_b.gif,NA,NA,NA,NA,NA
NA,null,html-keyboard-response,89,538088,0.0-21.0-0.5,SS1619125642562,NA,NA,null,NA,NA,NA,NA,NA,"<p><img src= images/blank.png width =""600"" height = ""600"" style=""position:fixed;top:50%; left:50%; transform: translate(-50%, -50%); border:5px solid black"">",NA,NA,NA,NA,NA,NA,NA,NA
NA,4262,sequential-stimulus-presentation-old,90,542861,0.0-21.0-1.5,SS1619125642562,trial,NA,40,500,4762,images/stimuli/spore_stims/complex_12_A_a.gif,images/stimuli/spore_stims/complex_16_A_b.gif,forced_short,NA,6,complex_dissimilar,images/stimuli/spore_stims/complex_16_A_b.gif,NA,NA,NA,NA,NA
NA,2185,survey-multi-choice,91,545049,0.0-22.0,SS1619125642562,math_question,NA,NA,NA,NA,NA,NA,NA,NA,NA,NA,NA,"{""Q0"":""6""}",[0],6,NA,NA
NA,null,html-keyboard-response,92,546237,0.0-23.0-0.0,SS1619125642562,NA,NA,null,NA,NA,NA,NA,NA,"<p><img src= images/blank.png width =""600"" height = ""600"" style=""position:fixed;top:50%; left:50%; transform: translate(-50%, -50%); border:5px solid black"">",NA,NA,NA,NA,NA,NA,NA,NA
NA,5957,sequential-stimulus-presentation-old,93,552311,0.0-23.0-1.0,SS1619125642562,trial,NA,40,500,6457,images/stimuli/spore_stims/simple_02_A_a.gif,images/stimuli/spore_stims/simple_14_A_b.gif,forced_short,NA,7,simple_dissimilar,images/stimuli/spore_stims/simple_14_A_b.gif,NA,NA,NA,NA,NA
NA,null,html-keyboard-response,94,553611,0.0-23.0-0.1,SS1619125642562,NA,NA,null,NA,NA,NA,NA,NA,"<p><img src= images/blank.png width =""600"" height = ""600"" style=""position:fixed;top:50%; left:50%; transform: translate(-50%, -50%); border:5px solid black"">",NA,NA,NA,NA,NA,NA,NA,NA
NA,5087,sequential-stimulus-presentation-old,95,559222,0.0-23.0-1.1,SS1619125642562,trial,NA,40,500,5587,images/stimuli/spore_stims/simple_02_A_a.gif,images/stimuli/spore_stims/simple_14_A_b.gif,forced_short,NA,7,simple_dissimilar,images/stimuli/spore_stims/simple_02_A_a.gif,NA,NA,NA,NA,NA
NA,null,html-keyboard-response,96,560441,0.0-23.0-0.2,SS1619125642562,NA,NA,null,NA,NA,NA,NA,NA,"<p><img src= images/blank.png width =""600"" height = ""600"" style=""position:fixed;top:50%; left:50%; transform: translate(-50%, -50%); border:5px solid black"">",NA,NA,NA,NA,NA,NA,NA,NA
NA,14291,sequential-stimulus-presentation-old,97,575247,0.0-23.0-1.2,SS1619125642562,trial,NA,40,500,14791,images/stimuli/spore_stims/simple_02_A_a.gif,images/stimuli/spore_stims/simple_14_A_b.gif,forced_short,NA,7,simple_dissimilar,images/stimuli/spore_stims/simple_14_A_b.gif,NA,NA,NA,NA,NA
NA,null,html-keyboard-response,98,576428,0.0-23.0-0.3,SS1619125642562,NA,NA,null,NA,NA,NA,NA,NA,"<p><img src= images/blank.png width =""600"" height = ""600"" style=""position:fixed;top:50%; left:50%; transform: translate(-50%, -50%); border:5px solid black"">",NA,NA,NA,NA,NA,NA,NA,NA
NA,92,sequential-stimulus-presentation-old,99,577037,0.0-23.0-1.3,SS1619125642562,trial,NA,40,500,592,images/stimuli/spore_stims/simple_02_A_a.gif,images/stimuli/spore_stims/simple_14_A_b.gif,forced_short,NA,7,simple_dissimilar,images/stimuli/spore_stims/simple_14_A_b.gif,NA,NA,NA,NA,NA
NA,null,html-keyboard-response,100,578286,0.0-23.0-0.4,SS1619125642562,NA,NA,null,NA,NA,NA,NA,NA,"<p><img src= images/blank.png width =""600"" height = ""600"" style=""position:fixed;top:50%; left:50%; transform: translate(-50%, -50%); border:5px solid black"">",NA,NA,NA,NA,NA,NA,NA,NA
NA,712,sequential-stimulus-presentation-old,101,579517,0.0-23.0-1.4,SS1619125642562,trial,NA,40,500,1212,images/stimuli/spore_stims/simple_02_A_a.gif,images/stimuli/spore_stims/simple_14_A_b.gif,forced_short,NA,7,simple_dissimilar,images/stimuli/spore_stims/simple_02_A_a.gif,NA,NA,NA,NA,NA
NA,1970,survey-multi-choice,102,581492,0.0-24.0,SS1619125642562,math_question,NA,NA,NA,NA,NA,NA,NA,NA,NA,NA,NA,"{""Q0"":""10""}",[0],10,NA,NA
NA,null,html-keyboard-response,103,582655,0.0-25.0-0.0,SS1619125642562,NA,NA,null,NA,NA,NA,NA,NA,"<p><img src= images/blank.png width =""600"" height = ""600"" style=""position:fixed;top:50%; left:50%; transform: translate(-50%, -50%); border:5px solid black"">",NA,NA,NA,NA,NA,NA,NA,NA
NA,8849,sequential-stimulus-presentation-old,104,591615,0.0-25.0-1.0,SS1619125642562,trial,NA,40,500,9349,images/stimuli/spore_stims/complex_19_A_a.gif,images/stimuli/spore_stims/complex_14_A_b.gif,forced_short,NA,8,complex_dissimilar,images/stimuli/spore_stims/complex_14_A_b.gif,NA,NA,NA,NA,NA
NA,null,html-keyboard-response,105,592769,0.0-25.0-0.1,SS1619125642562,NA,NA,null,NA,NA,NA,NA,NA,"<p><img src= images/blank.png width =""600"" height = ""600"" style=""position:fixed;top:50%; left:50%; transform: translate(-50%, -50%); border:5px solid black"">",NA,NA,NA,NA,NA,NA,NA,NA
NA,562,sequential-stimulus-presentation-old,106,593837,0.0-25.0-1.1,SS1619125642562,trial,NA,40,500,1062,images/stimuli/spore_stims/complex_19_A_a.gif,images/stimuli/spore_stims/complex_14_A_b.gif,forced_short,NA,8,complex_dissimilar,images/stimuli/spore_stims/complex_19_A_a.gif,NA,NA,NA,NA,NA
NA,null,html-keyboard-response,107,595125,0.0-25.0-0.2,SS1619125642562,NA,NA,null,NA,NA,NA,NA,NA,"<p><img src= images/blank.png width =""600"" height = ""600"" style=""position:fixed;top:50%; left:50%; transform: translate(-50%, -50%); border:5px solid black"">",NA,NA,NA,NA,NA,NA,NA,NA
NA,185,sequential-stimulus-presentation-old,108,595831,0.0-25.0-1.2,SS1619125642562,trial,NA,40,500,685,images/stimuli/spore_stims/complex_19_A_a.gif,images/stimuli/spore_stims/complex_14_A_b.gif,forced_short,NA,8,complex_dissimilar,images/stimuli/spore_stims/complex_14_A_b.gif,NA,NA,NA,NA,NA
NA,null,html-keyboard-response,109,597016,0.0-25.0-0.3,SS1619125642562,NA,NA,null,NA,NA,NA,NA,NA,"<p><img src= images/blank.png width =""600"" height = ""600"" style=""position:fixed;top:50%; left:50%; transform: translate(-50%, -50%); border:5px solid black"">",NA,NA,NA,NA,NA,NA,NA,NA
NA,349,sequential-stimulus-presentation-old,110,597885,0.0-25.0-1.3,SS1619125642562,trial,NA,40,500,849,images/stimuli/spore_stims/complex_19_A_a.gif,images/stimuli/spore_stims/complex_14_A_b.gif,forced_short,NA,8,complex_dissimilar,images/stimuli/spore_stims/complex_19_A_a.gif,NA,NA,NA,NA,NA
NA,1388,survey-multi-choice,111,599278,0.0-26.0,SS1619125642562,math_question,NA,NA,NA,NA,NA,NA,NA,NA,NA,NA,NA,"{""Q0"":""8""}",[0],8,NA,NA
NA,null,html-keyboard-response,112,600335,0.0-27.0-0.0,SS1619125642562,NA,NA,null,NA,NA,NA,NA,NA,"<p><img src= images/blank.png width =""600"" height = ""600"" style=""position:fixed;top:50%; left:50%; transform: translate(-50%, -50%); border:5px solid black"">",NA,NA,NA,NA,NA,NA,NA,NA
NA,167,sequential-stimulus-presentation-old,113,610518,0.0-27.0-1.0,SS1619125642562,trial,NA,40,500,667,images/stimuli/spore_stims/simple_01_A_a.gif,images/stimuli/spore_stims/simple_18_A_b.gif,forced_long,NA,9,simple_dissimilar,images/stimuli/spore_stims/simple_18_A_b.gif,NA,NA,NA,NA,NA
NA,null,html-keyboard-response,114,611585,0.0-27.0-0.1,SS1619125642562,NA,NA,null,NA,NA,NA,NA,NA,"<p><img src= images/blank.png width =""600"" height = ""600"" style=""position:fixed;top:50%; left:50%; transform: translate(-50%, -50%); border:5px solid black"">",NA,NA,NA,NA,NA,NA,NA,NA
NA,508,sequential-stimulus-presentation-old,115,612613,0.0-27.0-1.1,SS1619125642562,trial,NA,40,500,1008,images/stimuli/spore_stims/simple_01_A_a.gif,images/stimuli/spore_stims/simple_18_A_b.gif,forced_long,NA,9,simple_dissimilar,images/stimuli/spore_stims/simple_18_A_b.gif,NA,NA,NA,NA,NA
NA,null,html-keyboard-response,116,613545,0.0-27.0-0.2,SS1619125642562,NA,NA,null,NA,NA,NA,NA,NA,"<p><img src= images/blank.png width =""600"" height = ""600"" style=""position:fixed;top:50%; left:50%; transform: translate(-50%, -50%); border:5px solid black"">",NA,NA,NA,NA,NA,NA,NA,NA
NA,14972,sequential-stimulus-presentation-old,117,629037,0.0-27.0-1.2,SS1619125642562,trial,NA,40,500,15472,images/stimuli/spore_stims/simple_01_A_a.gif,images/stimuli/spore_stims/simple_18_A_b.gif,forced_long,NA,9,simple_dissimilar,images/stimuli/spore_stims/simple_18_A_b.gif,NA,NA,NA,NA,NA
NA,null,html-keyboard-response,118,630236,0.0-27.0-0.3,SS1619125642562,NA,NA,null,NA,NA,NA,NA,NA,"<p><img src= images/blank.png width =""600"" height = ""600"" style=""position:fixed;top:50%; left:50%; transform: translate(-50%, -50%); border:5px solid black"">",NA,NA,NA,NA,NA,NA,NA,NA
NA,50,sequential-stimulus-presentation-old,119,630805,0.0-27.0-1.3,SS1619125642562,trial,NA,40,500,550,images/stimuli/spore_stims/simple_01_A_a.gif,images/stimuli/spore_stims/simple_18_A_b.gif,forced_long,NA,9,simple_dissimilar,images/stimuli/spore_stims/simple_01_A_a.gif,NA,NA,NA,NA,NA
NA,null,html-keyboard-response,120,631636,0.0-27.0-0.4,SS1619125642562,NA,NA,null,NA,NA,NA,NA,NA,"<p><img src= images/blank.png width =""600"" height = ""600"" style=""position:fixed;top:50%; left:50%; transform: translate(-50%, -50%); border:5px solid black"">",NA,NA,NA,NA,NA,NA,NA,NA
NA,291,sequential-stimulus-presentation-old,121,632445,0.0-27.0-1.4,SS1619125642562,trial,NA,40,500,791,images/stimuli/spore_stims/simple_01_A_a.gif,images/stimuli/spore_stims/simple_18_A_b.gif,forced_long,NA,9,simple_dissimilar,images/stimuli/spore_stims/simple_18_A_b.gif,NA,NA,NA,NA,NA
NA,null,html-keyboard-response,122,633356,0.0-27.0-0.5,SS1619125642562,NA,NA,null,NA,NA,NA,NA,NA,"<p><img src= images/blank.png width =""600"" height = ""600"" style=""position:fixed;top:50%; left:50%; transform: translate(-50%, -50%); border:5px solid black"">",NA,NA,NA,NA,NA,NA,NA,NA
NA,507,sequential-stimulus-presentation-old,123,634382,0.0-27.0-1.5,SS1619125642562,trial,NA,40,500,1007,images/stimuli/spore_stims/simple_01_A_a.gif,images/stimuli/spore_stims/simple_18_A_b.gif,forced_long,NA,9,simple_dissimilar,images/stimuli/spore_stims/simple_18_A_b.gif,NA,NA,NA,NA,NA
NA,1979,survey-multi-choice,124,636363,0.0-28.0,SS1619125642562,math_question,NA,NA,NA,NA,NA,NA,NA,NA,NA,NA,NA,"{""Q0"":""8""}",[0],8,NA,NA
NA,null,html-keyboard-response,125,637415,0.0-29.0-0.0,SS1619125642562,NA,NA,null,NA,NA,NA,NA,NA,"<p><img src= images/blank.png width =""600"" height = ""600"" style=""position:fixed;top:50%; left:50%; transform: translate(-50%, -50%); border:5px solid black"">",NA,NA,NA,NA,NA,NA,NA,NA
NA,1510,sequential-stimulus-presentation-old,126,639445,0.0-29.0-1.0,SS1619125642562,trial,NA,40,500,2010,images/stimuli/spore_stims/simple_07_A_b.gif,images/stimuli/spore_stims/simple_14_A_a.gif,self_paced,NA,10,simple_dissimilar,images/stimuli/spore_stims/simple_14_A_a.gif,NA,NA,NA,NA,NA
NA,null,html-keyboard-response,127,640716,0.0-29.0-0.1,SS1619125642562,NA,NA,null,NA,NA,NA,NA,NA,"<p><img src= images/blank.png width =""600"" height = ""600"" style=""position:fixed;top:50%; left:50%; transform: translate(-50%, -50%); border:5px solid black"">",NA,NA,NA,NA,NA,NA,NA,NA
NA,2228,sequential-stimulus-presentation-old,128,643454,0.0-29.0-1.1,SS1619125642562,trial,NA,40,500,2728,images/stimuli/spore_stims/simple_07_A_b.gif,images/stimuli/spore_stims/simple_14_A_a.gif,self_paced,NA,10,simple_dissimilar,images/stimuli/spore_stims/simple_14_A_a.gif,NA,NA,NA,NA,NA
NA,null,html-keyboard-response,129,644426,0.0-29.0-0.2,SS1619125642562,NA,NA,null,NA,NA,NA,NA,NA,"<p><img src= images/blank.png width =""600"" height = ""600"" style=""position:fixed;top:50%; left:50%; transform: translate(-50%, -50%); border:5px solid black"">",NA,NA,NA,NA,NA,NA,NA,NA
NA,420,sequential-stimulus-presentation-old,130,645365,0.0-29.0-1.2,SS1619125642562,trial,NA,40,500,920,images/stimuli/spore_stims/simple_07_A_b.gif,images/stimuli/spore_stims/simple_14_A_a.gif,self_paced,NA,10,simple_dissimilar,images/stimuli/spore_stims/simple_14_A_a.gif,NA,NA,NA,NA,NA
NA,null,html-keyboard-response,131,646436,0.0-29.0-0.3,SS1619125642562,NA,NA,null,NA,NA,NA,NA,NA,"<p><img src= images/blank.png width =""600"" height = ""600"" style=""position:fixed;top:50%; left:50%; transform: translate(-50%, -50%); border:5px solid black"">",NA,NA,NA,NA,NA,NA,NA,NA
NA,491,sequential-stimulus-presentation-old,132,647447,0.0-29.0-1.3,SS1619125642562,trial,NA,40,500,991,images/stimuli/spore_stims/simple_07_A_b.gif,images/stimuli/spore_stims/simple_14_A_a.gif,self_paced,NA,10,simple_dissimilar,images/stimuli/spore_stims/simple_14_A_a.gif,NA,NA,NA,NA,NA
NA,2044,survey-multi-choice,133,649500,0.0-30.0,SS1619125642562,math_question,NA,NA,NA,NA,NA,NA,NA,NA,NA,NA,NA,"{""Q0"":""4""}",[0],4,NA,NA
NA,null,html-keyboard-response,134,650365,0.0-31.0-0.0,SS1619125642562,NA,NA,null,NA,NA,NA,NA,NA,"<p><img src= images/blank.png width =""600"" height = ""600"" style=""position:fixed;top:50%; left:50%; transform: translate(-50%, -50%); border:5px solid black"">",NA,NA,NA,NA,NA,NA,NA,NA
NA,191,sequential-stimulus-presentation-old,135,650677,0.0-31.0-1.0,SS1619125642562,trial,NA,40,500,691,images/stimuli/spore_stims/simple_15_A_a.gif,images/stimuli/spore_stims/simple_02_A_b.gif,forced_short,NA,11,simple_dissimilar,images/stimuli/spore_stims/simple_02_A_b.gif,NA,NA,NA,NA,NA
NA,null,html-keyboard-response,136,651905,0.0-31.0-0.1,SS1619125642562,NA,NA,null,NA,NA,NA,NA,NA,"<p><img src= images/blank.png width =""600"" height = ""600"" style=""position:fixed;top:50%; left:50%; transform: translate(-50%, -50%); border:5px solid black"">",NA,NA,NA,NA,NA,NA,NA,NA
NA,116,sequential-stimulus-presentation-old,137,652541,0.0-31.0-1.1,SS1619125642562,trial,NA,40,500,616,images/stimuli/spore_stims/simple_15_A_a.gif,images/stimuli/spore_stims/simple_02_A_b.gif,forced_short,NA,11,simple_dissimilar,images/stimuli/spore_stims/simple_02_A_b.gif,NA,NA,NA,NA,NA
NA,null,html-keyboard-response,138,653465,0.0-31.0-0.2,SS1619125642562,NA,NA,null,NA,NA,NA,NA,NA,"<p><img src= images/blank.png width =""600"" height = ""600"" style=""position:fixed;top:50%; left:50%; transform: translate(-50%, -50%); border:5px solid black"">",NA,NA,NA,NA,NA,NA,NA,NA
NA,164,sequential-stimulus-presentation-old,139,654150,0.0-31.0-1.2,SS1619125642562,trial,NA,40,500,664,images/stimuli/spore_stims/simple_15_A_a.gif,images/stimuli/spore_stims/simple_02_A_b.gif,forced_short,NA,11,simple_dissimilar,images/stimuli/spore_stims/simple_02_A_b.gif,NA,NA,NA,NA,NA
NA,null,html-keyboard-response,140,655025,0.0-31.0-0.3,SS1619125642562,NA,NA,null,NA,NA,NA,NA,NA,"<p><img src= images/blank.png width =""600"" height = ""600"" style=""position:fixed;top:50%; left:50%; transform: translate(-50%, -50%); border:5px solid black"">",NA,NA,NA,NA,NA,NA,NA,NA
NA,637,sequential-stimulus-presentation-old,141,656182,0.0-31.0-1.3,SS1619125642562,trial,NA,40,500,1137,images/stimuli/spore_stims/simple_15_A_a.gif,images/stimuli/spore_stims/simple_02_A_b.gif,forced_short,NA,11,simple_dissimilar,images/stimuli/spore_stims/simple_02_A_b.gif,NA,NA,NA,NA,NA
NA,null,html-keyboard-response,142,657125,0.0-31.0-0.4,SS1619125642562,NA,NA,null,NA,NA,NA,NA,NA,"<p><img src= images/blank.png width =""600"" height = ""600"" style=""position:fixed;top:50%; left:50%; transform: translate(-50%, -50%); border:5px solid black"">",NA,NA,NA,NA,NA,NA,NA,NA
NA,382,sequential-stimulus-presentation-old,143,658023,0.0-31.0-1.4,SS1619125642562,trial,NA,40,500,882,images/stimuli/spore_stims/simple_15_A_a.gif,images/stimuli/spore_stims/simple_02_A_b.gif,forced_short,NA,11,simple_dissimilar,images/stimuli/spore_stims/simple_15_A_a.gif,NA,NA,NA,NA,NA
"[{""page_index"":0,""viewing_time"":11839}]",11839,instructions,144,669871,0.0-32.0,SS1619125642562,instructions,NA,NA,NA,NA,NA,NA,NA,NA,NA,NA,NA,NA,NA,NA,NA,NA
NA,33291,survey-likert,145,703167,0.0-33.0,SS1619125642562,similarity_question,NA,NA,NA,NA,NA,NA,NA,NA,NA,NA,NA,"{""Q0"":2}",[0],NA,images/stimuli/spore_stims/complex_01_A_b.gif,images/stimuli/spore_stims/complex_20_A_a.gif
NA,5172,survey-likert,146,708344,0.0-34.0,SS1619125642562,similarity_question,NA,NA,NA,NA,NA,NA,NA,NA,NA,NA,NA,"{""Q0"":4}",[0],NA,images/stimuli/spore_stims/complex_19_A_a.gif,images/stimuli/spore_stims/complex_14_A_b.gif
NA,2378,survey-likert,147,710725,0.0-35.0,SS1619125642562,similarity_question,NA,NA,NA,NA,NA,NA,NA,NA,NA,NA,NA,"{""Q0"":6}",[0],NA,images/stimuli/spore_stims/simple_02_A_b.gif,images/stimuli/spore_stims/simple_15_A_a.gif
NA,4258,survey-likert,148,714987,0.0-36.0,SS1619125642562,similarity_question,NA,NA,NA,NA,NA,NA,NA,NA,NA,NA,NA,"{""Q0"":3}",[0],NA,images/stimuli/spore_stims/complex_06_A_b.gif,images/stimuli/spore_stims/complex_04_A_a.gif
NA,9229,survey-likert,149,724221,0.0-37.0,SS1619125642562,similarity_question,NA,NA,NA,NA,NA,NA,NA,NA,NA,NA,NA,"{""Q0"":2}",[0],NA,images/stimuli/spore_stims/simple_14_A_a.gif,images/stimuli/spore_stims/simple_07_A_b.gif
NA,4504,survey-likert,150,728731,0.0-38.0,SS1619125642562,similarity_question,NA,NA,NA,NA,NA,NA,NA,NA,NA,NA,NA,"{""Q0"":4}",[0],NA,images/stimuli/spore_stims/simple_20_A_b.gif,images/stimuli/spore_stims/simple_12_A_a.gif
NA,4195,survey-likert,151,732931,0.0-39.0,SS1619125642562,similarity_question,NA,NA,NA,NA,NA,NA,NA,NA,NA,NA,NA,"{""Q0"":4}",[0],NA,images/stimuli/spore_stims/simple_11_A_b.gif,images/stimuli/spore_stims/simple_18_A_a.gif
NA,5217,survey-likert,152,738153,0.0-40.0,SS1619125642562,similarity_question,NA,NA,NA,NA,NA,NA,NA,NA,NA,NA,NA,"{""Q0"":4}",[0],NA,images/stimuli/spore_stims/complex_20_A_b.gif,images/stimuli/spore_stims/complex_13_A_a.gif
NA,5647,survey-likert,153,743805,0.0-41.0,SS1619125642562,similarity_question,NA,NA,NA,NA,NA,NA,NA,NA,NA,NA,NA,"{""Q0"":0}",[0],NA,images/stimuli/spore_stims/complex_12_A_a.gif,images/stimuli/spore_stims/complex_16_A_b.gif
NA,3376,survey-likert,154,747184,0.0-42.0,SS1619125642562,similarity_question,NA,NA,NA,NA,NA,NA,NA,NA,NA,NA,NA,"{""Q0"":4}",[0],NA,images/stimuli/spore_stims/simple_02_A_a.gif,images/stimuli/spore_stims/simple_14_A_b.gif
NA,6732,survey-likert,155,753920,0.0-43.0,SS1619125642562,similarity_question,NA,NA,NA,NA,NA,NA,NA,NA,NA,NA,NA,"{""Q0"":4}",[0],NA,images/stimuli/spore_stims/complex_11_A_a.gif,images/stimuli/spore_stims/complex_17_A_b.gif
NA,3456,survey-likert,156,757379,0.0-44.0,SS1619125642562,similarity_question,NA,NA,NA,NA,NA,NA,NA,NA,NA,NA,NA,"{""Q0"":4}",[0],NA,images/stimuli/spore_stims/simple_01_A_a.gif,images/stimuli/spore_stims/simple_18_A_b.gif
"[{""page_index"":0,""viewing_time"":9404}]",9404,instructions,157,766786,0.0-45.0,SS1619125642562,instructions,NA,NA,NA,NA,NA,NA,NA,NA,NA,NA,NA,NA,NA,NA,NA,NA
NA,10707,survey-likert,158,777497,0.0-46.0,SS1619125642562,NA,NA,NA,NA,NA,NA,NA,NA,images/stimuli/spore_stims/complex_20_A_a.gif,NA,NA,NA,"{""Q0"":5}",[0],NA,NA,NA
NA,3017,survey-likert,159,780518,0.0-47.0,SS1619125642562,NA,NA,NA,NA,NA,NA,NA,NA,images/stimuli/spore_stims/simple_14_A_a.gif,NA,NA,NA,"{""Q0"":0}",[0],NA,NA,NA
NA,2353,survey-likert,160,782876,0.0-48.0,SS1619125642562,NA,NA,NA,NA,NA,NA,NA,NA,images/stimuli/spore_stims/complex_20_A_b.gif,NA,NA,NA,"{""Q0"":5}",[0],NA,NA,NA
NA,1945,survey-likert,161,784826,0.0-49.0,SS1619125642562,NA,NA,NA,NA,NA,NA,NA,NA,images/stimuli/spore_stims/simple_11_A_b.gif,NA,NA,NA,"{""Q0"":0}",[0],NA,NA,NA
NA,2185,survey-likert,162,787016,0.0-50.0,SS1619125642562,NA,NA,NA,NA,NA,NA,NA,NA,images/stimuli/spore_stims/simple_02_A_b.gif,NA,NA,NA,"{""Q0"":0}",[0],NA,NA,NA
NA,2944,survey-likert,163,789965,0.0-51.0,SS1619125642562,NA,NA,NA,NA,NA,NA,NA,NA,images/stimuli/spore_stims/complex_17_A_b.gif,NA,NA,NA,"{""Q0"":5}",[0],NA,NA,NA
NA,2238,survey-likert,164,792208,0.0-52.0,SS1619125642562,NA,NA,NA,NA,NA,NA,NA,NA,images/stimuli/spore_stims/complex_16_A_b.gif,NA,NA,NA,"{""Q0"":6}",[0],NA,NA,NA
NA,1566,survey-likert,165,793779,0.0-53.0,SS1619125642562,NA,NA,NA,NA,NA,NA,NA,NA,images/stimuli/spore_stims/simple_18_A_b.gif,NA,NA,NA,"{""Q0"":0}",[0],NA,NA,NA
NA,2245,survey-likert,166,796028,0.0-54.0,SS1619125642562,NA,NA,NA,NA,NA,NA,NA,NA,images/stimuli/spore_stims/complex_19_A_a.gif,NA,NA,NA,"{""Q0"":5}",[0],NA,NA,NA
NA,2402,survey-likert,167,798435,0.0-55.0,SS1619125642562,NA,NA,NA,NA,NA,NA,NA,NA,images/stimuli/spore_stims/complex_04_A_a.gif,NA,NA,NA,"{""Q0"":5}",[0],NA,NA,NA
NA,3626,survey-likert,168,802067,0.0-56.0,SS1619125642562,NA,NA,NA,NA,NA,NA,NA,NA,images/stimuli/spore_stims/simple_20_A_b.gif,NA,NA,NA,"{""Q0"":1}",[0],NA,NA,NA
NA,1750,survey-likert,169,803822,0.0-57.0,SS1619125642562,NA,NA,NA,NA,NA,NA,NA,NA,images/stimuli/spore_stims/simple_14_A_b.gif,NA,NA,NA,"{""Q0"":0}",[0],NA,NA,NA
"[{""page_index"":0,""viewing_time"":2278}]",2278,instructions,170,806103,0.0-58.0,SS1619125642562,instructions,NA,NA,NA,NA,NA,NA,NA,NA,NA,NA,NA,NA,NA,NA,NA,NA
NA,2179,demog-age,171,808288,0.0-59.0,SS1619125642562,NA,NA,NA,NA,NA,NA,NA,NA,NA,NA,NA,NA,"{""age"":""19""}",NA,NA,NA,NA
NA,4203,demog-ethnic-US,172,812497,0.0-60.0,SS1619125642562,NA,NA,NA,NA,NA,NA,NA,NA,NA,NA,NA,NA,"{""ethnicity"":[""White""]}",[0],NA,NA,NA
NA,7078,demog-gender-and-education,173,819582,0.0-61.0,SS1619125642562,NA,NA,NA,NA,NA,NA,NA,NA,NA,NA,NA,NA,"{""gender"":""Male"",""education"":""High school diploma""}","[0,1]",NA,NA,NA
NA,11487,survey-text,174,831075,0.0-62.0,SS1619125642562,feedback,NA,NA,NA,NA,NA,NA,NA,NA,NA,NA,NA,"{""Q0"":""No""}",NA,NA,NA,NA
"[{""page_index"":0,""viewing_time"":1762}]",1762,instructions,175,832840,0.0-63.0,SS1619125642562,instructions,NA,NA,NA,NA,NA,NA,NA,NA,NA,NA,NA,NA,NA,NA,NA,NA
"[{""page_index"":0,""viewing_time"":11873.704999918118}]",11874.179999926127,instructions,0,11877,0.0-0.0,SS1619204435390,NA,NA,NA,NA,NA,NA,NA,NA,NA,NA,NA,NA,NA,NA,NA,NA,NA
"[{""page_index"":0,""viewing_time"":28830.885000061244},{""page_index"":1,""viewing_time"":45848.21499988902}]",74679.4500000542,instructions,1,88565,0.0-1.0,SS1619204435390,instructions,NA,NA,NA,NA,NA,NA,NA,NA,NA,NA,NA,NA,NA,NA,NA,NA
NA,19492.6399999531,sequential-stimulus-presentation-old,2,108568,0.0-2.0,SS1619204435390,NA,NA,40,500,19992.6399999531,null,null,self_paced,NA,NA,NA,NA,NA,NA,NA,NA,NA
NA,6595.314999925904,sequential-stimulus-presentation-old,3,115670,0.0-3.0,SS1619204435390,NA,NA,40,500,7095.314999925904,null,null,self_paced,NA,NA,NA,NA,NA,NA,NA,NA,NA
"[{""page_index"":0,""viewing_time"":24797.34000004828}]",24797.660000040196,instructions,4,140468,0.0-4.0,SS1619204435390,instructions,NA,NA,NA,NA,NA,NA,NA,NA,NA,NA,NA,NA,NA,NA,NA,NA
NA,12182.849999982864,sequential-stimulus-presentation-old,5,162736,0.0-5.0,SS1619204435390,NA,NA,40,500,12682.849999982864,null,null,forced_long,NA,NA,NA,NA,NA,NA,NA,NA,NA
NA,2315.195000031963,sequential-stimulus-presentation-old,6,165158,0.0-6.0,SS1619204435390,NA,NA,40,500,2815.195000031963,null,null,forced_long,NA,NA,NA,NA,NA,NA,NA,NA,NA
"[{""page_index"":0,""viewing_time"":3027.9800000134856}]",3028.3849999541417,instructions,7,168188,0.0-7.0,SS1619204435390,instructions,NA,NA,NA,NA,NA,NA,NA,NA,NA,NA,NA,NA,NA,NA,NA,NA
"[{""page_index"":0,""viewing_time"":16046.819999930449},{""page_index"":1,""viewing_time"":20728.400000021793},{""page_index"":2,""viewing_time"":17263.28499999363},{""page_index"":3,""viewing_time"":2791.7649999726564},{""page_index"":4,""viewing_time"":1208.4350000368431}]",58039.074999978766,instructions,8,226228,0.0-8.0,SS1619204435390,instructions,NA,NA,NA,NA,NA,NA,NA,NA,NA,NA,NA,NA,NA,NA,NA,NA
NA,null,html-keyboard-response,9,227515,0.0-9.0-0.0,SS1619204435390,NA,NA,null,NA,NA,NA,NA,NA,"<p><img src= images/blank.png width =""600"" height = ""600"" style=""position:fixed;top:50%; left:50%; transform: translate(-50%, -50%); border:5px solid black"">",NA,NA,NA,NA,NA,NA,NA,NA
NA,15147.870000102557,sequential-stimulus-presentation-old,10,243176,0.0-9.0-1.0,SS1619204435390,trial,NA,40,500,15647.870000102557,images/stimuli/spore_stims/simple_11_A_a.gif,images/stimuli/spore_stims/simple_14_A_b.gif,self_paced,NA,0,simple_dissimilar,images/stimuli/spore_stims/simple_14_A_b.gif,NA,NA,NA,NA,NA
NA,null,html-keyboard-response,11,244256,0.0-9.0-0.1,SS1619204435390,NA,NA,null,NA,NA,NA,NA,NA,"<p><img src= images/blank.png width =""600"" height = ""600"" style=""position:fixed;top:50%; left:50%; transform: translate(-50%, -50%); border:5px solid black"">",NA,NA,NA,NA,NA,NA,NA,NA
NA,7806.8249999778345,sequential-stimulus-presentation-old,12,252577,0.0-9.0-1.1,SS1619204435390,trial,NA,40,500,8306.824999977835,images/stimuli/spore_stims/simple_11_A_a.gif,images/stimuli/spore_stims/simple_14_A_b.gif,self_paced,NA,0,simple_dissimilar,images/stimuli/spore_stims/simple_11_A_a.gif,NA,NA,NA,NA,NA
NA,null,html-keyboard-response,13,253416,0.0-9.0-0.2,SS1619204435390,NA,NA,null,NA,NA,NA,NA,NA,"<p><img src= images/blank.png width =""600"" height = ""600"" style=""position:fixed;top:50%; left:50%; transform: translate(-50%, -50%); border:5px solid black"">",NA,NA,NA,NA,NA,NA,NA,NA
NA,7204.899999895133,sequential-stimulus-presentation-old,14,261133,0.0-9.0-1.2,SS1619204435390,trial,NA,40,500,7704.899999895133,images/stimuli/spore_stims/simple_11_A_a.gif,images/stimuli/spore_stims/simple_14_A_b.gif,self_paced,NA,0,simple_dissimilar,images/stimuli/spore_stims/simple_14_A_b.gif,NA,NA,NA,NA,NA
NA,null,html-keyboard-response,15,262187,0.0-9.0-0.3,SS1619204435390,NA,NA,null,NA,NA,NA,NA,NA,"<p><img src= images/blank.png width =""600"" height = ""600"" style=""position:fixed;top:50%; left:50%; transform: translate(-50%, -50%); border:5px solid black"">",NA,NA,NA,NA,NA,NA,NA,NA
NA,9084.41499993205,sequential-stimulus-presentation-old,16,271783,0.0-9.0-1.3,SS1619204435390,trial,NA,40,500,9584.41499993205,images/stimuli/spore_stims/simple_11_A_a.gif,images/stimuli/spore_stims/simple_14_A_b.gif,self_paced,NA,0,simple_dissimilar,images/stimuli/spore_stims/simple_14_A_b.gif,NA,NA,NA,NA,NA
NA,null,html-keyboard-response,17,272730,0.0-9.0-0.4,SS1619204435390,NA,NA,null,NA,NA,NA,NA,NA,"<p><img src= images/blank.png width =""600"" height = ""600"" style=""position:fixed;top:50%; left:50%; transform: translate(-50%, -50%); border:5px solid black"">",NA,NA,NA,NA,NA,NA,NA,NA
NA,9191.170000005513,sequential-stimulus-presentation-old,18,282434,0.0-9.0-1.4,SS1619204435390,trial,NA,40,500,9691.170000005513,images/stimuli/spore_stims/simple_11_A_a.gif,images/stimuli/spore_stims/simple_14_A_b.gif,self_paced,NA,0,simple_dissimilar,images/stimuli/spore_stims/simple_14_A_b.gif,NA,NA,NA,NA,NA
NA,null,html-keyboard-response,19,283664,0.0-9.0-0.5,SS1619204435390,NA,NA,null,NA,NA,NA,NA,NA,"<p><img src= images/blank.png width =""600"" height = ""600"" style=""position:fixed;top:50%; left:50%; transform: translate(-50%, -50%); border:5px solid black"">",NA,NA,NA,NA,NA,NA,NA,NA
NA,5875.405000057071,sequential-stimulus-presentation-old,20,290054,0.0-9.0-1.5,SS1619204435390,trial,NA,40,500,6375.405000057071,images/stimuli/spore_stims/simple_11_A_a.gif,images/stimuli/spore_stims/simple_14_A_b.gif,self_paced,NA,0,simple_dissimilar,images/stimuli/spore_stims/simple_14_A_b.gif,NA,NA,NA,NA,NA
NA,4540.730000007898,survey-multi-choice,21,294605,0.0-10.0,SS1619204435390,math_question,NA,NA,NA,NA,NA,NA,NA,NA,NA,NA,NA,"{""Q0"":""12""}",[0],12,NA,NA
NA,null,html-keyboard-response,22,295626,0.0-11.0-0.0,SS1619204435390,NA,NA,null,NA,NA,NA,NA,NA,"<p><img src= images/blank.png width =""600"" height = ""600"" style=""position:fixed;top:50%; left:50%; transform: translate(-50%, -50%); border:5px solid black"">",NA,NA,NA,NA,NA,NA,NA,NA
NA,6381.120000034571,sequential-stimulus-presentation-old,23,302522,0.0-11.0-1.0,SS1619204435390,trial,NA,40,500,6881.120000034571,images/stimuli/spore_stims/simple_10_A_b.gif,images/stimuli/spore_stims/simple_17_A_a.gif,self_paced,NA,1,simple_dissimilar,images/stimuli/spore_stims/simple_17_A_a.gif,NA,NA,NA,NA,NA
NA,null,html-keyboard-response,24,303755,0.0-11.0-0.1,SS1619204435390,NA,NA,null,NA,NA,NA,NA,NA,"<p><img src= images/blank.png width =""600"" height = ""600"" style=""position:fixed;top:50%; left:50%; transform: translate(-50%, -50%); border:5px solid black"">",NA,NA,NA,NA,NA,NA,NA,NA
NA,10237.490000086837,sequential-stimulus-presentation-old,25,314505,0.0-11.0-1.1,SS1619204435390,trial,NA,40,500,10737.490000086837,images/stimuli/spore_stims/simple_10_A_b.gif,images/stimuli/spore_stims/simple_17_A_a.gif,self_paced,NA,1,simple_dissimilar,images/stimuli/spore_stims/simple_17_A_a.gif,NA,NA,NA,NA,NA
