"view_history","rt","trial_type","trial_index","time_elapsed","internal_node_id","subject","stimulus_type","trial_stimulus","key_press","minimum_viewing_duration","trial_looking_time","block_deviant","block_background","exposure_type","stimulus","block_number","block_type","stimulus_displayed","responses","question_order","math_correct_answer","stimulus_left","stimulus_right"
"[{""page_index"":0,""viewing_time"":1740.4900000001362}]","1741.1599999977625","instructions","0","1744","0.0-0.0","SS1619115572464","","","","","","","","","","","","","","","","",""
"[{""page_index"":0,""viewing_time"":2516.029999998864},{""page_index"":1,""viewing_time"":15239.089999999123}]","17755.734999998822","instructions","1","21503","0.0-1.0","SS1619115572464","instructions","","","","","","","","","","","","","","","",""
"","9515.080000001035","sequential-stimulus-presentation-old","2","31527","0.0-2.0","SS1619115572464","","","40","500","10015.080000001035","null","null","self_paced","","","","","","","","",""
"","3548.5499999995227","sequential-stimulus-presentation-old","3","35580","0.0-3.0","SS1619115572464","","","40","500","4048.5499999995227","null","null","self_paced","","","","","","","","",""
"[{""page_index"":0,""viewing_time"":3255.554999999731}]","3256.2700000016775","instructions","4","38839","0.0-4.0","SS1619115572464","instructions","","","","","","","","","","","","","","","",""
"","73.20999999865307","sequential-stimulus-presentation-old","5","48917","0.0-5.0","SS1619115572464","","","40","500","573.2099999986531","null","null","forced_long","","","","","","","","",""
"","18044.434999999794","sequential-stimulus-presentation-old","6","67069","0.0-6.0","SS1619115572464","","","40","500","18544.434999999794","null","null","forced_long","","","","","","","","",""
"[{""page_index"":0,""viewing_time"":2326.6249999978754}]","2327.339999999822","instructions","7","69400","0.0-7.0","SS1619115572464","instructions","","","","","","","","","","","","","","","",""
"[{""page_index"":0,""viewing_time"":2019.5649999986927},{""page_index"":1,""viewing_time"":2815.9000000014203},{""page_index"":2,""viewing_time"":1831.930000000284},{""page_index"":3,""viewing_time"":2743.9500000000407},{""page_index"":4,""viewing_time"":1527.9499999996915}]","10940.060000000813","instructions","8","80343","0.0-8.0","SS1619115572464","instructions","","","","","","","","","","","","","","","",""
"","null","html-keyboard-response","9","81331","0.0-9.0-0.0","SS1619115572464","","","null","","","","","","<p><img src= images/blank.png width =""600"" height = ""600"" style=""position:fixed;top:50%; left:50%; transform: translate(-50%, -50%); border:5px solid black"">","","","","","","","",""
"","199.97999999759486","sequential-stimulus-presentation-old","10","91540","0.0-9.0-1.0","SS1619115572464","trial","","40","500","699.9799999975949","images/stimuli/spore_stims/complex_01_A_b.gif","images/stimuli/spore_stims/complex_04_A_a.gif","forced_long","","0","complex_dissimilar","images/stimuli/spore_stims/complex_04_A_a.gif","","","","",""
"","null","html-keyboard-response","11","92596","0.0-9.0-0.1","SS1619115572464","","","null","","","","","","<p><img src= images/blank.png width =""600"" height = ""600"" style=""position:fixed;top:50%; left:50%; transform: translate(-50%, -50%); border:5px solid black"">","","","","","","","",""
"","4677.890000002662","sequential-stimulus-presentation-old","12","97780","0.0-9.0-1.1","SS1619115572464","trial","","40","500","5177.890000002662","images/stimuli/spore_stims/complex_01_A_b.gif","images/stimuli/spore_stims/complex_04_A_a.gif","forced_long","","0","complex_dissimilar","images/stimuli/spore_stims/complex_04_A_a.gif","","","","",""
"","null","html-keyboard-response","13","99030","0.0-9.0-0.2","SS1619115572464","","","null","","","","","","<p><img src= images/blank.png width =""600"" height = ""600"" style=""position:fixed;top:50%; left:50%; transform: translate(-50%, -50%); border:5px solid black"">","","","","","","","",""
"","733.8149999995949","sequential-stimulus-presentation-old","14","100268","0.0-9.0-1.2","SS1619115572464","trial","","40","500","1233.8149999995949","images/stimuli/spore_stims/complex_01_A_b.gif","images/stimuli/spore_stims/complex_04_A_a.gif","forced_long","","0","complex_dissimilar","images/stimuli/spore_stims/complex_04_A_a.gif","","","","",""
"","null","html-keyboard-response","15","101442","0.0-9.0-0.3","SS1619115572464","","","null","","","","","","<p><img src= images/blank.png width =""600"" height = ""600"" style=""position:fixed;top:50%; left:50%; transform: translate(-50%, -50%); border:5px solid black"">","","","","","","","",""
"","6.554999999934807","sequential-stimulus-presentation-old","16","101956","0.0-9.0-1.3","SS1619115572464","trial","","40","500","506.5549999999348","images/stimuli/spore_stims/complex_01_A_b.gif","images/stimuli/spore_stims/complex_04_A_a.gif","forced_long","","0","complex_dissimilar","images/stimuli/spore_stims/complex_04_A_a.gif","","","","",""
"","null","html-keyboard-response","17","103009","0.0-9.0-0.4","SS1619115572464","","","null","","","","","","<p><img src= images/blank.png width =""600"" height = ""600"" style=""position:fixed;top:50%; left:50%; transform: translate(-50%, -50%); border:5px solid black"">","","","","","","","",""
"","424.2149999990943","sequential-stimulus-presentation-old","18","103940","0.0-9.0-1.4","SS1619115572464","trial","","40","500","924.2149999990943","images/stimuli/spore_stims/complex_01_A_b.gif","images/stimuli/spore_stims/complex_04_A_a.gif","forced_long","","0","complex_dissimilar","images/stimuli/spore_stims/complex_01_A_b.gif","","","","",""
"","3369.440000002214","survey-multi-choice","19","107320","0.0-10.0","SS1619115572464","math_question","","","","","","","","","","","","{""Q0"":""6""}","[0]","6","",""
"","null","html-keyboard-response","20","108434","0.0-11.0-0.0","SS1619115572464","","","null","","","","","","<p><img src= images/blank.png width =""600"" height = ""600"" style=""position:fixed;top:50%; left:50%; transform: translate(-50%, -50%); border:5px solid black"">","","","","","","","",""
"","655.9949999973469","sequential-stimulus-presentation-old","21","109596","0.0-11.0-1.0","SS1619115572464","trial","","40","500","1155.994999997347","images/stimuli/spore_stims/complex_02_A_a.gif","images/stimuli/spore_stims/complex_11_A_b.gif","self_paced","","1","complex_dissimilar","images/stimuli/spore_stims/complex_11_A_b.gif","","","","",""
"","null","html-keyboard-response","22","110452","0.0-11.0-0.1","SS1619115572464","","","null","","","","","","<p><img src= images/blank.png width =""600"" height = ""600"" style=""position:fixed;top:50%; left:50%; transform: translate(-50%, -50%); border:5px solid black"">","","","","","","","",""
"","516.8149999990419","sequential-stimulus-presentation-old","23","111476","0.0-11.0-1.1","SS1619115572464","trial","","40","500","1016.8149999990419","images/stimuli/spore_stims/complex_02_A_a.gif","images/stimuli/spore_stims/complex_11_A_b.gif","self_paced","","1","complex_dissimilar","images/stimuli/spore_stims/complex_02_A_a.gif","","","","",""
"","null","html-keyboard-response","24","112445","0.0-11.0-0.2","SS1619115572464","","","null","","","","","","<p><img src= images/blank.png width =""600"" height = ""600"" style=""position:fixed;top:50%; left:50%; transform: translate(-50%, -50%); border:5px solid black"">","","","","","","","",""
"","1355.9800000002724","sequential-stimulus-presentation-old","25","114308","0.0-11.0-1.2","SS1619115572464","trial","","40","500","1855.9800000002724","images/stimuli/spore_stims/complex_02_A_a.gif","images/stimuli/spore_stims/complex_11_A_b.gif","self_paced","","1","complex_dissimilar","images/stimuli/spore_stims/complex_11_A_b.gif","","","","",""
"","null","html-keyboard-response","26","115215","0.0-11.0-0.3","SS1619115572464","","","null","","","","","","<p><img src= images/blank.png width =""600"" height = ""600"" style=""position:fixed;top:50%; left:50%; transform: translate(-50%, -50%); border:5px solid black"">","","","","","","","",""
"","491.4700000008452","sequential-stimulus-presentation-old","27","116213","0.0-11.0-1.3","SS1619115572464","trial","","40","500","991.4700000008452","images/stimuli/spore_stims/complex_02_A_a.gif","images/stimuli/spore_stims/complex_11_A_b.gif","self_paced","","1","complex_dissimilar","images/stimuli/spore_stims/complex_11_A_b.gif","","","","",""
"","null","html-keyboard-response","28","117434","0.0-11.0-0.4","SS1619115572464","","","null","","","","","","<p><img src= images/blank.png width =""600"" height = ""600"" style=""position:fixed;top:50%; left:50%; transform: translate(-50%, -50%); border:5px solid black"">","","","","","","","",""
"","884.4800000006217","sequential-stimulus-presentation-old","29","118830","0.0-11.0-1.4","SS1619115572464","trial","","40","500","1384.4800000006217","images/stimuli/spore_stims/complex_02_A_a.gif","images/stimuli/spore_stims/complex_11_A_b.gif","self_paced","","1","complex_dissimilar","images/stimuli/spore_stims/complex_11_A_b.gif","","","","",""
"","null","html-keyboard-response","30","119698","0.0-11.0-0.5","SS1619115572464","","","null","","","","","","<p><img src= images/blank.png width =""600"" height = ""600"" style=""position:fixed;top:50%; left:50%; transform: translate(-50%, -50%); border:5px solid black"">","","","","","","","",""
"","55.26500000269152","sequential-stimulus-presentation-old","31","120263","0.0-11.0-1.5","SS1619115572464","trial","","40","500","555.2650000026915","images/stimuli/spore_stims/complex_02_A_a.gif","images/stimuli/spore_stims/complex_11_A_b.gif","self_paced","","1","complex_dissimilar","images/stimuli/spore_stims/complex_02_A_a.gif","","","","",""
"","6284.104999998817","survey-multi-choice","32","126553","0.0-12.0","SS1619115572464","math_question","","","","","","","","","","","","{""Q0"":""13""}","[0]","13","",""
"","null","html-keyboard-response","33","127362","0.0-13.0-0.0","SS1619115572464","","","null","","","","","","<p><img src= images/blank.png width =""600"" height = ""600"" style=""position:fixed;top:50%; left:50%; transform: translate(-50%, -50%); border:5px solid black"">","","","","","","","",""
"","778.4900000006019","sequential-stimulus-presentation-old","34","128647","0.0-13.0-1.0","SS1619115572464","trial","","40","500","1278.4900000006019","images/stimuli/spore_stims/complex_10_A_a.gif","images/stimuli/spore_stims/complex_14_A_b.gif","self_paced","","2","complex_dissimilar","images/stimuli/spore_stims/complex_14_A_b.gif","","","","",""
"","null","html-keyboard-response","35","129666","0.0-13.0-0.1","SS1619115572464","","","null","","","","","","<p><img src= images/blank.png width =""600"" height = ""600"" style=""position:fixed;top:50%; left:50%; transform: translate(-50%, -50%); border:5px solid black"">","","","","","","","",""
"","1541.205000001355","sequential-stimulus-presentation-old","36","131717","0.0-13.0-1.1","SS1619115572464","trial","","40","500","2041.205000001355","images/stimuli/spore_stims/complex_10_A_a.gif","images/stimuli/spore_stims/complex_14_A_b.gif","self_paced","","2","complex_dissimilar","images/stimuli/spore_stims/complex_14_A_b.gif","","","","",""
"","null","html-keyboard-response","37","132733","0.0-13.0-0.2","SS1619115572464","","","null","","","","","","<p><img src= images/blank.png width =""600"" height = ""600"" style=""position:fixed;top:50%; left:50%; transform: translate(-50%, -50%); border:5px solid black"">","","","","","","","",""
"","614.7449999989476","sequential-stimulus-presentation-old","38","133853","0.0-13.0-1.2","SS1619115572464","trial","","40","500","1114.7449999989476","images/stimuli/spore_stims/complex_10_A_a.gif","images/stimuli/spore_stims/complex_14_A_b.gif","self_paced","","2","complex_dissimilar","images/stimuli/spore_stims/complex_10_A_a.gif","","","","",""
"","null","html-keyboard-response","39","134710","0.0-13.0-0.3","SS1619115572464","","","null","","","","","","<p><img src= images/blank.png width =""600"" height = ""600"" style=""position:fixed;top:50%; left:50%; transform: translate(-50%, -50%); border:5px solid black"">","","","","","","","",""
"","9.4600000011269","sequential-stimulus-presentation-old","40","135229","0.0-13.0-1.3","SS1619115572464","trial","","40","500","509.4600000011269","images/stimuli/spore_stims/complex_10_A_a.gif","images/stimuli/spore_stims/complex_14_A_b.gif","self_paced","","2","complex_dissimilar","images/stimuli/spore_stims/complex_14_A_b.gif","","","","",""
"","null","html-keyboard-response","41","136502","0.0-13.0-0.4","SS1619115572464","","","null","","","","","","<p><img src= images/blank.png width =""600"" height = ""600"" style=""position:fixed;top:50%; left:50%; transform: translate(-50%, -50%); border:5px solid black"">","","","","","","","",""
"","722.39499999705","sequential-stimulus-presentation-old","42","137733","0.0-13.0-1.4","SS1619115572464","trial","","40","500","1222.39499999705","images/stimuli/spore_stims/complex_10_A_a.gif","images/stimuli/spore_stims/complex_14_A_b.gif","self_paced","","2","complex_dissimilar","images/stimuli/spore_stims/complex_14_A_b.gif","","","","",""
"","2774.825000000419","survey-multi-choice","43","140511","0.0-14.0","SS1619115572464","math_question","","","","","","","","","","","","{""Q0"":""7""}","[0]","7","",""
"","null","html-keyboard-response","44","141615","0.0-15.0-0.0","SS1619115572464","","","null","","","","","","<p><img src= images/blank.png width =""600"" height = ""600"" style=""position:fixed;top:50%; left:50%; transform: translate(-50%, -50%); border:5px solid black"">","","","","","","","",""
"","279.8000000002503","sequential-stimulus-presentation-old","45","142005","0.0-15.0-1.0","SS1619115572464","trial","","40","500","779.8000000002503","images/stimuli/spore_stims/complex_10_A_b.gif","images/stimuli/spore_stims/complex_07_A_a.gif","forced_short","","3","complex_dissimilar","images/stimuli/spore_stims/complex_07_A_a.gif","","","","",""
"","null","html-keyboard-response","46","142923","0.0-15.0-0.1","SS1619115572464","","","null","","","","","","<p><img src= images/blank.png width =""600"" height = ""600"" style=""position:fixed;top:50%; left:50%; transform: translate(-50%, -50%); border:5px solid black"">","","","","","","","",""
"","61.8849999991653","sequential-stimulus-presentation-old","47","143493","0.0-15.0-1.1","SS1619115572464","trial","","40","500","561.8849999991653","images/stimuli/spore_stims/complex_10_A_b.gif","images/stimuli/spore_stims/complex_07_A_a.gif","forced_short","","3","complex_dissimilar","images/stimuli/spore_stims/complex_10_A_b.gif","","","","",""
"","null","html-keyboard-response","48","144463","0.0-15.0-0.2","SS1619115572464","","","null","","","","","","<p><img src= images/blank.png width =""600"" height = ""600"" style=""position:fixed;top:50%; left:50%; transform: translate(-50%, -50%); border:5px solid black"">","","","","","","","",""
"","497.3600000012084","sequential-stimulus-presentation-old","49","145469","0.0-15.0-1.2","SS1619115572464","trial","","40","500","997.3600000012084","images/stimuli/spore_stims/complex_10_A_b.gif","images/stimuli/spore_stims/complex_07_A_a.gif","forced_short","","3","complex_dissimilar","images/stimuli/spore_stims/complex_07_A_a.gif","","","","",""
"","null","html-keyboard-response","50","146447","0.0-15.0-0.3","SS1619115572464","","","null","","","","","","<p><img src= images/blank.png width =""600"" height = ""600"" style=""position:fixed;top:50%; left:50%; transform: translate(-50%, -50%); border:5px solid black"">","","","","","","","",""
"","353.85500000120373","sequential-stimulus-presentation-old","51","147310","0.0-15.0-1.3","SS1619115572464","trial","","40","500","853.8550000012037","images/stimuli/spore_stims/complex_10_A_b.gif","images/stimuli/spore_stims/complex_07_A_a.gif","forced_short","","3","complex_dissimilar","images/stimuli/spore_stims/complex_07_A_a.gif","","","","",""
"","null","html-keyboard-response","52","148353","0.0-15.0-0.4","SS1619115572464","","","null","","","","","","<p><img src= images/blank.png width =""600"" height = ""600"" style=""position:fixed;top:50%; left:50%; transform: translate(-50%, -50%); border:5px solid black"">","","","","","","","",""
"","221.63500000169734","sequential-stimulus-presentation-old","53","149085","0.0-15.0-1.4","SS1619115572464","trial","","40","500","721.6350000016973","images/stimuli/spore_stims/complex_10_A_b.gif","images/stimuli/spore_stims/complex_07_A_a.gif","forced_short","","3","complex_dissimilar","images/stimuli/spore_stims/complex_07_A_a.gif","","","","",""
"","7445.175000000745","survey-multi-choice","54","156536","0.0-16.0","SS1619115572464","math_question","","","","","","","","","","","","{""Q0"":""12""}","[0]","12","",""
"","null","html-keyboard-response","55","157495","0.0-17.0-0.0","SS1619115572464","","","null","","","","","","<p><img src= images/blank.png width =""600"" height = ""600"" style=""position:fixed;top:50%; left:50%; transform: translate(-50%, -50%); border:5px solid black"">","","","","","","","",""
"","1727.245000001858","sequential-stimulus-presentation-old","56","159732","0.0-17.0-1.0","SS1619115572464","trial","","40","500","2227.245000001858","images/stimuli/spore_stims/simple_16_A_a.gif","images/stimuli/spore_stims/simple_19_A_b.gif","self_paced","","4","simple_dissimilar","images/stimuli/spore_stims/simple_19_A_b.gif","","","","",""
"","null","html-keyboard-response","57","160602","0.0-17.0-0.1","SS1619115572464","","","null","","","","","","<p><img src= images/blank.png width =""600"" height = ""600"" style=""position:fixed;top:50%; left:50%; transform: translate(-50%, -50%); border:5px solid black"">","","","","","","","",""
"","875.6250000005821","sequential-stimulus-presentation-old","58","161989","0.0-17.0-1.1","SS1619115572464","trial","","40","500","1375.625000000582","images/stimuli/spore_stims/simple_16_A_a.gif","images/stimuli/spore_stims/simple_19_A_b.gif","self_paced","","4","simple_dissimilar","images/stimuli/spore_stims/simple_19_A_b.gif","","","","",""
"","null","html-keyboard-response","59","163230","0.0-17.0-0.2","SS1619115572464","","","null","","","","","","<p><img src= images/blank.png width =""600"" height = ""600"" style=""position:fixed;top:50%; left:50%; transform: translate(-50%, -50%); border:5px solid black"">","","","","","","","",""
"","409.8100000010163","sequential-stimulus-presentation-old","60","164148","0.0-17.0-1.2","SS1619115572464","trial","","40","500","909.8100000010163","images/stimuli/spore_stims/simple_16_A_a.gif","images/stimuli/spore_stims/simple_19_A_b.gif","self_paced","","4","simple_dissimilar","images/stimuli/spore_stims/simple_19_A_b.gif","","","","",""
"","null","html-keyboard-response","61","165218","0.0-17.0-0.3","SS1619115572464","","","null","","","","","","<p><img src= images/blank.png width =""600"" height = ""600"" style=""position:fixed;top:50%; left:50%; transform: translate(-50%, -50%); border:5px solid black"">","","","","","","","",""
"","535.19999999844","sequential-stimulus-presentation-old","62","166270","0.0-17.0-1.3","SS1619115572464","trial","","40","500","1035.19999999844","images/stimuli/spore_stims/simple_16_A_a.gif","images/stimuli/spore_stims/simple_19_A_b.gif","self_paced","","4","simple_dissimilar","images/stimuli/spore_stims/simple_19_A_b.gif","","","","",""
"","null","html-keyboard-response","63","167398","0.0-17.0-0.4","SS1619115572464","","","null","","","","","","<p><img src= images/blank.png width =""600"" height = ""600"" style=""position:fixed;top:50%; left:50%; transform: translate(-50%, -50%); border:5px solid black"">","","","","","","","",""
"","754.8099999985425","sequential-stimulus-presentation-old","64","168660","0.0-17.0-1.4","SS1619115572464","trial","","40","500","1254.8099999985425","images/stimuli/spore_stims/simple_16_A_a.gif","images/stimuli/spore_stims/simple_19_A_b.gif","self_paced","","4","simple_dissimilar","images/stimuli/spore_stims/simple_19_A_b.gif","","","","",""
"","null","html-keyboard-response","65","169804","0.0-17.0-0.5","SS1619115572464","","","null","","","","","","<p><img src= images/blank.png width =""600"" height = ""600"" style=""position:fixed;top:50%; left:50%; transform: translate(-50%, -50%); border:5px solid black"">","","","","","","","",""
"","410.44999999940046","sequential-stimulus-presentation-old","66","170724","0.0-17.0-1.5","SS1619115572464","trial","","40","500","910.4499999994005","images/stimuli/spore_stims/simple_16_A_a.gif","images/stimuli/spore_stims/simple_19_A_b.gif","self_paced","","4","simple_dissimilar","images/stimuli/spore_stims/simple_19_A_b.gif","","","","",""
"","3588.5900000030233","survey-multi-choice","67","174319","0.0-18.0","SS1619115572464","math_question","","","","","","","","","","","","{""Q0"":""13""}","[0]","13","",""
"","null","html-keyboard-response","68","175145","0.0-19.0-0.0","SS1619115572464","","","null","","","","","","<p><img src= images/blank.png width =""600"" height = ""600"" style=""position:fixed;top:50%; left:50%; transform: translate(-50%, -50%); border:5px solid black"">","","","","","","","",""
"","3553.0650000000605","sequential-stimulus-presentation-old","69","178815","0.0-19.0-1.0","SS1619115572464","trial","","40","500","4053.0650000000605","images/stimuli/spore_stims/simple_05_A_b.gif","images/stimuli/spore_stims/simple_17_A_a.gif","forced_short","","5","simple_dissimilar","images/stimuli/spore_stims/simple_17_A_a.gif","","","","",""
"","null","html-keyboard-response","70","179628","0.0-19.0-0.1","SS1619115572464","","","null","","","","","","<p><img src= images/blank.png width =""600"" height = ""600"" style=""position:fixed;top:50%; left:50%; transform: translate(-50%, -50%); border:5px solid black"">","","","","","","","",""
"","243.45499999981257","sequential-stimulus-presentation-old","71","180381","0.0-19.0-1.1","SS1619115572464","trial","","40","500","743.4549999998126","images/stimuli/spore_stims/simple_05_A_b.gif","images/stimuli/spore_stims/simple_17_A_a.gif","forced_short","","5","simple_dissimilar","images/stimuli/spore_stims/simple_17_A_a.gif","","","","",""
"","null","html-keyboard-response","72","181445","0.0-19.0-0.2","SS1619115572464","","","null","","","","","","<p><img src= images/blank.png width =""600"" height = ""600"" style=""position:fixed;top:50%; left:50%; transform: translate(-50%, -50%); border:5px solid black"">","","","","","","","",""
"","17.780000001948792","sequential-stimulus-presentation-old","73","181973","0.0-19.0-1.2","SS1619115572464","trial","","40","500","517.7800000019488","images/stimuli/spore_stims/simple_05_A_b.gif","images/stimuli/spore_stims/simple_17_A_a.gif","forced_short","","5","simple_dissimilar","images/stimuli/spore_stims/simple_17_A_a.gif","","","","",""
"","null","html-keyboard-response","74","183142","0.0-19.0-0.3","SS1619115572464","","","null","","","","","","<p><img src= images/blank.png width =""600"" height = ""600"" style=""position:fixed;top:50%; left:50%; transform: translate(-50%, -50%); border:5px solid black"">","","","","","","","",""
"","243.4949999988021","sequential-stimulus-presentation-old","75","183893","0.0-19.0-1.3","SS1619115572464","trial","","40","500","743.4949999988021","images/stimuli/spore_stims/simple_05_A_b.gif","images/stimuli/spore_stims/simple_17_A_a.gif","forced_short","","5","simple_dissimilar","images/stimuli/spore_stims/simple_17_A_a.gif","","","","",""
"","null","html-keyboard-response","76","184976","0.0-19.0-0.4","SS1619115572464","","","null","","","","","","<p><img src= images/blank.png width =""600"" height = ""600"" style=""position:fixed;top:50%; left:50%; transform: translate(-50%, -50%); border:5px solid black"">","","","","","","","",""
"","2208.5000000006403","sequential-stimulus-presentation-old","77","187693","0.0-19.0-1.4","SS1619115572464","trial","","40","500","2708.5000000006403","images/stimuli/spore_stims/simple_05_A_b.gif","images/stimuli/spore_stims/simple_17_A_a.gif","forced_short","","5","simple_dissimilar","images/stimuli/spore_stims/simple_05_A_b.gif","","","","",""
"","3684.8549999995157","survey-multi-choice","78","191384","0.0-20.0","SS1619115572464","math_question","","","","","","","","","","","","{""Q0"":""9""}","[0]","9","",""
"","null","html-keyboard-response","79","192332","0.0-21.0-0.0","SS1619115572464","","","null","","","","","","<p><img src= images/blank.png width =""600"" height = ""600"" style=""position:fixed;top:50%; left:50%; transform: translate(-50%, -50%); border:5px solid black"">","","","","","","","",""
"","132.3100000008708","sequential-stimulus-presentation-old","80","202477","0.0-21.0-1.0","SS1619115572464","trial","","40","500","632.3100000008708","images/stimuli/spore_stims/simple_04_A_b.gif","images/stimuli/spore_stims/simple_10_A_a.gif","forced_long","","6","simple_dissimilar","images/stimuli/spore_stims/simple_10_A_a.gif","","","","",""
"","null","html-keyboard-response","81","203359","0.0-21.0-0.1","SS1619115572464","","","null","","","","","","<p><img src= images/blank.png width =""600"" height = ""600"" style=""position:fixed;top:50%; left:50%; transform: translate(-50%, -50%); border:5px solid black"">","","","","","","","",""
"","2948.1200000009267","sequential-stimulus-presentation-old","82","206821","0.0-21.0-1.1","SS1619115572464","trial","","40","500","3448.1200000009267","images/stimuli/spore_stims/simple_04_A_b.gif","images/stimuli/spore_stims/simple_10_A_a.gif","forced_long","","6","simple_dissimilar","images/stimuli/spore_stims/simple_10_A_a.gif","","","","",""
"","null","html-keyboard-response","83","208007","0.0-21.0-0.2","SS1619115572464","","","null","","","","","","<p><img src= images/blank.png width =""600"" height = ""600"" style=""position:fixed;top:50%; left:50%; transform: translate(-50%, -50%); border:5px solid black"">","","","","","","","",""
"","1069.9400000012247","sequential-stimulus-presentation-old","84","209589","0.0-21.0-1.2","SS1619115572464","trial","","40","500","1569.9400000012247","images/stimuli/spore_stims/simple_04_A_b.gif","images/stimuli/spore_stims/simple_10_A_a.gif","forced_long","","6","simple_dissimilar","images/stimuli/spore_stims/simple_10_A_a.gif","","","","",""
"","null","html-keyboard-response","85","210524","0.0-21.0-0.3","SS1619115572464","","","null","","","","","","<p><img src= images/blank.png width =""600"" height = ""600"" style=""position:fixed;top:50%; left:50%; transform: translate(-50%, -50%); border:5px solid black"">","","","","","","","",""
"","1080.8950000027835","sequential-stimulus-presentation-old","86","212118","0.0-21.0-1.3","SS1619115572464","trial","","40","500","1580.8950000027835","images/stimuli/spore_stims/simple_04_A_b.gif","images/stimuli/spore_stims/simple_10_A_a.gif","forced_long","","6","simple_dissimilar","images/stimuli/spore_stims/simple_04_A_b.gif","","","","",""
"","null","html-keyboard-response","87","212959","0.0-21.0-0.4","SS1619115572464","","","null","","","","","","<p><img src= images/blank.png width =""600"" height = ""600"" style=""position:fixed;top:50%; left:50%; transform: translate(-50%, -50%); border:5px solid black"">","","","","","","","",""
"","1176.45000000266","sequential-stimulus-presentation-old","88","214645","0.0-21.0-1.4","SS1619115572464","trial","","40","500","1676.45000000266","images/stimuli/spore_stims/simple_04_A_b.gif","images/stimuli/spore_stims/simple_10_A_a.gif","forced_long","","6","simple_dissimilar","images/stimuli/spore_stims/simple_10_A_a.gif","","","","",""
"","4548.234999998385","survey-multi-choice","89","219200","0.0-22.0","SS1619115572464","math_question","","","","","","","","","","","","{""Q0"":""14""}","[0]","14","",""
"","null","html-keyboard-response","90","220288","0.0-23.0-0.0","SS1619115572464","","","null","","","","","","<p><img src= images/blank.png width =""600"" height = ""600"" style=""position:fixed;top:50%; left:50%; transform: translate(-50%, -50%); border:5px solid black"">","","","","","","","",""
"","144.61999999912223","sequential-stimulus-presentation-old","91","230444","0.0-23.0-1.0","SS1619115572464","trial","","40","500","644.6199999991222","images/stimuli/spore_stims/complex_08_A_a.gif","images/stimuli/spore_stims/complex_20_A_b.gif","forced_long","","7","complex_dissimilar","images/stimuli/spore_stims/complex_20_A_b.gif","","","","",""
"","null","html-keyboard-response","92","231276","0.0-23.0-0.1","SS1619115572464","","","null","","","","","","<p><img src= images/blank.png width =""600"" height = ""600"" style=""position:fixed;top:50%; left:50%; transform: translate(-50%, -50%); border:5px solid black"">","","","","","","","",""
"","2233.974999999191","sequential-stimulus-presentation-old","93","234021","0.0-23.0-1.1","SS1619115572464","trial","","40","500","2733.974999999191","images/stimuli/spore_stims/complex_08_A_a.gif","images/stimuli/spore_stims/complex_20_A_b.gif","forced_long","","7","complex_dissimilar","images/stimuli/spore_stims/complex_20_A_b.gif","","","","",""
"","null","html-keyboard-response","94","235027","0.0-23.0-0.2","SS1619115572464","","","null","","","","","","<p><img src= images/blank.png width =""600"" height = ""600"" style=""position:fixed;top:50%; left:50%; transform: translate(-50%, -50%); border:5px solid black"">","","","","","","","",""
"","1209.3150000000605","sequential-stimulus-presentation-old","95","236750","0.0-23.0-1.2","SS1619115572464","trial","","40","500","1709.3150000000605","images/stimuli/spore_stims/complex_08_A_a.gif","images/stimuli/spore_stims/complex_20_A_b.gif","forced_long","","7","complex_dissimilar","images/stimuli/spore_stims/complex_08_A_a.gif","","","","",""
"","null","html-keyboard-response","96","237862","0.0-23.0-0.3","SS1619115572464","","","null","","","","","","<p><img src= images/blank.png width =""600"" height = ""600"" style=""position:fixed;top:50%; left:50%; transform: translate(-50%, -50%); border:5px solid black"">","","","","","","","",""
"","1394.3800000015472","sequential-stimulus-presentation-old","97","239766","0.0-23.0-1.3","SS1619115572464","trial","","40","500","1894.3800000015472","images/stimuli/spore_stims/complex_08_A_a.gif","images/stimuli/spore_stims/complex_20_A_b.gif","forced_long","","7","complex_dissimilar","images/stimuli/spore_stims/complex_08_A_a.gif","","","","",""
"","null","html-keyboard-response","98","240823","0.0-23.0-0.4","SS1619115572464","","","null","","","","","","<p><img src= images/blank.png width =""600"" height = ""600"" style=""position:fixed;top:50%; left:50%; transform: translate(-50%, -50%); border:5px solid black"">","","","","","","","",""
"","1329.8000000031607","sequential-stimulus-presentation-old","99","242662","0.0-23.0-1.4","SS1619115572464","trial","","40","500","1829.8000000031607","images/stimuli/spore_stims/complex_08_A_a.gif","images/stimuli/spore_stims/complex_20_A_b.gif","forced_long","","7","complex_dissimilar","images/stimuli/spore_stims/complex_20_A_b.gif","","","","",""
"","3315.985000001092","survey-multi-choice","100","245985","0.0-24.0","SS1619115572464","math_question","","","","","","","","","","","","{""Q0"":""7""}","[0]","7","",""
"","null","html-keyboard-response","101","246837","0.0-25.0-0.0","SS1619115572464","","","null","","","","","","<p><img src= images/blank.png width =""600"" height = ""600"" style=""position:fixed;top:50%; left:50%; transform: translate(-50%, -50%); border:5px solid black"">","","","","","","","",""
"","6775.83500000037","sequential-stimulus-presentation-old","102","263631","0.0-25.0-1.0","SS1619115572464","trial","","40","500","7275.83500000037","images/stimuli/spore_stims/simple_09_A_b.gif","images/stimuli/spore_stims/simple_13_A_a.gif","forced_long","","8","simple_dissimilar","images/stimuli/spore_stims/simple_13_A_a.gif","","","","",""
"","null","html-keyboard-response","103","264846","0.0-25.0-0.1","SS1619115572464","","","null","","","","","","<p><img src= images/blank.png width =""600"" height = ""600"" style=""position:fixed;top:50%; left:50%; transform: translate(-50%, -50%); border:5px solid black"">","","","","","","","",""
"","1337.455000000773","sequential-stimulus-presentation-old","104","266694","0.0-25.0-1.1","SS1619115572464","trial","","40","500","1837.455000000773","images/stimuli/spore_stims/simple_09_A_b.gif","images/stimuli/spore_stims/simple_13_A_a.gif","forced_long","","8","simple_dissimilar","images/stimuli/spore_stims/simple_13_A_a.gif","","","","",""
"","null","html-keyboard-response","105","267848","0.0-25.0-0.2","SS1619115572464","","","null","","","","","","<p><img src= images/blank.png width =""600"" height = ""600"" style=""position:fixed;top:50%; left:50%; transform: translate(-50%, -50%); border:5px solid black"">","","","","","","","",""
"","990.9049999987474","sequential-stimulus-presentation-old","106","269349","0.0-25.0-1.2","SS1619115572464","trial","","40","500","1490.9049999987474","images/stimuli/spore_stims/simple_09_A_b.gif","images/stimuli/spore_stims/simple_13_A_a.gif","forced_long","","8","simple_dissimilar","images/stimuli/spore_stims/simple_13_A_a.gif","","","","",""
"","null","html-keyboard-response","107","270361","0.0-25.0-0.3","SS1619115572464","","","null","","","","","","<p><img src= images/blank.png width =""600"" height = ""600"" style=""position:fixed;top:50%; left:50%; transform: translate(-50%, -50%); border:5px solid black"">","","","","","","","",""
"","3236.965000000084","sequential-stimulus-presentation-old","108","274109","0.0-25.0-1.3","SS1619115572464","trial","","40","500","3736.965000000084","images/stimuli/spore_stims/simple_09_A_b.gif","images/stimuli/spore_stims/simple_13_A_a.gif","forced_long","","8","simple_dissimilar","images/stimuli/spore_stims/simple_13_A_a.gif","","","","",""
"","2771.6900000014575","survey-multi-choice","109","276888","0.0-26.0","SS1619115572464","math_question","","","","","","","","","","","","{""Q0"":""2""}","[0]","2","",""
"","null","html-keyboard-response","110","277868","0.0-27.0-0.0","SS1619115572464","","","null","","","","","","<p><img src= images/blank.png width =""600"" height = ""600"" style=""position:fixed;top:50%; left:50%; transform: translate(-50%, -50%); border:5px solid black"">","","","","","","","",""
"","5649.660000002768","sequential-stimulus-presentation-old","111","283629","0.0-27.0-1.0","SS1619115572464","trial","","40","500","6149.660000002768","images/stimuli/spore_stims/simple_02_A_b.gif","images/stimuli/spore_stims/simple_12_A_a.gif","forced_short","","9","simple_dissimilar","images/stimuli/spore_stims/simple_12_A_a.gif","","","","",""
"","null","html-keyboard-response","112","284735","0.0-27.0-0.1","SS1619115572464","","","null","","","","","","<p><img src= images/blank.png width =""600"" height = ""600"" style=""position:fixed;top:50%; left:50%; transform: translate(-50%, -50%); border:5px solid black"">","","","","","","","",""
"","358.59500000154367","sequential-stimulus-presentation-old","113","285604","0.0-27.0-1.1","SS1619115572464","trial","","40","500","858.5950000015437","images/stimuli/spore_stims/simple_02_A_b.gif","images/stimuli/spore_stims/simple_12_A_a.gif","forced_short","","9","simple_dissimilar","images/stimuli/spore_stims/simple_12_A_a.gif","","","","",""
"","null","html-keyboard-response","114","286848","0.0-27.0-0.2","SS1619115572464","","","null","","","","","","<p><img src= images/blank.png width =""600"" height = ""600"" style=""position:fixed;top:50%; left:50%; transform: translate(-50%, -50%); border:5px solid black"">","","","","","","","",""
"","7022.290000000794","sequential-stimulus-presentation-old","115","294380","0.0-27.0-1.2","SS1619115572464","trial","","40","500","7522.290000000794","images/stimuli/spore_stims/simple_02_A_b.gif","images/stimuli/spore_stims/simple_12_A_a.gif","forced_short","","9","simple_dissimilar","images/stimuli/spore_stims/simple_12_A_a.gif","","","","",""
"","null","html-keyboard-response","116","295202","0.0-27.0-0.3","SS1619115572464","","","null","","","","","","<p><img src= images/blank.png width =""600"" height = ""600"" style=""position:fixed;top:50%; left:50%; transform: translate(-50%, -50%); border:5px solid black"">","","","","","","","",""
"","280.17499999981374","sequential-stimulus-presentation-old","117","295998","0.0-27.0-1.3","SS1619115572464","trial","","40","500","780.1749999998137","images/stimuli/spore_stims/simple_02_A_b.gif","images/stimuli/spore_stims/simple_12_A_a.gif","forced_short","","9","simple_dissimilar","images/stimuli/spore_stims/simple_12_A_a.gif","","","","",""
"","7323.274999998859","survey-multi-choice","118","303329","0.0-28.0","SS1619115572464","math_question","","","","","","","","","","","","{""Q0"":""14""}","[0]","14","",""
"","null","html-keyboard-response","119","304493","0.0-29.0-0.0","SS1619115572464","","","null","","","","","","<p><img src= images/blank.png width =""600"" height = ""600"" style=""position:fixed;top:50%; left:50%; transform: translate(-50%, -50%); border:5px solid black"">","","","","","","","",""
"","1662.609999999404","sequential-stimulus-presentation-old","120","306670","0.0-29.0-1.0","SS1619115572464","trial","","40","500","2162.609999999404","images/stimuli/spore_stims/simple_13_A_b.gif","images/stimuli/spore_stims/simple_08_A_a.gif","self_paced","","10","simple_dissimilar","images/stimuli/spore_stims/simple_08_A_a.gif","","","","",""
"","null","html-keyboard-response","121","307713","0.0-29.0-0.1","SS1619115572464","","","null","","","","","","<p><img src= images/blank.png width =""600"" height = ""600"" style=""position:fixed;top:50%; left:50%; transform: translate(-50%, -50%); border:5px solid black"">","","","","","","","",""
"","163.28000000072643","sequential-stimulus-presentation-old","122","308389","0.0-29.0-1.1","SS1619115572464","trial","","40","500","663.2800000007264","images/stimuli/spore_stims/simple_13_A_b.gif","images/stimuli/spore_stims/simple_08_A_a.gif","self_paced","","10","simple_dissimilar","images/stimuli/spore_stims/simple_13_A_b.gif","","","","",""
"","null","html-keyboard-response","123","309281","0.0-29.0-0.2","SS1619115572464","","","null","","","","","","<p><img src= images/blank.png width =""600"" height = ""600"" style=""position:fixed;top:50%; left:50%; transform: translate(-50%, -50%); border:5px solid black"">","","","","","","","",""
"","190.16999999800464","sequential-stimulus-presentation-old","124","309981","0.0-29.0-1.2","SS1619115572464","trial","","40","500","690.1699999980046","images/stimuli/spore_stims/simple_13_A_b.gif","images/stimuli/spore_stims/simple_08_A_a.gif","self_paced","","10","simple_dissimilar","images/stimuli/spore_stims/simple_13_A_b.gif","","","","",""
"","null","html-keyboard-response","125","311167","0.0-29.0-0.3","SS1619115572464","","","null","","","","","","<p><img src= images/blank.png width =""600"" height = ""600"" style=""position:fixed;top:50%; left:50%; transform: translate(-50%, -50%); border:5px solid black"">","","","","","","","",""
"","74.06999999878462","sequential-stimulus-presentation-old","126","311757","0.0-29.0-1.3","SS1619115572464","trial","","40","500","574.0699999987846","images/stimuli/spore_stims/simple_13_A_b.gif","images/stimuli/spore_stims/simple_08_A_a.gif","self_paced","","10","simple_dissimilar","images/stimuli/spore_stims/simple_08_A_a.gif","","","","",""
"","null","html-keyboard-response","127","312693","0.0-29.0-0.4","SS1619115572464","","","null","","","","","","<p><img src= images/blank.png width =""600"" height = ""600"" style=""position:fixed;top:50%; left:50%; transform: translate(-50%, -50%); border:5px solid black"">","","","","","","","",""
"","1216.87000000017","sequential-stimulus-presentation-old","128","314421","0.0-29.0-1.4","SS1619115572464","trial","","40","500","1716.87000000017","images/stimuli/spore_stims/simple_13_A_b.gif","images/stimuli/spore_stims/simple_08_A_a.gif","self_paced","","10","simple_dissimilar","images/stimuli/spore_stims/simple_08_A_a.gif","","","","",""
"","4619.249999999767","survey-multi-choice","129","319048","0.0-30.0","SS1619115572464","math_question","","","","","","","","","","","","{""Q0"":""16""}","[0]","16","",""
"","null","html-keyboard-response","130","319892","0.0-31.0-0.0","SS1619115572464","","","null","","","","","","<p><img src= images/blank.png width =""600"" height = ""600"" style=""position:fixed;top:50%; left:50%; transform: translate(-50%, -50%); border:5px solid black"">","","","","","","","",""
"","3099.035000002943","sequential-stimulus-presentation-old","131","323103","0.0-31.0-1.0","SS1619115572464","trial","","40","500","3599.035000002943","images/stimuli/spore_stims/complex_13_A_a.gif","images/stimuli/spore_stims/complex_07_A_b.gif","forced_short","","11","complex_dissimilar","images/stimuli/spore_stims/complex_07_A_b.gif","","","","",""
"","null","html-keyboard-response","132","324369","0.0-31.0-0.1","SS1619115572464","","","null","","","","","","<p><img src= images/blank.png width =""600"" height = ""600"" style=""position:fixed;top:50%; left:50%; transform: translate(-50%, -50%); border:5px solid black"">","","","","","","","",""
"","196.2500000008149","sequential-stimulus-presentation-old","133","325077","0.0-31.0-1.1","SS1619115572464","trial","","40","500","696.2500000008149","images/stimuli/spore_stims/complex_13_A_a.gif","images/stimuli/spore_stims/complex_07_A_b.gif","forced_short","","11","complex_dissimilar","images/stimuli/spore_stims/complex_07_A_b.gif","","","","",""
"","null","html-keyboard-response","134","326093","0.0-31.0-0.2","SS1619115572464","","","null","","","","","","<p><img src= images/blank.png width =""600"" height = ""600"" style=""position:fixed;top:50%; left:50%; transform: translate(-50%, -50%); border:5px solid black"">","","","","","","","",""
"","577.2150000011316","sequential-stimulus-presentation-old","135","327181","0.0-31.0-1.2","SS1619115572464","trial","","40","500","1077.2150000011316","images/stimuli/spore_stims/complex_13_A_a.gif","images/stimuli/spore_stims/complex_07_A_b.gif","forced_short","","11","complex_dissimilar","images/stimuli/spore_stims/complex_13_A_a.gif","","","","",""
"","null","html-keyboard-response","136","328059","0.0-31.0-0.3","SS1619115572464","","","null","","","","","","<p><img src= images/blank.png width =""600"" height = ""600"" style=""position:fixed;top:50%; left:50%; transform: translate(-50%, -50%); border:5px solid black"">","","","","","","","",""
"","603.0600000013364","sequential-stimulus-presentation-old","137","329173","0.0-31.0-1.3","SS1619115572464","trial","","40","500","1103.0600000013364","images/stimuli/spore_stims/complex_13_A_a.gif","images/stimuli/spore_stims/complex_07_A_b.gif","forced_short","","11","complex_dissimilar","images/stimuli/spore_stims/complex_07_A_b.gif","","","","",""
"","null","html-keyboard-response","138","330089","0.0-31.0-0.4","SS1619115572464","","","null","","","","","","<p><img src= images/blank.png width =""600"" height = ""600"" style=""position:fixed;top:50%; left:50%; transform: translate(-50%, -50%); border:5px solid black"">","","","","","","","",""
"","775.9399999995949","sequential-stimulus-presentation-old","139","331373","0.0-31.0-1.4","SS1619115572464","trial","","40","500","1275.9399999995949","images/stimuli/spore_stims/complex_13_A_a.gif","images/stimuli/spore_stims/complex_07_A_b.gif","forced_short","","11","complex_dissimilar","images/stimuli/spore_stims/complex_07_A_b.gif","","","","",""
"","null","html-keyboard-response","140","332240","0.0-31.0-0.5","SS1619115572464","","","null","","","","","","<p><img src= images/blank.png width =""600"" height = ""600"" style=""position:fixed;top:50%; left:50%; transform: translate(-50%, -50%); border:5px solid black"">","","","","","","","",""
"","719.1650000022491","sequential-stimulus-presentation-old","141","333470","0.0-31.0-1.5","SS1619115572464","trial","","40","500","1219.1650000022491","images/stimuli/spore_stims/complex_13_A_a.gif","images/stimuli/spore_stims/complex_07_A_b.gif","forced_short","","11","complex_dissimilar","images/stimuli/spore_stims/complex_07_A_b.gif","","","","",""
"[{""page_index"":0,""viewing_time"":2377.9499999982654}]","2378.5099999986705","instructions","142","335855","0.0-32.0","SS1619115572464","instructions","","","","","","","","","","","","","","","",""
"","6084.389999999956","survey-likert","143","341953","0.0-33.0","SS1619115572464","similarity_question","","","","","","","","","","","","{""Q0"":4}","[0]","","images/stimuli/spore_stims/simple_16_A_a.gif","images/stimuli/spore_stims/simple_19_A_b.gif"
"","3705.649999999907","survey-likert","144","345673","0.0-34.0","SS1619115572464","similarity_question","","","","","","","","","","","","{""Q0"":5}","[0]","","images/stimuli/spore_stims/simple_08_A_a.gif","images/stimuli/spore_stims/simple_13_A_b.gif"
"","2825.504999997036","survey-likert","145","348512","0.0-35.0","SS1619115572464","similarity_question","","","","","","","","","","","","{""Q0"":6}","[0]","","images/stimuli/spore_stims/complex_04_A_a.gif","images/stimuli/spore_stims/complex_01_A_b.gif"
"","3650.034999998752","survey-likert","146","352175","0.0-36.0","SS1619115572464","similarity_question","","","","","","","","","","","","{""Q0"":4}","[0]","","images/stimuli/spore_stims/complex_14_A_b.gif","images/stimuli/spore_stims/complex_10_A_a.gif"
"","4751.440000000002","survey-likert","147","356937","0.0-37.0","SS1619115572464","similarity_question","","","","","","","","","","","","{""Q0"":3}","[0]","","images/stimuli/spore_stims/complex_13_A_a.gif","images/stimuli/spore_stims/complex_07_A_b.gif"
"","2207.510000000184","survey-likert","148","359161","0.0-38.0","SS1619115572464","similarity_question","","","","","","","","","","","","{""Q0"":4}","[0]","","images/stimuli/spore_stims/simple_12_A_a.gif","images/stimuli/spore_stims/simple_02_A_b.gif"
"","3378.660000002128","survey-likert","149","362553","0.0-39.0","SS1619115572464","similarity_question","","","","","","","","","","","","{""Q0"":5}","[0]","","images/stimuli/spore_stims/complex_07_A_a.gif","images/stimuli/spore_stims/complex_10_A_b.gif"
"","2771.3050000020303","survey-likert","150","365337","0.0-40.0","SS1619115572464","similarity_question","","","","","","","","","","","","{""Q0"":4}","[0]","","images/stimuli/spore_stims/complex_11_A_b.gif","images/stimuli/spore_stims/complex_02_A_a.gif"
"","3082.319999997737","survey-likert","151","368432","0.0-41.0","SS1619115572464","similarity_question","","","","","","","","","","","","{""Q0"":6}","[0]","","images/stimuli/spore_stims/simple_10_A_a.gif","images/stimuli/spore_stims/simple_04_A_b.gif"
"","1970.4649999985122","survey-likert","152","370416","0.0-42.0","SS1619115572464","similarity_question","","","","","","","","","","","","{""Q0"":5}","[0]","","images/stimuli/spore_stims/simple_09_A_b.gif","images/stimuli/spore_stims/simple_13_A_a.gif"
"","2346.4899999999325","survey-likert","153","372777","0.0-43.0","SS1619115572464","similarity_question","","","","","","","","","","","","{""Q0"":4}","[0]","","images/stimuli/spore_stims/complex_20_A_b.gif","images/stimuli/spore_stims/complex_08_A_a.gif"
"","2162.804999999935","survey-likert","154","374953","0.0-44.0","SS1619115572464","similarity_question","","","","","","","","","","","","{""Q0"":3}","[0]","","images/stimuli/spore_stims/simple_05_A_b.gif","images/stimuli/spore_stims/simple_17_A_a.gif"
"[{""page_index"":0,""viewing_time"":1347.9950000001118}]","1349.0199999978067","instructions","155","376312","0.0-45.0","SS1619115572464","instructions","","","","","","","","","","","","","","","",""
"","4577.070000003034","survey-likert","156","380896","0.0-46.0","SS1619115572464","","","","","","","","","images/stimuli/spore_stims/complex_10_A_a.gif","","","","{""Q0"":4}","[0]","","",""
"","1635.6099999975413","survey-likert","157","382545","0.0-47.0","SS1619115572464","","","","","","","","","images/stimuli/spore_stims/simple_13_A_b.gif","","","","{""Q0"":4}","[0]","","",""
"","1902.7850000020699","survey-likert","158","384464","0.0-48.0","SS1619115572464","","","","","","","","","images/stimuli/spore_stims/simple_13_A_a.gif","","","","{""Q0"":3}","[0]","","",""
"","2011.3499999970663","survey-likert","159","386489","0.0-49.0","SS1619115572464","","","","","","","","","images/stimuli/spore_stims/complex_08_A_a.gif","","","","{""Q0"":5}","[0]","","",""
"","1610.049999999348","survey-likert","160","388112","0.0-50.0","SS1619115572464","","","","","","","","","images/stimuli/spore_stims/complex_07_A_b.gif","","","","{""Q0"":4}","[0]","","",""
"","1841.7950000002747","survey-likert","161","389967","0.0-51.0","SS1619115572464","","","","","","","","","images/stimuli/spore_stims/complex_01_A_b.gif","","","","{""Q0"":3}","[0]","","",""
"","1993.274999997113","survey-likert","162","391968","0.0-52.0","SS1619115572464","","","","","","","","","images/stimuli/spore_stims/complex_02_A_a.gif","","","","{""Q0"":4}","[0]","","",""
"","1514.1550000007846","survey-likert","163","393496","0.0-53.0","SS1619115572464","","","","","","","","","images/stimuli/spore_stims/simple_05_A_b.gif","","","","{""Q0"":3}","[0]","","",""
"","3010.3500000004424","survey-likert","164","396520","0.0-54.0","SS1619115572464","","","","","","","","","images/stimuli/spore_stims/simple_19_A_b.gif","","","","{""Q0"":3}","[0]","","",""
"","7722.289999997825","survey-likert","165","404255","0.0-55.0","SS1619115572464","","","","","","","","","images/stimuli/spore_stims/simple_10_A_a.gif","","","","{""Q0"":4}","[0]","","",""
"","1790.1250000032014","survey-likert","166","406054","0.0-56.0","SS1619115572464","","","","","","","","","images/stimuli/spore_stims/complex_10_A_b.gif","","","","{""Q0"":3}","[0]","","",""
"","1934.7249999991618","survey-likert","167","407998","0.0-57.0","SS1619115572464","","","","","","","","","images/stimuli/spore_stims/simple_12_A_a.gif","","","","{""Q0"":4}","[0]","","",""
"[{""page_index"":0,""viewing_time"":999.920000002021}]","1000.710000000312","instructions","168","409006","0.0-58.0","SS1619115572464","instructions","","","","","","","","","","","","","","","",""
"","3755.574999999255","demog-age","169","412784","0.0-59.0","SS1619115572464","","","","","","","","","","","","","{""age"":""59""}","","","",""
"","3408.179999998538","demog-ethnic-US","170","416220","0.0-60.0","SS1619115572464","","","","","","","","","","","","","{""ethnicity"":[""White""]}","[0]","","",""
"","4453.809999999125","demog-gender-and-education","171","420691","0.0-61.0","SS1619115572464","","","","","","","","","","","","","{""gender"":""Male"",""education"":""Bachelor's Degree""}","[0,1]","","",""
"","6333.195000002859","survey-text","172","427042","0.0-62.0","SS1619115572464","feedback","","","","","","","","","","","","{""Q0"":""GOOD""}","","","",""
"[{""page_index"":0,""viewing_time"":1209.6650000021327}]","1210.3900000001304","instructions","173","428264","0.0-63.0","SS1619115572464","instructions","","","","","","","","","","","","","","","",""
