"view_history","rt","trial_type","trial_index","time_elapsed","internal_node_id","subject","stimulus_type","trial_stimulus","key_press","minimum_viewing_duration","trial_looking_time","block_deviant","block_background","exposure_type","stimulus","block_number","block_type","stimulus_displayed","responses","question_order","math_correct_answer","stimulus_left","stimulus_right"
"[{""page_index"":0,""viewing_time"":2375.449999999546}]","2376.5500000008615","instructions","0","2383","0.0-0.0","SS1619114809605","","","","","","","","","","","","","","","","",""
"[{""page_index"":0,""viewing_time"":1618.4549999998126},{""page_index"":1,""viewing_time"":3960.735000000568}]","5580.105000000913","instructions","1","9980","0.0-1.0","SS1619114809605","instructions","","","","","","","","","","","","","","","",""
"","5546.234999997978","sequential-stimulus-presentation-old","2","16039","0.0-2.0","SS1619114809605","","","40","500","6046.234999997978","null","null","self_paced","","","","","","","","",""
"","1166.4700000001176","sequential-stimulus-presentation-old","3","17717","0.0-3.0","SS1619114809605","","","40","500","1666.4700000001176","null","null","self_paced","","","","","","","","",""
"[{""page_index"":0,""viewing_time"":14835.290000002715}]","14835.995000001276","instructions","4","32556","0.0-4.0","SS1619114809605","instructions","","","","","","","","","","","","","","","",""
"","6037.629999998899","sequential-stimulus-presentation-old","5","48606","0.0-5.0","SS1619114809605","","","40","500","6537.629999998899","null","null","forced_long","","","","","","","","",""
"","1245.2550000016345","sequential-stimulus-presentation-old","6","49969","0.0-6.0","SS1619114809605","","","40","500","1745.2550000016345","null","null","forced_long","","","","","","","","",""
"[{""page_index"":0,""viewing_time"":3129.6949999996286}]","3130.619999999908","instructions","7","53103","0.0-7.0","SS1619114809605","instructions","","","","","","","","","","","","","","","",""
"[{""page_index"":0,""viewing_time"":977.9400000006717},{""page_index"":1,""viewing_time"":5176.11499999839},{""page_index"":2,""viewing_time"":39753.1650000019},{""page_index"":3,""viewing_time"":4144.244999999501},{""page_index"":4,""viewing_time"":952.0999999986088}]","51004.35500000094","instructions","8","104111","0.0-8.0","SS1619114809605","instructions","","","","","","","","","","","","","","","",""
"","null","html-keyboard-response","9","105159","0.0-9.0-0.0","SS1619114809605","","","null","","","","","","<p><img src= images/blank.png width =""600"" height = ""600"" style=""position:fixed;top:50%; left:50%; transform: translate(-50%, -50%); border:5px solid black"">","","","","","","","",""
"","187.51499999780208","sequential-stimulus-presentation-old","10","105881","0.0-9.0-1.0","SS1619114809605","trial","","40","500","687.5149999978021","images/stimuli/spore_stims/complex_11_A_b.gif","images/stimuli/spore_stims/complex_12_A_a.gif","self_paced","","0","complex_dissimilar","images/stimuli/spore_stims/complex_12_A_a.gif","","","","",""
"","null","html-keyboard-response","11","107039","0.0-9.0-0.1","SS1619114809605","","","null","","","","","","<p><img src= images/blank.png width =""600"" height = ""600"" style=""position:fixed;top:50%; left:50%; transform: translate(-50%, -50%); border:5px solid black"">","","","","","","","",""
"","32.06000000136555","sequential-stimulus-presentation-old","12","107582","0.0-9.0-1.1","SS1619114809605","trial","","40","500","532.0600000013656","images/stimuli/spore_stims/complex_11_A_b.gif","images/stimuli/spore_stims/complex_12_A_a.gif","self_paced","","0","complex_dissimilar","images/stimuli/spore_stims/complex_12_A_a.gif","","","","",""
"","null","html-keyboard-response","13","108572","0.0-9.0-0.2","SS1619114809605","","","null","","","","","","<p><img src= images/blank.png width =""600"" height = ""600"" style=""position:fixed;top:50%; left:50%; transform: translate(-50%, -50%); border:5px solid black"">","","","","","","","",""
"","309.03500000204076","sequential-stimulus-presentation-old","14","109399","0.0-9.0-1.2","SS1619114809605","trial","","40","500","809.0350000020408","images/stimuli/spore_stims/complex_11_A_b.gif","images/stimuli/spore_stims/complex_12_A_a.gif","self_paced","","0","complex_dissimilar","images/stimuli/spore_stims/complex_12_A_a.gif","","","","",""
"","null","html-keyboard-response","15","110497","0.0-9.0-0.3","SS1619114809605","","","null","","","","","","<p><img src= images/blank.png width =""600"" height = ""600"" style=""position:fixed;top:50%; left:50%; transform: translate(-50%, -50%); border:5px solid black"">","","","","","","","",""
"","20.400000001245644","sequential-stimulus-presentation-old","16","111037","0.0-9.0-1.3","SS1619114809605","trial","","40","500","520.4000000012456","images/stimuli/spore_stims/complex_11_A_b.gif","images/stimuli/spore_stims/complex_12_A_a.gif","self_paced","","0","complex_dissimilar","images/stimuli/spore_stims/complex_12_A_a.gif","","","","",""
"","null","html-keyboard-response","17","111987","0.0-9.0-0.4","SS1619114809605","","","null","","","","","","<p><img src= images/blank.png width =""600"" height = ""600"" style=""position:fixed;top:50%; left:50%; transform: translate(-50%, -50%); border:5px solid black"">","","","","","","","",""
"","170.91500000242377","sequential-stimulus-presentation-old","18","112697","0.0-9.0-1.4","SS1619114809605","trial","","40","500","670.9150000024238","images/stimuli/spore_stims/complex_11_A_b.gif","images/stimuli/spore_stims/complex_12_A_a.gif","self_paced","","0","complex_dissimilar","images/stimuli/spore_stims/complex_12_A_a.gif","","","","",""
"","null","html-keyboard-response","19","113553","0.0-9.0-0.5","SS1619114809605","","","null","","","","","","<p><img src= images/blank.png width =""600"" height = ""600"" style=""position:fixed;top:50%; left:50%; transform: translate(-50%, -50%); border:5px solid black"">","","","","","","","",""
"","65.1849999994738","sequential-stimulus-presentation-old","20","114126","0.0-9.0-1.5","SS1619114809605","trial","","40","500","565.1849999994738","images/stimuli/spore_stims/complex_11_A_b.gif","images/stimuli/spore_stims/complex_12_A_a.gif","self_paced","","0","complex_dissimilar","images/stimuli/spore_stims/complex_11_A_b.gif","","","","",""
"","3422.0749999985856","survey-multi-choice","21","117556","0.0-10.0","SS1619114809605","math_question","","","","","","","","","","","","{""Q0"":""7""}","[0]","7","",""
"","null","html-keyboard-response","22","118394","0.0-11.0-0.0","SS1619114809605","","","null","","","","","","<p><img src= images/blank.png width =""600"" height = ""600"" style=""position:fixed;top:50%; left:50%; transform: translate(-50%, -50%); border:5px solid black"">","","","","","","","",""
"","435.8849999989616","sequential-stimulus-presentation-old","23","128850","0.0-11.0-1.0","SS1619114809605","trial","","40","500","935.8849999989616","images/stimuli/spore_stims/simple_09_A_a.gif","images/stimuli/spore_stims/simple_16_A_b.gif","forced_long","","1","simple_dissimilar","images/stimuli/spore_stims/simple_16_A_b.gif","","","","",""
"","null","html-keyboard-response","24","129949","0.0-11.0-0.1","SS1619114809605","","","null","","","","","","<p><img src= images/blank.png width =""600"" height = ""600"" style=""position:fixed;top:50%; left:50%; transform: translate(-50%, -50%); border:5px solid black"">","","","","","","","",""
"","154.6200000011595","sequential-stimulus-presentation-old","25","130620","0.0-11.0-1.1","SS1619114809605","trial","","40","500","654.6200000011595","images/stimuli/spore_stims/simple_09_A_a.gif","images/stimuli/spore_stims/simple_16_A_b.gif","forced_long","","1","simple_dissimilar","images/stimuli/spore_stims/simple_09_A_a.gif","","","","",""
"","null","html-keyboard-response","26","131676","0.0-11.0-0.2","SS1619114809605","","","null","","","","","","<p><img src= images/blank.png width =""600"" height = ""600"" style=""position:fixed;top:50%; left:50%; transform: translate(-50%, -50%); border:5px solid black"">","","","","","","","",""
"","129.54499999977998","sequential-stimulus-presentation-old","27","132315","0.0-11.0-1.2","SS1619114809605","trial","","40","500","629.54499999978","images/stimuli/spore_stims/simple_09_A_a.gif","images/stimuli/spore_stims/simple_16_A_b.gif","forced_long","","1","simple_dissimilar","images/stimuli/spore_stims/simple_09_A_a.gif","","","","",""
"","null","html-keyboard-response","28","133243","0.0-11.0-0.3","SS1619114809605","","","null","","","","","","<p><img src= images/blank.png width =""600"" height = ""600"" style=""position:fixed;top:50%; left:50%; transform: translate(-50%, -50%); border:5px solid black"">","","","","","","","",""
"","243.39499999769032","sequential-stimulus-presentation-old","29","134005","0.0-11.0-1.3","SS1619114809605","trial","","40","500","743.3949999976903","images/stimuli/spore_stims/simple_09_A_a.gif","images/stimuli/spore_stims/simple_16_A_b.gif","forced_long","","1","simple_dissimilar","images/stimuli/spore_stims/simple_16_A_b.gif","","","","",""
"","null","html-keyboard-response","30","135063","0.0-11.0-0.4","SS1619114809605","","","null","","","","","","<p><img src= images/blank.png width =""600"" height = ""600"" style=""position:fixed;top:50%; left:50%; transform: translate(-50%, -50%); border:5px solid black"">","","","","","","","",""
"","23.949999998876592","sequential-stimulus-presentation-old","31","135597","0.0-11.0-1.4","SS1619114809605","trial","","40","500","523.9499999988766","images/stimuli/spore_stims/simple_09_A_a.gif","images/stimuli/spore_stims/simple_16_A_b.gif","forced_long","","1","simple_dissimilar","images/stimuli/spore_stims/simple_16_A_b.gif","","","","",""
"","4078.6299999999756","survey-multi-choice","32","139681","0.0-12.0","SS1619114809605","math_question","","","","","","","","","","","","{""Q0"":""9""}","[0]","9","",""
"","null","html-keyboard-response","33","140967","0.0-13.0-0.0","SS1619114809605","","","null","","","","","","<p><img src= images/blank.png width =""600"" height = ""600"" style=""position:fixed;top:50%; left:50%; transform: translate(-50%, -50%); border:5px solid black"">","","","","","","","",""
"","129.2799999973795","sequential-stimulus-presentation-old","34","141618","0.0-13.0-1.0","SS1619114809605","trial","","40","500","629.2799999973795","images/stimuli/spore_stims/simple_05_A_b.gif","images/stimuli/spore_stims/simple_03_A_a.gif","self_paced","","2","simple_dissimilar","images/stimuli/spore_stims/simple_03_A_a.gif","","","","",""
"","null","html-keyboard-response","35","142693","0.0-13.0-0.1","SS1619114809605","","","null","","","","","","<p><img src= images/blank.png width =""600"" height = ""600"" style=""position:fixed;top:50%; left:50%; transform: translate(-50%, -50%); border:5px solid black"">","","","","","","","",""
"","182.9199999992852","sequential-stimulus-presentation-old","36","143390","0.0-13.0-1.1","SS1619114809605","trial","","40","500","682.9199999992852","images/stimuli/spore_stims/simple_05_A_b.gif","images/stimuli/spore_stims/simple_03_A_a.gif","self_paced","","2","simple_dissimilar","images/stimuli/spore_stims/simple_03_A_a.gif","","","","",""
"","null","html-keyboard-response","37","144533","0.0-13.0-0.2","SS1619114809605","","","null","","","","","","<p><img src= images/blank.png width =""600"" height = ""600"" style=""position:fixed;top:50%; left:50%; transform: translate(-50%, -50%); border:5px solid black"">","","","","","","","",""
"","10.13000000239117","sequential-stimulus-presentation-old","38","145054","0.0-13.0-1.2","SS1619114809605","trial","","40","500","510.13000000239117","images/stimuli/spore_stims/simple_05_A_b.gif","images/stimuli/spore_stims/simple_03_A_a.gif","self_paced","","2","simple_dissimilar","images/stimuli/spore_stims/simple_03_A_a.gif","","","","",""
"","null","html-keyboard-response","39","145957","0.0-13.0-0.3","SS1619114809605","","","null","","","","","","<p><img src= images/blank.png width =""600"" height = ""600"" style=""position:fixed;top:50%; left:50%; transform: translate(-50%, -50%); border:5px solid black"">","","","","","","","",""
"","51.52999999700114","sequential-stimulus-presentation-old","40","146517","0.0-13.0-1.3","SS1619114809605","trial","","40","500","551.5299999970011","images/stimuli/spore_stims/simple_05_A_b.gif","images/stimuli/spore_stims/simple_03_A_a.gif","self_paced","","2","simple_dissimilar","images/stimuli/spore_stims/simple_05_A_b.gif","","","","",""
"","null","html-keyboard-response","41","147425","0.0-13.0-0.4","SS1619114809605","","","null","","","","","","<p><img src= images/blank.png width =""600"" height = ""600"" style=""position:fixed;top:50%; left:50%; transform: translate(-50%, -50%); border:5px solid black"">","","","","","","","",""
"","105.59500000090338","sequential-stimulus-presentation-old","42","148058","0.0-13.0-1.4","SS1619114809605","trial","","40","500","605.5950000009034","images/stimuli/spore_stims/simple_05_A_b.gif","images/stimuli/spore_stims/simple_03_A_a.gif","self_paced","","2","simple_dissimilar","images/stimuli/spore_stims/simple_03_A_a.gif","","","","",""
"","null","html-keyboard-response","43","148970","0.0-13.0-0.5","SS1619114809605","","","null","","","","","","<p><img src= images/blank.png width =""600"" height = ""600"" style=""position:fixed;top:50%; left:50%; transform: translate(-50%, -50%); border:5px solid black"">","","","","","","","",""
"","93.87499999866122","sequential-stimulus-presentation-old","44","149649","0.0-13.0-1.5","SS1619114809605","trial","","40","500","593.8749999986612","images/stimuli/spore_stims/simple_05_A_b.gif","images/stimuli/spore_stims/simple_03_A_a.gif","self_paced","","2","simple_dissimilar","images/stimuli/spore_stims/simple_03_A_a.gif","","","","",""
"","2816.929999997228","survey-multi-choice","45","152473","0.0-14.0","SS1619114809605","math_question","","","","","","","","","","","","{""Q0"":""13""}","[0]","13","",""
"","null","html-keyboard-response","46","153567","0.0-15.0-0.0","SS1619114809605","","","null","","","","","","<p><img src= images/blank.png width =""600"" height = ""600"" style=""position:fixed;top:50%; left:50%; transform: translate(-50%, -50%); border:5px solid black"">","","","","","","","",""
"","226.4950000026147","sequential-stimulus-presentation-old","47","163816","0.0-15.0-1.0","SS1619114809605","trial","","40","500","726.4950000026147","images/stimuli/spore_stims/complex_05_A_a.gif","images/stimuli/spore_stims/complex_06_A_b.gif","forced_long","","3","complex_dissimilar","images/stimuli/spore_stims/complex_06_A_b.gif","","","","",""
"","null","html-keyboard-response","48","164998","0.0-15.0-0.1","SS1619114809605","","","null","","","","","","<p><img src= images/blank.png width =""600"" height = ""600"" style=""position:fixed;top:50%; left:50%; transform: translate(-50%, -50%); border:5px solid black"">","","","","","","","",""
"","150.1349999998638","sequential-stimulus-presentation-old","49","165660","0.0-15.0-1.1","SS1619114809605","trial","","40","500","650.1349999998638","images/stimuli/spore_stims/complex_05_A_a.gif","images/stimuli/spore_stims/complex_06_A_b.gif","forced_long","","3","complex_dissimilar","images/stimuli/spore_stims/complex_05_A_a.gif","","","","",""
"","null","html-keyboard-response","50","166888","0.0-15.0-0.2","SS1619114809605","","","null","","","","","","<p><img src= images/blank.png width =""600"" height = ""600"" style=""position:fixed;top:50%; left:50%; transform: translate(-50%, -50%); border:5px solid black"">","","","","","","","",""
"","102.93000000092434","sequential-stimulus-presentation-old","51","167499","0.0-15.0-1.2","SS1619114809605","trial","","40","500","602.9300000009243","images/stimuli/spore_stims/complex_05_A_a.gif","images/stimuli/spore_stims/complex_06_A_b.gif","forced_long","","3","complex_dissimilar","images/stimuli/spore_stims/complex_06_A_b.gif","","","","",""
"","null","html-keyboard-response","52","168447","0.0-15.0-0.3","SS1619114809605","","","null","","","","","","<p><img src= images/blank.png width =""600"" height = ""600"" style=""position:fixed;top:50%; left:50%; transform: translate(-50%, -50%); border:5px solid black"">","","","","","","","",""
"","1.6350000005331822","sequential-stimulus-presentation-old","53","168966","0.0-15.0-1.3","SS1619114809605","trial","","40","500","501.6350000005332","images/stimuli/spore_stims/complex_05_A_a.gif","images/stimuli/spore_stims/complex_06_A_b.gif","forced_long","","3","complex_dissimilar","images/stimuli/spore_stims/complex_05_A_a.gif","","","","",""
"","2753.7149999989197","survey-multi-choice","54","171728","0.0-16.0","SS1619114809605","math_question","","","","","","","","","","","","{""Q0"":""7""}","[0]","7","",""
"","null","html-keyboard-response","55","172629","0.0-17.0-0.0","SS1619114809605","","","null","","","","","","<p><img src= images/blank.png width =""600"" height = ""600"" style=""position:fixed;top:50%; left:50%; transform: translate(-50%, -50%); border:5px solid black"">","","","","","","","",""
"","185.04500000199187","sequential-stimulus-presentation-old","56","182840","0.0-17.0-1.0","SS1619114809605","trial","","40","500","685.0450000019919","images/stimuli/spore_stims/simple_14_A_a.gif","images/stimuli/spore_stims/simple_03_A_b.gif","forced_long","","4","simple_dissimilar","images/stimuli/spore_stims/simple_03_A_b.gif","","","","",""
"","null","html-keyboard-response","57","184068","0.0-17.0-0.1","SS1619114809605","","","null","","","","","","<p><img src= images/blank.png width =""600"" height = ""600"" style=""position:fixed;top:50%; left:50%; transform: translate(-50%, -50%); border:5px solid black"">","","","","","","","",""
"","209.14999999877182","sequential-stimulus-presentation-old","58","184810","0.0-17.0-1.1","SS1619114809605","trial","","40","500","709.1499999987718","images/stimuli/spore_stims/simple_14_A_a.gif","images/stimuli/spore_stims/simple_03_A_b.gif","forced_long","","4","simple_dissimilar","images/stimuli/spore_stims/simple_03_A_b.gif","","","","",""
"","null","html-keyboard-response","59","185939","0.0-17.0-0.2","SS1619114809605","","","null","","","","","","<p><img src= images/blank.png width =""600"" height = ""600"" style=""position:fixed;top:50%; left:50%; transform: translate(-50%, -50%); border:5px solid black"">","","","","","","","",""
"","98.21000000010827","sequential-stimulus-presentation-old","60","186559","0.0-17.0-1.2","SS1619114809605","trial","","40","500","598.2100000001083","images/stimuli/spore_stims/simple_14_A_a.gif","images/stimuli/spore_stims/simple_03_A_b.gif","forced_long","","4","simple_dissimilar","images/stimuli/spore_stims/simple_14_A_a.gif","","","","",""
"","null","html-keyboard-response","61","187408","0.0-17.0-0.3","SS1619114809605","","","null","","","","","","<p><img src= images/blank.png width =""600"" height = ""600"" style=""position:fixed;top:50%; left:50%; transform: translate(-50%, -50%); border:5px solid black"">","","","","","","","",""
"","31.91999999762629","sequential-stimulus-presentation-old","62","187950","0.0-17.0-1.3","SS1619114809605","trial","","40","500","531.9199999976263","images/stimuli/spore_stims/simple_14_A_a.gif","images/stimuli/spore_stims/simple_03_A_b.gif","forced_long","","4","simple_dissimilar","images/stimuli/spore_stims/simple_03_A_b.gif","","","","",""
"","null","html-keyboard-response","63","189022","0.0-17.0-0.4","SS1619114809605","","","null","","","","","","<p><img src= images/blank.png width =""600"" height = ""600"" style=""position:fixed;top:50%; left:50%; transform: translate(-50%, -50%); border:5px solid black"">","","","","","","","",""
"","16.045000000303844","sequential-stimulus-presentation-old","64","189575","0.0-17.0-1.4","SS1619114809605","trial","","40","500","516.0450000003038","images/stimuli/spore_stims/simple_14_A_a.gif","images/stimuli/spore_stims/simple_03_A_b.gif","forced_long","","4","simple_dissimilar","images/stimuli/spore_stims/simple_03_A_b.gif","","","","",""
"","3349.9599999995553","survey-multi-choice","65","192932","0.0-18.0","SS1619114809605","math_question","","","","","","","","","","","","{""Q0"":""18""}","[0]","18","",""
"","null","html-keyboard-response","66","194064","0.0-19.0-0.0","SS1619114809605","","","null","","","","","","<p><img src= images/blank.png width =""600"" height = ""600"" style=""position:fixed;top:50%; left:50%; transform: translate(-50%, -50%); border:5px solid black"">","","","","","","","",""
"","67.24000000031083","sequential-stimulus-presentation-old","67","194657","0.0-19.0-1.0","SS1619114809605","trial","","40","500","567.2400000003108","images/stimuli/spore_stims/complex_14_A_a.gif","images/stimuli/spore_stims/complex_17_A_b.gif","self_paced","","5","complex_dissimilar","images/stimuli/spore_stims/complex_17_A_b.gif","","","","",""
"","null","html-keyboard-response","68","195847","0.0-19.0-0.1","SS1619114809605","","","null","","","","","","<p><img src= images/blank.png width =""600"" height = ""600"" style=""position:fixed;top:50%; left:50%; transform: translate(-50%, -50%); border:5px solid black"">","","","","","","","",""
"","43.56499999994412","sequential-stimulus-presentation-old","69","196425","0.0-19.0-1.1","SS1619114809605","trial","","40","500","543.5649999999441","images/stimuli/spore_stims/complex_14_A_a.gif","images/stimuli/spore_stims/complex_17_A_b.gif","self_paced","","5","complex_dissimilar","images/stimuli/spore_stims/complex_17_A_b.gif","","","","",""
"","null","html-keyboard-response","70","197352","0.0-19.0-0.2","SS1619114809605","","","null","","","","","","<p><img src= images/blank.png width =""600"" height = ""600"" style=""position:fixed;top:50%; left:50%; transform: translate(-50%, -50%); border:5px solid black"">","","","","","","","",""
"","120.54500000158441","sequential-stimulus-presentation-old","71","198009","0.0-19.0-1.2","SS1619114809605","trial","","40","500","620.5450000015844","images/stimuli/spore_stims/complex_14_A_a.gif","images/stimuli/spore_stims/complex_17_A_b.gif","self_paced","","5","complex_dissimilar","images/stimuli/spore_stims/complex_14_A_a.gif","","","","",""
"","null","html-keyboard-response","72","199306","0.0-19.0-0.3","SS1619114809605","","","null","","","","","","<p><img src= images/blank.png width =""600"" height = ""600"" style=""position:fixed;top:50%; left:50%; transform: translate(-50%, -50%); border:5px solid black"">","","","","","","","",""
"","234.27499999888823","sequential-stimulus-presentation-old","73","200062","0.0-19.0-1.3","SS1619114809605","trial","","40","500","734.2749999988882","images/stimuli/spore_stims/complex_14_A_a.gif","images/stimuli/spore_stims/complex_17_A_b.gif","self_paced","","5","complex_dissimilar","images/stimuli/spore_stims/complex_17_A_b.gif","","","","",""
"","2790.625000001455","survey-multi-choice","74","202859","0.0-20.0","SS1619114809605","math_question","","","","","","","","","","","","{""Q0"":""9""}","[0]","9","",""
"","null","html-keyboard-response","75","203828","0.0-21.0-0.0","SS1619114809605","","","null","","","","","","<p><img src= images/blank.png width =""600"" height = ""600"" style=""position:fixed;top:50%; left:50%; transform: translate(-50%, -50%); border:5px solid black"">","","","","","","","",""
"","477.2800000027928","sequential-stimulus-presentation-old","76","204424","0.0-21.0-1.0","SS1619114809605","trial","","40","500","977.2800000027928","images/stimuli/spore_stims/complex_16_A_a.gif","images/stimuli/spore_stims/complex_04_A_b.gif","forced_short","","6","complex_dissimilar","images/stimuli/spore_stims/complex_04_A_b.gif","","","","",""
"","null","html-keyboard-response","77","205361","0.0-21.0-0.1","SS1619114809605","","","null","","","","","","<p><img src= images/blank.png width =""600"" height = ""600"" style=""position:fixed;top:50%; left:50%; transform: translate(-50%, -50%); border:5px solid black"">","","","","","","","",""
"","27.970000002824236","sequential-stimulus-presentation-old","78","205915","0.0-21.0-1.1","SS1619114809605","trial","","40","500","527.9700000028242","images/stimuli/spore_stims/complex_16_A_a.gif","images/stimuli/spore_stims/complex_04_A_b.gif","forced_short","","6","complex_dissimilar","images/stimuli/spore_stims/complex_04_A_b.gif","","","","",""
"","null","html-keyboard-response","79","206766","0.0-21.0-0.2","SS1619114809605","","","null","","","","","","<p><img src= images/blank.png width =""600"" height = ""600"" style=""position:fixed;top:50%; left:50%; transform: translate(-50%, -50%); border:5px solid black"">","","","","","","","",""
"","230.7199999995646","sequential-stimulus-presentation-old","80","207509","0.0-21.0-1.2","SS1619114809605","trial","","40","500","730.7199999995646","images/stimuli/spore_stims/complex_16_A_a.gif","images/stimuli/spore_stims/complex_04_A_b.gif","forced_short","","6","complex_dissimilar","images/stimuli/spore_stims/complex_04_A_b.gif","","","","",""
"","null","html-keyboard-response","81","208844","0.0-21.0-0.3","SS1619114809605","","","null","","","","","","<p><img src= images/blank.png width =""600"" height = ""600"" style=""position:fixed;top:50%; left:50%; transform: translate(-50%, -50%); border:5px solid black"">","","","","","","","",""
"","270.36000000225613","sequential-stimulus-presentation-old","82","209628","0.0-21.0-1.3","SS1619114809605","trial","","40","500","770.3600000022561","images/stimuli/spore_stims/complex_16_A_a.gif","images/stimuli/spore_stims/complex_04_A_b.gif","forced_short","","6","complex_dissimilar","images/stimuli/spore_stims/complex_04_A_b.gif","","","","",""
"","null","html-keyboard-response","83","210773","0.0-21.0-0.4","SS1619114809605","","","null","","","","","","<p><img src= images/blank.png width =""600"" height = ""600"" style=""position:fixed;top:50%; left:50%; transform: translate(-50%, -50%); border:5px solid black"">","","","","","","","",""
"","75.50999999875785","sequential-stimulus-presentation-old","84","211365","0.0-21.0-1.4","SS1619114809605","trial","","40","500","575.5099999987578","images/stimuli/spore_stims/complex_16_A_a.gif","images/stimuli/spore_stims/complex_04_A_b.gif","forced_short","","6","complex_dissimilar","images/stimuli/spore_stims/complex_16_A_a.gif","","","","",""
"","null","html-keyboard-response","85","212267","0.0-21.0-0.5","SS1619114809605","","","null","","","","","","<p><img src= images/blank.png width =""600"" height = ""600"" style=""position:fixed;top:50%; left:50%; transform: translate(-50%, -50%); border:5px solid black"">","","","","","","","",""
"","97.90500000235625","sequential-stimulus-presentation-old","86","212890","0.0-21.0-1.5","SS1619114809605","trial","","40","500","597.9050000023562","images/stimuli/spore_stims/complex_16_A_a.gif","images/stimuli/spore_stims/complex_04_A_b.gif","forced_short","","6","complex_dissimilar","images/stimuli/spore_stims/complex_04_A_b.gif","","","","",""
"","2302.52499999915","survey-multi-choice","87","215205","0.0-22.0","SS1619114809605","math_question","","","","","","","","","","","","{""Q0"":""7""}","[0]","7","",""
"","null","html-keyboard-response","88","216324","0.0-23.0-0.0","SS1619114809605","","","null","","","","","","<p><img src= images/blank.png width =""600"" height = ""600"" style=""position:fixed;top:50%; left:50%; transform: translate(-50%, -50%); border:5px solid black"">","","","","","","","",""
"","41.25999999814667","sequential-stimulus-presentation-old","89","226387","0.0-23.0-1.0","SS1619114809605","trial","","40","500","541.2599999981467","images/stimuli/spore_stims/complex_20_A_a.gif","images/stimuli/spore_stims/complex_08_A_b.gif","forced_long","","7","complex_dissimilar","images/stimuli/spore_stims/complex_08_A_b.gif","","","","",""
"","null","html-keyboard-response","90","227593","0.0-23.0-0.1","SS1619114809605","","","null","","","","","","<p><img src= images/blank.png width =""600"" height = ""600"" style=""position:fixed;top:50%; left:50%; transform: translate(-50%, -50%); border:5px solid black"">","","","","","","","",""
"","107.28000000014435","sequential-stimulus-presentation-old","91","228241","0.0-23.0-1.1","SS1619114809605","trial","","40","500","607.2800000001444","images/stimuli/spore_stims/complex_20_A_a.gif","images/stimuli/spore_stims/complex_08_A_b.gif","forced_long","","7","complex_dissimilar","images/stimuli/spore_stims/complex_08_A_b.gif","","","","",""
"","null","html-keyboard-response","92","229270","0.0-23.0-0.2","SS1619114809605","","","null","","","","","","<p><img src= images/blank.png width =""600"" height = ""600"" style=""position:fixed;top:50%; left:50%; transform: translate(-50%, -50%); border:5px solid black"">","","","","","","","",""
"","144.17999999929452","sequential-stimulus-presentation-old","93","229932","0.0-23.0-1.2","SS1619114809605","trial","","40","500","644.1799999992945","images/stimuli/spore_stims/complex_20_A_a.gif","images/stimuli/spore_stims/complex_08_A_b.gif","forced_long","","7","complex_dissimilar","images/stimuli/spore_stims/complex_08_A_b.gif","","","","",""
"","null","html-keyboard-response","94","231242","0.0-23.0-0.3","SS1619114809605","","","null","","","","","","<p><img src= images/blank.png width =""600"" height = ""600"" style=""position:fixed;top:50%; left:50%; transform: translate(-50%, -50%); border:5px solid black"">","","","","","","","",""
"","353.465000000142","sequential-stimulus-presentation-old","95","232117","0.0-23.0-1.3","SS1619114809605","trial","","40","500","853.465000000142","images/stimuli/spore_stims/complex_20_A_a.gif","images/stimuli/spore_stims/complex_08_A_b.gif","forced_long","","7","complex_dissimilar","images/stimuli/spore_stims/complex_20_A_a.gif","","","","",""
"","null","html-keyboard-response","96","233263","0.0-23.0-0.4","SS1619114809605","","","null","","","","","","<p><img src= images/blank.png width =""600"" height = ""600"" style=""position:fixed;top:50%; left:50%; transform: translate(-50%, -50%); border:5px solid black"">","","","","","","","",""
"","144.6300000025076","sequential-stimulus-presentation-old","97","233917","0.0-23.0-1.4","SS1619114809605","trial","","40","500","644.6300000025076","images/stimuli/spore_stims/complex_20_A_a.gif","images/stimuli/spore_stims/complex_08_A_b.gif","forced_long","","7","complex_dissimilar","images/stimuli/spore_stims/complex_08_A_b.gif","","","","",""
"","3230.6599999974715","survey-multi-choice","98","237155","0.0-24.0","SS1619114809605","math_question","","","","","","","","","","","","{""Q0"":""10""}","[0]","10","",""
"","null","html-keyboard-response","99","238320","0.0-25.0-0.0","SS1619114809605","","","null","","","","","","<p><img src= images/blank.png width =""600"" height = ""600"" style=""position:fixed;top:50%; left:50%; transform: translate(-50%, -50%); border:5px solid black"">","","","","","","","",""
"","470.32000000035623","sequential-stimulus-presentation-old","100","238908","0.0-25.0-1.0","SS1619114809605","trial","","40","500","970.3200000003562","images/stimuli/spore_stims/simple_08_A_b.gif","images/stimuli/spore_stims/simple_11_A_a.gif","forced_short","","8","simple_dissimilar","images/stimuli/spore_stims/simple_11_A_a.gif","","","","",""
"","null","html-keyboard-response","101","239835","0.0-25.0-0.1","SS1619114809605","","","null","","","","","","<p><img src= images/blank.png width =""600"" height = ""600"" style=""position:fixed;top:50%; left:50%; transform: translate(-50%, -50%); border:5px solid black"">","","","","","","","",""
"","303.28499999816995","sequential-stimulus-presentation-old","102","240649","0.0-25.0-1.1","SS1619114809605","trial","","40","500","803.28499999817","images/stimuli/spore_stims/simple_08_A_b.gif","images/stimuli/spore_stims/simple_11_A_a.gif","forced_short","","8","simple_dissimilar","images/stimuli/spore_stims/simple_11_A_a.gif","","","","",""
"","null","html-keyboard-response","103","241954","0.0-25.0-0.2","SS1619114809605","","","null","","","","","","<p><img src= images/blank.png width =""600"" height = ""600"" style=""position:fixed;top:50%; left:50%; transform: translate(-50%, -50%); border:5px solid black"">","","","","","","","",""
"","396.5250000000815","sequential-stimulus-presentation-old","104","242894","0.0-25.0-1.2","SS1619114809605","trial","","40","500","896.5250000000815","images/stimuli/spore_stims/simple_08_A_b.gif","images/stimuli/spore_stims/simple_11_A_a.gif","forced_short","","8","simple_dissimilar","images/stimuli/spore_stims/simple_11_A_a.gif","","","","",""
"","null","html-keyboard-response","105","243887","0.0-25.0-0.3","SS1619114809605","","","null","","","","","","<p><img src= images/blank.png width =""600"" height = ""600"" style=""position:fixed;top:50%; left:50%; transform: translate(-50%, -50%); border:5px solid black"">","","","","","","","",""
"","249.5600000001723","sequential-stimulus-presentation-old","106","244654","0.0-25.0-1.3","SS1619114809605","trial","","40","500","749.5600000001723","images/stimuli/spore_stims/simple_08_A_b.gif","images/stimuli/spore_stims/simple_11_A_a.gif","forced_short","","8","simple_dissimilar","images/stimuli/spore_stims/simple_08_A_b.gif","","","","",""
"","null","html-keyboard-response","107","245472","0.0-25.0-0.4","SS1619114809605","","","null","","","","","","<p><img src= images/blank.png width =""600"" height = ""600"" style=""position:fixed;top:50%; left:50%; transform: translate(-50%, -50%); border:5px solid black"">","","","","","","","",""
"","188.87999999790918","sequential-stimulus-presentation-old","108","246179","0.0-25.0-1.4","SS1619114809605","trial","","40","500","688.8799999979092","images/stimuli/spore_stims/simple_08_A_b.gif","images/stimuli/spore_stims/simple_11_A_a.gif","forced_short","","8","simple_dissimilar","images/stimuli/spore_stims/simple_11_A_a.gif","","","","",""
"","null","html-keyboard-response","109","247148","0.0-25.0-0.5","SS1619114809605","","","null","","","","","","<p><img src= images/blank.png width =""600"" height = ""600"" style=""position:fixed;top:50%; left:50%; transform: translate(-50%, -50%); border:5px solid black"">","","","","","","","",""
"","222.00000000162981","sequential-stimulus-presentation-old","110","247880","0.0-25.0-1.5","SS1619114809605","trial","","40","500","722.0000000016298","images/stimuli/spore_stims/simple_08_A_b.gif","images/stimuli/spore_stims/simple_11_A_a.gif","forced_short","","8","simple_dissimilar","images/stimuli/spore_stims/simple_11_A_a.gif","","","","",""
"","3080.710000002","survey-multi-choice","111","250972","0.0-26.0","SS1619114809605","math_question","","","","","","","","","","","","{""Q0"":""6""}","[0]","6","",""
"","null","html-keyboard-response","112","252079","0.0-27.0-0.0","SS1619114809605","","","null","","","","","","<p><img src= images/blank.png width =""600"" height = ""600"" style=""position:fixed;top:50%; left:50%; transform: translate(-50%, -50%); border:5px solid black"">","","","","","","","",""
"","428.76999999862164","sequential-stimulus-presentation-old","113","252620","0.0-27.0-1.0","SS1619114809605","trial","","40","500","928.7699999986216","images/stimuli/spore_stims/simple_11_A_b.gif","images/stimuli/spore_stims/simple_01_A_a.gif","forced_short","","9","simple_dissimilar","images/stimuli/spore_stims/simple_01_A_a.gif","","","","",""
"","null","html-keyboard-response","114","253745","0.0-27.0-0.1","SS1619114809605","","","null","","","","","","<p><img src= images/blank.png width =""600"" height = ""600"" style=""position:fixed;top:50%; left:50%; transform: translate(-50%, -50%); border:5px solid black"">","","","","","","","",""
"","230.5400000005029","sequential-stimulus-presentation-old","115","254492","0.0-27.0-1.1","SS1619114809605","trial","","40","500","730.5400000005029","images/stimuli/spore_stims/simple_11_A_b.gif","images/stimuli/spore_stims/simple_01_A_a.gif","forced_short","","9","simple_dissimilar","images/stimuli/spore_stims/simple_01_A_a.gif","","","","",""
"","null","html-keyboard-response","116","255709","0.0-27.0-0.2","SS1619114809605","","","null","","","","","","<p><img src= images/blank.png width =""600"" height = ""600"" style=""position:fixed;top:50%; left:50%; transform: translate(-50%, -50%); border:5px solid black"">","","","","","","","",""
"","55.954999999841675","sequential-stimulus-presentation-old","117","256277","0.0-27.0-1.2","SS1619114809605","trial","","40","500","555.9549999998417","images/stimuli/spore_stims/simple_11_A_b.gif","images/stimuli/spore_stims/simple_01_A_a.gif","forced_short","","9","simple_dissimilar","images/stimuli/spore_stims/simple_11_A_b.gif","","","","",""
"","null","html-keyboard-response","118","257412","0.0-27.0-0.3","SS1619114809605","","","null","","","","","","<p><img src= images/blank.png width =""600"" height = ""600"" style=""position:fixed;top:50%; left:50%; transform: translate(-50%, -50%); border:5px solid black"">","","","","","","","",""
"","40.47500000160653","sequential-stimulus-presentation-old","119","257966","0.0-27.0-1.3","SS1619114809605","trial","","40","500","540.4750000016065","images/stimuli/spore_stims/simple_11_A_b.gif","images/stimuli/spore_stims/simple_01_A_a.gif","forced_short","","9","simple_dissimilar","images/stimuli/spore_stims/simple_11_A_b.gif","","","","",""
"","2777.7699999969336","survey-multi-choice","120","260764","0.0-28.0","SS1619114809605","math_question","","","","","","","","","","","","{""Q0"":""10""}","[0]","10","",""
"","null","html-keyboard-response","121","261952","0.0-29.0-0.0","SS1619114809605","","","null","","","","","","<p><img src= images/blank.png width =""600"" height = ""600"" style=""position:fixed;top:50%; left:50%; transform: translate(-50%, -50%); border:5px solid black"">","","","","","","","",""
"","127.77999999886379","sequential-stimulus-presentation-old","122","262218","0.0-29.0-1.0","SS1619114809605","trial","","40","500","627.7799999988638","images/stimuli/spore_stims/complex_14_A_b.gif","images/stimuli/spore_stims/complex_17_A_a.gif","forced_short","","10","complex_dissimilar","images/stimuli/spore_stims/complex_17_A_a.gif","","","","",""
"","null","html-keyboard-response","123","263059","0.0-29.0-0.1","SS1619114809605","","","null","","","","","","<p><img src= images/blank.png width =""600"" height = ""600"" style=""position:fixed;top:50%; left:50%; transform: translate(-50%, -50%); border:5px solid black"">","","","","","","","",""
"","96.54500000033295","sequential-stimulus-presentation-old","124","263681","0.0-29.0-1.1","SS1619114809605","trial","","40","500","596.545000000333","images/stimuli/spore_stims/complex_14_A_b.gif","images/stimuli/spore_stims/complex_17_A_a.gif","forced_short","","10","complex_dissimilar","images/stimuli/spore_stims/complex_17_A_a.gif","","","","",""
"","null","html-keyboard-response","125","264774","0.0-29.0-0.2","SS1619114809605","","","null","","","","","","<p><img src= images/blank.png width =""600"" height = ""600"" style=""position:fixed;top:50%; left:50%; transform: translate(-50%, -50%); border:5px solid black"">","","","","","","","",""
"","139.64999999734573","sequential-stimulus-presentation-old","126","265443","0.0-29.0-1.2","SS1619114809605","trial","","40","500","639.6499999973457","images/stimuli/spore_stims/complex_14_A_b.gif","images/stimuli/spore_stims/complex_17_A_a.gif","forced_short","","10","complex_dissimilar","images/stimuli/spore_stims/complex_17_A_a.gif","","","","",""
"","null","html-keyboard-response","127","266602","0.0-29.0-0.3","SS1619114809605","","","null","","","","","","<p><img src= images/blank.png width =""600"" height = ""600"" style=""position:fixed;top:50%; left:50%; transform: translate(-50%, -50%); border:5px solid black"">","","","","","","","",""
"","77.90499999828171","sequential-stimulus-presentation-old","128","267198","0.0-29.0-1.3","SS1619114809605","trial","","40","500","577.9049999982817","images/stimuli/spore_stims/complex_14_A_b.gif","images/stimuli/spore_stims/complex_17_A_a.gif","forced_short","","10","complex_dissimilar","images/stimuli/spore_stims/complex_17_A_a.gif","","","","",""
"","null","html-keyboard-response","129","268027","0.0-29.0-0.4","SS1619114809605","","","null","","","","","","<p><img src= images/blank.png width =""600"" height = ""600"" style=""position:fixed;top:50%; left:50%; transform: translate(-50%, -50%); border:5px solid black"">","","","","","","","",""
"","8.485000002139714","sequential-stimulus-presentation-old","130","268552","0.0-29.0-1.4","SS1619114809605","trial","","40","500","508.4850000021397","images/stimuli/spore_stims/complex_14_A_b.gif","images/stimuli/spore_stims/complex_17_A_a.gif","forced_short","","10","complex_dissimilar","images/stimuli/spore_stims/complex_17_A_a.gif","","","","",""
"","3979.685000002035","survey-multi-choice","131","272542","0.0-30.0","SS1619114809605","math_question","","","","","","","","","","","","{""Q0"":""12""}","[0]","12","",""
"","null","html-keyboard-response","132","273743","0.0-31.0-0.0","SS1619114809605","","","null","","","","","","<p><img src= images/blank.png width =""600"" height = ""600"" style=""position:fixed;top:50%; left:50%; transform: translate(-50%, -50%); border:5px solid black"">","","","","","","","",""
"","141.9850000019651","sequential-stimulus-presentation-old","133","274405","0.0-31.0-1.0","SS1619114809605","trial","","40","500","641.9850000019651","images/stimuli/spore_stims/simple_05_A_a.gif","images/stimuli/spore_stims/simple_18_A_b.gif","self_paced","","11","simple_dissimilar","images/stimuli/spore_stims/simple_18_A_b.gif","","","","",""
"","null","html-keyboard-response","134","275550","0.0-31.0-0.1","SS1619114809605","","","null","","","","","","<p><img src= images/blank.png width =""600"" height = ""600"" style=""position:fixed;top:50%; left:50%; transform: translate(-50%, -50%); border:5px solid black"">","","","","","","","",""
"","95.72000000113621","sequential-stimulus-presentation-old","135","276168","0.0-31.0-1.1","SS1619114809605","trial","","40","500","595.7200000011362","images/stimuli/spore_stims/simple_05_A_a.gif","images/stimuli/spore_stims/simple_18_A_b.gif","self_paced","","11","simple_dissimilar","images/stimuli/spore_stims/simple_18_A_b.gif","","","","",""
"","null","html-keyboard-response","136","277297","0.0-31.0-0.2","SS1619114809605","","","null","","","","","","<p><img src= images/blank.png width =""600"" height = ""600"" style=""position:fixed;top:50%; left:50%; transform: translate(-50%, -50%); border:5px solid black"">","","","","","","","",""
"","58.829999998095445","sequential-stimulus-presentation-old","137","277884","0.0-31.0-1.2","SS1619114809605","trial","","40","500","558.8299999980954","images/stimuli/spore_stims/simple_05_A_a.gif","images/stimuli/spore_stims/simple_18_A_b.gif","self_paced","","11","simple_dissimilar","images/stimuli/spore_stims/simple_18_A_b.gif","","","","",""
"","null","html-keyboard-response","138","278835","0.0-31.0-0.3","SS1619114809605","","","null","","","","","","<p><img src= images/blank.png width =""600"" height = ""600"" style=""position:fixed;top:50%; left:50%; transform: translate(-50%, -50%); border:5px solid black"">","","","","","","","",""
"","151.8400000022957","sequential-stimulus-presentation-old","139","279544","0.0-31.0-1.3","SS1619114809605","trial","","40","500","651.8400000022957","images/stimuli/spore_stims/simple_05_A_a.gif","images/stimuli/spore_stims/simple_18_A_b.gif","self_paced","","11","simple_dissimilar","images/stimuli/spore_stims/simple_18_A_b.gif","","","","",""
"[{""page_index"":0,""viewing_time"":1962.8999999986263}]","1963.7299999995157","instructions","140","281517","0.0-32.0","SS1619114809605","instructions","","","","","","","","","","","","","","","",""
"","5139.914999999746","survey-likert","141","286673","0.0-33.0","SS1619114809605","similarity_question","","","","","","","","","","","","{""Q0"":3}","[0]","","images/stimuli/spore_stims/complex_12_A_a.gif","images/stimuli/spore_stims/complex_11_A_b.gif"
"","5635.235000001616","survey-likert","142","292326","0.0-34.0","SS1619114809605","similarity_question","","","","","","","","","","","","{""Q0"":2}","[0]","","images/stimuli/spore_stims/simple_05_A_a.gif","images/stimuli/spore_stims/simple_18_A_b.gif"
"","3125.2500000009313","survey-likert","143","295471","0.0-35.0","SS1619114809605","similarity_question","","","","","","","","","","","","{""Q0"":4}","[0]","","images/stimuli/spore_stims/complex_06_A_b.gif","images/stimuli/spore_stims/complex_05_A_a.gif"
"","1831.725000000035","survey-likert","144","297318","0.0-36.0","SS1619114809605","similarity_question","","","","","","","","","","","","{""Q0"":4}","[0]","","images/stimuli/spore_stims/simple_05_A_b.gif","images/stimuli/spore_stims/simple_03_A_a.gif"
"","2937.849999998405","survey-likert","145","300271","0.0-37.0","SS1619114809605","similarity_question","","","","","","","","","","","","{""Q0"":5}","[0]","","images/stimuli/spore_stims/complex_20_A_a.gif","images/stimuli/spore_stims/complex_08_A_b.gif"
"","1936.2799999980489","survey-likert","146","302222","0.0-38.0","SS1619114809605","similarity_question","","","","","","","","","","","","{""Q0"":5}","[0]","","images/stimuli/spore_stims/simple_16_A_b.gif","images/stimuli/spore_stims/simple_09_A_a.gif"
"","1930.7549999976181","survey-likert","147","304167","0.0-39.0","SS1619114809605","similarity_question","","","","","","","","","","","","{""Q0"":4}","[0]","","images/stimuli/spore_stims/complex_14_A_b.gif","images/stimuli/spore_stims/complex_17_A_a.gif"
"","2176.4799999982934","survey-likert","148","306358","0.0-40.0","SS1619114809605","similarity_question","","","","","","","","","","","","{""Q0"":4}","[0]","","images/stimuli/spore_stims/simple_11_A_a.gif","images/stimuli/spore_stims/simple_08_A_b.gif"
"","1665.3200000000652","survey-likert","149","308037","0.0-41.0","SS1619114809605","similarity_question","","","","","","","","","","","","{""Q0"":4}","[0]","","images/stimuli/spore_stims/complex_16_A_a.gif","images/stimuli/spore_stims/complex_04_A_b.gif"
"","1684.3699999990058","survey-likert","150","309735","0.0-42.0","SS1619114809605","similarity_question","","","","","","","","","","","","{""Q0"":4}","[0]","","images/stimuli/spore_stims/simple_01_A_a.gif","images/stimuli/spore_stims/simple_11_A_b.gif"
"","1997.4099999999744","survey-likert","151","311751","0.0-43.0","SS1619114809605","similarity_question","","","","","","","","","","","","{""Q0"":4}","[0]","","images/stimuli/spore_stims/complex_17_A_b.gif","images/stimuli/spore_stims/complex_14_A_a.gif"
"","1565.279999998922","survey-likert","152","313330","0.0-44.0","SS1619114809605","similarity_question","","","","","","","","","","","","{""Q0"":4}","[0]","","images/stimuli/spore_stims/simple_03_A_b.gif","images/stimuli/spore_stims/simple_14_A_a.gif"
"[{""page_index"":0,""viewing_time"":1248.8450000018347}]","1249.8000000013853","instructions","153","314599","0.0-45.0","SS1619114809605","instructions","","","","","","","","","","","","","","","",""
"","6852.015000000363","survey-likert","154","321471","0.0-46.0","SS1619114809605","","","","","","","","","images/stimuli/spore_stims/simple_05_A_a.gif","","","","{""Q0"":3}","[0]","","",""
"","2057.940000002447","survey-likert","155","323544","0.0-47.0","SS1619114809605","","","","","","","","","images/stimuli/spore_stims/simple_01_A_a.gif","","","","{""Q0"":3}","[0]","","",""
"","866.8649999999907","survey-likert","156","324431","0.0-48.0","SS1619114809605","","","","","","","","","images/stimuli/spore_stims/complex_17_A_a.gif","","","","{""Q0"":3}","[0]","","",""
"","1722.3749999975553","survey-likert","157","326180","0.0-49.0","SS1619114809605","","","","","","","","","images/stimuli/spore_stims/complex_12_A_a.gif","","","","{""Q0"":3}","[0]","","",""
"","1798.9050000032876","survey-likert","158","327999","0.0-50.0","SS1619114809605","","","","","","","","","images/stimuli/spore_stims/complex_05_A_a.gif","","","","{""Q0"":3}","[0]","","",""
"","1423.289999998873","survey-likert","159","329439","0.0-51.0","SS1619114809605","","","","","","","","","images/stimuli/spore_stims/simple_03_A_a.gif","","","","{""Q0"":3}","[0]","","",""
"","887.1499999986845","survey-likert","160","330343","0.0-52.0","SS1619114809605","","","","","","","","","images/stimuli/spore_stims/simple_03_A_b.gif","","","","{""Q0"":3}","[0]","","",""
"","1479.6999999998952","survey-likert","161","331838","0.0-53.0","SS1619114809605","","","","","","","","","images/stimuli/spore_stims/complex_20_A_a.gif","","","","{""Q0"":3}","[0]","","",""
"","922.0300000015413","survey-likert","162","332775","0.0-54.0","SS1619114809605","","","","","","","","","images/stimuli/spore_stims/simple_11_A_a.gif","","","","{""Q0"":3}","[0]","","",""
"","1763.1299999994226","survey-likert","163","334564","0.0-55.0","SS1619114809605","","","","","","","","","images/stimuli/spore_stims/complex_17_A_b.gif","","","","{""Q0"":3}","[0]","","",""
"","1112.795000000915","survey-likert","164","335721","0.0-56.0","SS1619114809605","","","","","","","","","images/stimuli/spore_stims/simple_09_A_a.gif","","","","{""Q0"":3}","[0]","","",""
"","1019.0350000011385","survey-likert","165","336765","0.0-57.0","SS1619114809605","","","","","","","","","images/stimuli/spore_stims/complex_16_A_a.gif","","","","{""Q0"":3}","[0]","","",""
"[{""page_index"":0,""viewing_time"":1100.9200000007404}]","1101.8850000000093","instructions","166","337887","0.0-58.0","SS1619114809605","instructions","","","","","","","","","","","","","","","",""
"","2105.084999999206","demog-age","167","340018","0.0-59.0","SS1619114809605","","","","","","","","","","","","","{""age"":""32""}","","","",""
"","1943.1650000006193","demog-ethnic-US","168","341986","0.0-60.0","SS1619114809605","","","","","","","","","","","","","{""ethnicity"":[""Black or African American""]}","[0]","","",""
"","3611.554999999469","demog-gender-and-education","169","345617","0.0-61.0","SS1619114809605","","","","","","","","","","","","","{""gender"":""Male"",""education"":""Bachelor's Degree""}","[0,1]","","",""
"","3418.4150000000955","survey-text","170","349063","0.0-62.0","SS1619114809605","feedback","","","","","","","","","","","","{""Q0"":""no""}","","","",""
"[{""page_index"":0,""viewing_time"":1171.3700000000536}]","1172.1399999987916","instructions","171","350246","0.0-63.0","SS1619114809605","instructions","","","","","","","","","","","","","","","",""
