"view_history","rt","trial_type","trial_index","time_elapsed","internal_node_id","subject","stimulus_type","trial_stimulus","key_press","minimum_viewing_duration","trial_looking_time","block_deviant","block_background","exposure_type","stimulus","block_number","block_type","stimulus_displayed","responses","question_order","math_correct_answer","stimulus_left","stimulus_right"
"[{""page_index"":0,""viewing_time"":8434.730000095442}]","8435.89000008069","instructions","0","8439","0.0-0.0","SS1619115210837","","","","","","","","","","","","","","","","",""
"[{""page_index"":0,""viewing_time"":8490.185000002384},{""page_index"":1,""viewing_time"":5728.499999968335}]","14219.285000115633","instructions","1","24675","0.0-1.0","SS1619115210837","instructions","","","","","","","","","","","","","","","",""
"","3822.8050000034273","sequential-stimulus-presentation-old","2","29006","0.0-2.0","SS1619115210837","","","40","500","4322.805000003427","null","null","self_paced","","","","","","","","",""
"","1789.759999839589","sequential-stimulus-presentation-old","3","31300","0.0-3.0","SS1619115210837","","","40","500","2289.759999839589","null","null","self_paced","","","","","","","","",""
"[{""page_index"":0,""viewing_time"":2442.8950001019984}]","2445.0250000227243","instructions","4","33754","0.0-4.0","SS1619115210837","instructions","","","","","","","","","","","","","","","",""
"","942.6750000566244","sequential-stimulus-presentation-old","5","44766","0.0-5.0","SS1619115210837","","","40","500","1442.6750000566244","null","null","forced_long","","","","","","","","",""
"","3802.9350000433624","sequential-stimulus-presentation-old","6","48679","0.0-6.0","SS1619115210837","","","40","500","4302.935000043362","null","null","forced_long","","","","","","","","",""
"[{""page_index"":0,""viewing_time"":1660.4649999644607}]","1661.0749999526888","instructions","7","50342","0.0-7.0","SS1619115210837","instructions","","","","","","","","","","","","","","","",""
"[{""page_index"":0,""viewing_time"":993.9100001938641},{""page_index"":1,""viewing_time"":1354.7799999359995},{""page_index"":2,""viewing_time"":2230.1149999257177},{""page_index"":3,""viewing_time"":1328.450000146404},{""page_index"":4,""viewing_time"":1072.5349998101592}]","6982.160000130534","instructions","8","57328","0.0-8.0","SS1619115210837","instructions","","","","","","","","","","","","","","","",""
"","null","html-keyboard-response","9","58277","0.0-9.0-0.0","SS1619115210837","","","null","","","","","","<p><img src= images/blank.png width =""600"" height = ""600"" style=""position:fixed;top:50%; left:50%; transform: translate(-50%, -50%); border:5px solid black"">","","","","","","","",""
"","914.9749998468906","sequential-stimulus-presentation-old","10","59301","0.0-9.0-1.0","SS1619115210837","trial","","40","500","1414.9749998468906","images/stimuli/spore_stims/complex_13_A_a.gif","images/stimuli/spore_stims/complex_06_A_b.gif","forced_short","","0","complex_dissimilar","images/stimuli/spore_stims/complex_06_A_b.gif","","","","",""
"","null","html-keyboard-response","11","60258","0.0-9.0-0.1","SS1619115210837","","","null","","","","","","<p><img src= images/blank.png width =""600"" height = ""600"" style=""position:fixed;top:50%; left:50%; transform: translate(-50%, -50%); border:5px solid black"">","","","","","","","",""
"","159.62000004947186","sequential-stimulus-presentation-old","12","60923","0.0-9.0-1.1","SS1619115210837","trial","","40","500","659.6200000494719","images/stimuli/spore_stims/complex_13_A_a.gif","images/stimuli/spore_stims/complex_06_A_b.gif","forced_short","","0","complex_dissimilar","images/stimuli/spore_stims/complex_06_A_b.gif","","","","",""
"","null","html-keyboard-response","13","61920","0.0-9.0-0.2","SS1619115210837","","","null","","","","","","<p><img src= images/blank.png width =""600"" height = ""600"" style=""position:fixed;top:50%; left:50%; transform: translate(-50%, -50%); border:5px solid black"">","","","","","","","",""
"","234.66500011272728","sequential-stimulus-presentation-old","14","62664","0.0-9.0-1.2","SS1619115210837","trial","","40","500","734.6650001127273","images/stimuli/spore_stims/complex_13_A_a.gif","images/stimuli/spore_stims/complex_06_A_b.gif","forced_short","","0","complex_dissimilar","images/stimuli/spore_stims/complex_06_A_b.gif","","","","",""
"","null","html-keyboard-response","15","63650","0.0-9.0-0.3","SS1619115210837","","","null","","","","","","<p><img src= images/blank.png width =""600"" height = ""600"" style=""position:fixed;top:50%; left:50%; transform: translate(-50%, -50%); border:5px solid black"">","","","","","","","",""
"","1487.4350000172853","sequential-stimulus-presentation-old","16","65647","0.0-9.0-1.3","SS1619115210837","trial","","40","500","1987.4350000172853","images/stimuli/spore_stims/complex_13_A_a.gif","images/stimuli/spore_stims/complex_06_A_b.gif","forced_short","","0","complex_dissimilar","images/stimuli/spore_stims/complex_06_A_b.gif","","","","",""
"","null","html-keyboard-response","17","66807","0.0-9.0-0.4","SS1619115210837","","","null","","","","","","<p><img src= images/blank.png width =""600"" height = ""600"" style=""position:fixed;top:50%; left:50%; transform: translate(-50%, -50%); border:5px solid black"">","","","","","","","",""
"","1650.679999962449","sequential-stimulus-presentation-old","18","68974","0.0-9.0-1.4","SS1619115210837","trial","","40","500","2150.679999962449","images/stimuli/spore_stims/complex_13_A_a.gif","images/stimuli/spore_stims/complex_06_A_b.gif","forced_short","","0","complex_dissimilar","images/stimuli/spore_stims/complex_06_A_b.gif","","","","",""
"","7105.680000036955","survey-multi-choice","19","76107","0.0-10.0","SS1619115210837","math_question","","","","","","","","","","","","{""Q0"":""10""}","[0]","10","",""
"","null","html-keyboard-response","20","77098","0.0-11.0-0.0","SS1619115210837","","","null","","","","","","<p><img src= images/blank.png width =""600"" height = ""600"" style=""position:fixed;top:50%; left:50%; transform: translate(-50%, -50%); border:5px solid black"">","","","","","","","",""
"","617.0300000812858","sequential-stimulus-presentation-old","21","87725","0.0-11.0-1.0","SS1619115210837","trial","","40","500","1117.0300000812858","images/stimuli/spore_stims/complex_14_A_b.gif","images/stimuli/spore_stims/complex_10_A_a.gif","forced_long","","1","complex_dissimilar","images/stimuli/spore_stims/complex_10_A_a.gif","","","","",""
"","null","html-keyboard-response","22","88598","0.0-11.0-0.1","SS1619115210837","","","null","","","","","","<p><img src= images/blank.png width =""600"" height = ""600"" style=""position:fixed;top:50%; left:50%; transform: translate(-50%, -50%); border:5px solid black"">","","","","","","","",""
"","63.88499983586371","sequential-stimulus-presentation-old","23","89181","0.0-11.0-1.1","SS1619115210837","trial","","40","500","563.8849998358637","images/stimuli/spore_stims/complex_14_A_b.gif","images/stimuli/spore_stims/complex_10_A_a.gif","forced_long","","1","complex_dissimilar","images/stimuli/spore_stims/complex_10_A_a.gif","","","","",""
"","null","html-keyboard-response","24","90175","0.0-11.0-0.2","SS1619115210837","","","null","","","","","","<p><img src= images/blank.png width =""600"" height = ""600"" style=""position:fixed;top:50%; left:50%; transform: translate(-50%, -50%); border:5px solid black"">","","","","","","","",""
"","73.4699999447912","sequential-stimulus-presentation-old","25","90760","0.0-11.0-1.2","SS1619115210837","trial","","40","500","573.4699999447912","images/stimuli/spore_stims/complex_14_A_b.gif","images/stimuli/spore_stims/complex_10_A_a.gif","forced_long","","1","complex_dissimilar","images/stimuli/spore_stims/complex_10_A_a.gif","","","","",""
"","null","html-keyboard-response","26","91614","0.0-11.0-0.3","SS1619115210837","","","null","","","","","","<p><img src= images/blank.png width =""600"" height = ""600"" style=""position:fixed;top:50%; left:50%; transform: translate(-50%, -50%); border:5px solid black"">","","","","","","","",""
"","5.049999803304672","sequential-stimulus-presentation-old","27","92124","0.0-11.0-1.3","SS1619115210837","trial","","40","500","505.0499998033047","images/stimuli/spore_stims/complex_14_A_b.gif","images/stimuli/spore_stims/complex_10_A_a.gif","forced_long","","1","complex_dissimilar","images/stimuli/spore_stims/complex_10_A_a.gif","","","","",""
"","null","html-keyboard-response","28","93408","0.0-11.0-0.4","SS1619115210837","","","null","","","","","","<p><img src= images/blank.png width =""600"" height = ""600"" style=""position:fixed;top:50%; left:50%; transform: translate(-50%, -50%); border:5px solid black"">","","","","","","","",""
"","264.7000001743436","sequential-stimulus-presentation-old","29","94223","0.0-11.0-1.4","SS1619115210837","trial","","40","500","764.7000001743436","images/stimuli/spore_stims/complex_14_A_b.gif","images/stimuli/spore_stims/complex_10_A_a.gif","forced_long","","1","complex_dissimilar","images/stimuli/spore_stims/complex_10_A_a.gif","","","","",""
"","null","html-keyboard-response","30","95103","0.0-11.0-0.5","SS1619115210837","","","null","","","","","","<p><img src= images/blank.png width =""600"" height = ""600"" style=""position:fixed;top:50%; left:50%; transform: translate(-50%, -50%); border:5px solid black"">","","","","","","","",""
"","159.07500009052455","sequential-stimulus-presentation-old","31","95770","0.0-11.0-1.5","SS1619115210837","trial","","40","500","659.0750000905246","images/stimuli/spore_stims/complex_14_A_b.gif","images/stimuli/spore_stims/complex_10_A_a.gif","forced_long","","1","complex_dissimilar","images/stimuli/spore_stims/complex_14_A_b.gif","","","","",""
"","4896.969999885187","survey-multi-choice","32","100670","0.0-12.0","SS1619115210837","math_question","","","","","","","","","","","","{""Q0"":""14""}","[0]","14","",""
"","null","html-keyboard-response","33","101692","0.0-13.0-0.0","SS1619115210837","","","null","","","","","","<p><img src= images/blank.png width =""600"" height = ""600"" style=""position:fixed;top:50%; left:50%; transform: translate(-50%, -50%); border:5px solid black"">","","","","","","","",""
"","178.1200000550598","sequential-stimulus-presentation-old","34","101983","0.0-13.0-1.0","SS1619115210837","trial","","40","500","678.1200000550598","images/stimuli/spore_stims/simple_13_A_b.gif","images/stimuli/spore_stims/simple_10_A_a.gif","forced_short","","2","simple_dissimilar","images/stimuli/spore_stims/simple_10_A_a.gif","","","","",""
"","null","html-keyboard-response","35","102933","0.0-13.0-0.1","SS1619115210837","","","null","","","","","","<p><img src= images/blank.png width =""600"" height = ""600"" style=""position:fixed;top:50%; left:50%; transform: translate(-50%, -50%); border:5px solid black"">","","","","","","","",""
"","344.5200000423938","sequential-stimulus-presentation-old","36","103790","0.0-13.0-1.1","SS1619115210837","trial","","40","500","844.5200000423938","images/stimuli/spore_stims/simple_13_A_b.gif","images/stimuli/spore_stims/simple_10_A_a.gif","forced_short","","2","simple_dissimilar","images/stimuli/spore_stims/simple_10_A_a.gif","","","","",""
"","null","html-keyboard-response","37","104919","0.0-13.0-0.2","SS1619115210837","","","null","","","","","","<p><img src= images/blank.png width =""600"" height = ""600"" style=""position:fixed;top:50%; left:50%; transform: translate(-50%, -50%); border:5px solid black"">","","","","","","","",""
"","137.4500000383705","sequential-stimulus-presentation-old","38","105566","0.0-13.0-1.2","SS1619115210837","trial","","40","500","637.4500000383705","images/stimuli/spore_stims/simple_13_A_b.gif","images/stimuli/spore_stims/simple_10_A_a.gif","forced_short","","2","simple_dissimilar","images/stimuli/spore_stims/simple_10_A_a.gif","","","","",""
"","null","html-keyboard-response","39","106726","0.0-13.0-0.3","SS1619115210837","","","null","","","","","","<p><img src= images/blank.png width =""600"" height = ""600"" style=""position:fixed;top:50%; left:50%; transform: translate(-50%, -50%); border:5px solid black"">","","","","","","","",""
"","79.32500005699694","sequential-stimulus-presentation-old","40","107312","0.0-13.0-1.3","SS1619115210837","trial","","40","500","579.3250000569969","images/stimuli/spore_stims/simple_13_A_b.gif","images/stimuli/spore_stims/simple_10_A_a.gif","forced_short","","2","simple_dissimilar","images/stimuli/spore_stims/simple_13_A_b.gif","","","","",""
"","null","html-keyboard-response","41","108119","0.0-13.0-0.4","SS1619115210837","","","null","","","","","","<p><img src= images/blank.png width =""600"" height = ""600"" style=""position:fixed;top:50%; left:50%; transform: translate(-50%, -50%); border:5px solid black"">","","","","","","","",""
"","286.274999845773","sequential-stimulus-presentation-old","42","108960","0.0-13.0-1.4","SS1619115210837","trial","","40","500","786.274999845773","images/stimuli/spore_stims/simple_13_A_b.gif","images/stimuli/spore_stims/simple_10_A_a.gif","forced_short","","2","simple_dissimilar","images/stimuli/spore_stims/simple_10_A_a.gif","","","","",""
"","null","html-keyboard-response","43","109869","0.0-13.0-0.5","SS1619115210837","","","null","","","","","","<p><img src= images/blank.png width =""600"" height = ""600"" style=""position:fixed;top:50%; left:50%; transform: translate(-50%, -50%); border:5px solid black"">","","","","","","","",""
"","10.560000082477927","sequential-stimulus-presentation-old","44","110401","0.0-13.0-1.5","SS1619115210837","trial","","40","500","510.5600000824779","images/stimuli/spore_stims/simple_13_A_b.gif","images/stimuli/spore_stims/simple_10_A_a.gif","forced_short","","2","simple_dissimilar","images/stimuli/spore_stims/simple_13_A_b.gif","","","","",""
"","3503.370000049472","survey-multi-choice","45","113909","0.0-14.0","SS1619115210837","math_question","","","","","","","","","","","","{""Q0"":""6""}","[0]","6","",""
"","null","html-keyboard-response","46","115001","0.0-15.0-0.0","SS1619115210837","","","null","","","","","","<p><img src= images/blank.png width =""600"" height = ""600"" style=""position:fixed;top:50%; left:50%; transform: translate(-50%, -50%); border:5px solid black"">","","","","","","","",""
"","127.92499992065132","sequential-stimulus-presentation-old","47","125141","0.0-15.0-1.0","SS1619115210837","trial","","40","500","627.9249999206513","images/stimuli/spore_stims/complex_09_A_a.gif","images/stimuli/spore_stims/complex_12_A_b.gif","forced_long","","3","complex_dissimilar","images/stimuli/spore_stims/complex_12_A_b.gif","","","","",""
"","null","html-keyboard-response","48","126242","0.0-15.0-0.1","SS1619115210837","","","null","","","","","","<p><img src= images/blank.png width =""600"" height = ""600"" style=""position:fixed;top:50%; left:50%; transform: translate(-50%, -50%); border:5px solid black"">","","","","","","","",""
"","39.27500010468066","sequential-stimulus-presentation-old","49","126794","0.0-15.0-1.1","SS1619115210837","trial","","40","500","539.2750001046807","images/stimuli/spore_stims/complex_09_A_a.gif","images/stimuli/spore_stims/complex_12_A_b.gif","forced_long","","3","complex_dissimilar","images/stimuli/spore_stims/complex_12_A_b.gif","","","","",""
"","null","html-keyboard-response","50","127844","0.0-15.0-0.2","SS1619115210837","","","null","","","","","","<p><img src= images/blank.png width =""600"" height = ""600"" style=""position:fixed;top:50%; left:50%; transform: translate(-50%, -50%); border:5px solid black"">","","","","","","","",""
"","22.104999981820583","sequential-stimulus-presentation-old","51","128422","0.0-15.0-1.2","SS1619115210837","trial","","40","500","522.1049999818206","images/stimuli/spore_stims/complex_09_A_a.gif","images/stimuli/spore_stims/complex_12_A_b.gif","forced_long","","3","complex_dissimilar","images/stimuli/spore_stims/complex_12_A_b.gif","","","","",""
"","null","html-keyboard-response","52","129316","0.0-15.0-0.3","SS1619115210837","","","null","","","","","","<p><img src= images/blank.png width =""600"" height = ""600"" style=""position:fixed;top:50%; left:50%; transform: translate(-50%, -50%); border:5px solid black"">","","","","","","","",""
"","392.4650000408292","sequential-stimulus-presentation-old","53","130215","0.0-15.0-1.3","SS1619115210837","trial","","40","500","892.4650000408292","images/stimuli/spore_stims/complex_09_A_a.gif","images/stimuli/spore_stims/complex_12_A_b.gif","forced_long","","3","complex_dissimilar","images/stimuli/spore_stims/complex_12_A_b.gif","","","","",""
"","null","html-keyboard-response","54","131162","0.0-15.0-0.4","SS1619115210837","","","null","","","","","","<p><img src= images/blank.png width =""600"" height = ""600"" style=""position:fixed;top:50%; left:50%; transform: translate(-50%, -50%); border:5px solid black"">","","","","","","","",""
"","35.08000005967915","sequential-stimulus-presentation-old","55","131923","0.0-15.0-1.4","SS1619115210837","trial","","40","500","535.0800000596792","images/stimuli/spore_stims/complex_09_A_a.gif","images/stimuli/spore_stims/complex_12_A_b.gif","forced_long","","3","complex_dissimilar","images/stimuli/spore_stims/complex_12_A_b.gif","","","","",""
"","7003.395000007004","survey-multi-choice","56","138929","0.0-16.0","SS1619115210837","math_question","","","","","","","","","","","","{""Q0"":""17""}","[0]","17","",""
"","null","html-keyboard-response","57","140016","0.0-17.0-0.0","SS1619115210837","","","null","","","","","","<p><img src= images/blank.png width =""600"" height = ""600"" style=""position:fixed;top:50%; left:50%; transform: translate(-50%, -50%); border:5px solid black"">","","","","","","","",""
"","32.14999986812472","sequential-stimulus-presentation-old","58","150073","0.0-17.0-1.0","SS1619115210837","trial","","40","500","532.1499998681247","images/stimuli/spore_stims/simple_17_A_b.gif","images/stimuli/spore_stims/simple_03_A_a.gif","forced_long","","4","simple_dissimilar","images/stimuli/spore_stims/simple_03_A_a.gif","","","","",""
"","null","html-keyboard-response","59","151234","0.0-17.0-0.1","SS1619115210837","","","null","","","","","","<p><img src= images/blank.png width =""600"" height = ""600"" style=""position:fixed;top:50%; left:50%; transform: translate(-50%, -50%); border:5px solid black"">","","","","","","","",""
"","140.71000018157065","sequential-stimulus-presentation-old","60","151957","0.0-17.0-1.1","SS1619115210837","trial","","40","500","640.7100001815706","images/stimuli/spore_stims/simple_17_A_b.gif","images/stimuli/spore_stims/simple_03_A_a.gif","forced_long","","4","simple_dissimilar","images/stimuli/spore_stims/simple_03_A_a.gif","","","","",""
"","null","html-keyboard-response","61","152769","0.0-17.0-0.2","SS1619115210837","","","null","","","","","","<p><img src= images/blank.png width =""600"" height = ""600"" style=""position:fixed;top:50%; left:50%; transform: translate(-50%, -50%); border:5px solid black"">","","","","","","","",""
"","703.5299998242408","sequential-stimulus-presentation-old","62","153982","0.0-17.0-1.2","SS1619115210837","trial","","40","500","1203.5299998242408","images/stimuli/spore_stims/simple_17_A_b.gif","images/stimuli/spore_stims/simple_03_A_a.gif","forced_long","","4","simple_dissimilar","images/stimuli/spore_stims/simple_03_A_a.gif","","","","",""
"","null","html-keyboard-response","63","154969","0.0-17.0-0.3","SS1619115210837","","","null","","","","","","<p><img src= images/blank.png width =""600"" height = ""600"" style=""position:fixed;top:50%; left:50%; transform: translate(-50%, -50%); border:5px solid black"">","","","","","","","",""
"","454.66499985195696","sequential-stimulus-presentation-old","64","155935","0.0-17.0-1.3","SS1619115210837","trial","","40","500","954.664999851957","images/stimuli/spore_stims/simple_17_A_b.gif","images/stimuli/spore_stims/simple_03_A_a.gif","forced_long","","4","simple_dissimilar","images/stimuli/spore_stims/simple_03_A_a.gif","","","","",""
"","5324.445000151172","survey-multi-choice","65","161264","0.0-18.0","SS1619115210837","math_question","","","","","","","","","","","","{""Q0"":""7""}","[0]","7","",""
"","null","html-keyboard-response","66","162249","0.0-19.0-0.0","SS1619115210837","","","null","","","","","","<p><img src= images/blank.png width =""600"" height = ""600"" style=""position:fixed;top:50%; left:50%; transform: translate(-50%, -50%); border:5px solid black"">","","","","","","","",""
"","2627.3300000466406","sequential-stimulus-presentation-old","67","165140","0.0-19.0-1.0","SS1619115210837","trial","","40","500","3127.3300000466406","images/stimuli/spore_stims/simple_14_A_a.gif","images/stimuli/spore_stims/simple_04_A_b.gif","forced_short","","5","simple_dissimilar","images/stimuli/spore_stims/simple_04_A_b.gif","","","","",""
"","null","html-keyboard-response","68","166383","0.0-19.0-0.1","SS1619115210837","","","null","","","","","","<p><img src= images/blank.png width =""600"" height = ""600"" style=""position:fixed;top:50%; left:50%; transform: translate(-50%, -50%); border:5px solid black"">","","","","","","","",""
"","82.94500014744699","sequential-stimulus-presentation-old","69","166975","0.0-19.0-1.1","SS1619115210837","trial","","40","500","582.945000147447","images/stimuli/spore_stims/simple_14_A_a.gif","images/stimuli/spore_stims/simple_04_A_b.gif","forced_short","","5","simple_dissimilar","images/stimuli/spore_stims/simple_14_A_a.gif","","","","",""
"","null","html-keyboard-response","70","167811","0.0-19.0-0.2","SS1619115210837","","","null","","","","","","<p><img src= images/blank.png width =""600"" height = ""600"" style=""position:fixed;top:50%; left:50%; transform: translate(-50%, -50%); border:5px solid black"">","","","","","","","",""
"","87.6399998087436","sequential-stimulus-presentation-old","71","168409","0.0-19.0-1.2","SS1619115210837","trial","","40","500","587.6399998087436","images/stimuli/spore_stims/simple_14_A_a.gif","images/stimuli/spore_stims/simple_04_A_b.gif","forced_short","","5","simple_dissimilar","images/stimuli/spore_stims/simple_04_A_b.gif","","","","",""
"","null","html-keyboard-response","72","169803","0.0-19.0-0.3","SS1619115210837","","","null","","","","","","<p><img src= images/blank.png width =""600"" height = ""600"" style=""position:fixed;top:50%; left:50%; transform: translate(-50%, -50%); border:5px solid black"">","","","","","","","",""
"","96.72000003047287","sequential-stimulus-presentation-old","73","170407","0.0-19.0-1.3","SS1619115210837","trial","","40","500","596.7200000304729","images/stimuli/spore_stims/simple_14_A_a.gif","images/stimuli/spore_stims/simple_04_A_b.gif","forced_short","","5","simple_dissimilar","images/stimuli/spore_stims/simple_14_A_a.gif","","","","",""
"","2902.6899999007583","survey-multi-choice","74","173314","0.0-20.0","SS1619115210837","math_question","","","","","","","","","","","","{""Q0"":""6""}","[0]","6","",""
"","null","html-keyboard-response","75","174623","0.0-21.0-0.0","SS1619115210837","","","null","","","","","","<p><img src= images/blank.png width =""600"" height = ""600"" style=""position:fixed;top:50%; left:50%; transform: translate(-50%, -50%); border:5px solid black"">","","","","","","","",""
"","665.260000154376","sequential-stimulus-presentation-old","76","175810","0.0-21.0-1.0","SS1619115210837","trial","","40","500","1165.260000154376","images/stimuli/spore_stims/simple_07_A_b.gif","images/stimuli/spore_stims/simple_04_A_a.gif","self_paced","","6","simple_dissimilar","images/stimuli/spore_stims/simple_04_A_a.gif","","","","",""
"","null","html-keyboard-response","77","176817","0.0-21.0-0.1","SS1619115210837","","","null","","","","","","<p><img src= images/blank.png width =""600"" height = ""600"" style=""position:fixed;top:50%; left:50%; transform: translate(-50%, -50%); border:5px solid black"">","","","","","","","",""
"","91.24500001780689","sequential-stimulus-presentation-old","78","177463","0.0-21.0-1.1","SS1619115210837","trial","","40","500","591.2450000178069","images/stimuli/spore_stims/simple_07_A_b.gif","images/stimuli/spore_stims/simple_04_A_a.gif","self_paced","","6","simple_dissimilar","images/stimuli/spore_stims/simple_04_A_a.gif","","","","",""
"","null","html-keyboard-response","79","178419","0.0-21.0-0.2","SS1619115210837","","","null","","","","","","<p><img src= images/blank.png width =""600"" height = ""600"" style=""position:fixed;top:50%; left:50%; transform: translate(-50%, -50%); border:5px solid black"">","","","","","","","",""
"","200.2350001130253","sequential-stimulus-presentation-old","80","179126","0.0-21.0-1.2","SS1619115210837","trial","","40","500","700.2350001130253","images/stimuli/spore_stims/simple_07_A_b.gif","images/stimuli/spore_stims/simple_04_A_a.gif","self_paced","","6","simple_dissimilar","images/stimuli/spore_stims/simple_04_A_a.gif","","","","",""
"","null","html-keyboard-response","81","180223","0.0-21.0-0.3","SS1619115210837","","","null","","","","","","<p><img src= images/blank.png width =""600"" height = ""600"" style=""position:fixed;top:50%; left:50%; transform: translate(-50%, -50%); border:5px solid black"">","","","","","","","",""
"","361.97500000707805","sequential-stimulus-presentation-old","82","181100","0.0-21.0-1.3","SS1619115210837","trial","","40","500","861.975000007078","images/stimuli/spore_stims/simple_07_A_b.gif","images/stimuli/spore_stims/simple_04_A_a.gif","self_paced","","6","simple_dissimilar","images/stimuli/spore_stims/simple_04_A_a.gif","","","","",""
"","3057.5149999931455","survey-multi-choice","83","184162","0.0-22.0","SS1619115210837","math_question","","","","","","","","","","","","{""Q0"":""12""}","[0]","12","",""
"","null","html-keyboard-response","84","185467","0.0-23.0-0.0","SS1619115210837","","","null","","","","","","<p><img src= images/blank.png width =""600"" height = ""600"" style=""position:fixed;top:50%; left:50%; transform: translate(-50%, -50%); border:5px solid black"">","","","","","","","",""
"","44.009999837726355","sequential-stimulus-presentation-old","85","186019","0.0-23.0-1.0","SS1619115210837","trial","","40","500","544.0099998377264","images/stimuli/spore_stims/complex_10_A_b.gif","images/stimuli/spore_stims/complex_14_A_a.gif","self_paced","","7","complex_dissimilar","images/stimuli/spore_stims/complex_14_A_a.gif","","","","",""
"","null","html-keyboard-response","86","186958","0.0-23.0-0.1","SS1619115210837","","","null","","","","","","<p><img src= images/blank.png width =""600"" height = ""600"" style=""position:fixed;top:50%; left:50%; transform: translate(-50%, -50%); border:5px solid black"">","","","","","","","",""
"","51.87999992631376","sequential-stimulus-presentation-old","87","187589","0.0-23.0-1.1","SS1619115210837","trial","","40","500","551.8799999263138","images/stimuli/spore_stims/complex_10_A_b.gif","images/stimuli/spore_stims/complex_14_A_a.gif","self_paced","","7","complex_dissimilar","images/stimuli/spore_stims/complex_14_A_a.gif","","","","",""
"","null","html-keyboard-response","88","188701","0.0-23.0-0.2","SS1619115210837","","","null","","","","","","<p><img src= images/blank.png width =""600"" height = ""600"" style=""position:fixed;top:50%; left:50%; transform: translate(-50%, -50%); border:5px solid black"">","","","","","","","",""
"","219.61500006727874","sequential-stimulus-presentation-old","89","189431","0.0-23.0-1.2","SS1619115210837","trial","","40","500","719.6150000672787","images/stimuli/spore_stims/complex_10_A_b.gif","images/stimuli/spore_stims/complex_14_A_a.gif","self_paced","","7","complex_dissimilar","images/stimuli/spore_stims/complex_14_A_a.gif","","","","",""
"","null","html-keyboard-response","90","190476","0.0-23.0-0.3","SS1619115210837","","","null","","","","","","<p><img src= images/blank.png width =""600"" height = ""600"" style=""position:fixed;top:50%; left:50%; transform: translate(-50%, -50%); border:5px solid black"">","","","","","","","",""
"","208.02000002004206","sequential-stimulus-presentation-old","91","191189","0.0-23.0-1.3","SS1619115210837","trial","","40","500","708.0200000200421","images/stimuli/spore_stims/complex_10_A_b.gif","images/stimuli/spore_stims/complex_14_A_a.gif","self_paced","","7","complex_dissimilar","images/stimuli/spore_stims/complex_14_A_a.gif","","","","",""
"","null","html-keyboard-response","92","192389","0.0-23.0-0.4","SS1619115210837","","","null","","","","","","<p><img src= images/blank.png width =""600"" height = ""600"" style=""position:fixed;top:50%; left:50%; transform: translate(-50%, -50%); border:5px solid black"">","","","","","","","",""
"","254.56999987363815","sequential-stimulus-presentation-old","93","193149","0.0-23.0-1.4","SS1619115210837","trial","","40","500","754.5699998736382","images/stimuli/spore_stims/complex_10_A_b.gif","images/stimuli/spore_stims/complex_14_A_a.gif","self_paced","","7","complex_dissimilar","images/stimuli/spore_stims/complex_14_A_a.gif","","","","",""
"","null","html-keyboard-response","94","194214","0.0-23.0-0.5","SS1619115210837","","","null","","","","","","<p><img src= images/blank.png width =""600"" height = ""600"" style=""position:fixed;top:50%; left:50%; transform: translate(-50%, -50%); border:5px solid black"">","","","","","","","",""
"","232.12000005878508","sequential-stimulus-presentation-old","95","194975","0.0-23.0-1.5","SS1619115210837","trial","","40","500","732.1200000587851","images/stimuli/spore_stims/complex_10_A_b.gif","images/stimuli/spore_stims/complex_14_A_a.gif","self_paced","","7","complex_dissimilar","images/stimuli/spore_stims/complex_10_A_b.gif","","","","",""
"","4083.210000069812","survey-multi-choice","96","199060","0.0-24.0","SS1619115210837","math_question","","","","","","","","","","","","{""Q0"":""8""}","[0]","8","",""
"","null","html-keyboard-response","97","200246","0.0-25.0-0.0","SS1619115210837","","","null","","","","","","<p><img src= images/blank.png width =""600"" height = ""600"" style=""position:fixed;top:50%; left:50%; transform: translate(-50%, -50%); border:5px solid black"">","","","","","","","",""
"","35.484999883919954","sequential-stimulus-presentation-old","98","200392","0.0-25.0-1.0","SS1619115210837","trial","","40","500","535.48499988392","images/stimuli/spore_stims/complex_11_A_a.gif","images/stimuli/spore_stims/complex_07_A_b.gif","forced_short","","8","complex_dissimilar","images/stimuli/spore_stims/complex_07_A_b.gif","","","","",""
"","null","html-keyboard-response","99","201360","0.0-25.0-0.1","SS1619115210837","","","null","","","","","","<p><img src= images/blank.png width =""600"" height = ""600"" style=""position:fixed;top:50%; left:50%; transform: translate(-50%, -50%); border:5px solid black"">","","","","","","","",""
"","161.6449998691678","sequential-stimulus-presentation-old","100","202047","0.0-25.0-1.1","SS1619115210837","trial","","40","500","661.6449998691678","images/stimuli/spore_stims/complex_11_A_a.gif","images/stimuli/spore_stims/complex_07_A_b.gif","forced_short","","8","complex_dissimilar","images/stimuli/spore_stims/complex_07_A_b.gif","","","","",""
"","null","html-keyboard-response","101","203198","0.0-25.0-0.2","SS1619115210837","","","null","","","","","","<p><img src= images/blank.png width =""600"" height = ""600"" style=""position:fixed;top:50%; left:50%; transform: translate(-50%, -50%); border:5px solid black"">","","","","","","","",""
"","4.174999892711639","sequential-stimulus-presentation-old","102","203915","0.0-25.0-1.2","SS1619115210837","trial","","40","500","504.17499989271164","images/stimuli/spore_stims/complex_11_A_a.gif","images/stimuli/spore_stims/complex_07_A_b.gif","forced_short","","8","complex_dissimilar","images/stimuli/spore_stims/complex_07_A_b.gif","","","","",""
"","null","html-keyboard-response","103","205110","0.0-25.0-0.3","SS1619115210837","","","null","","","","","","<p><img src= images/blank.png width =""600"" height = ""600"" style=""position:fixed;top:50%; left:50%; transform: translate(-50%, -50%); border:5px solid black"">","","","","","","","",""
"","15.170000027865171","sequential-stimulus-presentation-old","104","205723","0.0-25.0-1.3","SS1619115210837","trial","","40","500","515.1700000278652","images/stimuli/spore_stims/complex_11_A_a.gif","images/stimuli/spore_stims/complex_07_A_b.gif","forced_short","","8","complex_dissimilar","images/stimuli/spore_stims/complex_07_A_b.gif","","","","",""
"","null","html-keyboard-response","105","206692","0.0-25.0-0.4","SS1619115210837","","","null","","","","","","<p><img src= images/blank.png width =""600"" height = ""600"" style=""position:fixed;top:50%; left:50%; transform: translate(-50%, -50%); border:5px solid black"">","","","","","","","",""
"","157.30499988421798","sequential-stimulus-presentation-old","106","207360","0.0-25.0-1.4","SS1619115210837","trial","","40","500","657.304999884218","images/stimuli/spore_stims/complex_11_A_a.gif","images/stimuli/spore_stims/complex_07_A_b.gif","forced_short","","8","complex_dissimilar","images/stimuli/spore_stims/complex_07_A_b.gif","","","","",""
"","null","html-keyboard-response","107","208533","0.0-25.0-0.5","SS1619115210837","","","null","","","","","","<p><img src= images/blank.png width =""600"" height = ""600"" style=""position:fixed;top:50%; left:50%; transform: translate(-50%, -50%); border:5px solid black"">","","","","","","","",""
"","96.93500003777444","sequential-stimulus-presentation-old","108","209157","0.0-25.0-1.5","SS1619115210837","trial","","40","500","596.9350000377744","images/stimuli/spore_stims/complex_11_A_a.gif","images/stimuli/spore_stims/complex_07_A_b.gif","forced_short","","8","complex_dissimilar","images/stimuli/spore_stims/complex_11_A_a.gif","","","","",""
"","3532.9599999822676","survey-multi-choice","109","212696","0.0-26.0","SS1619115210837","math_question","","","","","","","","","","","","{""Q0"":""11""}","[0]","11","",""
"","null","html-keyboard-response","110","213757","0.0-27.0-0.0","SS1619115210837","","","null","","","","","","<p><img src= images/blank.png width =""600"" height = ""600"" style=""position:fixed;top:50%; left:50%; transform: translate(-50%, -50%); border:5px solid black"">","","","","","","","",""
"","16.06500009074807","sequential-stimulus-presentation-old","111","214308","0.0-27.0-1.0","SS1619115210837","trial","","40","500","516.0650000907481","images/stimuli/spore_stims/simple_06_A_b.gif","images/stimuli/spore_stims/simple_12_A_a.gif","self_paced","","9","simple_dissimilar","images/stimuli/spore_stims/simple_12_A_a.gif","","","","",""
"","null","html-keyboard-response","112","215481","0.0-27.0-0.1","SS1619115210837","","","null","","","","","","<p><img src= images/blank.png width =""600"" height = ""600"" style=""position:fixed;top:50%; left:50%; transform: translate(-50%, -50%); border:5px solid black"">","","","","","","","",""
"","3.9350001607090235","sequential-stimulus-presentation-old","113","216108","0.0-27.0-1.1","SS1619115210837","trial","","40","500","503.935000160709","images/stimuli/spore_stims/simple_06_A_b.gif","images/stimuli/spore_stims/simple_12_A_a.gif","self_paced","","9","simple_dissimilar","images/stimuli/spore_stims/simple_06_A_b.gif","","","","",""
"","null","html-keyboard-response","114","217224","0.0-27.0-0.2","SS1619115210837","","","null","","","","","","<p><img src= images/blank.png width =""600"" height = ""600"" style=""position:fixed;top:50%; left:50%; transform: translate(-50%, -50%); border:5px solid black"">","","","","","","","",""
"","180.96500006504357","sequential-stimulus-presentation-old","115","217913","0.0-27.0-1.2","SS1619115210837","trial","","40","500","680.9650000650436","images/stimuli/spore_stims/simple_06_A_b.gif","images/stimuli/spore_stims/simple_12_A_a.gif","self_paced","","9","simple_dissimilar","images/stimuli/spore_stims/simple_12_A_a.gif","","","","",""
"","null","html-keyboard-response","116","219046","0.0-27.0-0.3","SS1619115210837","","","null","","","","","","<p><img src= images/blank.png width =""600"" height = ""600"" style=""position:fixed;top:50%; left:50%; transform: translate(-50%, -50%); border:5px solid black"">","","","","","","","",""
"","124.5550001040101","sequential-stimulus-presentation-old","117","219680","0.0-27.0-1.3","SS1619115210837","trial","","40","500","624.5550001040101","images/stimuli/spore_stims/simple_06_A_b.gif","images/stimuli/spore_stims/simple_12_A_a.gif","self_paced","","9","simple_dissimilar","images/stimuli/spore_stims/simple_06_A_b.gif","","","","",""
"","null","html-keyboard-response","118","220930","0.0-27.0-0.4","SS1619115210837","","","null","","","","","","<p><img src= images/blank.png width =""600"" height = ""600"" style=""position:fixed;top:50%; left:50%; transform: translate(-50%, -50%); border:5px solid black"">","","","","","","","",""
"","169.17499992996454","sequential-stimulus-presentation-old","119","221619","0.0-27.0-1.4","SS1619115210837","trial","","40","500","669.1749999299645","images/stimuli/spore_stims/simple_06_A_b.gif","images/stimuli/spore_stims/simple_12_A_a.gif","self_paced","","9","simple_dissimilar","images/stimuli/spore_stims/simple_12_A_a.gif","","","","",""
"","3394.2149998620152","survey-multi-choice","120","225018","0.0-28.0","SS1619115210837","math_question","","","","","","","","","","","","{""Q0"":""7""}","[0]","7","",""
"","null","html-keyboard-response","121","226264","0.0-29.0-0.0","SS1619115210837","","","null","","","","","","<p><img src= images/blank.png width =""600"" height = ""600"" style=""position:fixed;top:50%; left:50%; transform: translate(-50%, -50%); border:5px solid black"">","","","","","","","",""
"","159.76499998942018","sequential-stimulus-presentation-old","122","236437","0.0-29.0-1.0","SS1619115210837","trial","","40","500","659.7649999894202","images/stimuli/spore_stims/simple_01_A_a.gif","images/stimuli/spore_stims/simple_15_A_b.gif","forced_long","","10","simple_dissimilar","images/stimuli/spore_stims/simple_15_A_b.gif","","","","",""
"","null","html-keyboard-response","123","237934","0.0-29.0-0.1","SS1619115210837","","","null","","","","","","<p><img src= images/blank.png width =""600"" height = ""600"" style=""position:fixed;top:50%; left:50%; transform: translate(-50%, -50%); border:5px solid black"">","","","","","","","",""
"","301.22500006109476","sequential-stimulus-presentation-old","124","238741","0.0-29.0-1.1","SS1619115210837","trial","","40","500","801.2250000610948","images/stimuli/spore_stims/simple_01_A_a.gif","images/stimuli/spore_stims/simple_15_A_b.gif","forced_long","","10","simple_dissimilar","images/stimuli/spore_stims/simple_15_A_b.gif","","","","",""
"","null","html-keyboard-response","125","239610","0.0-29.0-0.2","SS1619115210837","","","null","","","","","","<p><img src= images/blank.png width =""600"" height = ""600"" style=""position:fixed;top:50%; left:50%; transform: translate(-50%, -50%); border:5px solid black"">","","","","","","","",""
"","311.3750000484288","sequential-stimulus-presentation-old","126","240432","0.0-29.0-1.2","SS1619115210837","trial","","40","500","811.3750000484288","images/stimuli/spore_stims/simple_01_A_a.gif","images/stimuli/spore_stims/simple_15_A_b.gif","forced_long","","10","simple_dissimilar","images/stimuli/spore_stims/simple_15_A_b.gif","","","","",""
"","null","html-keyboard-response","127","241501","0.0-29.0-0.3","SS1619115210837","","","null","","","","","","<p><img src= images/blank.png width =""600"" height = ""600"" style=""position:fixed;top:50%; left:50%; transform: translate(-50%, -50%); border:5px solid black"">","","","","","","","",""
"","126.5800001565367","sequential-stimulus-presentation-old","128","242306","0.0-29.0-1.3","SS1619115210837","trial","","40","500","626.5800001565367","images/stimuli/spore_stims/simple_01_A_a.gif","images/stimuli/spore_stims/simple_15_A_b.gif","forced_long","","10","simple_dissimilar","images/stimuli/spore_stims/simple_15_A_b.gif","","","","",""
"","null","html-keyboard-response","129","243497","0.0-29.0-0.4","SS1619115210837","","","null","","","","","","<p><img src= images/blank.png width =""600"" height = ""600"" style=""position:fixed;top:50%; left:50%; transform: translate(-50%, -50%); border:5px solid black"">","","","","","","","",""
"","317.8250000346452","sequential-stimulus-presentation-old","130","244334","0.0-29.0-1.4","SS1619115210837","trial","","40","500","817.8250000346452","images/stimuli/spore_stims/simple_01_A_a.gif","images/stimuli/spore_stims/simple_15_A_b.gif","forced_long","","10","simple_dissimilar","images/stimuli/spore_stims/simple_15_A_b.gif","","","","",""
"","null","html-keyboard-response","131","245329","0.0-29.0-0.5","SS1619115210837","","","null","","","","","","<p><img src= images/blank.png width =""600"" height = ""600"" style=""position:fixed;top:50%; left:50%; transform: translate(-50%, -50%); border:5px solid black"">","","","","","","","",""
"","44.50500011444092","sequential-stimulus-presentation-old","132","245885","0.0-29.0-1.5","SS1619115210837","trial","","40","500","544.5050001144409","images/stimuli/spore_stims/simple_01_A_a.gif","images/stimuli/spore_stims/simple_15_A_b.gif","forced_long","","10","simple_dissimilar","images/stimuli/spore_stims/simple_15_A_b.gif","","","","",""
"","4225.16499995254","survey-multi-choice","133","250115","0.0-30.0","SS1619115210837","math_question","","","","","","","","","","","","{""Q0"":""6""}","[0]","6","",""
"","null","html-keyboard-response","134","250999","0.0-31.0-0.0","SS1619115210837","","","null","","","","","","<p><img src= images/blank.png width =""600"" height = ""600"" style=""position:fixed;top:50%; left:50%; transform: translate(-50%, -50%); border:5px solid black"">","","","","","","","",""
"","3967.655000044033","sequential-stimulus-presentation-old","135","255494","0.0-31.0-1.0","SS1619115210837","trial","","40","500","4467.655000044033","images/stimuli/spore_stims/complex_08_A_b.gif","images/stimuli/spore_stims/complex_01_A_a.gif","self_paced","","11","complex_dissimilar","images/stimuli/spore_stims/complex_01_A_a.gif","","","","",""
"","null","html-keyboard-response","136","256505","0.0-31.0-0.1","SS1619115210837","","","null","","","","","","<p><img src= images/blank.png width =""600"" height = ""600"" style=""position:fixed;top:50%; left:50%; transform: translate(-50%, -50%); border:5px solid black"">","","","","","","","",""
"","20.795000018551946","sequential-stimulus-presentation-old","137","257035","0.0-31.0-1.1","SS1619115210837","trial","","40","500","520.795000018552","images/stimuli/spore_stims/complex_08_A_b.gif","images/stimuli/spore_stims/complex_01_A_a.gif","self_paced","","11","complex_dissimilar","images/stimuli/spore_stims/complex_01_A_a.gif","","","","",""
"","null","html-keyboard-response","138","257974","0.0-31.0-0.2","SS1619115210837","","","null","","","","","","<p><img src= images/blank.png width =""600"" height = ""600"" style=""position:fixed;top:50%; left:50%; transform: translate(-50%, -50%); border:5px solid black"">","","","","","","","",""
"","249.85500006005168","sequential-stimulus-presentation-old","139","258741","0.0-31.0-1.2","SS1619115210837","trial","","40","500","749.8550000600517","images/stimuli/spore_stims/complex_08_A_b.gif","images/stimuli/spore_stims/complex_01_A_a.gif","self_paced","","11","complex_dissimilar","images/stimuli/spore_stims/complex_08_A_b.gif","","","","",""
"","null","html-keyboard-response","140","259827","0.0-31.0-0.3","SS1619115210837","","","null","","","","","","<p><img src= images/blank.png width =""600"" height = ""600"" style=""position:fixed;top:50%; left:50%; transform: translate(-50%, -50%); border:5px solid black"">","","","","","","","",""
"","316.3600000552833","sequential-stimulus-presentation-old","141","260655","0.0-31.0-1.3","SS1619115210837","trial","","40","500","816.3600000552833","images/stimuli/spore_stims/complex_08_A_b.gif","images/stimuli/spore_stims/complex_01_A_a.gif","self_paced","","11","complex_dissimilar","images/stimuli/spore_stims/complex_01_A_a.gif","","","","",""
"[{""page_index"":0,""viewing_time"":2344.4499999750406}]","2347.554999869317","instructions","142","263006","0.0-32.0","SS1619115210837","instructions","","","","","","","","","","","","","","","",""
"","6601.3450000900775","survey-likert","143","269631","0.0-33.0","SS1619115210837","similarity_question","","","","","","","","","","","","{""Q0"":0}","[0]","","images/stimuli/spore_stims/complex_08_A_b.gif","images/stimuli/spore_stims/complex_01_A_a.gif"
"","25045.230000047013","survey-likert","144","294688","0.0-34.0","SS1619115210837","similarity_question","","","","","","","","","","","","{""Q0"":3}","[0]","","images/stimuli/spore_stims/complex_09_A_a.gif","images/stimuli/spore_stims/complex_12_A_b.gif"
"","4544.950000010431","survey-likert","145","299246","0.0-35.0","SS1619115210837","similarity_question","","","","","","","","","","","","{""Q0"":4}","[0]","","images/stimuli/spore_stims/simple_10_A_a.gif","images/stimuli/spore_stims/simple_13_A_b.gif"
"","4560.884999809787","survey-likert","146","303814","0.0-36.0","SS1619115210837","similarity_question","","","","","","","","","","","","{""Q0"":5}","[0]","","images/stimuli/spore_stims/simple_14_A_a.gif","images/stimuli/spore_stims/simple_04_A_b.gif"
"","4083.6700000800192","survey-likert","147","307908","0.0-37.0","SS1619115210837","similarity_question","","","","","","","","","","","","{""Q0"":2}","[0]","","images/stimuli/spore_stims/complex_14_A_b.gif","images/stimuli/spore_stims/complex_10_A_a.gif"
"","4475.1049999613315","survey-likert","148","312406","0.0-38.0","SS1619115210837","similarity_question","","","","","","","","","","","","{""Q0"":3}","[0]","","images/stimuli/spore_stims/simple_07_A_b.gif","images/stimuli/spore_stims/simple_04_A_a.gif"
"","4529.120000079274","survey-likert","149","316945","0.0-39.0","SS1619115210837","similarity_question","","","","","","","","","","","","{""Q0"":1}","[0]","","images/stimuli/spore_stims/complex_13_A_a.gif","images/stimuli/spore_stims/complex_06_A_b.gif"
"","5423.715000040829","survey-likert","150","322378","0.0-40.0","SS1619115210837","similarity_question","","","","","","","","","","","","{""Q0"":1}","[0]","","images/stimuli/spore_stims/simple_17_A_b.gif","images/stimuli/spore_stims/simple_03_A_a.gif"
"","9193.755000131205","survey-likert","151","331581","0.0-41.0","SS1619115210837","similarity_question","","","","","","","","","","","","{""Q0"":1}","[0]","","images/stimuli/spore_stims/complex_10_A_b.gif","images/stimuli/spore_stims/complex_14_A_a.gif"
"","3931.8399999756366","survey-likert","152","335521","0.0-42.0","SS1619115210837","similarity_question","","","","","","","","","","","","{""Q0"":2}","[0]","","images/stimuli/spore_stims/simple_01_A_a.gif","images/stimuli/spore_stims/simple_15_A_b.gif"
"","3250.9500000160187","survey-likert","153","338796","0.0-43.0","SS1619115210837","similarity_question","","","","","","","","","","","","{""Q0"":2}","[0]","","images/stimuli/spore_stims/complex_11_A_a.gif","images/stimuli/spore_stims/complex_07_A_b.gif"
"","4457.094999961555","survey-likert","154","343260","0.0-44.0","SS1619115210837","similarity_question","","","","","","","","","","","","{""Q0"":0}","[0]","","images/stimuli/spore_stims/simple_12_A_a.gif","images/stimuli/spore_stims/simple_06_A_b.gif"
"[{""page_index"":0,""viewing_time"":1470.4799999017268}]","1471.0099999792874","instructions","155","344737","0.0-45.0","SS1619115210837","instructions","","","","","","","","","","","","","","","",""
"","5076.630000025034","survey-likert","156","349820","0.0-46.0","SS1619115210837","","","","","","","","","images/stimuli/spore_stims/complex_11_A_a.gif","","","","{""Q0"":1}","[0]","","",""
"","3386.499999789521","survey-likert","157","353217","0.0-47.0","SS1619115210837","","","","","","","","","images/stimuli/spore_stims/simple_04_A_b.gif","","","","{""Q0"":2}","[0]","","",""
"","6629.454999929294","survey-likert","158","359855","0.0-48.0","SS1619115210837","","","","","","","","","images/stimuli/spore_stims/complex_14_A_a.gif","","","","{""Q0"":1}","[0]","","",""
"","2948.3700001146644","survey-likert","159","362816","0.0-49.0","SS1619115210837","","","","","","","","","images/stimuli/spore_stims/simple_17_A_b.gif","","","","{""Q0"":3}","[0]","","",""
"","3000.285000074655","survey-likert","160","365824","0.0-50.0","SS1619115210837","","","","","","","","","images/stimuli/spore_stims/complex_10_A_a.gif","","","","{""Q0"":3}","[0]","","",""
"","3269.675000105053","survey-likert","161","369102","0.0-51.0","SS1619115210837","","","","","","","","","images/stimuli/spore_stims/complex_09_A_a.gif","","","","{""Q0"":3}","[0]","","",""
"","5454.584999941289","survey-likert","162","374564","0.0-52.0","SS1619115210837","","","","","","","","","images/stimuli/spore_stims/complex_13_A_a.gif","","","","{""Q0"":3}","[0]","","",""
"","3174.7750001959503","survey-likert","163","377745","0.0-53.0","SS1619115210837","","","","","","","","","images/stimuli/spore_stims/simple_06_A_b.gif","","","","{""Q0"":2}","[0]","","",""
"","14039.940000046045","survey-likert","164","391793","0.0-54.0","SS1619115210837","","","","","","","","","images/stimuli/spore_stims/complex_08_A_b.gif","","","","{""Q0"":2}","[0]","","",""
"","3271.4299999643117","survey-likert","165","395078","0.0-55.0","SS1619115210837","","","","","","","","","images/stimuli/spore_stims/simple_13_A_b.gif","","","","{""Q0"":2}","[0]","","",""
"","3674.6099998708814","survey-likert","166","398760","0.0-56.0","SS1619115210837","","","","","","","","","images/stimuli/spore_stims/simple_07_A_b.gif","","","","{""Q0"":3}","[0]","","",""
"","3100.414999993518","survey-likert","167","401870","0.0-57.0","SS1619115210837","","","","","","","","","images/stimuli/spore_stims/simple_15_A_b.gif","","","","{""Q0"":3}","[0]","","",""
"[{""page_index"":0,""viewing_time"":1505.4150000214577}]","1506.0799999628216","instructions","168","403382","0.0-58.0","SS1619115210837","instructions","","","","","","","","","","","","","","","",""
"","3036.060000071302","demog-age","169","406431","0.0-59.0","SS1619115210837","","","","","","","","","","","","","{""age"":""25""}","","","",""
"","3801.5200002118945","demog-ethnic-US","170","410247","0.0-60.0","SS1619115210837","","","","","","","","","","","","","{""ethnicity"":[""White""]}","[0]","","",""
"","5200.514999916777","demog-gender-and-education","171","415456","0.0-61.0","SS1619115210837","","","","","","","","","","","","","{""gender"":""Female"",""education"":""Bachelor's Degree""}","[0,1]","","",""
"","11176.260000094771","survey-text","172","426644","0.0-62.0","SS1619115210837","feedback","","","","","","","","","","","","{""Q0"":""none""}","","","",""
"[{""page_index"":0,""viewing_time"":1109.7800000570714}]","1110.4300001170486","instructions","173","427766","0.0-63.0","SS1619115210837","instructions","","","","","","","","","","","","","","","",""
