"view_history","rt","trial_type","trial_index","time_elapsed","internal_node_id","subject","stimulus_type","trial_stimulus","key_press","minimum_viewing_duration","trial_looking_time","block_deviant","block_background","exposure_type","stimulus","block_number","block_type","stimulus_displayed","responses","question_order","math_correct_answer","stimulus_left","stimulus_right"
"[{""page_index"":0,""viewing_time"":3261.5099996328354}]","3262.4899987131357","instructions","0","3265","0.0-0.0","SS1619113915776","","","","","","","","","","","","","","","","",""
"[{""page_index"":0,""viewing_time"":2166.330000385642},{""page_index"":1,""viewing_time"":5669.6799993515015}]","7836.479999125004","instructions","1","13104","0.0-1.0","SS1619113915776","instructions","","","","","","","","","","","","","","","",""
"","7750.855000689626","sequential-stimulus-presentation-old","2","21362","0.0-2.0","SS1619113915776","","","40","500","8250.855000689626","null","null","self_paced","","","","","","","","",""
"","5637.925000861287","sequential-stimulus-presentation-old","3","27504","0.0-3.0","SS1619113915776","","","40","500","6137.925000861287","null","null","self_paced","","","","","","","","",""
"[{""page_index"":0,""viewing_time"":3788.509998470545}]","3789.009999483824","instructions","4","31295","0.0-4.0","SS1619113915776","instructions","","","","","","","","","","","","","","","",""
"","183.01500007510185","sequential-stimulus-presentation-old","5","41481","0.0-5.0","SS1619113915776","","","40","500","683.0150000751019","null","null","forced_long","","","","","","","","",""
"","236.64999939501286","sequential-stimulus-presentation-old","6","41823","0.0-6.0","SS1619113915776","","","40","500","736.6499993950129","null","null","forced_long","","","","","","","","",""
"[{""page_index"":0,""viewing_time"":2668.6599999666214}]","2669.0849997103214","instructions","7","44494","0.0-7.0","SS1619113915776","instructions","","","","","","","","","","","","","","","",""
"[{""page_index"":0,""viewing_time"":1209.6100002527237},{""page_index"":1,""viewing_time"":2588.424999266863},{""page_index"":2,""viewing_time"":1432.1400001645088},{""page_index"":3,""viewing_time"":1988.8550005853176},{""page_index"":4,""viewing_time"":1791.1399994045496}]","9010.545000433922","instructions","8","53506","0.0-8.0","SS1619113915776","instructions","","","","","","","","","","","","","","","",""
"","null","html-keyboard-response","9","54392","0.0-9.0-0.0","SS1619113915776","","","null","","","","","","<p><img src= images/blank.png width =""600"" height = ""600"" style=""position:fixed;top:50%; left:50%; transform: translate(-50%, -50%); border:5px solid black"">","","","","","","","",""
"","8608.06000046432","sequential-stimulus-presentation-old","10","63107","0.0-9.0-1.0","SS1619113915776","trial","","40","500","9108.06000046432","images/stimuli/spore_stims/complex_05_A_b.gif","images/stimuli/spore_stims/complex_07_A_a.gif","forced_short","","0","complex_dissimilar","images/stimuli/spore_stims/complex_07_A_a.gif","","","","",""
"","null","html-keyboard-response","11","64215","0.0-9.0-0.1","SS1619113915776","","","null","","","","","","<p><img src= images/blank.png width =""600"" height = ""600"" style=""position:fixed;top:50%; left:50%; transform: translate(-50%, -50%); border:5px solid black"">","","","","","","","",""
"","1143.3300003409386","sequential-stimulus-presentation-old","12","65864","0.0-9.0-1.1","SS1619113915776","trial","","40","500","1643.3300003409386","images/stimuli/spore_stims/complex_05_A_b.gif","images/stimuli/spore_stims/complex_07_A_a.gif","forced_short","","0","complex_dissimilar","images/stimuli/spore_stims/complex_05_A_b.gif","","","","",""
"","null","html-keyboard-response","13","66858","0.0-9.0-0.2","SS1619113915776","","","null","","","","","","<p><img src= images/blank.png width =""600"" height = ""600"" style=""position:fixed;top:50%; left:50%; transform: translate(-50%, -50%); border:5px solid black"">","","","","","","","",""
"","826.2400012463331","sequential-stimulus-presentation-old","14","68190","0.0-9.0-1.2","SS1619113915776","trial","","40","500","1326.2400012463331","images/stimuli/spore_stims/complex_05_A_b.gif","images/stimuli/spore_stims/complex_07_A_a.gif","forced_short","","0","complex_dissimilar","images/stimuli/spore_stims/complex_07_A_a.gif","","","","",""
"","null","html-keyboard-response","15","69078","0.0-9.0-0.3","SS1619113915776","","","null","","","","","","<p><img src= images/blank.png width =""600"" height = ""600"" style=""position:fixed;top:50%; left:50%; transform: translate(-50%, -50%); border:5px solid black"">","","","","","","","",""
"","868.2850003242493","sequential-stimulus-presentation-old","16","70453","0.0-9.0-1.3","SS1619113915776","trial","","40","500","1368.2850003242493","images/stimuli/spore_stims/complex_05_A_b.gif","images/stimuli/spore_stims/complex_07_A_a.gif","forced_short","","0","complex_dissimilar","images/stimuli/spore_stims/complex_07_A_a.gif","","","","",""
"","5719.295000657439","survey-multi-choice","17","76177","0.0-10.0","SS1619113915776","math_question","","","","","","","","","","","","{""Q0"":""12""}","[0]","12","",""
"","null","html-keyboard-response","18","77065","0.0-11.0-0.0","SS1619113915776","","","null","","","","","","<p><img src= images/blank.png width =""600"" height = ""600"" style=""position:fixed;top:50%; left:50%; transform: translate(-50%, -50%); border:5px solid black"">","","","","","","","",""
"","2374.075001105666","sequential-stimulus-presentation-old","19","89445","0.0-11.0-1.0","SS1619113915776","trial","","40","500","2874.075001105666","images/stimuli/spore_stims/complex_12_A_a.gif","images/stimuli/spore_stims/complex_04_A_b.gif","forced_long","","1","complex_dissimilar","images/stimuli/spore_stims/complex_04_A_b.gif","","","","",""
"","null","html-keyboard-response","20","90348","0.0-11.0-0.1","SS1619113915776","","","null","","","","","","<p><img src= images/blank.png width =""600"" height = ""600"" style=""position:fixed;top:50%; left:50%; transform: translate(-50%, -50%); border:5px solid black"">","","","","","","","",""
"","2186.1099991947412","sequential-stimulus-presentation-old","21","93049","0.0-11.0-1.1","SS1619113915776","trial","","40","500","2686.1099991947412","images/stimuli/spore_stims/complex_12_A_a.gif","images/stimuli/spore_stims/complex_04_A_b.gif","forced_long","","1","complex_dissimilar","images/stimuli/spore_stims/complex_04_A_b.gif","","","","",""
"","null","html-keyboard-response","22","93930","0.0-11.0-0.2","SS1619113915776","","","null","","","","","","<p><img src= images/blank.png width =""600"" height = ""600"" style=""position:fixed;top:50%; left:50%; transform: translate(-50%, -50%); border:5px solid black"">","","","","","","","",""
"","1696.5349987149239","sequential-stimulus-presentation-old","23","96134","0.0-11.0-1.2","SS1619113915776","trial","","40","500","2196.534998714924","images/stimuli/spore_stims/complex_12_A_a.gif","images/stimuli/spore_stims/complex_04_A_b.gif","forced_long","","1","complex_dissimilar","images/stimuli/spore_stims/complex_04_A_b.gif","","","","",""
"","null","html-keyboard-response","24","97425","0.0-11.0-0.3","SS1619113915776","","","null","","","","","","<p><img src= images/blank.png width =""600"" height = ""600"" style=""position:fixed;top:50%; left:50%; transform: translate(-50%, -50%); border:5px solid black"">","","","","","","","",""
"","1069.1500008106232","sequential-stimulus-presentation-old","25","98998","0.0-11.0-1.3","SS1619113915776","trial","","40","500","1569.1500008106232","images/stimuli/spore_stims/complex_12_A_a.gif","images/stimuli/spore_stims/complex_04_A_b.gif","forced_long","","1","complex_dissimilar","images/stimuli/spore_stims/complex_04_A_b.gif","","","","",""
"","null","html-keyboard-response","26","99892","0.0-11.0-0.4","SS1619113915776","","","null","","","","","","<p><img src= images/blank.png width =""600"" height = ""600"" style=""position:fixed;top:50%; left:50%; transform: translate(-50%, -50%); border:5px solid black"">","","","","","","","",""
"","1091.7849987745285","sequential-stimulus-presentation-old","27","101491","0.0-11.0-1.4","SS1619113915776","trial","","40","500","1591.7849987745285","images/stimuli/spore_stims/complex_12_A_a.gif","images/stimuli/spore_stims/complex_04_A_b.gif","forced_long","","1","complex_dissimilar","images/stimuli/spore_stims/complex_04_A_b.gif","","","","",""
"","null","html-keyboard-response","28","102329","0.0-11.0-0.5","SS1619113915776","","","null","","","","","","<p><img src= images/blank.png width =""600"" height = ""600"" style=""position:fixed;top:50%; left:50%; transform: translate(-50%, -50%); border:5px solid black"">","","","","","","","",""
"","2725.58500058949","sequential-stimulus-presentation-old","29","105561","0.0-11.0-1.5","SS1619113915776","trial","","40","500","3225.58500058949","images/stimuli/spore_stims/complex_12_A_a.gif","images/stimuli/spore_stims/complex_04_A_b.gif","forced_long","","1","complex_dissimilar","images/stimuli/spore_stims/complex_12_A_a.gif","","","","",""
"","8199.069999158382","survey-multi-choice","30","113764","0.0-12.0","SS1619113915776","math_question","","","","","","","","","","","","{""Q0"":""8""}","[0]","8","",""
"","null","html-keyboard-response","31","114948","0.0-13.0-0.0","SS1619113915776","","","null","","","","","","<p><img src= images/blank.png width =""600"" height = ""600"" style=""position:fixed;top:50%; left:50%; transform: translate(-50%, -50%); border:5px solid black"">","","","","","","","",""
"","5555.469999089837","sequential-stimulus-presentation-old","32","121017","0.0-13.0-1.0","SS1619113915776","trial","","40","500","6055.469999089837","images/stimuli/spore_stims/simple_17_A_b.gif","images/stimuli/spore_stims/simple_09_A_a.gif","self_paced","","2","simple_dissimilar","images/stimuli/spore_stims/simple_09_A_a.gif","","","","",""
"","null","html-keyboard-response","33","121869","0.0-13.0-0.1","SS1619113915776","","","null","","","","","","<p><img src= images/blank.png width =""600"" height = ""600"" style=""position:fixed;top:50%; left:50%; transform: translate(-50%, -50%); border:5px solid black"">","","","","","","","",""
"","3979.849999770522","sequential-stimulus-presentation-old","34","126356","0.0-13.0-1.1","SS1619113915776","trial","","40","500","4479.849999770522","images/stimuli/spore_stims/simple_17_A_b.gif","images/stimuli/spore_stims/simple_09_A_a.gif","self_paced","","2","simple_dissimilar","images/stimuli/spore_stims/simple_09_A_a.gif","","","","",""
"","null","html-keyboard-response","35","127299","0.0-13.0-0.2","SS1619113915776","","","null","","","","","","<p><img src= images/blank.png width =""600"" height = ""600"" style=""position:fixed;top:50%; left:50%; transform: translate(-50%, -50%); border:5px solid black"">","","","","","","","",""
"","294.1599991172552","sequential-stimulus-presentation-old","36","128103","0.0-13.0-1.2","SS1619113915776","trial","","40","500","794.1599991172552","images/stimuli/spore_stims/simple_17_A_b.gif","images/stimuli/spore_stims/simple_09_A_a.gif","self_paced","","2","simple_dissimilar","images/stimuli/spore_stims/simple_09_A_a.gif","","","","",""
"","null","html-keyboard-response","37","129072","0.0-13.0-0.3","SS1619113915776","","","null","","","","","","<p><img src= images/blank.png width =""600"" height = ""600"" style=""position:fixed;top:50%; left:50%; transform: translate(-50%, -50%); border:5px solid black"">","","","","","","","",""
"","612.1249999850988","sequential-stimulus-presentation-old","38","130197","0.0-13.0-1.3","SS1619113915776","trial","","40","500","1112.1249999850988","images/stimuli/spore_stims/simple_17_A_b.gif","images/stimuli/spore_stims/simple_09_A_a.gif","self_paced","","2","simple_dissimilar","images/stimuli/spore_stims/simple_09_A_a.gif","","","","",""
"","null","html-keyboard-response","39","131171","0.0-13.0-0.4","SS1619113915776","","","null","","","","","","<p><img src= images/blank.png width =""600"" height = ""600"" style=""position:fixed;top:50%; left:50%; transform: translate(-50%, -50%); border:5px solid black"">","","","","","","","",""
"","737.2149992734194","sequential-stimulus-presentation-old","40","132414","0.0-13.0-1.4","SS1619113915776","trial","","40","500","1237.2149992734194","images/stimuli/spore_stims/simple_17_A_b.gif","images/stimuli/spore_stims/simple_09_A_a.gif","self_paced","","2","simple_dissimilar","images/stimuli/spore_stims/simple_09_A_a.gif","","","","",""
"","null","html-keyboard-response","41","133675","0.0-13.0-0.5","SS1619113915776","","","null","","","","","","<p><img src= images/blank.png width =""600"" height = ""600"" style=""position:fixed;top:50%; left:50%; transform: translate(-50%, -50%); border:5px solid black"">","","","","","","","",""
"","532.490000128746","sequential-stimulus-presentation-old","42","134713","0.0-13.0-1.5","SS1619113915776","trial","","40","500","1032.490000128746","images/stimuli/spore_stims/simple_17_A_b.gif","images/stimuli/spore_stims/simple_09_A_a.gif","self_paced","","2","simple_dissimilar","images/stimuli/spore_stims/simple_09_A_a.gif","","","","",""
"","4985.619999468327","survey-multi-choice","43","139702","0.0-14.0","SS1619113915776","math_question","","","","","","","","","","","","{""Q0"":""16""}","[0]","16","",""
"","null","html-keyboard-response","44","140553","0.0-15.0-0.0","SS1619113915776","","","null","","","","","","<p><img src= images/blank.png width =""600"" height = ""600"" style=""position:fixed;top:50%; left:50%; transform: translate(-50%, -50%); border:5px solid black"">","","","","","","","",""
"","4860.249999910593","sequential-stimulus-presentation-old","45","145527","0.0-15.0-1.0","SS1619113915776","trial","","40","500","5360.249999910593","images/stimuli/spore_stims/simple_01_A_a.gif","images/stimuli/spore_stims/simple_16_A_b.gif","forced_short","","3","simple_dissimilar","images/stimuli/spore_stims/simple_16_A_b.gif","","","","",""
"","null","html-keyboard-response","46","146601","0.0-15.0-0.1","SS1619113915776","","","null","","","","","","<p><img src= images/blank.png width =""600"" height = ""600"" style=""position:fixed;top:50%; left:50%; transform: translate(-50%, -50%); border:5px solid black"">","","","","","","","",""
"","508.0549996346235","sequential-stimulus-presentation-old","47","147616","0.0-15.0-1.1","SS1619113915776","trial","","40","500","1008.0549996346235","images/stimuli/spore_stims/simple_01_A_a.gif","images/stimuli/spore_stims/simple_16_A_b.gif","forced_short","","3","simple_dissimilar","images/stimuli/spore_stims/simple_16_A_b.gif","","","","",""
"","null","html-keyboard-response","48","148894","0.0-15.0-0.2","SS1619113915776","","","null","","","","","","<p><img src= images/blank.png width =""600"" height = ""600"" style=""position:fixed;top:50%; left:50%; transform: translate(-50%, -50%); border:5px solid black"">","","","","","","","",""
"","445.6650000065565","sequential-stimulus-presentation-old","49","149845","0.0-15.0-1.2","SS1619113915776","trial","","40","500","945.6650000065565","images/stimuli/spore_stims/simple_01_A_a.gif","images/stimuli/spore_stims/simple_16_A_b.gif","forced_short","","3","simple_dissimilar","images/stimuli/spore_stims/simple_16_A_b.gif","","","","",""
"","null","html-keyboard-response","50","151027","0.0-15.0-0.3","SS1619113915776","","","null","","","","","","<p><img src= images/blank.png width =""600"" height = ""600"" style=""position:fixed;top:50%; left:50%; transform: translate(-50%, -50%); border:5px solid black"">","","","","","","","",""
"","760.2599989622831","sequential-stimulus-presentation-old","51","152293","0.0-15.0-1.3","SS1619113915776","trial","","40","500","1260.2599989622831","images/stimuli/spore_stims/simple_01_A_a.gif","images/stimuli/spore_stims/simple_16_A_b.gif","forced_short","","3","simple_dissimilar","images/stimuli/spore_stims/simple_16_A_b.gif","","","","",""
"","null","html-keyboard-response","52","153333","0.0-15.0-0.4","SS1619113915776","","","null","","","","","","<p><img src= images/blank.png width =""600"" height = ""600"" style=""position:fixed;top:50%; left:50%; transform: translate(-50%, -50%); border:5px solid black"">","","","","","","","",""
"","1300.2450000494719","sequential-stimulus-presentation-old","53","155138","0.0-15.0-1.4","SS1619113915776","trial","","40","500","1800.2450000494719","images/stimuli/spore_stims/simple_01_A_a.gif","images/stimuli/spore_stims/simple_16_A_b.gif","forced_short","","3","simple_dissimilar","images/stimuli/spore_stims/simple_01_A_a.gif","","","","",""
"","4712.220000103116","survey-multi-choice","54","159854","0.0-16.0","SS1619113915776","math_question","","","","","","","","","","","","{""Q0"":""8""}","[0]","8","",""
"","null","html-keyboard-response","55","160873","0.0-17.0-0.0","SS1619113915776","","","null","","","","","","<p><img src= images/blank.png width =""600"" height = ""600"" style=""position:fixed;top:50%; left:50%; transform: translate(-50%, -50%); border:5px solid black"">","","","","","","","",""
"","1358.3249989897013","sequential-stimulus-presentation-old","56","162742","0.0-17.0-1.0","SS1619113915776","trial","","40","500","1858.3249989897013","images/stimuli/spore_stims/complex_05_A_a.gif","images/stimuli/spore_stims/complex_11_A_b.gif","self_paced","","4","complex_dissimilar","images/stimuli/spore_stims/complex_11_A_b.gif","","","","",""
"","null","html-keyboard-response","57","163678","0.0-17.0-0.1","SS1619113915776","","","null","","","","","","<p><img src= images/blank.png width =""600"" height = ""600"" style=""position:fixed;top:50%; left:50%; transform: translate(-50%, -50%); border:5px solid black"">","","","","","","","",""
"","815.7799988985062","sequential-stimulus-presentation-old","58","164999","0.0-17.0-1.1","SS1619113915776","trial","","40","500","1315.7799988985062","images/stimuli/spore_stims/complex_05_A_a.gif","images/stimuli/spore_stims/complex_11_A_b.gif","self_paced","","4","complex_dissimilar","images/stimuli/spore_stims/complex_11_A_b.gif","","","","",""
"","null","html-keyboard-response","59","165812","0.0-17.0-0.2","SS1619113915776","","","null","","","","","","<p><img src= images/blank.png width =""600"" height = ""600"" style=""position:fixed;top:50%; left:50%; transform: translate(-50%, -50%); border:5px solid black"">","","","","","","","",""
"","14.995001256465912","sequential-stimulus-presentation-old","60","166333","0.0-17.0-1.2","SS1619113915776","trial","","40","500","514.9950012564659","images/stimuli/spore_stims/complex_05_A_a.gif","images/stimuli/spore_stims/complex_11_A_b.gif","self_paced","","4","complex_dissimilar","images/stimuli/spore_stims/complex_05_A_a.gif","","","","",""
"","null","html-keyboard-response","61","167552","0.0-17.0-0.3","SS1619113915776","","","null","","","","","","<p><img src= images/blank.png width =""600"" height = ""600"" style=""position:fixed;top:50%; left:50%; transform: translate(-50%, -50%); border:5px solid black"">","","","","","","","",""
"","190.96000120043755","sequential-stimulus-presentation-old","62","168249","0.0-17.0-1.3","SS1619113915776","trial","","40","500","690.9600012004375","images/stimuli/spore_stims/complex_05_A_a.gif","images/stimuli/spore_stims/complex_11_A_b.gif","self_paced","","4","complex_dissimilar","images/stimuli/spore_stims/complex_11_A_b.gif","","","","",""
"","null","html-keyboard-response","63","169301","0.0-17.0-0.4","SS1619113915776","","","null","","","","","","<p><img src= images/blank.png width =""600"" height = ""600"" style=""position:fixed;top:50%; left:50%; transform: translate(-50%, -50%); border:5px solid black"">","","","","","","","",""
"","207.28500001132488","sequential-stimulus-presentation-old","64","170018","0.0-17.0-1.4","SS1619113915776","trial","","40","500","707.2850000113249","images/stimuli/spore_stims/complex_05_A_a.gif","images/stimuli/spore_stims/complex_11_A_b.gif","self_paced","","4","complex_dissimilar","images/stimuli/spore_stims/complex_11_A_b.gif","","","","",""
"","null","html-keyboard-response","65","171044","0.0-17.0-0.5","SS1619113915776","","","null","","","","","","<p><img src= images/blank.png width =""600"" height = ""600"" style=""position:fixed;top:50%; left:50%; transform: translate(-50%, -50%); border:5px solid black"">","","","","","","","",""
"","209.65000055730343","sequential-stimulus-presentation-old","66","171763","0.0-17.0-1.5","SS1619113915776","trial","","40","500","709.6500005573034","images/stimuli/spore_stims/complex_05_A_a.gif","images/stimuli/spore_stims/complex_11_A_b.gif","self_paced","","4","complex_dissimilar","images/stimuli/spore_stims/complex_11_A_b.gif","","","","",""
"","3958.320001140237","survey-multi-choice","67","175724","0.0-18.0","SS1619113915776","math_question","","","","","","","","","","","","{""Q0"":""15""}","[0]","15","",""
"","null","html-keyboard-response","68","176765","0.0-19.0-0.0","SS1619113915776","","","null","","","","","","<p><img src= images/blank.png width =""600"" height = ""600"" style=""position:fixed;top:50%; left:50%; transform: translate(-50%, -50%); border:5px solid black"">","","","","","","","",""
"","178.29000018537045","sequential-stimulus-presentation-old","69","177464","0.0-19.0-1.0","SS1619113915776","trial","","40","500","678.2900001853704","images/stimuli/spore_stims/simple_05_A_b.gif","images/stimuli/spore_stims/simple_02_A_a.gif","self_paced","","5","simple_dissimilar","images/stimuli/spore_stims/simple_02_A_a.gif","","","","",""
"","null","html-keyboard-response","70","178379","0.0-19.0-0.1","SS1619113915776","","","null","","","","","","<p><img src= images/blank.png width =""600"" height = ""600"" style=""position:fixed;top:50%; left:50%; transform: translate(-50%, -50%); border:5px solid black"">","","","","","","","",""
"","1239.2900008708239","sequential-stimulus-presentation-old","71","180123","0.0-19.0-1.1","SS1619113915776","trial","","40","500","1739.2900008708239","images/stimuli/spore_stims/simple_05_A_b.gif","images/stimuli/spore_stims/simple_02_A_a.gif","self_paced","","5","simple_dissimilar","images/stimuli/spore_stims/simple_05_A_b.gif","","","","",""
"","null","html-keyboard-response","72","181029","0.0-19.0-0.2","SS1619113915776","","","null","","","","","","<p><img src= images/blank.png width =""600"" height = ""600"" style=""position:fixed;top:50%; left:50%; transform: translate(-50%, -50%); border:5px solid black"">","","","","","","","",""
"","809.5150012522936","sequential-stimulus-presentation-old","73","182344","0.0-19.0-1.2","SS1619113915776","trial","","40","500","1309.5150012522936","images/stimuli/spore_stims/simple_05_A_b.gif","images/stimuli/spore_stims/simple_02_A_a.gif","self_paced","","5","simple_dissimilar","images/stimuli/spore_stims/simple_02_A_a.gif","","","","",""
"","null","html-keyboard-response","74","183205","0.0-19.0-0.3","SS1619113915776","","","null","","","","","","<p><img src= images/blank.png width =""600"" height = ""600"" style=""position:fixed;top:50%; left:50%; transform: translate(-50%, -50%); border:5px solid black"">","","","","","","","",""
"","462.59500086307526","sequential-stimulus-presentation-old","75","184178","0.0-19.0-1.3","SS1619113915776","trial","","40","500","962.5950008630753","images/stimuli/spore_stims/simple_05_A_b.gif","images/stimuli/spore_stims/simple_02_A_a.gif","self_paced","","5","simple_dissimilar","images/stimuli/spore_stims/simple_05_A_b.gif","","","","",""
"","4111.050000414252","survey-multi-choice","76","188294","0.0-20.0","SS1619113915776","math_question","","","","","","","","","","","","{""Q0"":""10""}","[0]","10","",""
"","null","html-keyboard-response","77","189156","0.0-21.0-0.0","SS1619113915776","","","null","","","","","","<p><img src= images/blank.png width =""600"" height = ""600"" style=""position:fixed;top:50%; left:50%; transform: translate(-50%, -50%); border:5px solid black"">","","","","","","","",""
"","2191.110000014305","sequential-stimulus-presentation-old","78","191454","0.0-21.0-1.0","SS1619113915776","trial","","40","500","2691.110000014305","images/stimuli/spore_stims/simple_20_A_b.gif","images/stimuli/spore_stims/simple_11_A_a.gif","forced_short","","6","simple_dissimilar","images/stimuli/spore_stims/simple_11_A_a.gif","","","","",""
"","null","html-keyboard-response","79","192615","0.0-21.0-0.1","SS1619113915776","","","null","","","","","","<p><img src= images/blank.png width =""600"" height = ""600"" style=""position:fixed;top:50%; left:50%; transform: translate(-50%, -50%); border:5px solid black"">","","","","","","","",""
"","352.95999981462955","sequential-stimulus-presentation-old","80","193478","0.0-21.0-1.1","SS1619113915776","trial","","40","500","852.9599998146296","images/stimuli/spore_stims/simple_20_A_b.gif","images/stimuli/spore_stims/simple_11_A_a.gif","forced_short","","6","simple_dissimilar","images/stimuli/spore_stims/simple_20_A_b.gif","","","","",""
"","null","html-keyboard-response","81","194394","0.0-21.0-0.2","SS1619113915776","","","null","","","","","","<p><img src= images/blank.png width =""600"" height = ""600"" style=""position:fixed;top:50%; left:50%; transform: translate(-50%, -50%); border:5px solid black"">","","","","","","","",""
"","1048.7649999558926","sequential-stimulus-presentation-old","82","195949","0.0-21.0-1.2","SS1619113915776","trial","","40","500","1548.7649999558926","images/stimuli/spore_stims/simple_20_A_b.gif","images/stimuli/spore_stims/simple_11_A_a.gif","forced_short","","6","simple_dissimilar","images/stimuli/spore_stims/simple_11_A_a.gif","","","","",""
"","null","html-keyboard-response","83","197030","0.0-21.0-0.3","SS1619113915776","","","null","","","","","","<p><img src= images/blank.png width =""600"" height = ""600"" style=""position:fixed;top:50%; left:50%; transform: translate(-50%, -50%); border:5px solid black"">","","","","","","","",""
"","990.999998524785","sequential-stimulus-presentation-old","84","198529","0.0-21.0-1.3","SS1619113915776","trial","","40","500","1490.999998524785","images/stimuli/spore_stims/simple_20_A_b.gif","images/stimuli/spore_stims/simple_11_A_a.gif","forced_short","","6","simple_dissimilar","images/stimuli/spore_stims/simple_11_A_a.gif","","","","",""
"","null","html-keyboard-response","85","199760","0.0-21.0-0.4","SS1619113915776","","","null","","","","","","<p><img src= images/blank.png width =""600"" height = ""600"" style=""position:fixed;top:50%; left:50%; transform: translate(-50%, -50%); border:5px solid black"">","","","","","","","",""
"","767.4199994653463","sequential-stimulus-presentation-old","86","201033","0.0-21.0-1.4","SS1619113915776","trial","","40","500","1267.4199994653463","images/stimuli/spore_stims/simple_20_A_b.gif","images/stimuli/spore_stims/simple_11_A_a.gif","forced_short","","6","simple_dissimilar","images/stimuli/spore_stims/simple_11_A_a.gif","","","","",""
"","null","html-keyboard-response","87","202089","0.0-21.0-0.5","SS1619113915776","","","null","","","","","","<p><img src= images/blank.png width =""600"" height = ""600"" style=""position:fixed;top:50%; left:50%; transform: translate(-50%, -50%); border:5px solid black"">","","","","","","","",""
"","9.849999099969864","sequential-stimulus-presentation-old","88","202605","0.0-21.0-1.5","SS1619113915776","trial","","40","500","509.84999909996986","images/stimuli/spore_stims/simple_20_A_b.gif","images/stimuli/spore_stims/simple_11_A_a.gif","forced_short","","6","simple_dissimilar","images/stimuli/spore_stims/simple_20_A_b.gif","","","","",""
"","4085.8299992978573","survey-multi-choice","89","206694","0.0-22.0","SS1619113915776","math_question","","","","","","","","","","","","{""Q0"":""16""}","[0]","16","",""
"","null","html-keyboard-response","90","207818","0.0-23.0-0.0","SS1619113915776","","","null","","","","","","<p><img src= images/blank.png width =""600"" height = ""600"" style=""position:fixed;top:50%; left:50%; transform: translate(-50%, -50%); border:5px solid black"">","","","","","","","",""
"","1290.099998936057","sequential-stimulus-presentation-old","91","219115","0.0-23.0-1.0","SS1619113915776","trial","","40","500","1790.099998936057","images/stimuli/spore_stims/complex_16_A_b.gif","images/stimuli/spore_stims/complex_14_A_a.gif","forced_long","","7","complex_dissimilar","images/stimuli/spore_stims/complex_14_A_a.gif","","","","",""
"","null","html-keyboard-response","92","220214","0.0-23.0-0.1","SS1619113915776","","","null","","","","","","<p><img src= images/blank.png width =""600"" height = ""600"" style=""position:fixed;top:50%; left:50%; transform: translate(-50%, -50%); border:5px solid black"">","","","","","","","",""
"","645.3249994665384","sequential-stimulus-presentation-old","93","221373","0.0-23.0-1.1","SS1619113915776","trial","","40","500","1145.3249994665384","images/stimuli/spore_stims/complex_16_A_b.gif","images/stimuli/spore_stims/complex_14_A_a.gif","forced_long","","7","complex_dissimilar","images/stimuli/spore_stims/complex_14_A_a.gif","","","","",""
"","null","html-keyboard-response","94","222316","0.0-23.0-0.2","SS1619113915776","","","null","","","","","","<p><img src= images/blank.png width =""600"" height = ""600"" style=""position:fixed;top:50%; left:50%; transform: translate(-50%, -50%); border:5px solid black"">","","","","","","","",""
"","329.44499887526035","sequential-stimulus-presentation-old","95","223152","0.0-23.0-1.2","SS1619113915776","trial","","40","500","829.4449988752604","images/stimuli/spore_stims/complex_16_A_b.gif","images/stimuli/spore_stims/complex_14_A_a.gif","forced_long","","7","complex_dissimilar","images/stimuli/spore_stims/complex_14_A_a.gif","","","","",""
"","null","html-keyboard-response","96","224120","0.0-23.0-0.3","SS1619113915776","","","null","","","","","","<p><img src= images/blank.png width =""600"" height = ""600"" style=""position:fixed;top:50%; left:50%; transform: translate(-50%, -50%); border:5px solid black"">","","","","","","","",""
"","155.77000007033348","sequential-stimulus-presentation-old","97","224782","0.0-23.0-1.3","SS1619113915776","trial","","40","500","655.7700000703335","images/stimuli/spore_stims/complex_16_A_b.gif","images/stimuli/spore_stims/complex_14_A_a.gif","forced_long","","7","complex_dissimilar","images/stimuli/spore_stims/complex_14_A_a.gif","","","","",""
"","null","html-keyboard-response","98","225762","0.0-23.0-0.4","SS1619113915776","","","null","","","","","","<p><img src= images/blank.png width =""600"" height = ""600"" style=""position:fixed;top:50%; left:50%; transform: translate(-50%, -50%); border:5px solid black"">","","","","","","","",""
"","363.42000029981136","sequential-stimulus-presentation-old","99","226632","0.0-23.0-1.4","SS1619113915776","trial","","40","500","863.4200002998114","images/stimuli/spore_stims/complex_16_A_b.gif","images/stimuli/spore_stims/complex_14_A_a.gif","forced_long","","7","complex_dissimilar","images/stimuli/spore_stims/complex_14_A_a.gif","","","","",""
"","null","html-keyboard-response","100","227701","0.0-23.0-0.5","SS1619113915776","","","null","","","","","","<p><img src= images/blank.png width =""600"" height = ""600"" style=""position:fixed;top:50%; left:50%; transform: translate(-50%, -50%); border:5px solid black"">","","","","","","","",""
"","474.34999980032444","sequential-stimulus-presentation-old","101","228682","0.0-23.0-1.5","SS1619113915776","trial","","40","500","974.3499998003244","images/stimuli/spore_stims/complex_16_A_b.gif","images/stimuli/spore_stims/complex_14_A_a.gif","forced_long","","7","complex_dissimilar","images/stimuli/spore_stims/complex_16_A_b.gif","","","","",""
"","5727.880001068115","survey-multi-choice","102","234414","0.0-24.0","SS1619113915776","math_question","","","","","","","","","","","","{""Q0"":""15""}","[0]","15","",""
"","null","html-keyboard-response","103","235369","0.0-25.0-0.0","SS1619113915776","","","null","","","","","","<p><img src= images/blank.png width =""600"" height = ""600"" style=""position:fixed;top:50%; left:50%; transform: translate(-50%, -50%); border:5px solid black"">","","","","","","","",""
"","955.2549999207258","sequential-stimulus-presentation-old","104","236833","0.0-25.0-1.0","SS1619113915776","trial","","40","500","1455.2549999207258","images/stimuli/spore_stims/complex_17_A_b.gif","images/stimuli/spore_stims/complex_19_A_a.gif","self_paced","","8","complex_dissimilar","images/stimuli/spore_stims/complex_19_A_a.gif","","","","",""
"","null","html-keyboard-response","105","237814","0.0-25.0-0.1","SS1619113915776","","","null","","","","","","<p><img src= images/blank.png width =""600"" height = ""600"" style=""position:fixed;top:50%; left:50%; transform: translate(-50%, -50%); border:5px solid black"">","","","","","","","",""
"","1007.8249983489513","sequential-stimulus-presentation-old","106","239328","0.0-25.0-1.1","SS1619113915776","trial","","40","500","1507.8249983489513","images/stimuli/spore_stims/complex_17_A_b.gif","images/stimuli/spore_stims/complex_19_A_a.gif","self_paced","","8","complex_dissimilar","images/stimuli/spore_stims/complex_17_A_b.gif","","","","",""
"","null","html-keyboard-response","107","240244","0.0-25.0-0.2","SS1619113915776","","","null","","","","","","<p><img src= images/blank.png width =""600"" height = ""600"" style=""position:fixed;top:50%; left:50%; transform: translate(-50%, -50%); border:5px solid black"">","","","","","","","",""
"","660.5950016528368","sequential-stimulus-presentation-old","108","241412","0.0-25.0-1.2","SS1619113915776","trial","","40","500","1160.5950016528368","images/stimuli/spore_stims/complex_17_A_b.gif","images/stimuli/spore_stims/complex_19_A_a.gif","self_paced","","8","complex_dissimilar","images/stimuli/spore_stims/complex_19_A_a.gif","","","","",""
"","null","html-keyboard-response","109","242459","0.0-25.0-0.3","SS1619113915776","","","null","","","","","","<p><img src= images/blank.png width =""600"" height = ""600"" style=""position:fixed;top:50%; left:50%; transform: translate(-50%, -50%); border:5px solid black"">","","","","","","","",""
"","1653.514999896288","sequential-stimulus-presentation-old","110","244622","0.0-25.0-1.3","SS1619113915776","trial","","40","500","2153.514999896288","images/stimuli/spore_stims/complex_17_A_b.gif","images/stimuli/spore_stims/complex_19_A_a.gif","self_paced","","8","complex_dissimilar","images/stimuli/spore_stims/complex_17_A_b.gif","","","","",""
"","null","html-keyboard-response","111","245621","0.0-25.0-0.4","SS1619113915776","","","null","","","","","","<p><img src= images/blank.png width =""600"" height = ""600"" style=""position:fixed;top:50%; left:50%; transform: translate(-50%, -50%); border:5px solid black"">","","","","","","","",""
"","148.26999977231026","sequential-stimulus-presentation-old","112","246278","0.0-25.0-1.4","SS1619113915776","trial","","40","500","648.2699997723103","images/stimuli/spore_stims/complex_17_A_b.gif","images/stimuli/spore_stims/complex_19_A_a.gif","self_paced","","8","complex_dissimilar","images/stimuli/spore_stims/complex_19_A_a.gif","","","","",""
"","null","html-keyboard-response","113","247090","0.0-25.0-0.5","SS1619113915776","","","null","","","","","","<p><img src= images/blank.png width =""600"" height = ""600"" style=""position:fixed;top:50%; left:50%; transform: translate(-50%, -50%); border:5px solid black"">","","","","","","","",""
"","68.32499988377094","sequential-stimulus-presentation-old","114","247664","0.0-25.0-1.5","SS1619113915776","trial","","40","500","568.3249998837709","images/stimuli/spore_stims/complex_17_A_b.gif","images/stimuli/spore_stims/complex_19_A_a.gif","self_paced","","8","complex_dissimilar","images/stimuli/spore_stims/complex_19_A_a.gif","","","","",""
"","8986.145000904799","survey-multi-choice","115","256654","0.0-26.0","SS1619113915776","math_question","","","","","","","","","","","","{""Q0"":""10""}","[0]","10","",""
"","null","html-keyboard-response","116","257707","0.0-27.0-0.0","SS1619113915776","","","null","","","","","","<p><img src= images/blank.png width =""600"" height = ""600"" style=""position:fixed;top:50%; left:50%; transform: translate(-50%, -50%); border:5px solid black"">","","","","","","","",""
"","877.0949989557266","sequential-stimulus-presentation-old","117","268593","0.0-27.0-1.0","SS1619113915776","trial","","40","500","1377.0949989557266","images/stimuli/spore_stims/simple_08_A_b.gif","images/stimuli/spore_stims/simple_06_A_a.gif","forced_long","","9","simple_dissimilar","images/stimuli/spore_stims/simple_06_A_a.gif","","","","",""
"","null","html-keyboard-response","118","269880","0.0-27.0-0.1","SS1619113915776","","","null","","","","","","<p><img src= images/blank.png width =""600"" height = ""600"" style=""position:fixed;top:50%; left:50%; transform: translate(-50%, -50%); border:5px solid black"">","","","","","","","",""
"","725.390000268817","sequential-stimulus-presentation-old","119","271113","0.0-27.0-1.1","SS1619113915776","trial","","40","500","1225.390000268817","images/stimuli/spore_stims/simple_08_A_b.gif","images/stimuli/spore_stims/simple_06_A_a.gif","forced_long","","9","simple_dissimilar","images/stimuli/spore_stims/simple_06_A_a.gif","","","","",""
"","null","html-keyboard-response","120","272326","0.0-27.0-0.2","SS1619113915776","","","null","","","","","","<p><img src= images/blank.png width =""600"" height = ""600"" style=""position:fixed;top:50%; left:50%; transform: translate(-50%, -50%); border:5px solid black"">","","","","","","","",""
"","2930.53499981761","sequential-stimulus-presentation-old","121","275761","0.0-27.0-1.2","SS1619113915776","trial","","40","500","3430.53499981761","images/stimuli/spore_stims/simple_08_A_b.gif","images/stimuli/spore_stims/simple_06_A_a.gif","forced_long","","9","simple_dissimilar","images/stimuli/spore_stims/simple_06_A_a.gif","","","","",""
"","null","html-keyboard-response","122","276586","0.0-27.0-0.3","SS1619113915776","","","null","","","","","","<p><img src= images/blank.png width =""600"" height = ""600"" style=""position:fixed;top:50%; left:50%; transform: translate(-50%, -50%); border:5px solid black"">","","","","","","","",""
"","280.6450016796589","sequential-stimulus-presentation-old","123","277373","0.0-27.0-1.3","SS1619113915776","trial","","40","500","780.6450016796589","images/stimuli/spore_stims/simple_08_A_b.gif","images/stimuli/spore_stims/simple_06_A_a.gif","forced_long","","9","simple_dissimilar","images/stimuli/spore_stims/simple_08_A_b.gif","","","","",""
"","null","html-keyboard-response","124","278332","0.0-27.0-0.4","SS1619113915776","","","null","","","","","","<p><img src= images/blank.png width =""600"" height = ""600"" style=""position:fixed;top:50%; left:50%; transform: translate(-50%, -50%); border:5px solid black"">","","","","","","","",""
"","772.5599985569715","sequential-stimulus-presentation-old","125","279611","0.0-27.0-1.4","SS1619113915776","trial","","40","500","1272.5599985569715","images/stimuli/spore_stims/simple_08_A_b.gif","images/stimuli/spore_stims/simple_06_A_a.gif","forced_long","","9","simple_dissimilar","images/stimuli/spore_stims/simple_08_A_b.gif","","","","",""
"","4876.884998753667","survey-multi-choice","126","284493","0.0-28.0","SS1619113915776","math_question","","","","","","","","","","","","{""Q0"":""8""}","[0]","8","",""
"","null","html-keyboard-response","127","285516","0.0-29.0-0.0","SS1619113915776","","","null","","","","","","<p><img src= images/blank.png width =""600"" height = ""600"" style=""position:fixed;top:50%; left:50%; transform: translate(-50%, -50%); border:5px solid black"">","","","","","","","",""
"","6050.665000453591","sequential-stimulus-presentation-old","128","301572","0.0-29.0-1.0","SS1619113915776","trial","","40","500","6550.665000453591","images/stimuli/spore_stims/simple_07_A_a.gif","images/stimuli/spore_stims/simple_18_A_b.gif","forced_long","","10","simple_dissimilar","images/stimuli/spore_stims/simple_18_A_b.gif","","","","",""
"","null","html-keyboard-response","129","302714","0.0-29.0-0.1","SS1619113915776","","","null","","","","","","<p><img src= images/blank.png width =""600"" height = ""600"" style=""position:fixed;top:50%; left:50%; transform: translate(-50%, -50%); border:5px solid black"">","","","","","","","",""
"","529.1499998420477","sequential-stimulus-presentation-old","130","303751","0.0-29.0-1.1","SS1619113915776","trial","","40","500","1029.1499998420477","images/stimuli/spore_stims/simple_07_A_a.gif","images/stimuli/spore_stims/simple_18_A_b.gif","forced_long","","10","simple_dissimilar","images/stimuli/spore_stims/simple_18_A_b.gif","","","","",""
"","null","html-keyboard-response","131","305062","0.0-29.0-0.2","SS1619113915776","","","null","","","","","","<p><img src= images/blank.png width =""600"" height = ""600"" style=""position:fixed;top:50%; left:50%; transform: translate(-50%, -50%); border:5px solid black"">","","","","","","","",""
"","565.4499996453524","sequential-stimulus-presentation-old","132","306152","0.0-29.0-1.2","SS1619113915776","trial","","40","500","1065.4499996453524","images/stimuli/spore_stims/simple_07_A_a.gif","images/stimuli/spore_stims/simple_18_A_b.gif","forced_long","","10","simple_dissimilar","images/stimuli/spore_stims/simple_18_A_b.gif","","","","",""
"","null","html-keyboard-response","133","307150","0.0-29.0-0.3","SS1619113915776","","","null","","","","","","<p><img src= images/blank.png width =""600"" height = ""600"" style=""position:fixed;top:50%; left:50%; transform: translate(-50%, -50%); border:5px solid black"">","","","","","","","",""
"","1148.2400000095367","sequential-stimulus-presentation-old","134","308806","0.0-29.0-1.3","SS1619113915776","trial","","40","500","1648.2400000095367","images/stimuli/spore_stims/simple_07_A_a.gif","images/stimuli/spore_stims/simple_18_A_b.gif","forced_long","","10","simple_dissimilar","images/stimuli/spore_stims/simple_07_A_a.gif","","","","",""
"","null","html-keyboard-response","135","310081","0.0-29.0-0.4","SS1619113915776","","","null","","","","","","<p><img src= images/blank.png width =""600"" height = ""600"" style=""position:fixed;top:50%; left:50%; transform: translate(-50%, -50%); border:5px solid black"">","","","","","","","",""
"","1006.4950007945299","sequential-stimulus-presentation-old","136","311602","0.0-29.0-1.4","SS1619113915776","trial","","40","500","1506.49500079453","images/stimuli/spore_stims/simple_07_A_a.gif","images/stimuli/spore_stims/simple_18_A_b.gif","forced_long","","10","simple_dissimilar","images/stimuli/spore_stims/simple_18_A_b.gif","","","","",""
"","null","html-keyboard-response","137","312588","0.0-29.0-0.5","SS1619113915776","","","null","","","","","","<p><img src= images/blank.png width =""600"" height = ""600"" style=""position:fixed;top:50%; left:50%; transform: translate(-50%, -50%); border:5px solid black"">","","","","","","","",""
"","2335.7899989932775","sequential-stimulus-presentation-old","138","315432","0.0-29.0-1.5","SS1619113915776","trial","","40","500","2835.7899989932775","images/stimuli/spore_stims/simple_07_A_a.gif","images/stimuli/spore_stims/simple_18_A_b.gif","forced_long","","10","simple_dissimilar","images/stimuli/spore_stims/simple_18_A_b.gif","","","","",""
"","3899.0950006991625","survey-multi-choice","139","319336","0.0-30.0","SS1619113915776","math_question","","","","","","","","","","","","{""Q0"":""11""}","[0]","11","",""
"","null","html-keyboard-response","140","320190","0.0-31.0-0.0","SS1619113915776","","","null","","","","","","<p><img src= images/blank.png width =""600"" height = ""600"" style=""position:fixed;top:50%; left:50%; transform: translate(-50%, -50%); border:5px solid black"">","","","","","","","",""
"","1301.4299999922514","sequential-stimulus-presentation-old","141","321600","0.0-31.0-1.0","SS1619113915776","trial","","40","500","1801.4299999922514","images/stimuli/spore_stims/complex_08_A_a.gif","images/stimuli/spore_stims/complex_19_A_b.gif","forced_short","","11","complex_dissimilar","images/stimuli/spore_stims/complex_19_A_b.gif","","","","",""
"","null","html-keyboard-response","142","322766","0.0-31.0-0.1","SS1619113915776","","","null","","","","","","<p><img src= images/blank.png width =""600"" height = ""600"" style=""position:fixed;top:50%; left:50%; transform: translate(-50%, -50%); border:5px solid black"">","","","","","","","",""
"","1066.7499992996454","sequential-stimulus-presentation-old","143","324343","0.0-31.0-1.1","SS1619113915776","trial","","40","500","1566.7499992996454","images/stimuli/spore_stims/complex_08_A_a.gif","images/stimuli/spore_stims/complex_19_A_b.gif","forced_short","","11","complex_dissimilar","images/stimuli/spore_stims/complex_19_A_b.gif","","","","",""
"","null","html-keyboard-response","144","325150","0.0-31.0-0.2","SS1619113915776","","","null","","","","","","<p><img src= images/blank.png width =""600"" height = ""600"" style=""position:fixed;top:50%; left:50%; transform: translate(-50%, -50%); border:5px solid black"">","","","","","","","",""
"","1076.7899993807077","sequential-stimulus-presentation-old","145","326738","0.0-31.0-1.2","SS1619113915776","trial","","40","500","1576.7899993807077","images/stimuli/spore_stims/complex_08_A_a.gif","images/stimuli/spore_stims/complex_19_A_b.gif","forced_short","","11","complex_dissimilar","images/stimuli/spore_stims/complex_19_A_b.gif","","","","",""
"","null","html-keyboard-response","146","327985","0.0-31.0-0.3","SS1619113915776","","","null","","","","","","<p><img src= images/blank.png width =""600"" height = ""600"" style=""position:fixed;top:50%; left:50%; transform: translate(-50%, -50%); border:5px solid black"">","","","","","","","",""
"","1365.3299994766712","sequential-stimulus-presentation-old","147","329857","0.0-31.0-1.3","SS1619113915776","trial","","40","500","1865.3299994766712","images/stimuli/spore_stims/complex_08_A_a.gif","images/stimuli/spore_stims/complex_19_A_b.gif","forced_short","","11","complex_dissimilar","images/stimuli/spore_stims/complex_19_A_b.gif","","","","",""
"[{""page_index"":0,""viewing_time"":3600.71500018239}]","3601.4300007373095","instructions","148","333462","0.0-32.0","SS1619113915776","instructions","","","","","","","","","","","","","","","",""
"","6552.349999547005","survey-likert","149","340021","0.0-33.0","SS1619113915776","similarity_question","","","","","","","","","","","","{""Q0"":4}","[0]","","images/stimuli/spore_stims/simple_20_A_b.gif","images/stimuli/spore_stims/simple_11_A_a.gif"
"","4236.945001408458","survey-likert","150","344269","0.0-34.0","SS1619113915776","similarity_question","","","","","","","","","","","","{""Q0"":4}","[0]","","images/stimuli/spore_stims/simple_17_A_b.gif","images/stimuli/spore_stims/simple_09_A_a.gif"
"","10165.060000494123","survey-likert","151","354442","0.0-35.0","SS1619113915776","similarity_question","","","","","","","","","","","","{""Q0"":4}","[0]","","images/stimuli/spore_stims/complex_14_A_a.gif","images/stimuli/spore_stims/complex_16_A_b.gif"
"","6489.299999549985","survey-likert","152","360938","0.0-36.0","SS1619113915776","similarity_question","","","","","","","","","","","","{""Q0"":4}","[0]","","images/stimuli/spore_stims/complex_05_A_b.gif","images/stimuli/spore_stims/complex_07_A_a.gif"
"","5446.049999445677","survey-likert","153","366393","0.0-37.0","SS1619113915776","similarity_question","","","","","","","","","","","","{""Q0"":5}","[0]","","images/stimuli/spore_stims/simple_02_A_a.gif","images/stimuli/spore_stims/simple_05_A_b.gif"
"","7255.595000460744","survey-likert","154","373656","0.0-38.0","SS1619113915776","similarity_question","","","","","","","","","","","","{""Q0"":4}","[0]","","images/stimuli/spore_stims/complex_04_A_b.gif","images/stimuli/spore_stims/complex_12_A_a.gif"
"","7768.954999744892","survey-likert","155","381431","0.0-39.0","SS1619113915776","similarity_question","","","","","","","","","","","","{""Q0"":4}","[0]","","images/stimuli/spore_stims/complex_17_A_b.gif","images/stimuli/spore_stims/complex_19_A_a.gif"
"","4728.085000067949","survey-likert","156","386168","0.0-40.0","SS1619113915776","similarity_question","","","","","","","","","","","","{""Q0"":5}","[0]","","images/stimuli/spore_stims/simple_07_A_a.gif","images/stimuli/spore_stims/simple_18_A_b.gif"
"","5731.809999793768","survey-likert","157","391910","0.0-41.0","SS1619113915776","similarity_question","","","","","","","","","","","","{""Q0"":5}","[0]","","images/stimuli/spore_stims/simple_06_A_a.gif","images/stimuli/spore_stims/simple_08_A_b.gif"
"","4716.884998604655","survey-likert","158","396633","0.0-42.0","SS1619113915776","similarity_question","","","","","","","","","","","","{""Q0"":4}","[0]","","images/stimuli/spore_stims/simple_16_A_b.gif","images/stimuli/spore_stims/simple_01_A_a.gif"
"","4383.220000192523","survey-likert","159","401023","0.0-43.0","SS1619113915776","similarity_question","","","","","","","","","","","","{""Q0"":4}","[0]","","images/stimuli/spore_stims/complex_19_A_b.gif","images/stimuli/spore_stims/complex_08_A_a.gif"
"","5272.680001333356","survey-likert","160","406303","0.0-44.0","SS1619113915776","similarity_question","","","","","","","","","","","","{""Q0"":4}","[0]","","images/stimuli/spore_stims/complex_05_A_a.gif","images/stimuli/spore_stims/complex_11_A_b.gif"
"[{""page_index"":0,""viewing_time"":1784.4799999147654}]","1784.7850006073713","instructions","161","408092","0.0-45.0","SS1619113915776","instructions","","","","","","","","","","","","","","","",""
"","8279.914999380708","survey-likert","162","416378","0.0-46.0","SS1619113915776","","","","","","","","","images/stimuli/spore_stims/complex_14_A_a.gif","","","","{""Q0"":4}","[0]","","",""
"","3638.010000810027","survey-likert","163","420022","0.0-47.0","SS1619113915776","","","","","","","","","images/stimuli/spore_stims/complex_11_A_b.gif","","","","{""Q0"":4}","[0]","","",""
"","3742.2700002789497","survey-likert","164","423771","0.0-48.0","SS1619113915776","","","","","","","","","images/stimuli/spore_stims/simple_09_A_a.gif","","","","{""Q0"":5}","[0]","","",""
"","4311.540000140667","survey-likert","165","428090","0.0-49.0","SS1619113915776","","","","","","","","","images/stimuli/spore_stims/complex_08_A_a.gif","","","","{""Q0"":4}","[0]","","",""
"","5141.419999301434","survey-likert","166","433242","0.0-50.0","SS1619113915776","","","","","","","","","images/stimuli/spore_stims/complex_04_A_b.gif","","","","{""Q0"":4}","[0]","","",""
"","4245.125001296401","survey-likert","167","437494","0.0-51.0","SS1619113915776","","","","","","","","","images/stimuli/spore_stims/simple_11_A_a.gif","","","","{""Q0"":5}","[0]","","",""
"","4129.629999399185","survey-likert","168","441630","0.0-52.0","SS1619113915776","","","","","","","","","images/stimuli/spore_stims/complex_19_A_a.gif","","","","{""Q0"":4}","[0]","","",""
"","7482.535000890493","survey-likert","169","449119","0.0-53.0","SS1619113915776","","","","","","","","","images/stimuli/spore_stims/simple_07_A_a.gif","","","","{""Q0"":5}","[0]","","",""
"","6413.034999743104","survey-likert","170","455539","0.0-54.0","SS1619113915776","","","","","","","","","images/stimuli/spore_stims/complex_07_A_a.gif","","","","{""Q0"":4}","[0]","","",""
"","5438.495000824332","survey-likert","171","460989","0.0-55.0","SS1619113915776","","","","","","","","","images/stimuli/spore_stims/simple_05_A_b.gif","","","","{""Q0"":5}","[0]","","",""
"","3928.37000079453","survey-likert","172","464930","0.0-56.0","SS1619113915776","","","","","","","","","images/stimuli/spore_stims/simple_06_A_a.gif","","","","{""Q0"":5}","[0]","","",""
"","6064.315000548959","survey-likert","173","471002","0.0-57.0","SS1619113915776","","","","","","","","","images/stimuli/spore_stims/simple_16_A_b.gif","","","","{""Q0"":4}","[0]","","",""
"[{""page_index"":0,""viewing_time"":2070.8249993622303}]","2071.4100003242493","instructions","174","473080","0.0-58.0","SS1619113915776","instructions","","","","","","","","","","","","","","","",""
"","4978.790000081062","demog-age","175","478070","0.0-59.0","SS1619113915776","","","","","","","","","","","","","{""age"":""57""}","","","",""
"","5148.125000298023","demog-ethnic-US","176","483233","0.0-60.0","SS1619113915776","","","","","","","","","","","","","{""ethnicity"":[""White""]}","[0]","","",""
"","8051.115000620484","demog-gender-and-education","177","491291","0.0-61.0","SS1619113915776","","","","","","","","","","","","","{""gender"":""Male"",""education"":""Bachelor's Degree""}","[0,1]","","",""
"","11040.455000475049","survey-text","178","502343","0.0-62.0","SS1619113915776","feedback","","","","","","","","","","","","{""Q0"":""good""}","","","",""
"[{""page_index"":0,""viewing_time"":3253.980001434684}]","3254.569999873638","instructions","179","505601","0.0-63.0","SS1619113915776","instructions","","","","","","","","","","","","","","","",""
