"view_history","rt","trial_type","trial_index","time_elapsed","internal_node_id","subject","stimulus_type","trial_stimulus","key_press","minimum_viewing_duration","trial_looking_time","block_deviant","block_background","exposure_type","stimulus","block_number","block_type","stimulus_displayed","responses","question_order","math_correct_answer","stimulus_left","stimulus_right"
"[{""page_index"":0,""viewing_time"":3752.6200000429526}]","3752.809999976307","instructions","0","3754","0.0-0.0","SS1619114653813","","","","","","","","","","","","","","","","",""
"[{""page_index"":0,""viewing_time"":9908.22000009939},{""page_index"":1,""viewing_time"":4338.809999986552}]","14247.170000104234","instructions","1","20008","0.0-1.0","SS1619114653813","instructions","","","","","","","","","","","","","","","",""
"","3851.014999905601","sequential-stimulus-presentation-old","2","24361","0.0-2.0","SS1619114653813","","","40","500","4351.014999905601","null","null","self_paced","","","","","","","","",""
"","2500.6150000263005","sequential-stimulus-presentation-old","3","27369","0.0-3.0","SS1619114653813","","","40","500","3000.6150000263005","null","null","self_paced","","","","","","","","",""
"[{""page_index"":0,""viewing_time"":13603.58500003349}]","13603.759999969043","instructions","4","40973","0.0-4.0","SS1619114653813","instructions","","","","","","","","","","","","","","","",""
"","672.5599999772385","sequential-stimulus-presentation-old","5","51648","0.0-5.0","SS1619114653813","","","40","500","1172.5599999772385","null","null","forced_long","","","","","","","","",""
"","2091.2699999753386","sequential-stimulus-presentation-old","6","53841","0.0-6.0","SS1619114653813","","","40","500","2591.2699999753386","null","null","forced_long","","","","","","","","",""
"[{""page_index"":0,""viewing_time"":3008.8300000643358}]","3008.960000006482","instructions","7","56850","0.0-7.0","SS1619114653813","instructions","","","","","","","","","","","","","","","",""
"[{""page_index"":0,""viewing_time"":7822.539999964647},{""page_index"":1,""viewing_time"":6696.8800000613555},{""page_index"":2,""viewing_time"":3883.090000017546},{""page_index"":3,""viewing_time"":1367.4449999816716},{""page_index"":4,""viewing_time"":982.895000022836}]","20752.979999990202","instructions","8","77604","0.0-8.0","SS1619114653813","instructions","","","","","","","","","","","","","","","",""
"","null","html-keyboard-response","9","78415","0.0-9.0-0.0","SS1619114653813","","","null","","","","","","<p><img src= images/blank.png width =""600"" height = ""600"" style=""position:fixed;top:50%; left:50%; transform: translate(-50%, -50%); border:5px solid black"">","","","","","","","",""
"","1777.2499999264255","sequential-stimulus-presentation-old","10","80698","0.0-9.0-1.0","SS1619114653813","trial","","40","500","2277.2499999264255","images/stimuli/spore_stims/simple_12_A_a.gif","images/stimuli/spore_stims/simple_08_A_b.gif","self_paced","","0","simple_dissimilar","images/stimuli/spore_stims/simple_08_A_b.gif","","","","",""
"","null","html-keyboard-response","11","81793","0.0-9.0-0.1","SS1619114653813","","","null","","","","","","<p><img src= images/blank.png width =""600"" height = ""600"" style=""position:fixed;top:50%; left:50%; transform: translate(-50%, -50%); border:5px solid black"">","","","","","","","",""
"","201.85499999206513","sequential-stimulus-presentation-old","12","82497","0.0-9.0-1.1","SS1619114653813","trial","","40","500","701.8549999920651","images/stimuli/spore_stims/simple_12_A_a.gif","images/stimuli/spore_stims/simple_08_A_b.gif","self_paced","","0","simple_dissimilar","images/stimuli/spore_stims/simple_12_A_a.gif","","","","",""
"","null","html-keyboard-response","13","83559","0.0-9.0-0.2","SS1619114653813","","","null","","","","","","<p><img src= images/blank.png width =""600"" height = ""600"" style=""position:fixed;top:50%; left:50%; transform: translate(-50%, -50%); border:5px solid black"">","","","","","","","",""
"","410.3250000625849","sequential-stimulus-presentation-old","14","84472","0.0-9.0-1.2","SS1619114653813","trial","","40","500","910.3250000625849","images/stimuli/spore_stims/simple_12_A_a.gif","images/stimuli/spore_stims/simple_08_A_b.gif","self_paced","","0","simple_dissimilar","images/stimuli/spore_stims/simple_12_A_a.gif","","","","",""
"","null","html-keyboard-response","15","85528","0.0-9.0-0.3","SS1619114653813","","","null","","","","","","<p><img src= images/blank.png width =""600"" height = ""600"" style=""position:fixed;top:50%; left:50%; transform: translate(-50%, -50%); border:5px solid black"">","","","","","","","",""
"","760.9800000209361","sequential-stimulus-presentation-old","16","86793","0.0-9.0-1.3","SS1619114653813","trial","","40","500","1260.9800000209361","images/stimuli/spore_stims/simple_12_A_a.gif","images/stimuli/spore_stims/simple_08_A_b.gif","self_paced","","0","simple_dissimilar","images/stimuli/spore_stims/simple_08_A_b.gif","","","","",""
"","3454.6550000086427","survey-multi-choice","17","90249","0.0-10.0","SS1619114653813","math_question","","","","","","","","","","","","{""Q0"":""14""}","[0]","14","",""
"","null","html-keyboard-response","18","91229","0.0-11.0-0.0","SS1619114653813","","","null","","","","","","<p><img src= images/blank.png width =""600"" height = ""600"" style=""position:fixed;top:50%; left:50%; transform: translate(-50%, -50%); border:5px solid black"">","","","","","","","",""
"","696.8000000342727","sequential-stimulus-presentation-old","19","92033","0.0-11.0-1.0","SS1619114653813","trial","","40","500","1196.8000000342727","images/stimuli/spore_stims/complex_09_A_a.gif","images/stimuli/spore_stims/complex_18_A_b.gif","forced_short","","1","complex_dissimilar","images/stimuli/spore_stims/complex_18_A_b.gif","","","","",""
"","null","html-keyboard-response","20","93242","0.0-11.0-0.1","SS1619114653813","","","null","","","","","","<p><img src= images/blank.png width =""600"" height = ""600"" style=""position:fixed;top:50%; left:50%; transform: translate(-50%, -50%); border:5px solid black"">","","","","","","","",""
"","113.95000002812594","sequential-stimulus-presentation-old","21","93859","0.0-11.0-1.1","SS1619114653813","trial","","40","500","613.9500000281259","images/stimuli/spore_stims/complex_09_A_a.gif","images/stimuli/spore_stims/complex_18_A_b.gif","forced_short","","1","complex_dissimilar","images/stimuli/spore_stims/complex_18_A_b.gif","","","","",""
"","null","html-keyboard-response","22","94726","0.0-11.0-0.2","SS1619114653813","","","null","","","","","","<p><img src= images/blank.png width =""600"" height = ""600"" style=""position:fixed;top:50%; left:50%; transform: translate(-50%, -50%); border:5px solid black"">","","","","","","","",""
"","2253.4799999557436","sequential-stimulus-presentation-old","23","97482","0.0-11.0-1.2","SS1619114653813","trial","","40","500","2753.4799999557436","images/stimuli/spore_stims/complex_09_A_a.gif","images/stimuli/spore_stims/complex_18_A_b.gif","forced_short","","1","complex_dissimilar","images/stimuli/spore_stims/complex_18_A_b.gif","","","","",""
"","null","html-keyboard-response","24","98539","0.0-11.0-0.3","SS1619114653813","","","null","","","","","","<p><img src= images/blank.png width =""600"" height = ""600"" style=""position:fixed;top:50%; left:50%; transform: translate(-50%, -50%); border:5px solid black"">","","","","","","","",""
"","687.1449999744073","sequential-stimulus-presentation-old","25","99730","0.0-11.0-1.3","SS1619114653813","trial","","40","500","1187.1449999744073","images/stimuli/spore_stims/complex_09_A_a.gif","images/stimuli/spore_stims/complex_18_A_b.gif","forced_short","","1","complex_dissimilar","images/stimuli/spore_stims/complex_18_A_b.gif","","","","",""
"","null","html-keyboard-response","26","100637","0.0-11.0-0.4","SS1619114653813","","","null","","","","","","<p><img src= images/blank.png width =""600"" height = ""600"" style=""position:fixed;top:50%; left:50%; transform: translate(-50%, -50%); border:5px solid black"">","","","","","","","",""
"","484.96499995235354","sequential-stimulus-presentation-old","27","101624","0.0-11.0-1.4","SS1619114653813","trial","","40","500","984.9649999523535","images/stimuli/spore_stims/complex_09_A_a.gif","images/stimuli/spore_stims/complex_18_A_b.gif","forced_short","","1","complex_dissimilar","images/stimuli/spore_stims/complex_09_A_a.gif","","","","",""
"","2741.6850000154227","survey-multi-choice","28","104366","0.0-12.0","SS1619114653813","math_question","","","","","","","","","","","","{""Q0"":""7""}","[0]","7","",""
"","null","html-keyboard-response","29","105435","0.0-13.0-0.0","SS1619114653813","","","null","","","","","","<p><img src= images/blank.png width =""600"" height = ""600"" style=""position:fixed;top:50%; left:50%; transform: translate(-50%, -50%); border:5px solid black"">","","","","","","","",""
"","342.9300000425428","sequential-stimulus-presentation-old","30","115785","0.0-13.0-1.0","SS1619114653813","trial","","40","500","842.9300000425428","images/stimuli/spore_stims/simple_01_A_b.gif","images/stimuli/spore_stims/simple_07_A_a.gif","forced_long","","2","simple_dissimilar","images/stimuli/spore_stims/simple_07_A_a.gif","","","","",""
"","null","html-keyboard-response","31","116864","0.0-13.0-0.1","SS1619114653813","","","null","","","","","","<p><img src= images/blank.png width =""600"" height = ""600"" style=""position:fixed;top:50%; left:50%; transform: translate(-50%, -50%); border:5px solid black"">","","","","","","","",""
"","50.30500004068017","sequential-stimulus-presentation-old","32","117417","0.0-13.0-1.1","SS1619114653813","trial","","40","500","550.3050000406802","images/stimuli/spore_stims/simple_01_A_b.gif","images/stimuli/spore_stims/simple_07_A_a.gif","forced_long","","2","simple_dissimilar","images/stimuli/spore_stims/simple_07_A_a.gif","","","","",""
"","null","html-keyboard-response","33","118394","0.0-13.0-0.2","SS1619114653813","","","null","","","","","","<p><img src= images/blank.png width =""600"" height = ""600"" style=""position:fixed;top:50%; left:50%; transform: translate(-50%, -50%); border:5px solid black"">","","","","","","","",""
"","512.8800000529736","sequential-stimulus-presentation-old","34","119409","0.0-13.0-1.2","SS1619114653813","trial","","40","500","1012.8800000529736","images/stimuli/spore_stims/simple_01_A_b.gif","images/stimuli/spore_stims/simple_07_A_a.gif","forced_long","","2","simple_dissimilar","images/stimuli/spore_stims/simple_01_A_b.gif","","","","",""
"","null","html-keyboard-response","35","120259","0.0-13.0-0.3","SS1619114653813","","","null","","","","","","<p><img src= images/blank.png width =""600"" height = ""600"" style=""position:fixed;top:50%; left:50%; transform: translate(-50%, -50%); border:5px solid black"">","","","","","","","",""
"","39.51999999117106","sequential-stimulus-presentation-old","36","120801","0.0-13.0-1.3","SS1619114653813","trial","","40","500","539.5199999911711","images/stimuli/spore_stims/simple_01_A_b.gif","images/stimuli/spore_stims/simple_07_A_a.gif","forced_long","","2","simple_dissimilar","images/stimuli/spore_stims/simple_07_A_a.gif","","","","",""
"","null","html-keyboard-response","37","121874","0.0-13.0-0.4","SS1619114653813","","","null","","","","","","<p><img src= images/blank.png width =""600"" height = ""600"" style=""position:fixed;top:50%; left:50%; transform: translate(-50%, -50%); border:5px solid black"">","","","","","","","",""
"","186.01500010117888","sequential-stimulus-presentation-old","38","122561","0.0-13.0-1.4","SS1619114653813","trial","","40","500","686.0150001011789","images/stimuli/spore_stims/simple_01_A_b.gif","images/stimuli/spore_stims/simple_07_A_a.gif","forced_long","","2","simple_dissimilar","images/stimuli/spore_stims/simple_01_A_b.gif","","","","",""
"","null","html-keyboard-response","39","123541","0.0-13.0-0.5","SS1619114653813","","","null","","","","","","<p><img src= images/blank.png width =""600"" height = ""600"" style=""position:fixed;top:50%; left:50%; transform: translate(-50%, -50%); border:5px solid black"">","","","","","","","",""
"","292.795000015758","sequential-stimulus-presentation-old","40","124337","0.0-13.0-1.5","SS1619114653813","trial","","40","500","792.795000015758","images/stimuli/spore_stims/simple_01_A_b.gif","images/stimuli/spore_stims/simple_07_A_a.gif","forced_long","","2","simple_dissimilar","images/stimuli/spore_stims/simple_07_A_a.gif","","","","",""
"","2719.0750000299886","survey-multi-choice","41","127057","0.0-14.0","SS1619114653813","math_question","","","","","","","","","","","","{""Q0"":""8""}","[0]","8","",""
"","null","html-keyboard-response","42","127884","0.0-15.0-0.0","SS1619114653813","","","null","","","","","","<p><img src= images/blank.png width =""600"" height = ""600"" style=""position:fixed;top:50%; left:50%; transform: translate(-50%, -50%); border:5px solid black"">","","","","","","","",""
"","677.2800000617281","sequential-stimulus-presentation-old","43","128664","0.0-15.0-1.0","SS1619114653813","trial","","40","500","1177.280000061728","images/stimuli/spore_stims/complex_12_A_b.gif","images/stimuli/spore_stims/complex_16_A_a.gif","forced_short","","3","complex_dissimilar","images/stimuli/spore_stims/complex_16_A_a.gif","","","","",""
"","null","html-keyboard-response","44","129931","0.0-15.0-0.1","SS1619114653813","","","null","","","","","","<p><img src= images/blank.png width =""600"" height = ""600"" style=""position:fixed;top:50%; left:50%; transform: translate(-50%, -50%); border:5px solid black"">","","","","","","","",""
"","182.87499994039536","sequential-stimulus-presentation-old","45","130617","0.0-15.0-1.1","SS1619114653813","trial","","40","500","682.8749999403954","images/stimuli/spore_stims/complex_12_A_b.gif","images/stimuli/spore_stims/complex_16_A_a.gif","forced_short","","3","complex_dissimilar","images/stimuli/spore_stims/complex_16_A_a.gif","","","","",""
"","null","html-keyboard-response","46","131824","0.0-15.0-0.2","SS1619114653813","","","null","","","","","","<p><img src= images/blank.png width =""600"" height = ""600"" style=""position:fixed;top:50%; left:50%; transform: translate(-50%, -50%); border:5px solid black"">","","","","","","","",""
"","210.8449999941513","sequential-stimulus-presentation-old","47","132537","0.0-15.0-1.2","SS1619114653813","trial","","40","500","710.8449999941513","images/stimuli/spore_stims/complex_12_A_b.gif","images/stimuli/spore_stims/complex_16_A_a.gif","forced_short","","3","complex_dissimilar","images/stimuli/spore_stims/complex_16_A_a.gif","","","","",""
"","null","html-keyboard-response","48","133764","0.0-15.0-0.3","SS1619114653813","","","null","","","","","","<p><img src= images/blank.png width =""600"" height = ""600"" style=""position:fixed;top:50%; left:50%; transform: translate(-50%, -50%); border:5px solid black"">","","","","","","","",""
"","850.9949999861419","sequential-stimulus-presentation-old","49","135121","0.0-15.0-1.3","SS1619114653813","trial","","40","500","1350.994999986142","images/stimuli/spore_stims/complex_12_A_b.gif","images/stimuli/spore_stims/complex_16_A_a.gif","forced_short","","3","complex_dissimilar","images/stimuli/spore_stims/complex_16_A_a.gif","","","","",""
"","null","html-keyboard-response","50","136399","0.0-15.0-0.4","SS1619114653813","","","null","","","","","","<p><img src= images/blank.png width =""600"" height = ""600"" style=""position:fixed;top:50%; left:50%; transform: translate(-50%, -50%); border:5px solid black"">","","","","","","","",""
"","272.4349999334663","sequential-stimulus-presentation-old","51","137176","0.0-15.0-1.4","SS1619114653813","trial","","40","500","772.4349999334663","images/stimuli/spore_stims/complex_12_A_b.gif","images/stimuli/spore_stims/complex_16_A_a.gif","forced_short","","3","complex_dissimilar","images/stimuli/spore_stims/complex_16_A_a.gif","","","","",""
"","2208.2050000317395","survey-multi-choice","52","139386","0.0-16.0","SS1619114653813","math_question","","","","","","","","","","","","{""Q0"":""7""}","[0]","7","",""
"","null","html-keyboard-response","53","140562","0.0-17.0-0.0","SS1619114653813","","","null","","","","","","<p><img src= images/blank.png width =""600"" height = ""600"" style=""position:fixed;top:50%; left:50%; transform: translate(-50%, -50%); border:5px solid black"">","","","","","","","",""
"","176.33499996736646","sequential-stimulus-presentation-old","54","141241","0.0-17.0-1.0","SS1619114653813","trial","","40","500","676.3349999673665","images/stimuli/spore_stims/complex_03_A_a.gif","images/stimuli/spore_stims/complex_04_A_b.gif","self_paced","","4","complex_dissimilar","images/stimuli/spore_stims/complex_04_A_b.gif","","","","",""
"","null","html-keyboard-response","55","142051","0.0-17.0-0.1","SS1619114653813","","","null","","","","","","<p><img src= images/blank.png width =""600"" height = ""600"" style=""position:fixed;top:50%; left:50%; transform: translate(-50%, -50%); border:5px solid black"">","","","","","","","",""
"","175.23000005166978","sequential-stimulus-presentation-old","56","142728","0.0-17.0-1.1","SS1619114653813","trial","","40","500","675.2300000516698","images/stimuli/spore_stims/complex_03_A_a.gif","images/stimuli/spore_stims/complex_04_A_b.gif","self_paced","","4","complex_dissimilar","images/stimuli/spore_stims/complex_04_A_b.gif","","","","",""
"","null","html-keyboard-response","57","143835","0.0-17.0-0.2","SS1619114653813","","","null","","","","","","<p><img src= images/blank.png width =""600"" height = ""600"" style=""position:fixed;top:50%; left:50%; transform: translate(-50%, -50%); border:5px solid black"">","","","","","","","",""
"","180.7750000152737","sequential-stimulus-presentation-old","58","144522","0.0-17.0-1.2","SS1619114653813","trial","","40","500","680.7750000152737","images/stimuli/spore_stims/complex_03_A_a.gif","images/stimuli/spore_stims/complex_04_A_b.gif","self_paced","","4","complex_dissimilar","images/stimuli/spore_stims/complex_03_A_a.gif","","","","",""
"","null","html-keyboard-response","59","145334","0.0-17.0-0.3","SS1619114653813","","","null","","","","","","<p><img src= images/blank.png width =""600"" height = ""600"" style=""position:fixed;top:50%; left:50%; transform: translate(-50%, -50%); border:5px solid black"">","","","","","","","",""
"","314.4699999829754","sequential-stimulus-presentation-old","60","146152","0.0-17.0-1.3","SS1619114653813","trial","","40","500","814.4699999829754","images/stimuli/spore_stims/complex_03_A_a.gif","images/stimuli/spore_stims/complex_04_A_b.gif","self_paced","","4","complex_dissimilar","images/stimuli/spore_stims/complex_04_A_b.gif","","","","",""
"","null","html-keyboard-response","61","146984","0.0-17.0-0.4","SS1619114653813","","","null","","","","","","<p><img src= images/blank.png width =""600"" height = ""600"" style=""position:fixed;top:50%; left:50%; transform: translate(-50%, -50%); border:5px solid black"">","","","","","","","",""
"","1075.014999951236","sequential-stimulus-presentation-old","62","148563","0.0-17.0-1.4","SS1619114653813","trial","","40","500","1575.014999951236","images/stimuli/spore_stims/complex_03_A_a.gif","images/stimuli/spore_stims/complex_04_A_b.gif","self_paced","","4","complex_dissimilar","images/stimuli/spore_stims/complex_04_A_b.gif","","","","",""
"","null","html-keyboard-response","63","149751","0.0-17.0-0.5","SS1619114653813","","","null","","","","","","<p><img src= images/blank.png width =""600"" height = ""600"" style=""position:fixed;top:50%; left:50%; transform: translate(-50%, -50%); border:5px solid black"">","","","","","","","",""
"","532.8150000423193","sequential-stimulus-presentation-old","64","150785","0.0-17.0-1.5","SS1619114653813","trial","","40","500","1032.8150000423193","images/stimuli/spore_stims/complex_03_A_a.gif","images/stimuli/spore_stims/complex_04_A_b.gif","self_paced","","4","complex_dissimilar","images/stimuli/spore_stims/complex_04_A_b.gif","","","","",""
"","1941.8399999849498","survey-multi-choice","65","152729","0.0-18.0","SS1619114653813","math_question","","","","","","","","","","","","{""Q0"":""10""}","[0]","10","",""
"","null","html-keyboard-response","66","153920","0.0-19.0-0.0","SS1619114653813","","","null","","","","","","<p><img src= images/blank.png width =""600"" height = ""600"" style=""position:fixed;top:50%; left:50%; transform: translate(-50%, -50%); border:5px solid black"">","","","","","","","",""
"","111.28499999176711","sequential-stimulus-presentation-old","67","154536","0.0-19.0-1.0","SS1619114653813","trial","","40","500","611.2849999917671","images/stimuli/spore_stims/simple_09_A_a.gif","images/stimuli/spore_stims/simple_17_A_b.gif","self_paced","","5","simple_dissimilar","images/stimuli/spore_stims/simple_17_A_b.gif","","","","",""
"","null","html-keyboard-response","68","155526","0.0-19.0-0.1","SS1619114653813","","","null","","","","","","<p><img src= images/blank.png width =""600"" height = ""600"" style=""position:fixed;top:50%; left:50%; transform: translate(-50%, -50%); border:5px solid black"">","","","","","","","",""
"","503.64500004798174","sequential-stimulus-presentation-old","69","156536","0.0-19.0-1.1","SS1619114653813","trial","","40","500","1003.6450000479817","images/stimuli/spore_stims/simple_09_A_a.gif","images/stimuli/spore_stims/simple_17_A_b.gif","self_paced","","5","simple_dissimilar","images/stimuli/spore_stims/simple_17_A_b.gif","","","","",""
"","null","html-keyboard-response","70","157828","0.0-19.0-0.2","SS1619114653813","","","null","","","","","","<p><img src= images/blank.png width =""600"" height = ""600"" style=""position:fixed;top:50%; left:50%; transform: translate(-50%, -50%); border:5px solid black"">","","","","","","","",""
"","310.72000006679446","sequential-stimulus-presentation-old","71","158641","0.0-19.0-1.2","SS1619114653813","trial","","40","500","810.7200000667945","images/stimuli/spore_stims/simple_09_A_a.gif","images/stimuli/spore_stims/simple_17_A_b.gif","self_paced","","5","simple_dissimilar","images/stimuli/spore_stims/simple_17_A_b.gif","","","","",""
"","null","html-keyboard-response","72","159941","0.0-19.0-0.3","SS1619114653813","","","null","","","","","","<p><img src= images/blank.png width =""600"" height = ""600"" style=""position:fixed;top:50%; left:50%; transform: translate(-50%, -50%); border:5px solid black"">","","","","","","","",""
"","469.18999997433275","sequential-stimulus-presentation-old","73","160912","0.0-19.0-1.3","SS1619114653813","trial","","40","500","969.1899999743327","images/stimuli/spore_stims/simple_09_A_a.gif","images/stimuli/spore_stims/simple_17_A_b.gif","self_paced","","5","simple_dissimilar","images/stimuli/spore_stims/simple_09_A_a.gif","","","","",""
"","null","html-keyboard-response","74","162214","0.0-19.0-0.4","SS1619114653813","","","null","","","","","","<p><img src= images/blank.png width =""600"" height = ""600"" style=""position:fixed;top:50%; left:50%; transform: translate(-50%, -50%); border:5px solid black"">","","","","","","","",""
"","268.29000003635883","sequential-stimulus-presentation-old","75","162985","0.0-19.0-1.4","SS1619114653813","trial","","40","500","768.2900000363588","images/stimuli/spore_stims/simple_09_A_a.gif","images/stimuli/spore_stims/simple_17_A_b.gif","self_paced","","5","simple_dissimilar","images/stimuli/spore_stims/simple_09_A_a.gif","","","","",""
"","null","html-keyboard-response","76","164222","0.0-19.0-0.5","SS1619114653813","","","null","","","","","","<p><img src= images/blank.png width =""600"" height = ""600"" style=""position:fixed;top:50%; left:50%; transform: translate(-50%, -50%); border:5px solid black"">","","","","","","","",""
"","188.06499999482185","sequential-stimulus-presentation-old","77","164912","0.0-19.0-1.5","SS1619114653813","trial","","40","500","688.0649999948218","images/stimuli/spore_stims/simple_09_A_a.gif","images/stimuli/spore_stims/simple_17_A_b.gif","self_paced","","5","simple_dissimilar","images/stimuli/spore_stims/simple_17_A_b.gif","","","","",""
"","1886.6500000003725","survey-multi-choice","78","166800","0.0-20.0","SS1619114653813","math_question","","","","","","","","","","","","{""Q0"":""6""}","[0]","6","",""
"","null","html-keyboard-response","79","167873","0.0-21.0-0.0","SS1619114653813","","","null","","","","","","<p><img src= images/blank.png width =""600"" height = ""600"" style=""position:fixed;top:50%; left:50%; transform: translate(-50%, -50%); border:5px solid black"">","","","","","","","",""
"","452.24999997299165","sequential-stimulus-presentation-old","80","178329","0.0-21.0-1.0","SS1619114653813","trial","","40","500","952.2499999729916","images/stimuli/spore_stims/complex_14_A_a.gif","images/stimuli/spore_stims/complex_17_A_b.gif","forced_long","","6","complex_dissimilar","images/stimuli/spore_stims/complex_17_A_b.gif","","","","",""
"","null","html-keyboard-response","81","179338","0.0-21.0-0.1","SS1619114653813","","","null","","","","","","<p><img src= images/blank.png width =""600"" height = ""600"" style=""position:fixed;top:50%; left:50%; transform: translate(-50%, -50%); border:5px solid black"">","","","","","","","",""
"","326.17999997455627","sequential-stimulus-presentation-old","82","180169","0.0-21.0-1.1","SS1619114653813","trial","","40","500","826.1799999745563","images/stimuli/spore_stims/complex_14_A_a.gif","images/stimuli/spore_stims/complex_17_A_b.gif","forced_long","","6","complex_dissimilar","images/stimuli/spore_stims/complex_17_A_b.gif","","","","",""
"","null","html-keyboard-response","83","181144","0.0-21.0-0.2","SS1619114653813","","","null","","","","","","<p><img src= images/blank.png width =""600"" height = ""600"" style=""position:fixed;top:50%; left:50%; transform: translate(-50%, -50%); border:5px solid black"">","","","","","","","",""
"","418.1399999652058","sequential-stimulus-presentation-old","84","182064","0.0-21.0-1.2","SS1619114653813","trial","","40","500","918.1399999652058","images/stimuli/spore_stims/complex_14_A_a.gif","images/stimuli/spore_stims/complex_17_A_b.gif","forced_long","","6","complex_dissimilar","images/stimuli/spore_stims/complex_14_A_a.gif","","","","",""
"","null","html-keyboard-response","85","183257","0.0-21.0-0.3","SS1619114653813","","","null","","","","","","<p><img src= images/blank.png width =""600"" height = ""600"" style=""position:fixed;top:50%; left:50%; transform: translate(-50%, -50%); border:5px solid black"">","","","","","","","",""
"","105.19999999087304","sequential-stimulus-presentation-old","86","183864","0.0-21.0-1.3","SS1619114653813","trial","","40","500","605.199999990873","images/stimuli/spore_stims/complex_14_A_a.gif","images/stimuli/spore_stims/complex_17_A_b.gif","forced_long","","6","complex_dissimilar","images/stimuli/spore_stims/complex_17_A_b.gif","","","","",""
"","null","html-keyboard-response","87","184971","0.0-21.0-0.4","SS1619114653813","","","null","","","","","","<p><img src= images/blank.png width =""600"" height = ""600"" style=""position:fixed;top:50%; left:50%; transform: translate(-50%, -50%); border:5px solid black"">","","","","","","","",""
"","116.66499997954816","sequential-stimulus-presentation-old","88","185593","0.0-21.0-1.4","SS1619114653813","trial","","40","500","616.6649999795482","images/stimuli/spore_stims/complex_14_A_a.gif","images/stimuli/spore_stims/complex_17_A_b.gif","forced_long","","6","complex_dissimilar","images/stimuli/spore_stims/complex_17_A_b.gif","","","","",""
"","null","html-keyboard-response","89","186477","0.0-21.0-0.5","SS1619114653813","","","null","","","","","","<p><img src= images/blank.png width =""600"" height = ""600"" style=""position:fixed;top:50%; left:50%; transform: translate(-50%, -50%); border:5px solid black"">","","","","","","","",""
"","268.3699999470264","sequential-stimulus-presentation-old","90","187248","0.0-21.0-1.5","SS1619114653813","trial","","40","500","768.3699999470264","images/stimuli/spore_stims/complex_14_A_a.gif","images/stimuli/spore_stims/complex_17_A_b.gif","forced_long","","6","complex_dissimilar","images/stimuli/spore_stims/complex_17_A_b.gif","","","","",""
"","1672.4999999860302","survey-multi-choice","91","188923","0.0-22.0","SS1619114653813","math_question","","","","","","","","","","","","{""Q0"":""8""}","[0]","8","",""
"","null","html-keyboard-response","92","190041","0.0-23.0-0.0","SS1619114653813","","","null","","","","","","<p><img src= images/blank.png width =""600"" height = ""600"" style=""position:fixed;top:50%; left:50%; transform: translate(-50%, -50%); border:5px solid black"">","","","","","","","",""
"","431.8900000071153","sequential-stimulus-presentation-old","93","190577","0.0-23.0-1.0","SS1619114653813","trial","","40","500","931.8900000071153","images/stimuli/spore_stims/simple_07_A_b.gif","images/stimuli/spore_stims/simple_10_A_a.gif","forced_short","","7","simple_dissimilar","images/stimuli/spore_stims/simple_10_A_a.gif","","","","",""
"","null","html-keyboard-response","94","191524","0.0-23.0-0.1","SS1619114653813","","","null","","","","","","<p><img src= images/blank.png width =""600"" height = ""600"" style=""position:fixed;top:50%; left:50%; transform: translate(-50%, -50%); border:5px solid black"">","","","","","","","",""
"","852.1250000922009","sequential-stimulus-presentation-old","95","192880","0.0-23.0-1.1","SS1619114653813","trial","","40","500","1352.125000092201","images/stimuli/spore_stims/simple_07_A_b.gif","images/stimuli/spore_stims/simple_10_A_a.gif","forced_short","","7","simple_dissimilar","images/stimuli/spore_stims/simple_10_A_a.gif","","","","",""
"","null","html-keyboard-response","96","193995","0.0-23.0-0.2","SS1619114653813","","","null","","","","","","<p><img src= images/blank.png width =""600"" height = ""600"" style=""position:fixed;top:50%; left:50%; transform: translate(-50%, -50%); border:5px solid black"">","","","","","","","",""
"","322.6400000276044","sequential-stimulus-presentation-old","97","194824","0.0-23.0-1.2","SS1619114653813","trial","","40","500","822.6400000276044","images/stimuli/spore_stims/simple_07_A_b.gif","images/stimuli/spore_stims/simple_10_A_a.gif","forced_short","","7","simple_dissimilar","images/stimuli/spore_stims/simple_10_A_a.gif","","","","",""
"","null","html-keyboard-response","98","195952","0.0-23.0-0.3","SS1619114653813","","","null","","","","","","<p><img src= images/blank.png width =""600"" height = ""600"" style=""position:fixed;top:50%; left:50%; transform: translate(-50%, -50%); border:5px solid black"">","","","","","","","",""
"","246.59499991685152","sequential-stimulus-presentation-old","99","196704","0.0-23.0-1.3","SS1619114653813","trial","","40","500","746.5949999168515","images/stimuli/spore_stims/simple_07_A_b.gif","images/stimuli/spore_stims/simple_10_A_a.gif","forced_short","","7","simple_dissimilar","images/stimuli/spore_stims/simple_07_A_b.gif","","","","",""
"","null","html-keyboard-response","100","197667","0.0-23.0-0.4","SS1619114653813","","","null","","","","","","<p><img src= images/blank.png width =""600"" height = ""600"" style=""position:fixed;top:50%; left:50%; transform: translate(-50%, -50%); border:5px solid black"">","","","","","","","",""
"","278.86999992188066","sequential-stimulus-presentation-old","101","198449","0.0-23.0-1.4","SS1619114653813","trial","","40","500","778.8699999218807","images/stimuli/spore_stims/simple_07_A_b.gif","images/stimuli/spore_stims/simple_10_A_a.gif","forced_short","","7","simple_dissimilar","images/stimuli/spore_stims/simple_07_A_b.gif","","","","",""
"","1734.4949999824166","survey-multi-choice","102","200185","0.0-24.0","SS1619114653813","math_question","","","","","","","","","","","","{""Q0"":""3""}","[0]","3","",""
"","null","html-keyboard-response","103","201104","0.0-25.0-0.0","SS1619114653813","","","null","","","","","","<p><img src= images/blank.png width =""600"" height = ""600"" style=""position:fixed;top:50%; left:50%; transform: translate(-50%, -50%); border:5px solid black"">","","","","","","","",""
"","1413.4499999927357","sequential-stimulus-presentation-old","104","202625","0.0-25.0-1.0","SS1619114653813","trial","","40","500","1913.4499999927357","images/stimuli/spore_stims/simple_14_A_a.gif","images/stimuli/spore_stims/simple_09_A_b.gif","forced_short","","8","simple_dissimilar","images/stimuli/spore_stims/simple_09_A_b.gif","","","","",""
"","null","html-keyboard-response","105","203746","0.0-25.0-0.1","SS1619114653813","","","null","","","","","","<p><img src= images/blank.png width =""600"" height = ""600"" style=""position:fixed;top:50%; left:50%; transform: translate(-50%, -50%); border:5px solid black"">","","","","","","","",""
"","1036.0949999885634","sequential-stimulus-presentation-old","106","205291","0.0-25.0-1.1","SS1619114653813","trial","","40","500","1536.0949999885634","images/stimuli/spore_stims/simple_14_A_a.gif","images/stimuli/spore_stims/simple_09_A_b.gif","forced_short","","8","simple_dissimilar","images/stimuli/spore_stims/simple_09_A_b.gif","","","","",""
"","null","html-keyboard-response","107","206358","0.0-25.0-0.2","SS1619114653813","","","null","","","","","","<p><img src= images/blank.png width =""600"" height = ""600"" style=""position:fixed;top:50%; left:50%; transform: translate(-50%, -50%); border:5px solid black"">","","","","","","","",""
"","734.1999999480322","sequential-stimulus-presentation-old","108","207601","0.0-25.0-1.2","SS1619114653813","trial","","40","500","1234.1999999480322","images/stimuli/spore_stims/simple_14_A_a.gif","images/stimuli/spore_stims/simple_09_A_b.gif","forced_short","","8","simple_dissimilar","images/stimuli/spore_stims/simple_09_A_b.gif","","","","",""
"","null","html-keyboard-response","109","208708","0.0-25.0-0.3","SS1619114653813","","","null","","","","","","<p><img src= images/blank.png width =""600"" height = ""600"" style=""position:fixed;top:50%; left:50%; transform: translate(-50%, -50%); border:5px solid black"">","","","","","","","",""
"","870.4549999674782","sequential-stimulus-presentation-old","110","210081","0.0-25.0-1.3","SS1619114653813","trial","","40","500","1370.4549999674782","images/stimuli/spore_stims/simple_14_A_a.gif","images/stimuli/spore_stims/simple_09_A_b.gif","forced_short","","8","simple_dissimilar","images/stimuli/spore_stims/simple_09_A_b.gif","","","","",""
"","null","html-keyboard-response","111","210914","0.0-25.0-0.4","SS1619114653813","","","null","","","","","","<p><img src= images/blank.png width =""600"" height = ""600"" style=""position:fixed;top:50%; left:50%; transform: translate(-50%, -50%); border:5px solid black"">","","","","","","","",""
"","649.280000012368","sequential-stimulus-presentation-old","112","212065","0.0-25.0-1.4","SS1619114653813","trial","","40","500","1149.280000012368","images/stimuli/spore_stims/simple_14_A_a.gif","images/stimuli/spore_stims/simple_09_A_b.gif","forced_short","","8","simple_dissimilar","images/stimuli/spore_stims/simple_09_A_b.gif","","","","",""
"","1620.7850000355393","survey-multi-choice","113","213688","0.0-26.0","SS1619114653813","math_question","","","","","","","","","","","","{""Q0"":""3""}","[0]","3","",""
"","null","html-keyboard-response","114","214851","0.0-27.0-0.0","SS1619114653813","","","null","","","","","","<p><img src= images/blank.png width =""600"" height = ""600"" style=""position:fixed;top:50%; left:50%; transform: translate(-50%, -50%); border:5px solid black"">","","","","","","","",""
"","370.49999996088445","sequential-stimulus-presentation-old","115","225241","0.0-27.0-1.0","SS1619114653813","trial","","40","500","870.4999999608845","images/stimuli/spore_stims/complex_08_A_b.gif","images/stimuli/spore_stims/complex_20_A_a.gif","forced_long","","9","complex_dissimilar","images/stimuli/spore_stims/complex_20_A_a.gif","","","","",""
"","null","html-keyboard-response","116","226191","0.0-27.0-0.1","SS1619114653813","","","null","","","","","","<p><img src= images/blank.png width =""600"" height = ""600"" style=""position:fixed;top:50%; left:50%; transform: translate(-50%, -50%); border:5px solid black"">","","","","","","","",""
"","171.29500000737607","sequential-stimulus-presentation-old","117","226865","0.0-27.0-1.1","SS1619114653813","trial","","40","500","671.2950000073761","images/stimuli/spore_stims/complex_08_A_b.gif","images/stimuli/spore_stims/complex_20_A_a.gif","forced_long","","9","complex_dissimilar","images/stimuli/spore_stims/complex_20_A_a.gif","","","","",""
"","null","html-keyboard-response","118","227737","0.0-27.0-0.2","SS1619114653813","","","null","","","","","","<p><img src= images/blank.png width =""600"" height = ""600"" style=""position:fixed;top:50%; left:50%; transform: translate(-50%, -50%); border:5px solid black"">","","","","","","","",""
"","403.639999916777","sequential-stimulus-presentation-old","119","228648","0.0-27.0-1.2","SS1619114653813","trial","","40","500","903.639999916777","images/stimuli/spore_stims/complex_08_A_b.gif","images/stimuli/spore_stims/complex_20_A_a.gif","forced_long","","9","complex_dissimilar","images/stimuli/spore_stims/complex_20_A_a.gif","","","","",""
"","null","html-keyboard-response","120","229925","0.0-27.0-0.3","SS1619114653813","","","null","","","","","","<p><img src= images/blank.png width =""600"" height = ""600"" style=""position:fixed;top:50%; left:50%; transform: translate(-50%, -50%); border:5px solid black"">","","","","","","","",""
"","156.5349999582395","sequential-stimulus-presentation-old","121","230585","0.0-27.0-1.3","SS1619114653813","trial","","40","500","656.5349999582395","images/stimuli/spore_stims/complex_08_A_b.gif","images/stimuli/spore_stims/complex_20_A_a.gif","forced_long","","9","complex_dissimilar","images/stimuli/spore_stims/complex_20_A_a.gif","","","","",""
"","null","html-keyboard-response","122","231727","0.0-27.0-0.4","SS1619114653813","","","null","","","","","","<p><img src= images/blank.png width =""600"" height = ""600"" style=""position:fixed;top:50%; left:50%; transform: translate(-50%, -50%); border:5px solid black"">","","","","","","","",""
"","96.37499996460974","sequential-stimulus-presentation-old","123","232328","0.0-27.0-1.4","SS1619114653813","trial","","40","500","596.3749999646097","images/stimuli/spore_stims/complex_08_A_b.gif","images/stimuli/spore_stims/complex_20_A_a.gif","forced_long","","9","complex_dissimilar","images/stimuli/spore_stims/complex_08_A_b.gif","","","","",""
"","2390.5099999392405","survey-multi-choice","124","234721","0.0-28.0","SS1619114653813","math_question","","","","","","","","","","","","{""Q0"":""13""}","[0]","13","",""
"","null","html-keyboard-response","125","235992","0.0-29.0-0.0","SS1619114653813","","","null","","","","","","<p><img src= images/blank.png width =""600"" height = ""600"" style=""position:fixed;top:50%; left:50%; transform: translate(-50%, -50%); border:5px solid black"">","","","","","","","",""
"","372.43499991018325","sequential-stimulus-presentation-old","126","246368","0.0-29.0-1.0","SS1619114653813","trial","","40","500","872.4349999101833","images/stimuli/spore_stims/simple_03_A_b.gif","images/stimuli/spore_stims/simple_02_A_a.gif","forced_long","","10","simple_dissimilar","images/stimuli/spore_stims/simple_02_A_a.gif","","","","",""
"","null","html-keyboard-response","127","247605","0.0-29.0-0.1","SS1619114653813","","","null","","","","","","<p><img src= images/blank.png width =""600"" height = ""600"" style=""position:fixed;top:50%; left:50%; transform: translate(-50%, -50%); border:5px solid black"">","","","","","","","",""
"","355.0399999367073","sequential-stimulus-presentation-old","128","248464","0.0-29.0-1.1","SS1619114653813","trial","","40","500","855.0399999367073","images/stimuli/spore_stims/simple_03_A_b.gif","images/stimuli/spore_stims/simple_02_A_a.gif","forced_long","","10","simple_dissimilar","images/stimuli/spore_stims/simple_02_A_a.gif","","","","",""
"","null","html-keyboard-response","129","249507","0.0-29.0-0.2","SS1619114653813","","","null","","","","","","<p><img src= images/blank.png width =""600"" height = ""600"" style=""position:fixed;top:50%; left:50%; transform: translate(-50%, -50%); border:5px solid black"">","","","","","","","",""
"","581.8350000772625","sequential-stimulus-presentation-old","130","250593","0.0-29.0-1.2","SS1619114653813","trial","","40","500","1081.8350000772625","images/stimuli/spore_stims/simple_03_A_b.gif","images/stimuli/spore_stims/simple_02_A_a.gif","forced_long","","10","simple_dissimilar","images/stimuli/spore_stims/simple_02_A_a.gif","","","","",""
"","null","html-keyboard-response","131","251784","0.0-29.0-0.3","SS1619114653813","","","null","","","","","","<p><img src= images/blank.png width =""600"" height = ""600"" style=""position:fixed;top:50%; left:50%; transform: translate(-50%, -50%); border:5px solid black"">","","","","","","","",""
"","311.76999991293997","sequential-stimulus-presentation-old","132","252600","0.0-29.0-1.3","SS1619114653813","trial","","40","500","811.76999991294","images/stimuli/spore_stims/simple_03_A_b.gif","images/stimuli/spore_stims/simple_02_A_a.gif","forced_long","","10","simple_dissimilar","images/stimuli/spore_stims/simple_02_A_a.gif","","","","",""
"","null","html-keyboard-response","133","253684","0.0-29.0-0.4","SS1619114653813","","","null","","","","","","<p><img src= images/blank.png width =""600"" height = ""600"" style=""position:fixed;top:50%; left:50%; transform: translate(-50%, -50%); border:5px solid black"">","","","","","","","",""
"","246.49500008672476","sequential-stimulus-presentation-old","134","254434","0.0-29.0-1.4","SS1619114653813","trial","","40","500","746.4950000867248","images/stimuli/spore_stims/simple_03_A_b.gif","images/stimuli/spore_stims/simple_02_A_a.gif","forced_long","","10","simple_dissimilar","images/stimuli/spore_stims/simple_02_A_a.gif","","","","",""
"","null","html-keyboard-response","135","255278","0.0-29.0-0.5","SS1619114653813","","","null","","","","","","<p><img src= images/blank.png width =""600"" height = ""600"" style=""position:fixed;top:50%; left:50%; transform: translate(-50%, -50%); border:5px solid black"">","","","","","","","",""
"","157.2300000116229","sequential-stimulus-presentation-old","136","255937","0.0-29.0-1.5","SS1619114653813","trial","","40","500","657.2300000116229","images/stimuli/spore_stims/simple_03_A_b.gif","images/stimuli/spore_stims/simple_02_A_a.gif","forced_long","","10","simple_dissimilar","images/stimuli/spore_stims/simple_02_A_a.gif","","","","",""
"","2548.4800001140684","survey-multi-choice","137","258488","0.0-30.0","SS1619114653813","math_question","","","","","","","","","","","","{""Q0"":""2""}","[0]","2","",""
"","null","html-keyboard-response","138","259717","0.0-31.0-0.0","SS1619114653813","","","null","","","","","","<p><img src= images/blank.png width =""600"" height = ""600"" style=""position:fixed;top:50%; left:50%; transform: translate(-50%, -50%); border:5px solid black"">","","","","","","","",""
"","172.53500001970679","sequential-stimulus-presentation-old","139","260392","0.0-31.0-1.0","SS1619114653813","trial","","40","500","672.5350000197068","images/stimuli/spore_stims/complex_11_A_b.gif","images/stimuli/spore_stims/complex_01_A_a.gif","self_paced","","11","complex_dissimilar","images/stimuli/spore_stims/complex_01_A_a.gif","","","","",""
"","null","html-keyboard-response","140","261221","0.0-31.0-0.1","SS1619114653813","","","null","","","","","","<p><img src= images/blank.png width =""600"" height = ""600"" style=""position:fixed;top:50%; left:50%; transform: translate(-50%, -50%); border:5px solid black"">","","","","","","","",""
"","611.5950000239536","sequential-stimulus-presentation-old","141","262336","0.0-31.0-1.1","SS1619114653813","trial","","40","500","1111.5950000239536","images/stimuli/spore_stims/complex_11_A_b.gif","images/stimuli/spore_stims/complex_01_A_a.gif","self_paced","","11","complex_dissimilar","images/stimuli/spore_stims/complex_01_A_a.gif","","","","",""
"","null","html-keyboard-response","142","263581","0.0-31.0-0.2","SS1619114653813","","","null","","","","","","<p><img src= images/blank.png width =""600"" height = ""600"" style=""position:fixed;top:50%; left:50%; transform: translate(-50%, -50%); border:5px solid black"">","","","","","","","",""
"","306.12500000279397","sequential-stimulus-presentation-old","143","264392","0.0-31.0-1.2","SS1619114653813","trial","","40","500","806.125000002794","images/stimuli/spore_stims/complex_11_A_b.gif","images/stimuli/spore_stims/complex_01_A_a.gif","self_paced","","11","complex_dissimilar","images/stimuli/spore_stims/complex_01_A_a.gif","","","","",""
"","null","html-keyboard-response","144","265501","0.0-31.0-0.3","SS1619114653813","","","null","","","","","","<p><img src= images/blank.png width =""600"" height = ""600"" style=""position:fixed;top:50%; left:50%; transform: translate(-50%, -50%); border:5px solid black"">","","","","","","","",""
"","180.240000016056","sequential-stimulus-presentation-old","145","266185","0.0-31.0-1.3","SS1619114653813","trial","","40","500","680.240000016056","images/stimuli/spore_stims/complex_11_A_b.gif","images/stimuli/spore_stims/complex_01_A_a.gif","self_paced","","11","complex_dissimilar","images/stimuli/spore_stims/complex_11_A_b.gif","","","","",""
"","null","html-keyboard-response","146","267081","0.0-31.0-0.4","SS1619114653813","","","null","","","","","","<p><img src= images/blank.png width =""600"" height = ""600"" style=""position:fixed;top:50%; left:50%; transform: translate(-50%, -50%); border:5px solid black"">","","","","","","","",""
"","564.0650000423193","sequential-stimulus-presentation-old","147","268152","0.0-31.0-1.4","SS1619114653813","trial","","40","500","1064.0650000423193","images/stimuli/spore_stims/complex_11_A_b.gif","images/stimuli/spore_stims/complex_01_A_a.gif","self_paced","","11","complex_dissimilar","images/stimuli/spore_stims/complex_11_A_b.gif","","","","",""
"[{""page_index"":0,""viewing_time"":3306.194999953732}]","3306.3449999317527","instructions","148","271460","0.0-32.0","SS1619114653813","instructions","","","","","","","","","","","","","","","",""
"","5449.675000039861","survey-likert","149","276913","0.0-33.0","SS1619114653813","similarity_question","","","","","","","","","","","","{""Q0"":4}","[0]","","images/stimuli/spore_stims/simple_12_A_a.gif","images/stimuli/spore_stims/simple_08_A_b.gif"
"","2092.835000017658","survey-likert","150","279008","0.0-34.0","SS1619114653813","similarity_question","","","","","","","","","","","","{""Q0"":3}","[0]","","images/stimuli/spore_stims/simple_03_A_b.gif","images/stimuli/spore_stims/simple_02_A_a.gif"
"","2542.1250000363216","survey-likert","151","281552","0.0-35.0","SS1619114653813","similarity_question","","","","","","","","","","","","{""Q0"":4}","[0]","","images/stimuli/spore_stims/complex_18_A_b.gif","images/stimuli/spore_stims/complex_09_A_a.gif"
"","1845.1249999925494","survey-likert","152","283399","0.0-36.0","SS1619114653813","similarity_question","","","","","","","","","","","","{""Q0"":2}","[0]","","images/stimuli/spore_stims/complex_14_A_a.gif","images/stimuli/spore_stims/complex_17_A_b.gif"
"","1950.4350000061095","survey-likert","153","285353","0.0-37.0","SS1619114653813","similarity_question","","","","","","","","","","","","{""Q0"":5}","[0]","","images/stimuli/spore_stims/simple_07_A_a.gif","images/stimuli/spore_stims/simple_01_A_b.gif"
"","3013.299999991432","survey-likert","154","288368","0.0-38.0","SS1619114653813","similarity_question","","","","","","","","","","","","{""Q0"":4}","[0]","","images/stimuli/spore_stims/complex_04_A_b.gif","images/stimuli/spore_stims/complex_03_A_a.gif"
"","2294.5049999980256","survey-likert","155","290665","0.0-39.0","SS1619114653813","similarity_question","","","","","","","","","","","","{""Q0"":5}","[0]","","images/stimuli/spore_stims/simple_09_A_b.gif","images/stimuli/spore_stims/simple_14_A_a.gif"
"","1674.4399999734014","survey-likert","156","292344","0.0-40.0","SS1619114653813","similarity_question","","","","","","","","","","","","{""Q0"":5}","[0]","","images/stimuli/spore_stims/simple_17_A_b.gif","images/stimuli/spore_stims/simple_09_A_a.gif"
"","2520.200000028126","survey-likert","157","294867","0.0-41.0","SS1619114653813","similarity_question","","","","","","","","","","","","{""Q0"":3}","[0]","","images/stimuli/spore_stims/complex_08_A_b.gif","images/stimuli/spore_stims/complex_20_A_a.gif"
"","2380.8449999196455","survey-likert","158","297250","0.0-42.0","SS1619114653813","similarity_question","","","","","","","","","","","","{""Q0"":4}","[0]","","images/stimuli/spore_stims/complex_01_A_a.gif","images/stimuli/spore_stims/complex_11_A_b.gif"
"","1791.8300000019372","survey-likert","159","299048","0.0-43.0","SS1619114653813","similarity_question","","","","","","","","","","","","{""Q0"":2}","[0]","","images/stimuli/spore_stims/complex_12_A_b.gif","images/stimuli/spore_stims/complex_16_A_a.gif"
"","1758.5400000680238","survey-likert","160","300809","0.0-44.0","SS1619114653813","similarity_question","","","","","","","","","","","","{""Q0"":1}","[0]","","images/stimuli/spore_stims/simple_07_A_b.gif","images/stimuli/spore_stims/simple_10_A_a.gif"
"[{""page_index"":0,""viewing_time"":3940.980000072159}]","3941.1300000501797","instructions","161","304752","0.0-45.0","SS1619114653813","instructions","","","","","","","","","","","","","","","",""
"","2246.8100000405684","survey-likert","162","307002","0.0-46.0","SS1619114653813","","","","","","","","","images/stimuli/spore_stims/complex_08_A_b.gif","","","","{""Q0"":5}","[0]","","",""
"","2188.979999977164","survey-likert","163","309193","0.0-47.0","SS1619114653813","","","","","","","","","images/stimuli/spore_stims/simple_01_A_b.gif","","","","{""Q0"":0}","[0]","","",""
"","1549.155000015162","survey-likert","164","310744","0.0-48.0","SS1619114653813","","","","","","","","","images/stimuli/spore_stims/complex_17_A_b.gif","","","","{""Q0"":5}","[0]","","",""
"","1663.20499998983","survey-likert","165","312410","0.0-49.0","SS1619114653813","","","","","","","","","images/stimuli/spore_stims/simple_08_A_b.gif","","","","{""Q0"":1}","[0]","","",""
"","1640.3700000373647","survey-likert","166","314057","0.0-50.0","SS1619114653813","","","","","","","","","images/stimuli/spore_stims/simple_09_A_a.gif","","","","{""Q0"":0}","[0]","","",""
"","1348.6750000156462","survey-likert","167","315408","0.0-51.0","SS1619114653813","","","","","","","","","images/stimuli/spore_stims/complex_09_A_a.gif","","","","{""Q0"":6}","[0]","","",""
"","1525.870000012219","survey-likert","168","316936","0.0-52.0","SS1619114653813","","","","","","","","","images/stimuli/spore_stims/simple_09_A_b.gif","","","","{""Q0"":1}","[0]","","",""
"","1477.0349999889731","survey-likert","169","318416","0.0-53.0","SS1619114653813","","","","","","","","","images/stimuli/spore_stims/simple_03_A_b.gif","","","","{""Q0"":2}","[0]","","",""
"","1630.0099999643862","survey-likert","170","320050","0.0-54.0","SS1619114653813","","","","","","","","","images/stimuli/spore_stims/simple_07_A_b.gif","","","","{""Q0"":0}","[0]","","",""
"","1844.4249999010935","survey-likert","171","321897","0.0-55.0","SS1619114653813","","","","","","","","","images/stimuli/spore_stims/complex_11_A_b.gif","","","","{""Q0"":4}","[0]","","",""
"","1695.3349999384955","survey-likert","172","323595","0.0-56.0","SS1619114653813","","","","","","","","","images/stimuli/spore_stims/complex_12_A_b.gif","","","","{""Q0"":5}","[0]","","",""
"","1977.9649999691173","survey-likert","173","325585","0.0-57.0","SS1619114653813","","","","","","","","","images/stimuli/spore_stims/complex_03_A_a.gif","","","","{""Q0"":4}","[0]","","",""
"[{""page_index"":0,""viewing_time"":2349.53000000678}]","2349.6750000631437","instructions","174","327936","0.0-58.0","SS1619114653813","instructions","","","","","","","","","","","","","","","",""
"","1917.189999949187","demog-age","175","329857","0.0-59.0","SS1619114653813","","","","","","","","","","","","","{""age"":""40""}","","","",""
"","4484.470000024885","demog-ethnic-US","176","334345","0.0-60.0","SS1619114653813","","","","","","","","","","","","","{""ethnicity"":[""American Indian or Alaska Native"",""White""]}","[0]","","",""
"","3629.4299999717623","demog-gender-and-education","177","337977","0.0-61.0","SS1619114653813","","","","","","","","","","","","","{""gender"":""Male"",""education"":""High school diploma""}","[0,1]","","",""
"","6180.4400000255555","survey-text","178","344161","0.0-62.0","SS1619114653813","feedback","","","","","","","","","","","","{""Q0"":""Everything was fine.  Thanks.""}","","","",""
"[{""page_index"":0,""viewing_time"":2204.759999993257}]","2204.8899999354035","instructions","179","346368","0.0-63.0","SS1619114653813","instructions","","","","","","","","","","","","","","","",""
