"view_history","rt","trial_type","trial_index","time_elapsed","internal_node_id","subject","stimulus_type","trial_stimulus","key_press","minimum_viewing_duration","trial_looking_time","block_deviant","block_background","exposure_type","stimulus","block_number","block_type","stimulus_displayed","responses","question_order","math_correct_answer","stimulus_left","stimulus_right"
"[{""page_index"":0,""viewing_time"":2440.329999999449}]","2441.0449999995762","instructions","0","2443","0.0-0.0","SS1619117495525","","","","","","","","","","","","","","","","",""
"[{""page_index"":0,""viewing_time"":1484.6699999998236},{""page_index"":1,""viewing_time"":3033.8900000006106}]","4518.869999999879","instructions","1","8964","0.0-1.0","SS1619117495525","instructions","","","","","","","","","","","","","","","",""
"","2883.880000001227","sequential-stimulus-presentation-old","2","12354","0.0-2.0","SS1619117495525","","","40","500","3383.880000001227","null","null","self_paced","","","","","","","","",""
"","2907.55000000172","sequential-stimulus-presentation-old","3","15769","0.0-3.0","SS1619117495525","","","40","500","3407.55000000172","null","null","self_paced","","","","","","","","",""
"[{""page_index"":0,""viewing_time"":3549.1650000003574}]","3549.410000001444","instructions","4","19320","0.0-4.0","SS1619117495525","instructions","","","","","","","","","","","","","","","",""
"","1175.9999999994761","sequential-stimulus-presentation-old","5","30499","0.0-5.0","SS1619117495525","","","40","500","1675.9999999994761","null","null","forced_long","","","","","","","","",""
"","4607.625000000553","sequential-stimulus-presentation-old","6","35214","0.0-6.0","SS1619117495525","","","40","500","5107.625000000553","null","null","forced_long","","","","","","","","",""
"[{""page_index"":0,""viewing_time"":4214.565000000221}]","4214.860000000044","instructions","7","39430","0.0-7.0","SS1619117495525","instructions","","","","","","","","","","","","","","","",""
"[{""page_index"":0,""viewing_time"":3458.520000000135},{""page_index"":1,""viewing_time"":3382.209999999759},{""page_index"":2,""viewing_time"":2492.1199999989767},{""page_index"":3,""viewing_time"":1617.7600000009988},{""page_index"":4,""viewing_time"":731.9699999989098}]","11682.93999999878","instructions","8","51114","0.0-8.0","SS1619117495525","instructions","","","","","","","","","","","","","","","",""
"","null","html-keyboard-response","9","52099","0.0-9.0-0.0","SS1619117495525","","","null","","","","","","<p><img src= images/blank.png width =""600"" height = ""600"" style=""position:fixed;top:50%; left:50%; transform: translate(-50%, -50%); border:5px solid black"">","","","","","","","",""
"","2666.1800000001676","sequential-stimulus-presentation-old","10","54870","0.0-9.0-1.0","SS1619117495525","trial","","40","500","3166.1800000001676","images/stimuli/spore_stims/complex_09_A_b.gif","images/stimuli/spore_stims/complex_07_A_a.gif","forced_short","","0","complex_dissimilar","images/stimuli/spore_stims/complex_07_A_a.gif","","","","",""
"","null","html-keyboard-response","11","55719","0.0-9.0-0.1","SS1619117495525","","","null","","","","","","<p><img src= images/blank.png width =""600"" height = ""600"" style=""position:fixed;top:50%; left:50%; transform: translate(-50%, -50%); border:5px solid black"">","","","","","","","",""
"","2373.8850000008824","sequential-stimulus-presentation-old","12","58596","0.0-9.0-1.1","SS1619117495525","trial","","40","500","2873.8850000008824","images/stimuli/spore_stims/complex_09_A_b.gif","images/stimuli/spore_stims/complex_07_A_a.gif","forced_short","","0","complex_dissimilar","images/stimuli/spore_stims/complex_07_A_a.gif","","","","",""
"","null","html-keyboard-response","13","59619","0.0-9.0-0.2","SS1619117495525","","","null","","","","","","<p><img src= images/blank.png width =""600"" height = ""600"" style=""position:fixed;top:50%; left:50%; transform: translate(-50%, -50%); border:5px solid black"">","","","","","","","",""
"","688.9900000005582","sequential-stimulus-presentation-old","14","60812","0.0-9.0-1.2","SS1619117495525","trial","","40","500","1188.9900000005582","images/stimuli/spore_stims/complex_09_A_b.gif","images/stimuli/spore_stims/complex_07_A_a.gif","forced_short","","0","complex_dissimilar","images/stimuli/spore_stims/complex_07_A_a.gif","","","","",""
"","null","html-keyboard-response","15","62065","0.0-9.0-0.3","SS1619117495525","","","null","","","","","","<p><img src= images/blank.png width =""600"" height = ""600"" style=""position:fixed;top:50%; left:50%; transform: translate(-50%, -50%); border:5px solid black"">","","","","","","","",""
"","328.79500000126427","sequential-stimulus-presentation-old","16","62900","0.0-9.0-1.3","SS1619117495525","trial","","40","500","828.7950000012643","images/stimuli/spore_stims/complex_09_A_b.gif","images/stimuli/spore_stims/complex_07_A_a.gif","forced_short","","0","complex_dissimilar","images/stimuli/spore_stims/complex_07_A_a.gif","","","","",""
"","null","html-keyboard-response","17","63891","0.0-9.0-0.4","SS1619117495525","","","null","","","","","","<p><img src= images/blank.png width =""600"" height = ""600"" style=""position:fixed;top:50%; left:50%; transform: translate(-50%, -50%); border:5px solid black"">","","","","","","","",""
"","238.39500000030966","sequential-stimulus-presentation-old","18","64633","0.0-9.0-1.4","SS1619117495525","trial","","40","500","738.3950000003097","images/stimuli/spore_stims/complex_09_A_b.gif","images/stimuli/spore_stims/complex_07_A_a.gif","forced_short","","0","complex_dissimilar","images/stimuli/spore_stims/complex_07_A_a.gif","","","","",""
"","3312.8149999993184","survey-multi-choice","19","67949","0.0-10.0","SS1619117495525","math_question","","","","","","","","","","","","{""Q0"":""10""}","[0]","10","",""
"","null","html-keyboard-response","20","69033","0.0-11.0-0.0","SS1619117495525","","","null","","","","","","<p><img src= images/blank.png width =""600"" height = ""600"" style=""position:fixed;top:50%; left:50%; transform: translate(-50%, -50%); border:5px solid black"">","","","","","","","",""
"","167.90500000024622","sequential-stimulus-presentation-old","21","69707","0.0-11.0-1.0","SS1619117495525","trial","","40","500","667.9050000002462","images/stimuli/spore_stims/complex_02_A_b.gif","images/stimuli/spore_stims/complex_01_A_a.gif","self_paced","","1","complex_dissimilar","images/stimuli/spore_stims/complex_01_A_a.gif","","","","",""
"","null","html-keyboard-response","22","70721","0.0-11.0-0.1","SS1619117495525","","","null","","","","","","<p><img src= images/blank.png width =""600"" height = ""600"" style=""position:fixed;top:50%; left:50%; transform: translate(-50%, -50%); border:5px solid black"">","","","","","","","",""
"","130.5449999999837","sequential-stimulus-presentation-old","23","71363","0.0-11.0-1.1","SS1619117495525","trial","","40","500","630.5449999999837","images/stimuli/spore_stims/complex_02_A_b.gif","images/stimuli/spore_stims/complex_01_A_a.gif","self_paced","","1","complex_dissimilar","images/stimuli/spore_stims/complex_01_A_a.gif","","","","",""
"","null","html-keyboard-response","24","72616","0.0-11.0-0.2","SS1619117495525","","","null","","","","","","<p><img src= images/blank.png width =""600"" height = ""600"" style=""position:fixed;top:50%; left:50%; transform: translate(-50%, -50%); border:5px solid black"">","","","","","","","",""
"","93.60999999989872","sequential-stimulus-presentation-old","25","73213","0.0-11.0-1.2","SS1619117495525","trial","","40","500","593.6099999998987","images/stimuli/spore_stims/complex_02_A_b.gif","images/stimuli/spore_stims/complex_01_A_a.gif","self_paced","","1","complex_dissimilar","images/stimuli/spore_stims/complex_01_A_a.gif","","","","",""
"","null","html-keyboard-response","26","74372","0.0-11.0-0.3","SS1619117495525","","","null","","","","","","<p><img src= images/blank.png width =""600"" height = ""600"" style=""position:fixed;top:50%; left:50%; transform: translate(-50%, -50%); border:5px solid black"">","","","","","","","",""
"","58.68499999996857","sequential-stimulus-presentation-old","27","74935","0.0-11.0-1.3","SS1619117495525","trial","","40","500","558.6849999999686","images/stimuli/spore_stims/complex_02_A_b.gif","images/stimuli/spore_stims/complex_01_A_a.gif","self_paced","","1","complex_dissimilar","images/stimuli/spore_stims/complex_01_A_a.gif","","","","",""
"","2804.874999999811","survey-multi-choice","28","77743","0.0-12.0","SS1619117495525","math_question","","","","","","","","","","","","{""Q0"":""8""}","[0]","8","",""
"","null","html-keyboard-response","29","78646","0.0-13.0-0.0","SS1619117495525","","","null","","","","","","<p><img src= images/blank.png width =""600"" height = ""600"" style=""position:fixed;top:50%; left:50%; transform: translate(-50%, -50%); border:5px solid black"">","","","","","","","",""
"","1365.0999999990745","sequential-stimulus-presentation-old","30","90015","0.0-13.0-1.0","SS1619117495525","trial","","40","500","1865.0999999990745","images/stimuli/spore_stims/simple_20_A_a.gif","images/stimuli/spore_stims/simple_15_A_b.gif","forced_long","","2","simple_dissimilar","images/stimuli/spore_stims/simple_15_A_b.gif","","","","",""
"","null","html-keyboard-response","31","91091","0.0-13.0-0.1","SS1619117495525","","","null","","","","","","<p><img src= images/blank.png width =""600"" height = ""600"" style=""position:fixed;top:50%; left:50%; transform: translate(-50%, -50%); border:5px solid black"">","","","","","","","",""
"","30.539999999746215","sequential-stimulus-presentation-old","32","91634","0.0-13.0-1.1","SS1619117495525","trial","","40","500","530.5399999997462","images/stimuli/spore_stims/simple_20_A_a.gif","images/stimuli/spore_stims/simple_15_A_b.gif","forced_long","","2","simple_dissimilar","images/stimuli/spore_stims/simple_15_A_b.gif","","","","",""
"","null","html-keyboard-response","33","92523","0.0-13.0-0.2","SS1619117495525","","","null","","","","","","<p><img src= images/blank.png width =""600"" height = ""600"" style=""position:fixed;top:50%; left:50%; transform: translate(-50%, -50%); border:5px solid black"">","","","","","","","",""
"","155.95500000017637","sequential-stimulus-presentation-old","34","93182","0.0-13.0-1.2","SS1619117495525","trial","","40","500","655.9550000001764","images/stimuli/spore_stims/simple_20_A_a.gif","images/stimuli/spore_stims/simple_15_A_b.gif","forced_long","","2","simple_dissimilar","images/stimuli/spore_stims/simple_15_A_b.gif","","","","",""
"","null","html-keyboard-response","35","94264","0.0-13.0-0.3","SS1619117495525","","","null","","","","","","<p><img src= images/blank.png width =""600"" height = ""600"" style=""position:fixed;top:50%; left:50%; transform: translate(-50%, -50%); border:5px solid black"">","","","","","","","",""
"","115.38499999915075","sequential-stimulus-presentation-old","36","94883","0.0-13.0-1.3","SS1619117495525","trial","","40","500","615.3849999991508","images/stimuli/spore_stims/simple_20_A_a.gif","images/stimuli/spore_stims/simple_15_A_b.gif","forced_long","","2","simple_dissimilar","images/stimuli/spore_stims/simple_15_A_b.gif","","","","",""
"","null","html-keyboard-response","37","95957","0.0-13.0-0.4","SS1619117495525","","","null","","","","","","<p><img src= images/blank.png width =""600"" height = ""600"" style=""position:fixed;top:50%; left:50%; transform: translate(-50%, -50%); border:5px solid black"">","","","","","","","",""
"","188.74499999947147","sequential-stimulus-presentation-old","38","96651","0.0-13.0-1.4","SS1619117495525","trial","","40","500","688.7449999994715","images/stimuli/spore_stims/simple_20_A_a.gif","images/stimuli/spore_stims/simple_15_A_b.gif","forced_long","","2","simple_dissimilar","images/stimuli/spore_stims/simple_15_A_b.gif","","","","",""
"","3284.6950000002835","survey-multi-choice","39","99938","0.0-14.0","SS1619117495525","math_question","","","","","","","","","","","","{""Q0"":""14""}","[0]","14","",""
"","null","html-keyboard-response","40","100939","0.0-15.0-0.0","SS1619117495525","","","null","","","","","","<p><img src= images/blank.png width =""600"" height = ""600"" style=""position:fixed;top:50%; left:50%; transform: translate(-50%, -50%); border:5px solid black"">","","","","","","","",""
"","207.45499999975436","sequential-stimulus-presentation-old","41","101251","0.0-15.0-1.0","SS1619117495525","trial","","40","500","707.4549999997544","images/stimuli/spore_stims/simple_05_A_a.gif","images/stimuli/spore_stims/simple_14_A_b.gif","forced_short","","3","simple_dissimilar","images/stimuli/spore_stims/simple_14_A_b.gif","","","","",""
"","null","html-keyboard-response","42","102378","0.0-15.0-0.1","SS1619117495525","","","null","","","","","","<p><img src= images/blank.png width =""600"" height = ""600"" style=""position:fixed;top:50%; left:50%; transform: translate(-50%, -50%); border:5px solid black"">","","","","","","","",""
"","172.710000000734","sequential-stimulus-presentation-old","43","103064","0.0-15.0-1.1","SS1619117495525","trial","","40","500","672.710000000734","images/stimuli/spore_stims/simple_05_A_a.gif","images/stimuli/spore_stims/simple_14_A_b.gif","forced_short","","3","simple_dissimilar","images/stimuli/spore_stims/simple_14_A_b.gif","","","","",""
"","null","html-keyboard-response","44","104195","0.0-15.0-0.2","SS1619117495525","","","null","","","","","","<p><img src= images/blank.png width =""600"" height = ""600"" style=""position:fixed;top:50%; left:50%; transform: translate(-50%, -50%); border:5px solid black"">","","","","","","","",""
"","147.37000000059197","sequential-stimulus-presentation-old","45","104854","0.0-15.0-1.2","SS1619117495525","trial","","40","500","647.370000000592","images/stimuli/spore_stims/simple_05_A_a.gif","images/stimuli/spore_stims/simple_14_A_b.gif","forced_short","","3","simple_dissimilar","images/stimuli/spore_stims/simple_14_A_b.gif","","","","",""
"","null","html-keyboard-response","46","106072","0.0-15.0-0.3","SS1619117495525","","","null","","","","","","<p><img src= images/blank.png width =""600"" height = ""600"" style=""position:fixed;top:50%; left:50%; transform: translate(-50%, -50%); border:5px solid black"">","","","","","","","",""
"","107.48500000045169","sequential-stimulus-presentation-old","47","106682","0.0-15.0-1.3","SS1619117495525","trial","","40","500","607.4850000004517","images/stimuli/spore_stims/simple_05_A_a.gif","images/stimuli/spore_stims/simple_14_A_b.gif","forced_short","","3","simple_dissimilar","images/stimuli/spore_stims/simple_14_A_b.gif","","","","",""
"","null","html-keyboard-response","48","107804","0.0-15.0-0.4","SS1619117495525","","","null","","","","","","<p><img src= images/blank.png width =""600"" height = ""600"" style=""position:fixed;top:50%; left:50%; transform: translate(-50%, -50%); border:5px solid black"">","","","","","","","",""
"","138.10499999999593","sequential-stimulus-presentation-old","49","108447","0.0-15.0-1.4","SS1619117495525","trial","","40","500","638.1049999999959","images/stimuli/spore_stims/simple_05_A_a.gif","images/stimuli/spore_stims/simple_14_A_b.gif","forced_short","","3","simple_dissimilar","images/stimuli/spore_stims/simple_05_A_a.gif","","","","",""
"","3100.1450000003388","survey-multi-choice","50","111551","0.0-16.0","SS1619117495525","math_question","","","","","","","","","","","","{""Q0"":""15""}","[0]","15","",""
"","null","html-keyboard-response","51","112524","0.0-17.0-0.0","SS1619117495525","","","null","","","","","","<p><img src= images/blank.png width =""600"" height = ""600"" style=""position:fixed;top:50%; left:50%; transform: translate(-50%, -50%); border:5px solid black"">","","","","","","","",""
"","189.9699999994482","sequential-stimulus-presentation-old","52","122718","0.0-17.0-1.0","SS1619117495525","trial","","40","500","689.9699999994482","images/stimuli/spore_stims/simple_17_A_a.gif","images/stimuli/spore_stims/simple_19_A_b.gif","forced_long","","4","simple_dissimilar","images/stimuli/spore_stims/simple_19_A_b.gif","","","","",""
"","null","html-keyboard-response","53","123837","0.0-17.0-0.1","SS1619117495525","","","null","","","","","","<p><img src= images/blank.png width =""600"" height = ""600"" style=""position:fixed;top:50%; left:50%; transform: translate(-50%, -50%); border:5px solid black"">","","","","","","","",""
"","76.53500000014901","sequential-stimulus-presentation-old","54","124419","0.0-17.0-1.1","SS1619117495525","trial","","40","500","576.535000000149","images/stimuli/spore_stims/simple_17_A_a.gif","images/stimuli/spore_stims/simple_19_A_b.gif","forced_long","","4","simple_dissimilar","images/stimuli/spore_stims/simple_19_A_b.gif","","","","",""
"","null","html-keyboard-response","55","125249","0.0-17.0-0.2","SS1619117495525","","","null","","","","","","<p><img src= images/blank.png width =""600"" height = ""600"" style=""position:fixed;top:50%; left:50%; transform: translate(-50%, -50%); border:5px solid black"">","","","","","","","",""
"","174.68499999995402","sequential-stimulus-presentation-old","56","125940","0.0-17.0-1.2","SS1619117495525","trial","","40","500","674.684999999954","images/stimuli/spore_stims/simple_17_A_a.gif","images/stimuli/spore_stims/simple_19_A_b.gif","forced_long","","4","simple_dissimilar","images/stimuli/spore_stims/simple_19_A_b.gif","","","","",""
"","null","html-keyboard-response","57","126892","0.0-17.0-0.3","SS1619117495525","","","null","","","","","","<p><img src= images/blank.png width =""600"" height = ""600"" style=""position:fixed;top:50%; left:50%; transform: translate(-50%, -50%); border:5px solid black"">","","","","","","","",""
"","201.22499999888532","sequential-stimulus-presentation-old","58","127599","0.0-17.0-1.3","SS1619117495525","trial","","40","500","701.2249999988853","images/stimuli/spore_stims/simple_17_A_a.gif","images/stimuli/spore_stims/simple_19_A_b.gif","forced_long","","4","simple_dissimilar","images/stimuli/spore_stims/simple_17_A_a.gif","","","","",""
"","3081.8950000011682","survey-multi-choice","59","130683","0.0-18.0","SS1619117495525","math_question","","","","","","","","","","","","{""Q0"":""13""}","[0]","13","",""
"","null","html-keyboard-response","60","131838","0.0-19.0-0.0","SS1619117495525","","","null","","","","","","<p><img src= images/blank.png width =""600"" height = ""600"" style=""position:fixed;top:50%; left:50%; transform: translate(-50%, -50%); border:5px solid black"">","","","","","","","",""
"","57.92499999914435","sequential-stimulus-presentation-old","61","132402","0.0-19.0-1.0","SS1619117495525","trial","","40","500","557.9249999991443","images/stimuli/spore_stims/simple_16_A_a.gif","images/stimuli/spore_stims/simple_04_A_b.gif","self_paced","","5","simple_dissimilar","images/stimuli/spore_stims/simple_04_A_b.gif","","","","",""
"","null","html-keyboard-response","62","133602","0.0-19.0-0.1","SS1619117495525","","","null","","","","","","<p><img src= images/blank.png width =""600"" height = ""600"" style=""position:fixed;top:50%; left:50%; transform: translate(-50%, -50%); border:5px solid black"">","","","","","","","",""
"","50.08000000088941","sequential-stimulus-presentation-old","63","134157","0.0-19.0-1.1","SS1619117495525","trial","","40","500","550.0800000008894","images/stimuli/spore_stims/simple_16_A_a.gif","images/stimuli/spore_stims/simple_04_A_b.gif","self_paced","","5","simple_dissimilar","images/stimuli/spore_stims/simple_04_A_b.gif","","","","",""
"","null","html-keyboard-response","64","135400","0.0-19.0-0.2","SS1619117495525","","","null","","","","","","<p><img src= images/blank.png width =""600"" height = ""600"" style=""position:fixed;top:50%; left:50%; transform: translate(-50%, -50%); border:5px solid black"">","","","","","","","",""
"","165.1899999997113","sequential-stimulus-presentation-old","65","136070","0.0-19.0-1.2","SS1619117495525","trial","","40","500","665.1899999997113","images/stimuli/spore_stims/simple_16_A_a.gif","images/stimuli/spore_stims/simple_04_A_b.gif","self_paced","","5","simple_dissimilar","images/stimuli/spore_stims/simple_04_A_b.gif","","","","",""
"","null","html-keyboard-response","66","137208","0.0-19.0-0.3","SS1619117495525","","","null","","","","","","<p><img src= images/blank.png width =""600"" height = ""600"" style=""position:fixed;top:50%; left:50%; transform: translate(-50%, -50%); border:5px solid black"">","","","","","","","",""
"","34.64500000156113","sequential-stimulus-presentation-old","67","137746","0.0-19.0-1.3","SS1619117495525","trial","","40","500","534.6450000015611","images/stimuli/spore_stims/simple_16_A_a.gif","images/stimuli/spore_stims/simple_04_A_b.gif","self_paced","","5","simple_dissimilar","images/stimuli/spore_stims/simple_04_A_b.gif","","","","",""
"","null","html-keyboard-response","68","138977","0.0-19.0-0.4","SS1619117495525","","","null","","","","","","<p><img src= images/blank.png width =""600"" height = ""600"" style=""position:fixed;top:50%; left:50%; transform: translate(-50%, -50%); border:5px solid black"">","","","","","","","",""
"","24.734999999054708","sequential-stimulus-presentation-old","69","139507","0.0-19.0-1.4","SS1619117495525","trial","","40","500","524.7349999990547","images/stimuli/spore_stims/simple_16_A_a.gif","images/stimuli/spore_stims/simple_04_A_b.gif","self_paced","","5","simple_dissimilar","images/stimuli/spore_stims/simple_16_A_a.gif","","","","",""
"","2879.585000000603","survey-multi-choice","70","142392","0.0-20.0","SS1619117495525","math_question","","","","","","","","","","","","{""Q0"":""14""}","[0]","14","",""
"","null","html-keyboard-response","71","143684","0.0-21.0-0.0","SS1619117495525","","","null","","","","","","<p><img src= images/blank.png width =""600"" height = ""600"" style=""position:fixed;top:50%; left:50%; transform: translate(-50%, -50%); border:5px solid black"">","","","","","","","",""
"","148.11499999996158","sequential-stimulus-presentation-old","72","143937","0.0-21.0-1.0","SS1619117495525","trial","","40","500","648.1149999999616","images/stimuli/spore_stims/complex_14_A_b.gif","images/stimuli/spore_stims/complex_20_A_a.gif","forced_short","","6","complex_dissimilar","images/stimuli/spore_stims/complex_20_A_a.gif","","","","",""
"","null","html-keyboard-response","73","145220","0.0-21.0-0.1","SS1619117495525","","","null","","","","","","<p><img src= images/blank.png width =""600"" height = ""600"" style=""position:fixed;top:50%; left:50%; transform: translate(-50%, -50%); border:5px solid black"">","","","","","","","",""
"","174.88000000047032","sequential-stimulus-presentation-old","74","145901","0.0-21.0-1.1","SS1619117495525","trial","","40","500","674.8800000004703","images/stimuli/spore_stims/complex_14_A_b.gif","images/stimuli/spore_stims/complex_20_A_a.gif","forced_short","","6","complex_dissimilar","images/stimuli/spore_stims/complex_20_A_a.gif","","","","",""
"","null","html-keyboard-response","75","146879","0.0-21.0-0.2","SS1619117495525","","","null","","","","","","<p><img src= images/blank.png width =""600"" height = ""600"" style=""position:fixed;top:50%; left:50%; transform: translate(-50%, -50%); border:5px solid black"">","","","","","","","",""
"","3.529999999969732","sequential-stimulus-presentation-old","76","147401","0.0-21.0-1.2","SS1619117495525","trial","","40","500","503.52999999996973","images/stimuli/spore_stims/complex_14_A_b.gif","images/stimuli/spore_stims/complex_20_A_a.gif","forced_short","","6","complex_dissimilar","images/stimuli/spore_stims/complex_20_A_a.gif","","","","",""
"","null","html-keyboard-response","77","148585","0.0-21.0-0.3","SS1619117495525","","","null","","","","","","<p><img src= images/blank.png width =""600"" height = ""600"" style=""position:fixed;top:50%; left:50%; transform: translate(-50%, -50%); border:5px solid black"">","","","","","","","",""
"","41.18999999988591","sequential-stimulus-presentation-old","78","149131","0.0-21.0-1.3","SS1619117495525","trial","","40","500","541.1899999998859","images/stimuli/spore_stims/complex_14_A_b.gif","images/stimuli/spore_stims/complex_20_A_a.gif","forced_short","","6","complex_dissimilar","images/stimuli/spore_stims/complex_14_A_b.gif","","","","",""
"","3540.8250000000407","survey-multi-choice","79","152675","0.0-22.0","SS1619117495525","math_question","","","","","","","","","","","","{""Q0"":""15""}","[0]","15","",""
"","null","html-keyboard-response","80","153648","0.0-23.0-0.0","SS1619117495525","","","null","","","","","","<p><img src= images/blank.png width =""600"" height = ""600"" style=""position:fixed;top:50%; left:50%; transform: translate(-50%, -50%); border:5px solid black"">","","","","","","","",""
"","98.72999999971944","sequential-stimulus-presentation-old","81","154252","0.0-23.0-1.0","SS1619117495525","trial","","40","500","598.7299999997194","images/stimuli/spore_stims/simple_14_A_a.gif","images/stimuli/spore_stims/simple_17_A_b.gif","self_paced","","7","simple_dissimilar","images/stimuli/spore_stims/simple_17_A_b.gif","","","","",""
"","null","html-keyboard-response","82","155251","0.0-23.0-0.1","SS1619117495525","","","null","","","","","","<p><img src= images/blank.png width =""600"" height = ""600"" style=""position:fixed;top:50%; left:50%; transform: translate(-50%, -50%); border:5px solid black"">","","","","","","","",""
"","134.8449999986624","sequential-stimulus-presentation-old","83","155891","0.0-23.0-1.1","SS1619117495525","trial","","40","500","634.8449999986624","images/stimuli/spore_stims/simple_14_A_a.gif","images/stimuli/spore_stims/simple_17_A_b.gif","self_paced","","7","simple_dissimilar","images/stimuli/spore_stims/simple_17_A_b.gif","","","","",""
"","null","html-keyboard-response","84","157166","0.0-23.0-0.2","SS1619117495525","","","null","","","","","","<p><img src= images/blank.png width =""600"" height = ""600"" style=""position:fixed;top:50%; left:50%; transform: translate(-50%, -50%); border:5px solid black"">","","","","","","","",""
"","10.830000001064036","sequential-stimulus-presentation-old","85","157683","0.0-23.0-1.2","SS1619117495525","trial","","40","500","510.83000000106404","images/stimuli/spore_stims/simple_14_A_a.gif","images/stimuli/spore_stims/simple_17_A_b.gif","self_paced","","7","simple_dissimilar","images/stimuli/spore_stims/simple_17_A_b.gif","","","","",""
"","null","html-keyboard-response","86","158888","0.0-23.0-0.3","SS1619117495525","","","null","","","","","","<p><img src= images/blank.png width =""600"" height = ""600"" style=""position:fixed;top:50%; left:50%; transform: translate(-50%, -50%); border:5px solid black"">","","","","","","","",""
"","31.18500000165659","sequential-stimulus-presentation-old","87","159424","0.0-23.0-1.3","SS1619117495525","trial","","40","500","531.1850000016566","images/stimuli/spore_stims/simple_14_A_a.gif","images/stimuli/spore_stims/simple_17_A_b.gif","self_paced","","7","simple_dissimilar","images/stimuli/spore_stims/simple_17_A_b.gif","","","","",""
"","null","html-keyboard-response","88","160593","0.0-23.0-0.4","SS1619117495525","","","null","","","","","","<p><img src= images/blank.png width =""600"" height = ""600"" style=""position:fixed;top:50%; left:50%; transform: translate(-50%, -50%); border:5px solid black"">","","","","","","","",""
"","2.1249999990686774","sequential-stimulus-presentation-old","89","161110","0.0-23.0-1.4","SS1619117495525","trial","","40","500","502.1249999990687","images/stimuli/spore_stims/simple_14_A_a.gif","images/stimuli/spore_stims/simple_17_A_b.gif","self_paced","","7","simple_dissimilar","images/stimuli/spore_stims/simple_14_A_a.gif","","","","",""
"","4195.404999998573","survey-multi-choice","90","165309","0.0-24.0","SS1619117495525","math_question","","","","","","","","","","","","{""Q0"":""11""}","[0]","11","",""
"","null","html-keyboard-response","91","166406","0.0-25.0-0.0","SS1619117495525","","","null","","","","","","<p><img src= images/blank.png width =""600"" height = ""600"" style=""position:fixed;top:50%; left:50%; transform: translate(-50%, -50%); border:5px solid black"">","","","","","","","",""
"","102.46000000005006","sequential-stimulus-presentation-old","92","176515","0.0-25.0-1.0","SS1619117495525","trial","","40","500","602.4600000000501","images/stimuli/spore_stims/complex_18_A_b.gif","images/stimuli/spore_stims/complex_19_A_a.gif","forced_long","","8","complex_dissimilar","images/stimuli/spore_stims/complex_19_A_a.gif","","","","",""
"","null","html-keyboard-response","93","177417","0.0-25.0-0.1","SS1619117495525","","","null","","","","","","<p><img src= images/blank.png width =""600"" height = ""600"" style=""position:fixed;top:50%; left:50%; transform: translate(-50%, -50%); border:5px solid black"">","","","","","","","",""
"","10.035000001138542","sequential-stimulus-presentation-old","94","177934","0.0-25.0-1.1","SS1619117495525","trial","","40","500","510.03500000113854","images/stimuli/spore_stims/complex_18_A_b.gif","images/stimuli/spore_stims/complex_19_A_a.gif","forced_long","","8","complex_dissimilar","images/stimuli/spore_stims/complex_19_A_a.gif","","","","",""
"","null","html-keyboard-response","95","179087","0.0-25.0-0.2","SS1619117495525","","","null","","","","","","<p><img src= images/blank.png width =""600"" height = ""600"" style=""position:fixed;top:50%; left:50%; transform: translate(-50%, -50%); border:5px solid black"">","","","","","","","",""
"","84.04999999946449","sequential-stimulus-presentation-old","96","179677","0.0-25.0-1.2","SS1619117495525","trial","","40","500","584.0499999994645","images/stimuli/spore_stims/complex_18_A_b.gif","images/stimuli/spore_stims/complex_19_A_a.gif","forced_long","","8","complex_dissimilar","images/stimuli/spore_stims/complex_19_A_a.gif","","","","",""
"","null","html-keyboard-response","97","180647","0.0-25.0-0.3","SS1619117495525","","","null","","","","","","<p><img src= images/blank.png width =""600"" height = ""600"" style=""position:fixed;top:50%; left:50%; transform: translate(-50%, -50%); border:5px solid black"">","","","","","","","",""
"","15.795000001147855","sequential-stimulus-presentation-old","98","181168","0.0-25.0-1.3","SS1619117495525","trial","","40","500","515.7950000011479","images/stimuli/spore_stims/complex_18_A_b.gif","images/stimuli/spore_stims/complex_19_A_a.gif","forced_long","","8","complex_dissimilar","images/stimuli/spore_stims/complex_19_A_a.gif","","","","",""
"","3165.834999999788","survey-multi-choice","99","184338","0.0-26.0","SS1619117495525","math_question","","","","","","","","","","","","{""Q0"":""7""}","[0]","7","",""
"","null","html-keyboard-response","100","185385","0.0-27.0-0.0","SS1619117495525","","","null","","","","","","<p><img src= images/blank.png width =""600"" height = ""600"" style=""position:fixed;top:50%; left:50%; transform: translate(-50%, -50%); border:5px solid black"">","","","","","","","",""
"","248.43999999936204","sequential-stimulus-presentation-old","101","185740","0.0-27.0-1.0","SS1619117495525","trial","","40","500","748.439999999362","images/stimuli/spore_stims/simple_05_A_b.gif","images/stimuli/spore_stims/simple_15_A_a.gif","forced_short","","9","simple_dissimilar","images/stimuli/spore_stims/simple_15_A_a.gif","","","","",""
"","null","html-keyboard-response","102","187030","0.0-27.0-0.1","SS1619117495525","","","null","","","","","","<p><img src= images/blank.png width =""600"" height = ""600"" style=""position:fixed;top:50%; left:50%; transform: translate(-50%, -50%); border:5px solid black"">","","","","","","","",""
"","110.59000000020023","sequential-stimulus-presentation-old","103","187646","0.0-27.0-1.1","SS1619117495525","trial","","40","500","610.5900000002002","images/stimuli/spore_stims/simple_05_A_b.gif","images/stimuli/spore_stims/simple_15_A_a.gif","forced_short","","9","simple_dissimilar","images/stimuli/spore_stims/simple_05_A_b.gif","","","","",""
"","null","html-keyboard-response","104","188880","0.0-27.0-0.2","SS1619117495525","","","null","","","","","","<p><img src= images/blank.png width =""600"" height = ""600"" style=""position:fixed;top:50%; left:50%; transform: translate(-50%, -50%); border:5px solid black"">","","","","","","","",""
"","4.4649999999965075","sequential-stimulus-presentation-old","105","189391","0.0-27.0-1.2","SS1619117495525","trial","","40","500","504.4649999999965","images/stimuli/spore_stims/simple_05_A_b.gif","images/stimuli/spore_stims/simple_15_A_a.gif","forced_short","","9","simple_dissimilar","images/stimuli/spore_stims/simple_15_A_a.gif","","","","",""
"","null","html-keyboard-response","106","190508","0.0-27.0-0.3","SS1619117495525","","","null","","","","","","<p><img src= images/blank.png width =""600"" height = ""600"" style=""position:fixed;top:50%; left:50%; transform: translate(-50%, -50%); border:5px solid black"">","","","","","","","",""
"","118.71000000063214","sequential-stimulus-presentation-old","107","191132","0.0-27.0-1.3","SS1619117495525","trial","","40","500","618.7100000006321","images/stimuli/spore_stims/simple_05_A_b.gif","images/stimuli/spore_stims/simple_15_A_a.gif","forced_short","","9","simple_dissimilar","images/stimuli/spore_stims/simple_15_A_a.gif","","","","",""
"","null","html-keyboard-response","108","192120","0.0-27.0-0.4","SS1619117495525","","","null","","","","","","<p><img src= images/blank.png width =""600"" height = ""600"" style=""position:fixed;top:50%; left:50%; transform: translate(-50%, -50%); border:5px solid black"">","","","","","","","",""
"","22.67500000016298","sequential-stimulus-presentation-old","109","192649","0.0-27.0-1.4","SS1619117495525","trial","","40","500","522.675000000163","images/stimuli/spore_stims/simple_05_A_b.gif","images/stimuli/spore_stims/simple_15_A_a.gif","forced_short","","9","simple_dissimilar","images/stimuli/spore_stims/simple_15_A_a.gif","","","","",""
"","2828.5050000013143","survey-multi-choice","110","195482","0.0-28.0","SS1619117495525","math_question","","","","","","","","","","","","{""Q0"":""10""}","[0]","10","",""
"","null","html-keyboard-response","111","196749","0.0-29.0-0.0","SS1619117495525","","","null","","","","","","<p><img src= images/blank.png width =""600"" height = ""600"" style=""position:fixed;top:50%; left:50%; transform: translate(-50%, -50%); border:5px solid black"">","","","","","","","",""
"","125.00499999988824","sequential-stimulus-presentation-old","112","197380","0.0-29.0-1.0","SS1619117495525","trial","","40","500","625.0049999998882","images/stimuli/spore_stims/complex_15_A_b.gif","images/stimuli/spore_stims/complex_17_A_a.gif","self_paced","","10","complex_dissimilar","images/stimuli/spore_stims/complex_17_A_a.gif","","","","",""
"","null","html-keyboard-response","113","198622","0.0-29.0-0.1","SS1619117495525","","","null","","","","","","<p><img src= images/blank.png width =""600"" height = ""600"" style=""position:fixed;top:50%; left:50%; transform: translate(-50%, -50%); border:5px solid black"">","","","","","","","",""
"","206.82000000125845","sequential-stimulus-presentation-old","114","199335","0.0-29.0-1.1","SS1619117495525","trial","","40","500","706.8200000012584","images/stimuli/spore_stims/complex_15_A_b.gif","images/stimuli/spore_stims/complex_17_A_a.gif","self_paced","","10","complex_dissimilar","images/stimuli/spore_stims/complex_17_A_a.gif","","","","",""
"","null","html-keyboard-response","115","200291","0.0-29.0-0.2","SS1619117495525","","","null","","","","","","<p><img src= images/blank.png width =""600"" height = ""600"" style=""position:fixed;top:50%; left:50%; transform: translate(-50%, -50%); border:5px solid black"">","","","","","","","",""
"","95.43000000121538","sequential-stimulus-presentation-old","116","200892","0.0-29.0-1.2","SS1619117495525","trial","","40","500","595.4300000012154","images/stimuli/spore_stims/complex_15_A_b.gif","images/stimuli/spore_stims/complex_17_A_a.gif","self_paced","","10","complex_dissimilar","images/stimuli/spore_stims/complex_17_A_a.gif","","","","",""
"","null","html-keyboard-response","117","202155","0.0-29.0-0.3","SS1619117495525","","","null","","","","","","<p><img src= images/blank.png width =""600"" height = ""600"" style=""position:fixed;top:50%; left:50%; transform: translate(-50%, -50%); border:5px solid black"">","","","","","","","",""
"","102.92499999923166","sequential-stimulus-presentation-old","118","202769","0.0-29.0-1.3","SS1619117495525","trial","","40","500","602.9249999992317","images/stimuli/spore_stims/complex_15_A_b.gif","images/stimuli/spore_stims/complex_17_A_a.gif","self_paced","","10","complex_dissimilar","images/stimuli/spore_stims/complex_17_A_a.gif","","","","",""
"","null","html-keyboard-response","119","203790","0.0-29.0-0.4","SS1619117495525","","","null","","","","","","<p><img src= images/blank.png width =""600"" height = ""600"" style=""position:fixed;top:50%; left:50%; transform: translate(-50%, -50%); border:5px solid black"">","","","","","","","",""
"","159.05500000010943","sequential-stimulus-presentation-old","120","204460","0.0-29.0-1.4","SS1619117495525","trial","","40","500","659.0550000001094","images/stimuli/spore_stims/complex_15_A_b.gif","images/stimuli/spore_stims/complex_17_A_a.gif","self_paced","","10","complex_dissimilar","images/stimuli/spore_stims/complex_17_A_a.gif","","","","",""
"","null","html-keyboard-response","121","205599","0.0-29.0-0.5","SS1619117495525","","","null","","","","","","<p><img src= images/blank.png width =""600"" height = ""600"" style=""position:fixed;top:50%; left:50%; transform: translate(-50%, -50%); border:5px solid black"">","","","","","","","",""
"","39.904999999620486","sequential-stimulus-presentation-old","122","206146","0.0-29.0-1.5","SS1619117495525","trial","","40","500","539.9049999996205","images/stimuli/spore_stims/complex_15_A_b.gif","images/stimuli/spore_stims/complex_17_A_a.gif","self_paced","","10","complex_dissimilar","images/stimuli/spore_stims/complex_17_A_a.gif","","","","",""
"","3018.019999999524","survey-multi-choice","123","209168","0.0-30.0","SS1619117495525","math_question","","","","","","","","","","","","{""Q0"":""12""}","[0]","12","",""
"","null","html-keyboard-response","124","210447","0.0-31.0-0.0","SS1619117495525","","","null","","","","","","<p><img src= images/blank.png width =""600"" height = ""600"" style=""position:fixed;top:50%; left:50%; transform: translate(-50%, -50%); border:5px solid black"">","","","","","","","",""
"","2175.5849999990605","sequential-stimulus-presentation-old","125","223228","0.0-31.0-1.0","SS1619117495525","trial","","40","500","2675.5849999990605","images/stimuli/spore_stims/complex_03_A_a.gif","images/stimuli/spore_stims/complex_06_A_b.gif","forced_long","","11","complex_dissimilar","images/stimuli/spore_stims/complex_06_A_b.gif","","","","",""
"","null","html-keyboard-response","126","224374","0.0-31.0-0.1","SS1619117495525","","","null","","","","","","<p><img src= images/blank.png width =""600"" height = ""600"" style=""position:fixed;top:50%; left:50%; transform: translate(-50%, -50%); border:5px solid black"">","","","","","","","",""
"","232.4399999997695","sequential-stimulus-presentation-old","127","225111","0.0-31.0-1.1","SS1619117495525","trial","","40","500","732.4399999997695","images/stimuli/spore_stims/complex_03_A_a.gif","images/stimuli/spore_stims/complex_06_A_b.gif","forced_long","","11","complex_dissimilar","images/stimuli/spore_stims/complex_06_A_b.gif","","","","",""
"","null","html-keyboard-response","128","226210","0.0-31.0-0.2","SS1619117495525","","","null","","","","","","<p><img src= images/blank.png width =""600"" height = ""600"" style=""position:fixed;top:50%; left:50%; transform: translate(-50%, -50%); border:5px solid black"">","","","","","","","",""
"","234.38499999977648","sequential-stimulus-presentation-old","129","226950","0.0-31.0-1.2","SS1619117495525","trial","","40","500","734.3849999997765","images/stimuli/spore_stims/complex_03_A_a.gif","images/stimuli/spore_stims/complex_06_A_b.gif","forced_long","","11","complex_dissimilar","images/stimuli/spore_stims/complex_03_A_a.gif","","","","",""
"","null","html-keyboard-response","130","228101","0.0-31.0-0.3","SS1619117495525","","","null","","","","","","<p><img src= images/blank.png width =""600"" height = ""600"" style=""position:fixed;top:50%; left:50%; transform: translate(-50%, -50%); border:5px solid black"">","","","","","","","",""
"","30.575000000651926","sequential-stimulus-presentation-old","131","228636","0.0-31.0-1.3","SS1619117495525","trial","","40","500","530.5750000006519","images/stimuli/spore_stims/complex_03_A_a.gif","images/stimuli/spore_stims/complex_06_A_b.gif","forced_long","","11","complex_dissimilar","images/stimuli/spore_stims/complex_06_A_b.gif","","","","",""
"","null","html-keyboard-response","132","229598","0.0-31.0-0.4","SS1619117495525","","","null","","","","","","<p><img src= images/blank.png width =""600"" height = ""600"" style=""position:fixed;top:50%; left:50%; transform: translate(-50%, -50%); border:5px solid black"">","","","","","","","",""
"","122.24000000060187","sequential-stimulus-presentation-old","133","230226","0.0-31.0-1.4","SS1619117495525","trial","","40","500","622.2400000006019","images/stimuli/spore_stims/complex_03_A_a.gif","images/stimuli/spore_stims/complex_06_A_b.gif","forced_long","","11","complex_dissimilar","images/stimuli/spore_stims/complex_03_A_a.gif","","","","",""
"","null","html-keyboard-response","134","231082","0.0-31.0-0.5","SS1619117495525","","","null","","","","","","<p><img src= images/blank.png width =""600"" height = ""600"" style=""position:fixed;top:50%; left:50%; transform: translate(-50%, -50%); border:5px solid black"">","","","","","","","",""
"","148.7450000004028","sequential-stimulus-presentation-old","135","231736","0.0-31.0-1.5","SS1619117495525","trial","","40","500","648.7450000004028","images/stimuli/spore_stims/complex_03_A_a.gif","images/stimuli/spore_stims/complex_06_A_b.gif","forced_long","","11","complex_dissimilar","images/stimuli/spore_stims/complex_06_A_b.gif","","","","",""
"[{""page_index"":0,""viewing_time"":3613.310000000638}]","3613.605000000476","instructions","136","235352","0.0-32.0","SS1619117495525","instructions","","","","","","","","","","","","","","","",""
"","4638.209999999148","survey-likert","137","239996","0.0-33.0","SS1619117495525","similarity_question","","","","","","","","","","","","{""Q0"":5}","[0]","","images/stimuli/spore_stims/simple_17_A_b.gif","images/stimuli/spore_stims/simple_14_A_a.gif"
"","3953.2650000001013","survey-likert","138","243962","0.0-34.0","SS1619117495525","similarity_question","","","","","","","","","","","","{""Q0"":4}","[0]","","images/stimuli/spore_stims/complex_07_A_a.gif","images/stimuli/spore_stims/complex_09_A_b.gif"
"","3226.024999999907","survey-likert","139","247200","0.0-35.0","SS1619117495525","similarity_question","","","","","","","","","","","","{""Q0"":2}","[0]","","images/stimuli/spore_stims/complex_20_A_a.gif","images/stimuli/spore_stims/complex_14_A_b.gif"
"","2283.625000000029","survey-likert","140","249496","0.0-36.0","SS1619117495525","similarity_question","","","","","","","","","","","","{""Q0"":4}","[0]","","images/stimuli/spore_stims/simple_05_A_a.gif","images/stimuli/spore_stims/simple_14_A_b.gif"
"","2035.9100000005274","survey-likert","141","251542","0.0-37.0","SS1619117495525","similarity_question","","","","","","","","","","","","{""Q0"":4}","[0]","","images/stimuli/spore_stims/simple_19_A_b.gif","images/stimuli/spore_stims/simple_17_A_a.gif"
"","3207.7200000003504","survey-likert","142","254760","0.0-38.0","SS1619117495525","similarity_question","","","","","","","","","","","","{""Q0"":1}","[0]","","images/stimuli/spore_stims/complex_17_A_a.gif","images/stimuli/spore_stims/complex_15_A_b.gif"
"","5567.434999999066","survey-likert","143","260340","0.0-39.0","SS1619117495525","similarity_question","","","","","","","","","","","","{""Q0"":1}","[0]","","images/stimuli/spore_stims/complex_03_A_a.gif","images/stimuli/spore_stims/complex_06_A_b.gif"
"","4044.2449999991222","survey-likert","144","264396","0.0-40.0","SS1619117495525","similarity_question","","","","","","","","","","","","{""Q0"":5}","[0]","","images/stimuli/spore_stims/simple_05_A_b.gif","images/stimuli/spore_stims/simple_15_A_a.gif"
"","3527.7050000004238","survey-likert","145","267936","0.0-41.0","SS1619117495525","similarity_question","","","","","","","","","","","","{""Q0"":4}","[0]","","images/stimuli/spore_stims/complex_02_A_b.gif","images/stimuli/spore_stims/complex_01_A_a.gif"
"","3949.4350000004633","survey-likert","146","271898","0.0-42.0","SS1619117495525","similarity_question","","","","","","","","","","","","{""Q0"":1}","[0]","","images/stimuli/spore_stims/complex_19_A_a.gif","images/stimuli/spore_stims/complex_18_A_b.gif"
"","2123.3199999987846","survey-likert","147","274034","0.0-43.0","SS1619117495525","similarity_question","","","","","","","","","","","","{""Q0"":4}","[0]","","images/stimuli/spore_stims/simple_15_A_b.gif","images/stimuli/spore_stims/simple_20_A_a.gif"
"","2019.560000000638","survey-likert","148","276064","0.0-44.0","SS1619117495525","similarity_question","","","","","","","","","","","","{""Q0"":4}","[0]","","images/stimuli/spore_stims/simple_04_A_b.gif","images/stimuli/spore_stims/simple_16_A_a.gif"
"[{""page_index"":0,""viewing_time"":4140.85999999952}]","4141.219999999565","instructions","149","280216","0.0-45.0","SS1619117495525","instructions","","","","","","","","","","","","","","","",""
"","2279.7599999994854","survey-likert","150","282502","0.0-46.0","SS1619117495525","","","","","","","","","images/stimuli/spore_stims/simple_15_A_a.gif","","","","{""Q0"":0}","[0]","","",""
"","2303.3799999993644","survey-likert","151","284816","0.0-47.0","SS1619117495525","","","","","","","","","images/stimuli/spore_stims/complex_03_A_a.gif","","","","{""Q0"":5}","[0]","","",""
"","2376.8150000013993","survey-likert","152","287205","0.0-48.0","SS1619117495525","","","","","","","","","images/stimuli/spore_stims/complex_19_A_a.gif","","","","{""Q0"":6}","[0]","","",""
"","2850.3650000002235","survey-likert","153","290065","0.0-49.0","SS1619117495525","","","","","","","","","images/stimuli/spore_stims/complex_15_A_b.gif","","","","{""Q0"":6}","[0]","","",""
"","2512.195000001171","survey-likert","154","292588","0.0-50.0","SS1619117495525","","","","","","","","","images/stimuli/spore_stims/simple_14_A_b.gif","","","","{""Q0"":0}","[0]","","",""
"","2416.8900000004214","survey-likert","155","295017","0.0-51.0","SS1619117495525","","","","","","","","","images/stimuli/spore_stims/simple_19_A_b.gif","","","","{""Q0"":1}","[0]","","",""
"","3535.5550000004005","survey-likert","156","298564","0.0-52.0","SS1619117495525","","","","","","","","","images/stimuli/spore_stims/complex_02_A_b.gif","","","","{""Q0"":4}","[0]","","",""
"","2676.7049999998417","survey-likert","157","301252","0.0-53.0","SS1619117495525","","","","","","","","","images/stimuli/spore_stims/complex_20_A_a.gif","","","","{""Q0"":4}","[0]","","",""
"","3512.7200000006706","survey-likert","158","304778","0.0-54.0","SS1619117495525","","","","","","","","","images/stimuli/spore_stims/complex_07_A_a.gif","","","","{""Q0"":4}","[0]","","",""
"","3389.145000001008","survey-likert","159","308178","0.0-55.0","SS1619117495525","","","","","","","","","images/stimuli/spore_stims/simple_16_A_a.gif","","","","{""Q0"":1}","[0]","","",""
"","2271.310000000114","survey-likert","160","310462","0.0-56.0","SS1619117495525","","","","","","","","","images/stimuli/spore_stims/simple_17_A_b.gif","","","","{""Q0"":0}","[0]","","",""
"","2262.404999999504","survey-likert","161","312736","0.0-57.0","SS1619117495525","","","","","","","","","images/stimuli/spore_stims/simple_20_A_a.gif","","","","{""Q0"":1}","[0]","","",""
"[{""page_index"":0,""viewing_time"":1865.4249999999884}]","1865.7399999992922","instructions","162","314611","0.0-58.0","SS1619117495525","instructions","","","","","","","","","","","","","","","",""
"","2574.5299999998533","demog-age","163","317194","0.0-59.0","SS1619117495525","","","","","","","","","","","","","{""age"":""22""}","","","",""
"","3137.5849999985658","demog-ethnic-US","164","320341","0.0-60.0","SS1619117495525","","","","","","","","","","","","","{""ethnicity"":[""White""]}","[0]","","",""
"","4686.545000000508","demog-gender-and-education","165","325040","0.0-61.0","SS1619117495525","","","","","","","","","","","","","{""gender"":""Male"",""education"":""Master's Degree""}","[0,1]","","",""
"","20108.390000001236","survey-text","166","345162","0.0-62.0","SS1619117495525","feedback","","","","","","","","","","","","{""Q0"":""the first part did not work good, I had to enter manually""}","","","",""
"[{""page_index"":0,""viewing_time"":1918.424999999872}]","1918.874999999418","instructions","167","347086","0.0-63.0","SS1619117495525","instructions","","","","","","","","","","","","","","","",""
