"view_history","rt","trial_type","trial_index","time_elapsed","internal_node_id","subject","stimulus_type","trial_stimulus","key_press","minimum_viewing_duration","trial_looking_time","block_deviant","block_background","exposure_type","stimulus","block_number","block_type","stimulus_displayed","responses","question_order","math_correct_answer","stimulus_left","stimulus_right"
"[{""page_index"":0,""viewing_time"":2643.079999834299}]","2643.4549996629357","instructions","0","2645","0.0-0.0","SS1619115241762","","","","","","","","","","","","","","","","",""
"[{""page_index"":0,""viewing_time"":4690.3599998913705},{""page_index"":1,""viewing_time"":3127.644999884069}]","7818.295000120997","instructions","1","12476","0.0-1.0","SS1619115241762","instructions","","","","","","","","","","","","","","","",""
"","3484.9800001829863","sequential-stimulus-presentation-old","2","16469","0.0-2.0","SS1619115241762","","","40","500","3984.9800001829863","null","null","self_paced","","","","","","","","",""
"","3650.9699998423457","sequential-stimulus-presentation-old","3","20633","0.0-3.0","SS1619115241762","","","40","500","4150.969999842346","null","null","self_paced","","","","","","","","",""
"[{""page_index"":0,""viewing_time"":13848.905000369996}]","13849.160000216216","instructions","4","34483","0.0-4.0","SS1619115241762","instructions","","","","","","","","","","","","","","","",""
"","403.90999987721443","sequential-stimulus-presentation-old","5","44898","0.0-5.0","SS1619115241762","","","40","500","903.9099998772144","null","null","forced_long","","","","","","","","",""
"","3069.2650000564754","sequential-stimulus-presentation-old","6","48081","0.0-6.0","SS1619115241762","","","40","500","3569.2650000564754","null","null","forced_long","","","","","","","","",""
"[{""page_index"":0,""viewing_time"":3864.4349998794496}]","3864.670000039041","instructions","7","51947","0.0-7.0","SS1619115241762","instructions","","","","","","","","","","","","","","","",""
"[{""page_index"":0,""viewing_time"":3846.5299997478724},{""page_index"":1,""viewing_time"":5856.945000123233},{""page_index"":2,""viewing_time"":3079.5950000174344},{""page_index"":3,""viewing_time"":1111.320000141859},{""page_index"":4,""viewing_time"":847.9800000786781}]","14742.664999794215","instructions","8","66691","0.0-8.0","SS1619115241762","instructions","","","","","","","","","","","","","","","",""
"","null","html-keyboard-response","9","67648","0.0-9.0-0.0","SS1619115241762","","","null","","","","","","<p><img src= images/blank.png width =""600"" height = ""600"" style=""position:fixed;top:50%; left:50%; transform: translate(-50%, -50%); border:5px solid black"">","","","","","","","",""
"","363.53000020608306","sequential-stimulus-presentation-old","10","78025","0.0-9.0-1.0","SS1619115241762","trial","","40","500","863.5300002060831","images/stimuli/spore_stims/complex_20_A_a.gif","images/stimuli/spore_stims/complex_01_A_b.gif","forced_long","","0","complex_dissimilar","images/stimuli/spore_stims/complex_01_A_b.gif","","","","",""
"","null","html-keyboard-response","11","79243","0.0-9.0-0.1","SS1619115241762","","","null","","","","","","<p><img src= images/blank.png width =""600"" height = ""600"" style=""position:fixed;top:50%; left:50%; transform: translate(-50%, -50%); border:5px solid black"">","","","","","","","",""
"","9773.425000254065","sequential-stimulus-presentation-old","12","89521","0.0-9.0-1.1","SS1619115241762","trial","","40","500","10273.425000254065","images/stimuli/spore_stims/complex_20_A_a.gif","images/stimuli/spore_stims/complex_01_A_b.gif","forced_long","","0","complex_dissimilar","images/stimuli/spore_stims/complex_01_A_b.gif","","","","",""
"","null","html-keyboard-response","13","90443","0.0-9.0-0.2","SS1619115241762","","","null","","","","","","<p><img src= images/blank.png width =""600"" height = ""600"" style=""position:fixed;top:50%; left:50%; transform: translate(-50%, -50%); border:5px solid black"">","","","","","","","",""
"","14212.520000059158","sequential-stimulus-presentation-old","14","105162","0.0-9.0-1.2","SS1619115241762","trial","","40","500","14712.520000059158","images/stimuli/spore_stims/complex_20_A_a.gif","images/stimuli/spore_stims/complex_01_A_b.gif","forced_long","","0","complex_dissimilar","images/stimuli/spore_stims/complex_01_A_b.gif","","","","",""
"","null","html-keyboard-response","15","106100","0.0-9.0-0.3","SS1619115241762","","","null","","","","","","<p><img src= images/blank.png width =""600"" height = ""600"" style=""position:fixed;top:50%; left:50%; transform: translate(-50%, -50%); border:5px solid black"">","","","","","","","",""
"","1963.6550000868738","sequential-stimulus-presentation-old","16","108568","0.0-9.0-1.3","SS1619115241762","trial","","40","500","2463.6550000868738","images/stimuli/spore_stims/complex_20_A_a.gif","images/stimuli/spore_stims/complex_01_A_b.gif","forced_long","","0","complex_dissimilar","images/stimuli/spore_stims/complex_01_A_b.gif","","","","",""
"","null","html-keyboard-response","17","109563","0.0-9.0-0.4","SS1619115241762","","","null","","","","","","<p><img src= images/blank.png width =""600"" height = ""600"" style=""position:fixed;top:50%; left:50%; transform: translate(-50%, -50%); border:5px solid black"">","","","","","","","",""
"","709.5950003713369","sequential-stimulus-presentation-old","18","110776","0.0-9.0-1.4","SS1619115241762","trial","","40","500","1209.595000371337","images/stimuli/spore_stims/complex_20_A_a.gif","images/stimuli/spore_stims/complex_01_A_b.gif","forced_long","","0","complex_dissimilar","images/stimuli/spore_stims/complex_20_A_a.gif","","","","",""
"","3855.8000000193715","survey-multi-choice","19","114636","0.0-10.0","SS1619115241762","math_question","","","","","","","","","","","","{""Q0"":""13""}","[0]","13","",""
"","null","html-keyboard-response","20","115557","0.0-11.0-0.0","SS1619115241762","","","null","","","","","","<p><img src= images/blank.png width =""600"" height = ""600"" style=""position:fixed;top:50%; left:50%; transform: translate(-50%, -50%); border:5px solid black"">","","","","","","","",""
"","641.0449999384582","sequential-stimulus-presentation-old","21","116306","0.0-11.0-1.0","SS1619115241762","trial","","40","500","1141.0449999384582","images/stimuli/spore_stims/complex_07_A_b.gif","images/stimuli/spore_stims/complex_11_A_a.gif","forced_short","","1","complex_dissimilar","images/stimuli/spore_stims/complex_11_A_a.gif","","","","",""
"","null","html-keyboard-response","22","117456","0.0-11.0-0.1","SS1619115241762","","","null","","","","","","<p><img src= images/blank.png width =""600"" height = ""600"" style=""position:fixed;top:50%; left:50%; transform: translate(-50%, -50%); border:5px solid black"">","","","","","","","",""
"","4081.395000219345","sequential-stimulus-presentation-old","23","122049","0.0-11.0-1.1","SS1619115241762","trial","","40","500","4581.395000219345","images/stimuli/spore_stims/complex_07_A_b.gif","images/stimuli/spore_stims/complex_11_A_a.gif","forced_short","","1","complex_dissimilar","images/stimuli/spore_stims/complex_11_A_a.gif","","","","",""
"","null","html-keyboard-response","24","122894","0.0-11.0-0.2","SS1619115241762","","","null","","","","","","<p><img src= images/blank.png width =""600"" height = ""600"" style=""position:fixed;top:50%; left:50%; transform: translate(-50%, -50%); border:5px solid black"">","","","","","","","",""
"","2440.4349997639656","sequential-stimulus-presentation-old","25","125840","0.0-11.0-1.2","SS1619115241762","trial","","40","500","2940.4349997639656","images/stimuli/spore_stims/complex_07_A_b.gif","images/stimuli/spore_stims/complex_11_A_a.gif","forced_short","","1","complex_dissimilar","images/stimuli/spore_stims/complex_11_A_a.gif","","","","",""
"","null","html-keyboard-response","26","126944","0.0-11.0-0.3","SS1619115241762","","","null","","","","","","<p><img src= images/blank.png width =""600"" height = ""600"" style=""position:fixed;top:50%; left:50%; transform: translate(-50%, -50%); border:5px solid black"">","","","","","","","",""
"","1385.1049998775125","sequential-stimulus-presentation-old","27","128833","0.0-11.0-1.3","SS1619115241762","trial","","40","500","1885.1049998775125","images/stimuli/spore_stims/complex_07_A_b.gif","images/stimuli/spore_stims/complex_11_A_a.gif","forced_short","","1","complex_dissimilar","images/stimuli/spore_stims/complex_11_A_a.gif","","","","",""
"","null","html-keyboard-response","28","130094","0.0-11.0-0.4","SS1619115241762","","","null","","","","","","<p><img src= images/blank.png width =""600"" height = ""600"" style=""position:fixed;top:50%; left:50%; transform: translate(-50%, -50%); border:5px solid black"">","","","","","","","",""
"","430.4300001822412","sequential-stimulus-presentation-old","29","131040","0.0-11.0-1.4","SS1619115241762","trial","","40","500","930.4300001822412","images/stimuli/spore_stims/complex_07_A_b.gif","images/stimuli/spore_stims/complex_11_A_a.gif","forced_short","","1","complex_dissimilar","images/stimuli/spore_stims/complex_07_A_b.gif","","","","",""
"","null","html-keyboard-response","30","132008","0.0-11.0-0.5","SS1619115241762","","","null","","","","","","<p><img src= images/blank.png width =""600"" height = ""600"" style=""position:fixed;top:50%; left:50%; transform: translate(-50%, -50%); border:5px solid black"">","","","","","","","",""
"","679.1850002482533","sequential-stimulus-presentation-old","31","133193","0.0-11.0-1.5","SS1619115241762","trial","","40","500","1179.1850002482533","images/stimuli/spore_stims/complex_07_A_b.gif","images/stimuli/spore_stims/complex_11_A_a.gif","forced_short","","1","complex_dissimilar","images/stimuli/spore_stims/complex_11_A_a.gif","","","","",""
"","2783.6800003424287","survey-multi-choice","32","135981","0.0-12.0","SS1619115241762","math_question","","","","","","","","","","","","{""Q0"":""4""}","[0]","4","",""
"","null","html-keyboard-response","33","136886","0.0-13.0-0.0","SS1619115241762","","","null","","","","","","<p><img src= images/blank.png width =""600"" height = ""600"" style=""position:fixed;top:50%; left:50%; transform: translate(-50%, -50%); border:5px solid black"">","","","","","","","",""
"","810.3600000031292","sequential-stimulus-presentation-old","34","138200","0.0-13.0-1.0","SS1619115241762","trial","","40","500","1310.3600000031292","images/stimuli/spore_stims/complex_13_A_a.gif","images/stimuli/spore_stims/complex_12_A_b.gif","self_paced","","2","complex_dissimilar","images/stimuli/spore_stims/complex_12_A_b.gif","","","","",""
"","null","html-keyboard-response","35","139147","0.0-13.0-0.1","SS1619115241762","","","null","","","","","","<p><img src= images/blank.png width =""600"" height = ""600"" style=""position:fixed;top:50%; left:50%; transform: translate(-50%, -50%); border:5px solid black"">","","","","","","","",""
"","2151.130000129342","sequential-stimulus-presentation-old","36","141802","0.0-13.0-1.1","SS1619115241762","trial","","40","500","2651.130000129342","images/stimuli/spore_stims/complex_13_A_a.gif","images/stimuli/spore_stims/complex_12_A_b.gif","self_paced","","2","complex_dissimilar","images/stimuli/spore_stims/complex_13_A_a.gif","","","","",""
"","null","html-keyboard-response","37","142658","0.0-13.0-0.2","SS1619115241762","","","null","","","","","","<p><img src= images/blank.png width =""600"" height = ""600"" style=""position:fixed;top:50%; left:50%; transform: translate(-50%, -50%); border:5px solid black"">","","","","","","","",""
"","1567.2200000844896","sequential-stimulus-presentation-old","38","144730","0.0-13.0-1.2","SS1619115241762","trial","","40","500","2067.2200000844896","images/stimuli/spore_stims/complex_13_A_a.gif","images/stimuli/spore_stims/complex_12_A_b.gif","self_paced","","2","complex_dissimilar","images/stimuli/spore_stims/complex_12_A_b.gif","","","","",""
"","null","html-keyboard-response","39","145570","0.0-13.0-0.3","SS1619115241762","","","null","","","","","","<p><img src= images/blank.png width =""600"" height = ""600"" style=""position:fixed;top:50%; left:50%; transform: translate(-50%, -50%); border:5px solid black"">","","","","","","","",""
"","1221.8849998898804","sequential-stimulus-presentation-old","40","147297","0.0-13.0-1.3","SS1619115241762","trial","","40","500","1721.8849998898804","images/stimuli/spore_stims/complex_13_A_a.gif","images/stimuli/spore_stims/complex_12_A_b.gif","self_paced","","2","complex_dissimilar","images/stimuli/spore_stims/complex_12_A_b.gif","","","","",""
"","null","html-keyboard-response","41","148350","0.0-13.0-0.4","SS1619115241762","","","null","","","","","","<p><img src= images/blank.png width =""600"" height = ""600"" style=""position:fixed;top:50%; left:50%; transform: translate(-50%, -50%); border:5px solid black"">","","","","","","","",""
"","882.6250000856817","sequential-stimulus-presentation-old","42","149737","0.0-13.0-1.4","SS1619115241762","trial","","40","500","1382.6250000856817","images/stimuli/spore_stims/complex_13_A_a.gif","images/stimuli/spore_stims/complex_12_A_b.gif","self_paced","","2","complex_dissimilar","images/stimuli/spore_stims/complex_12_A_b.gif","","","","",""
"","null","html-keyboard-response","43","150715","0.0-13.0-0.5","SS1619115241762","","","null","","","","","","<p><img src= images/blank.png width =""600"" height = ""600"" style=""position:fixed;top:50%; left:50%; transform: translate(-50%, -50%); border:5px solid black"">","","","","","","","",""
"","702.3000000044703","sequential-stimulus-presentation-old","44","151922","0.0-13.0-1.5","SS1619115241762","trial","","40","500","1202.3000000044703","images/stimuli/spore_stims/complex_13_A_a.gif","images/stimuli/spore_stims/complex_12_A_b.gif","self_paced","","2","complex_dissimilar","images/stimuli/spore_stims/complex_13_A_a.gif","","","","",""
"","2974.7699997387826","survey-multi-choice","45","154899","0.0-14.0","SS1619115241762","math_question","","","","","","","","","","","","{""Q0"":""10""}","[0]","10","",""
"","null","html-keyboard-response","46","156135","0.0-15.0-0.0","SS1619115241762","","","null","","","","","","<p><img src= images/blank.png width =""600"" height = ""600"" style=""position:fixed;top:50%; left:50%; transform: translate(-50%, -50%); border:5px solid black"">","","","","","","","",""
"","600.5649999715388","sequential-stimulus-presentation-old","47","157241","0.0-15.0-1.0","SS1619115241762","trial","","40","500","1100.5649999715388","images/stimuli/spore_stims/simple_12_A_b.gif","images/stimuli/spore_stims/simple_14_A_a.gif","self_paced","","3","simple_dissimilar","images/stimuli/spore_stims/simple_14_A_a.gif","","","","",""
"","null","html-keyboard-response","48","158313","0.0-15.0-0.1","SS1619115241762","","","null","","","","","","<p><img src= images/blank.png width =""600"" height = ""600"" style=""position:fixed;top:50%; left:50%; transform: translate(-50%, -50%); border:5px solid black"">","","","","","","","",""
"","563.9500003308058","sequential-stimulus-presentation-old","49","159382","0.0-15.0-1.1","SS1619115241762","trial","","40","500","1063.9500003308058","images/stimuli/spore_stims/simple_12_A_b.gif","images/stimuli/spore_stims/simple_14_A_a.gif","self_paced","","3","simple_dissimilar","images/stimuli/spore_stims/simple_14_A_a.gif","","","","",""
"","null","html-keyboard-response","50","160415","0.0-15.0-0.2","SS1619115241762","","","null","","","","","","<p><img src= images/blank.png width =""600"" height = ""600"" style=""position:fixed;top:50%; left:50%; transform: translate(-50%, -50%); border:5px solid black"">","","","","","","","",""
"","637.5449998304248","sequential-stimulus-presentation-old","51","161560","0.0-15.0-1.2","SS1619115241762","trial","","40","500","1137.5449998304248","images/stimuli/spore_stims/simple_12_A_b.gif","images/stimuli/spore_stims/simple_14_A_a.gif","self_paced","","3","simple_dissimilar","images/stimuli/spore_stims/simple_14_A_a.gif","","","","",""
"","null","html-keyboard-response","52","162397","0.0-15.0-0.3","SS1619115241762","","","null","","","","","","<p><img src= images/blank.png width =""600"" height = ""600"" style=""position:fixed;top:50%; left:50%; transform: translate(-50%, -50%); border:5px solid black"">","","","","","","","",""
"","444.52999997884035","sequential-stimulus-presentation-old","53","163345","0.0-15.0-1.3","SS1619115241762","trial","","40","500","944.5299999788404","images/stimuli/spore_stims/simple_12_A_b.gif","images/stimuli/spore_stims/simple_14_A_a.gif","self_paced","","3","simple_dissimilar","images/stimuli/spore_stims/simple_14_A_a.gif","","","","",""
"","2959.2399997636676","survey-multi-choice","54","166308","0.0-16.0","SS1619115241762","math_question","","","","","","","","","","","","{""Q0"":""6""}","[0]","6","",""
"","null","html-keyboard-response","55","167538","0.0-17.0-0.0","SS1619115241762","","","null","","","","","","<p><img src= images/blank.png width =""600"" height = ""600"" style=""position:fixed;top:50%; left:50%; transform: translate(-50%, -50%); border:5px solid black"">","","","","","","","",""
"","421.1450000293553","sequential-stimulus-presentation-old","56","168465","0.0-17.0-1.0","SS1619115241762","trial","","40","500","921.1450000293553","images/stimuli/spore_stims/simple_11_A_b.gif","images/stimuli/spore_stims/simple_16_A_a.gif","self_paced","","4","simple_dissimilar","images/stimuli/spore_stims/simple_16_A_a.gif","","","","",""
"","null","html-keyboard-response","57","169399","0.0-17.0-0.1","SS1619115241762","","","null","","","","","","<p><img src= images/blank.png width =""600"" height = ""600"" style=""position:fixed;top:50%; left:50%; transform: translate(-50%, -50%); border:5px solid black"">","","","","","","","",""
"","183.00999980419874","sequential-stimulus-presentation-old","58","170089","0.0-17.0-1.1","SS1619115241762","trial","","40","500","683.0099998041987","images/stimuli/spore_stims/simple_11_A_b.gif","images/stimuli/spore_stims/simple_16_A_a.gif","self_paced","","4","simple_dissimilar","images/stimuli/spore_stims/simple_11_A_b.gif","","","","",""
"","null","html-keyboard-response","59","171294","0.0-17.0-0.2","SS1619115241762","","","null","","","","","","<p><img src= images/blank.png width =""600"" height = ""600"" style=""position:fixed;top:50%; left:50%; transform: translate(-50%, -50%); border:5px solid black"">","","","","","","","",""
"","224.57499988377094","sequential-stimulus-presentation-old","60","172024","0.0-17.0-1.2","SS1619115241762","trial","","40","500","724.5749998837709","images/stimuli/spore_stims/simple_11_A_b.gif","images/stimuli/spore_stims/simple_16_A_a.gif","self_paced","","4","simple_dissimilar","images/stimuli/spore_stims/simple_11_A_b.gif","","","","",""
"","null","html-keyboard-response","61","173301","0.0-17.0-0.3","SS1619115241762","","","null","","","","","","<p><img src= images/blank.png width =""600"" height = ""600"" style=""position:fixed;top:50%; left:50%; transform: translate(-50%, -50%); border:5px solid black"">","","","","","","","",""
"","177.3000000976026","sequential-stimulus-presentation-old","62","173985","0.0-17.0-1.3","SS1619115241762","trial","","40","500","677.3000000976026","images/stimuli/spore_stims/simple_11_A_b.gif","images/stimuli/spore_stims/simple_16_A_a.gif","self_paced","","4","simple_dissimilar","images/stimuli/spore_stims/simple_16_A_a.gif","","","","",""
"","null","html-keyboard-response","63","174898","0.0-17.0-0.4","SS1619115241762","","","null","","","","","","<p><img src= images/blank.png width =""600"" height = ""600"" style=""position:fixed;top:50%; left:50%; transform: translate(-50%, -50%); border:5px solid black"">","","","","","","","",""
"","105.07500031962991","sequential-stimulus-presentation-old","64","175514","0.0-17.0-1.4","SS1619115241762","trial","","40","500","605.0750003196299","images/stimuli/spore_stims/simple_11_A_b.gif","images/stimuli/spore_stims/simple_16_A_a.gif","self_paced","","4","simple_dissimilar","images/stimuli/spore_stims/simple_16_A_a.gif","","","","",""
"","null","html-keyboard-response","65","176741","0.0-17.0-0.5","SS1619115241762","","","null","","","","","","<p><img src= images/blank.png width =""600"" height = ""600"" style=""position:fixed;top:50%; left:50%; transform: translate(-50%, -50%); border:5px solid black"">","","","","","","","",""
"","469.115000218153","sequential-stimulus-presentation-old","66","177729","0.0-17.0-1.5","SS1619115241762","trial","","40","500","969.115000218153","images/stimuli/spore_stims/simple_11_A_b.gif","images/stimuli/spore_stims/simple_16_A_a.gif","self_paced","","4","simple_dissimilar","images/stimuli/spore_stims/simple_16_A_a.gif","","","","",""
"","2792.635000310838","survey-multi-choice","67","180524","0.0-18.0","SS1619115241762","math_question","","","","","","","","","","","","{""Q0"":""12""}","[0]","12","",""
"","null","html-keyboard-response","68","181366","0.0-19.0-0.0","SS1619115241762","","","null","","","","","","<p><img src= images/blank.png width =""600"" height = ""600"" style=""position:fixed;top:50%; left:50%; transform: translate(-50%, -50%); border:5px solid black"">","","","","","","","",""
"","849.6699999086559","sequential-stimulus-presentation-old","69","182329","0.0-19.0-1.0","SS1619115241762","trial","","40","500","1349.6699999086559","images/stimuli/spore_stims/simple_11_A_a.gif","images/stimuli/spore_stims/simple_01_A_b.gif","forced_short","","5","simple_dissimilar","images/stimuli/spore_stims/simple_01_A_b.gif","","","","",""
"","null","html-keyboard-response","70","183507","0.0-19.0-0.1","SS1619115241762","","","null","","","","","","<p><img src= images/blank.png width =""600"" height = ""600"" style=""position:fixed;top:50%; left:50%; transform: translate(-50%, -50%); border:5px solid black"">","","","","","","","",""
"","437.5900002196431","sequential-stimulus-presentation-old","71","184449","0.0-19.0-1.1","SS1619115241762","trial","","40","500","937.5900002196431","images/stimuli/spore_stims/simple_11_A_a.gif","images/stimuli/spore_stims/simple_01_A_b.gif","forced_short","","5","simple_dissimilar","images/stimuli/spore_stims/simple_01_A_b.gif","","","","",""
"","null","html-keyboard-response","72","185576","0.0-19.0-0.2","SS1619115241762","","","null","","","","","","<p><img src= images/blank.png width =""600"" height = ""600"" style=""position:fixed;top:50%; left:50%; transform: translate(-50%, -50%); border:5px solid black"">","","","","","","","",""
"","1231.215000152588","sequential-stimulus-presentation-old","73","187329","0.0-19.0-1.2","SS1619115241762","trial","","40","500","1731.215000152588","images/stimuli/spore_stims/simple_11_A_a.gif","images/stimuli/spore_stims/simple_01_A_b.gif","forced_short","","5","simple_dissimilar","images/stimuli/spore_stims/simple_01_A_b.gif","","","","",""
"","null","html-keyboard-response","74","188475","0.0-19.0-0.3","SS1619115241762","","","null","","","","","","<p><img src= images/blank.png width =""600"" height = ""600"" style=""position:fixed;top:50%; left:50%; transform: translate(-50%, -50%); border:5px solid black"">","","","","","","","",""
"","836.0949996858835","sequential-stimulus-presentation-old","75","189817","0.0-19.0-1.3","SS1619115241762","trial","","40","500","1336.0949996858835","images/stimuli/spore_stims/simple_11_A_a.gif","images/stimuli/spore_stims/simple_01_A_b.gif","forced_short","","5","simple_dissimilar","images/stimuli/spore_stims/simple_01_A_b.gif","","","","",""
"","null","html-keyboard-response","76","190994","0.0-19.0-0.4","SS1619115241762","","","null","","","","","","<p><img src= images/blank.png width =""600"" height = ""600"" style=""position:fixed;top:50%; left:50%; transform: translate(-50%, -50%); border:5px solid black"">","","","","","","","",""
"","486.48500023409724","sequential-stimulus-presentation-old","77","191993","0.0-19.0-1.4","SS1619115241762","trial","","40","500","986.4850002340972","images/stimuli/spore_stims/simple_11_A_a.gif","images/stimuli/spore_stims/simple_01_A_b.gif","forced_short","","5","simple_dissimilar","images/stimuli/spore_stims/simple_11_A_a.gif","","","","",""
"","null","html-keyboard-response","78","193281","0.0-19.0-0.5","SS1619115241762","","","null","","","","","","<p><img src= images/blank.png width =""600"" height = ""600"" style=""position:fixed;top:50%; left:50%; transform: translate(-50%, -50%); border:5px solid black"">","","","","","","","",""
"","469.55500030890107","sequential-stimulus-presentation-old","79","194257","0.0-19.0-1.5","SS1619115241762","trial","","40","500","969.5550003089011","images/stimuli/spore_stims/simple_11_A_a.gif","images/stimuli/spore_stims/simple_01_A_b.gif","forced_short","","5","simple_dissimilar","images/stimuli/spore_stims/simple_11_A_a.gif","","","","",""
"","2656.1999996192753","survey-multi-choice","80","196916","0.0-20.0","SS1619115241762","math_question","","","","","","","","","","","","{""Q0"":""15""}","[0]","15","",""
"","null","html-keyboard-response","81","197861","0.0-21.0-0.0","SS1619115241762","","","null","","","","","","<p><img src= images/blank.png width =""600"" height = ""600"" style=""position:fixed;top:50%; left:50%; transform: translate(-50%, -50%); border:5px solid black"">","","","","","","","",""
"","439.3699998036027","sequential-stimulus-presentation-old","82","208305","0.0-21.0-1.0","SS1619115241762","trial","","40","500","939.3699998036027","images/stimuli/spore_stims/simple_17_A_b.gif","images/stimuli/spore_stims/simple_04_A_a.gif","forced_long","","6","simple_dissimilar","images/stimuli/spore_stims/simple_04_A_a.gif","","","","",""
"","null","html-keyboard-response","83","209506","0.0-21.0-0.1","SS1619115241762","","","null","","","","","","<p><img src= images/blank.png width =""600"" height = ""600"" style=""position:fixed;top:50%; left:50%; transform: translate(-50%, -50%); border:5px solid black"">","","","","","","","",""
"","1275.4150000400841","sequential-stimulus-presentation-old","84","211289","0.0-21.0-1.1","SS1619115241762","trial","","40","500","1775.4150000400841","images/stimuli/spore_stims/simple_17_A_b.gif","images/stimuli/spore_stims/simple_04_A_a.gif","forced_long","","6","simple_dissimilar","images/stimuli/spore_stims/simple_04_A_a.gif","","","","",""
"","null","html-keyboard-response","85","212354","0.0-21.0-0.2","SS1619115241762","","","null","","","","","","<p><img src= images/blank.png width =""600"" height = ""600"" style=""position:fixed;top:50%; left:50%; transform: translate(-50%, -50%); border:5px solid black"">","","","","","","","",""
"","618.2450000196695","sequential-stimulus-presentation-old","86","213481","0.0-21.0-1.2","SS1619115241762","trial","","40","500","1118.2450000196695","images/stimuli/spore_stims/simple_17_A_b.gif","images/stimuli/spore_stims/simple_04_A_a.gif","forced_long","","6","simple_dissimilar","images/stimuli/spore_stims/simple_17_A_b.gif","","","","",""
"","null","html-keyboard-response","87","214735","0.0-21.0-0.3","SS1619115241762","","","null","","","","","","<p><img src= images/blank.png width =""600"" height = ""600"" style=""position:fixed;top:50%; left:50%; transform: translate(-50%, -50%); border:5px solid black"">","","","","","","","",""
"","179.37500029802322","sequential-stimulus-presentation-old","88","215425","0.0-21.0-1.3","SS1619115241762","trial","","40","500","679.3750002980232","images/stimuli/spore_stims/simple_17_A_b.gif","images/stimuli/spore_stims/simple_04_A_a.gif","forced_long","","6","simple_dissimilar","images/stimuli/spore_stims/simple_17_A_b.gif","","","","",""
"","2534.9849998019636","survey-multi-choice","89","217964","0.0-22.0","SS1619115241762","math_question","","","","","","","","","","","","{""Q0"":""14""}","[0]","14","",""
"","null","html-keyboard-response","90","218849","0.0-23.0-0.0","SS1619115241762","","","null","","","","","","<p><img src= images/blank.png width =""600"" height = ""600"" style=""position:fixed;top:50%; left:50%; transform: translate(-50%, -50%); border:5px solid black"">","","","","","","","",""
"","2337.4999999068677","sequential-stimulus-presentation-old","91","231193","0.0-23.0-1.0","SS1619115241762","trial","","40","500","2837.4999999068677","images/stimuli/spore_stims/complex_15_A_a.gif","images/stimuli/spore_stims/complex_09_A_b.gif","forced_long","","7","complex_dissimilar","images/stimuli/spore_stims/complex_09_A_b.gif","","","","",""
"","null","html-keyboard-response","92","232397","0.0-23.0-0.1","SS1619115241762","","","null","","","","","","<p><img src= images/blank.png width =""600"" height = ""600"" style=""position:fixed;top:50%; left:50%; transform: translate(-50%, -50%); border:5px solid black"">","","","","","","","",""
"","47.97999979928136","sequential-stimulus-presentation-old","93","232953","0.0-23.0-1.1","SS1619115241762","trial","","40","500","547.9799997992814","images/stimuli/spore_stims/complex_15_A_a.gif","images/stimuli/spore_stims/complex_09_A_b.gif","forced_long","","7","complex_dissimilar","images/stimuli/spore_stims/complex_09_A_b.gif","","","","",""
"","null","html-keyboard-response","94","234044","0.0-23.0-0.2","SS1619115241762","","","null","","","","","","<p><img src= images/blank.png width =""600"" height = ""600"" style=""position:fixed;top:50%; left:50%; transform: translate(-50%, -50%); border:5px solid black"">","","","","","","","",""
"","410.59499979019165","sequential-stimulus-presentation-old","95","234961","0.0-23.0-1.2","SS1619115241762","trial","","40","500","910.5949997901917","images/stimuli/spore_stims/complex_15_A_a.gif","images/stimuli/spore_stims/complex_09_A_b.gif","forced_long","","7","complex_dissimilar","images/stimuli/spore_stims/complex_09_A_b.gif","","","","",""
"","null","html-keyboard-response","96","235885","0.0-23.0-0.3","SS1619115241762","","","null","","","","","","<p><img src= images/blank.png width =""600"" height = ""600"" style=""position:fixed;top:50%; left:50%; transform: translate(-50%, -50%); border:5px solid black"">","","","","","","","",""
"","83.81000021472573","sequential-stimulus-presentation-old","97","236473","0.0-23.0-1.3","SS1619115241762","trial","","40","500","583.8100002147257","images/stimuli/spore_stims/complex_15_A_a.gif","images/stimuli/spore_stims/complex_09_A_b.gif","forced_long","","7","complex_dissimilar","images/stimuli/spore_stims/complex_09_A_b.gif","","","","",""
"","null","html-keyboard-response","98","237601","0.0-23.0-0.4","SS1619115241762","","","null","","","","","","<p><img src= images/blank.png width =""600"" height = ""600"" style=""position:fixed;top:50%; left:50%; transform: translate(-50%, -50%); border:5px solid black"">","","","","","","","",""
"","1247.9650001041591","sequential-stimulus-presentation-old","99","239354","0.0-23.0-1.4","SS1619115241762","trial","","40","500","1747.9650001041591","images/stimuli/spore_stims/complex_15_A_a.gif","images/stimuli/spore_stims/complex_09_A_b.gif","forced_long","","7","complex_dissimilar","images/stimuli/spore_stims/complex_15_A_a.gif","","","","",""
"","null","html-keyboard-response","100","240197","0.0-23.0-0.5","SS1619115241762","","","null","","","","","","<p><img src= images/blank.png width =""600"" height = ""600"" style=""position:fixed;top:50%; left:50%; transform: translate(-50%, -50%); border:5px solid black"">","","","","","","","",""
"","142.25500030443072","sequential-stimulus-presentation-old","101","240849","0.0-23.0-1.5","SS1619115241762","trial","","40","500","642.2550003044307","images/stimuli/spore_stims/complex_15_A_a.gif","images/stimuli/spore_stims/complex_09_A_b.gif","forced_long","","7","complex_dissimilar","images/stimuli/spore_stims/complex_09_A_b.gif","","","","",""
"","2552.3649998940527","survey-multi-choice","102","243404","0.0-24.0","SS1619115241762","math_question","","","","","","","","","","","","{""Q0"":""8""}","[0]","8","",""
"","null","html-keyboard-response","103","244288","0.0-25.0-0.0","SS1619115241762","","","null","","","","","","<p><img src= images/blank.png width =""600"" height = ""600"" style=""position:fixed;top:50%; left:50%; transform: translate(-50%, -50%); border:5px solid black"">","","","","","","","",""
"","1992.7699998952448","sequential-stimulus-presentation-old","104","256297","0.0-25.0-1.0","SS1619115241762","trial","","40","500","2492.769999895245","images/stimuli/spore_stims/simple_13_A_b.gif","images/stimuli/spore_stims/simple_07_A_a.gif","forced_long","","8","simple_dissimilar","images/stimuli/spore_stims/simple_07_A_a.gif","","","","",""
"","null","html-keyboard-response","105","257535","0.0-25.0-0.1","SS1619115241762","","","null","","","","","","<p><img src= images/blank.png width =""600"" height = ""600"" style=""position:fixed;top:50%; left:50%; transform: translate(-50%, -50%); border:5px solid black"">","","","","","","","",""
"","1416.1499999463558","sequential-stimulus-presentation-old","106","259457","0.0-25.0-1.1","SS1619115241762","trial","","40","500","1916.1499999463558","images/stimuli/spore_stims/simple_13_A_b.gif","images/stimuli/spore_stims/simple_07_A_a.gif","forced_long","","8","simple_dissimilar","images/stimuli/spore_stims/simple_07_A_a.gif","","","","",""
"","null","html-keyboard-response","107","260367","0.0-25.0-0.2","SS1619115241762","","","null","","","","","","<p><img src= images/blank.png width =""600"" height = ""600"" style=""position:fixed;top:50%; left:50%; transform: translate(-50%, -50%); border:5px solid black"">","","","","","","","",""
"","48.504999838769436","sequential-stimulus-presentation-old","108","260921","0.0-25.0-1.2","SS1619115241762","trial","","40","500","548.5049998387694","images/stimuli/spore_stims/simple_13_A_b.gif","images/stimuli/spore_stims/simple_07_A_a.gif","forced_long","","8","simple_dissimilar","images/stimuli/spore_stims/simple_13_A_b.gif","","","","",""
"","null","html-keyboard-response","109","262155","0.0-25.0-0.3","SS1619115241762","","","null","","","","","","<p><img src= images/blank.png width =""600"" height = ""600"" style=""position:fixed;top:50%; left:50%; transform: translate(-50%, -50%); border:5px solid black"">","","","","","","","",""
"","714.6450001746416","sequential-stimulus-presentation-old","110","263393","0.0-25.0-1.3","SS1619115241762","trial","","40","500","1214.6450001746416","images/stimuli/spore_stims/simple_13_A_b.gif","images/stimuli/spore_stims/simple_07_A_a.gif","forced_long","","8","simple_dissimilar","images/stimuli/spore_stims/simple_13_A_b.gif","","","","",""
"","null","html-keyboard-response","111","264332","0.0-25.0-0.4","SS1619115241762","","","null","","","","","","<p><img src= images/blank.png width =""600"" height = ""600"" style=""position:fixed;top:50%; left:50%; transform: translate(-50%, -50%); border:5px solid black"">","","","","","","","",""
"","210.48999996855855","sequential-stimulus-presentation-old","112","265049","0.0-25.0-1.4","SS1619115241762","trial","","40","500","710.4899999685585","images/stimuli/spore_stims/simple_13_A_b.gif","images/stimuli/spore_stims/simple_07_A_a.gif","forced_long","","8","simple_dissimilar","images/stimuli/spore_stims/simple_07_A_a.gif","","","","",""
"","2678.345000371337","survey-multi-choice","113","267732","0.0-26.0","SS1619115241762","math_question","","","","","","","","","","","","{""Q0"":""10""}","[0]","10","",""
"","null","html-keyboard-response","114","269044","0.0-27.0-0.0","SS1619115241762","","","null","","","","","","<p><img src= images/blank.png width =""600"" height = ""600"" style=""position:fixed;top:50%; left:50%; transform: translate(-50%, -50%); border:5px solid black"">","","","","","","","",""
"","481.58999998122454","sequential-stimulus-presentation-old","115","269633","0.0-27.0-1.0","SS1619115241762","trial","","40","500","981.5899999812245","images/stimuli/spore_stims/simple_10_A_a.gif","images/stimuli/spore_stims/simple_03_A_b.gif","forced_short","","9","simple_dissimilar","images/stimuli/spore_stims/simple_03_A_b.gif","","","","",""
"","null","html-keyboard-response","116","270484","0.0-27.0-0.1","SS1619115241762","","","null","","","","","","<p><img src= images/blank.png width =""600"" height = ""600"" style=""position:fixed;top:50%; left:50%; transform: translate(-50%, -50%); border:5px solid black"">","","","","","","","",""
"","1187.0200000703335","sequential-stimulus-presentation-old","117","272177","0.0-27.0-1.1","SS1619115241762","trial","","40","500","1687.0200000703335","images/stimuli/spore_stims/simple_10_A_a.gif","images/stimuli/spore_stims/simple_03_A_b.gif","forced_short","","9","simple_dissimilar","images/stimuli/spore_stims/simple_03_A_b.gif","","","","",""
"","null","html-keyboard-response","118","273296","0.0-27.0-0.2","SS1619115241762","","","null","","","","","","<p><img src= images/blank.png width =""600"" height = ""600"" style=""position:fixed;top:50%; left:50%; transform: translate(-50%, -50%); border:5px solid black"">","","","","","","","",""
"","1307.8000000678003","sequential-stimulus-presentation-old","119","275113","0.0-27.0-1.2","SS1619115241762","trial","","40","500","1807.8000000678003","images/stimuli/spore_stims/simple_10_A_a.gif","images/stimuli/spore_stims/simple_03_A_b.gif","forced_short","","9","simple_dissimilar","images/stimuli/spore_stims/simple_03_A_b.gif","","","","",""
"","null","html-keyboard-response","120","275956","0.0-27.0-0.3","SS1619115241762","","","null","","","","","","<p><img src= images/blank.png width =""600"" height = ""600"" style=""position:fixed;top:50%; left:50%; transform: translate(-50%, -50%); border:5px solid black"">","","","","","","","",""
"","98.98999985307455","sequential-stimulus-presentation-old","121","276561","0.0-27.0-1.3","SS1619115241762","trial","","40","500","598.9899998530746","images/stimuli/spore_stims/simple_10_A_a.gif","images/stimuli/spore_stims/simple_03_A_b.gif","forced_short","","9","simple_dissimilar","images/stimuli/spore_stims/simple_03_A_b.gif","","","","",""
"","null","html-keyboard-response","122","277397","0.0-27.0-0.4","SS1619115241762","","","null","","","","","","<p><img src= images/blank.png width =""600"" height = ""600"" style=""position:fixed;top:50%; left:50%; transform: translate(-50%, -50%); border:5px solid black"">","","","","","","","",""
"","10.360000189393759","sequential-stimulus-presentation-old","123","277913","0.0-27.0-1.4","SS1619115241762","trial","","40","500","510.36000018939376","images/stimuli/spore_stims/simple_10_A_a.gif","images/stimuli/spore_stims/simple_03_A_b.gif","forced_short","","9","simple_dissimilar","images/stimuli/spore_stims/simple_03_A_b.gif","","","","",""
"","null","html-keyboard-response","124","279184","0.0-27.0-0.5","SS1619115241762","","","null","","","","","","<p><img src= images/blank.png width =""600"" height = ""600"" style=""position:fixed;top:50%; left:50%; transform: translate(-50%, -50%); border:5px solid black"">","","","","","","","",""
"","370.14999985694885","sequential-stimulus-presentation-old","125","280065","0.0-27.0-1.5","SS1619115241762","trial","","40","500","870.1499998569489","images/stimuli/spore_stims/simple_10_A_a.gif","images/stimuli/spore_stims/simple_03_A_b.gif","forced_short","","9","simple_dissimilar","images/stimuli/spore_stims/simple_10_A_a.gif","","","","",""
"","4965.470000170171","survey-multi-choice","126","285036","0.0-28.0","SS1619115241762","math_question","","","","","","","","","","","","{""Q0"":""12""}","[0]","12","",""
"","null","html-keyboard-response","127","286276","0.0-29.0-0.0","SS1619115241762","","","null","","","","","","<p><img src= images/blank.png width =""600"" height = ""600"" style=""position:fixed;top:50%; left:50%; transform: translate(-50%, -50%); border:5px solid black"">","","","","","","","",""
"","358.94499998539686","sequential-stimulus-presentation-old","128","287145","0.0-29.0-1.0","SS1619115241762","trial","","40","500","858.9449999853969","images/stimuli/spore_stims/complex_01_A_a.gif","images/stimuli/spore_stims/complex_03_A_b.gif","self_paced","","10","complex_dissimilar","images/stimuli/spore_stims/complex_03_A_b.gif","","","","",""
"","null","html-keyboard-response","129","288459","0.0-29.0-0.1","SS1619115241762","","","null","","","","","","<p><img src= images/blank.png width =""600"" height = ""600"" style=""position:fixed;top:50%; left:50%; transform: translate(-50%, -50%); border:5px solid black"">","","","","","","","",""
"","183.91499994322658","sequential-stimulus-presentation-old","130","289153","0.0-29.0-1.1","SS1619115241762","trial","","40","500","683.9149999432266","images/stimuli/spore_stims/complex_01_A_a.gif","images/stimuli/spore_stims/complex_03_A_b.gif","self_paced","","10","complex_dissimilar","images/stimuli/spore_stims/complex_01_A_a.gif","","","","",""
"","null","html-keyboard-response","131","289985","0.0-29.0-0.2","SS1619115241762","","","null","","","","","","<p><img src= images/blank.png width =""600"" height = ""600"" style=""position:fixed;top:50%; left:50%; transform: translate(-50%, -50%); border:5px solid black"">","","","","","","","",""
"","154.20500002801418","sequential-stimulus-presentation-old","132","290649","0.0-29.0-1.2","SS1619115241762","trial","","40","500","654.2050000280142","images/stimuli/spore_stims/complex_01_A_a.gif","images/stimuli/spore_stims/complex_03_A_b.gif","self_paced","","10","complex_dissimilar","images/stimuli/spore_stims/complex_03_A_b.gif","","","","",""
"","null","html-keyboard-response","133","291615","0.0-29.0-0.3","SS1619115241762","","","null","","","","","","<p><img src= images/blank.png width =""600"" height = ""600"" style=""position:fixed;top:50%; left:50%; transform: translate(-50%, -50%); border:5px solid black"">","","","","","","","",""
"","14.73500020802021","sequential-stimulus-presentation-old","134","292137","0.0-29.0-1.3","SS1619115241762","trial","","40","500","514.7350002080202","images/stimuli/spore_stims/complex_01_A_a.gif","images/stimuli/spore_stims/complex_03_A_b.gif","self_paced","","10","complex_dissimilar","images/stimuli/spore_stims/complex_03_A_b.gif","","","","",""
"","null","html-keyboard-response","135","293213","0.0-29.0-0.4","SS1619115241762","","","null","","","","","","<p><img src= images/blank.png width =""600"" height = ""600"" style=""position:fixed;top:50%; left:50%; transform: translate(-50%, -50%); border:5px solid black"">","","","","","","","",""
"","33.875000197440386","sequential-stimulus-presentation-old","136","293753","0.0-29.0-1.4","SS1619115241762","trial","","40","500","533.8750001974404","images/stimuli/spore_stims/complex_01_A_a.gif","images/stimuli/spore_stims/complex_03_A_b.gif","self_paced","","10","complex_dissimilar","images/stimuli/spore_stims/complex_03_A_b.gif","","","","",""
"","null","html-keyboard-response","137","294878","0.0-29.0-0.5","SS1619115241762","","","null","","","","","","<p><img src= images/blank.png width =""600"" height = ""600"" style=""position:fixed;top:50%; left:50%; transform: translate(-50%, -50%); border:5px solid black"">","","","","","","","",""
"","24.145000148564577","sequential-stimulus-presentation-old","138","295409","0.0-29.0-1.5","SS1619115241762","trial","","40","500","524.1450001485646","images/stimuli/spore_stims/complex_01_A_a.gif","images/stimuli/spore_stims/complex_03_A_b.gif","self_paced","","10","complex_dissimilar","images/stimuli/spore_stims/complex_01_A_a.gif","","","","",""
"","2317.7299997769296","survey-multi-choice","139","297731","0.0-30.0","SS1619115241762","math_question","","","","","","","","","","","","{""Q0"":""8""}","[0]","8","",""
"","null","html-keyboard-response","140","298657","0.0-31.0-0.0","SS1619115241762","","","null","","","","","","<p><img src= images/blank.png width =""600"" height = ""600"" style=""position:fixed;top:50%; left:50%; transform: translate(-50%, -50%); border:5px solid black"">","","","","","","","",""
"","181.30499962717295","sequential-stimulus-presentation-old","141","298944","0.0-31.0-1.0","SS1619115241762","trial","","40","500","681.304999627173","images/stimuli/spore_stims/complex_10_A_a.gif","images/stimuli/spore_stims/complex_04_A_b.gif","forced_short","","11","complex_dissimilar","images/stimuli/spore_stims/complex_04_A_b.gif","","","","",""
"","null","html-keyboard-response","142","300092","0.0-31.0-0.1","SS1619115241762","","","null","","","","","","<p><img src= images/blank.png width =""600"" height = ""600"" style=""position:fixed;top:50%; left:50%; transform: translate(-50%, -50%); border:5px solid black"">","","","","","","","",""
"","328.3449998125434","sequential-stimulus-presentation-old","143","300928","0.0-31.0-1.1","SS1619115241762","trial","","40","500","828.3449998125434","images/stimuli/spore_stims/complex_10_A_a.gif","images/stimuli/spore_stims/complex_04_A_b.gif","forced_short","","11","complex_dissimilar","images/stimuli/spore_stims/complex_10_A_a.gif","","","","",""
"","null","html-keyboard-response","144","301846","0.0-31.0-0.2","SS1619115241762","","","null","","","","","","<p><img src= images/blank.png width =""600"" height = ""600"" style=""position:fixed;top:50%; left:50%; transform: translate(-50%, -50%); border:5px solid black"">","","","","","","","",""
"","349.63499987497926","sequential-stimulus-presentation-old","145","302704","0.0-31.0-1.2","SS1619115241762","trial","","40","500","849.6349998749793","images/stimuli/spore_stims/complex_10_A_a.gif","images/stimuli/spore_stims/complex_04_A_b.gif","forced_short","","11","complex_dissimilar","images/stimuli/spore_stims/complex_10_A_a.gif","","","","",""
"","null","html-keyboard-response","146","303931","0.0-31.0-0.3","SS1619115241762","","","null","","","","","","<p><img src= images/blank.png width =""600"" height = ""600"" style=""position:fixed;top:50%; left:50%; transform: translate(-50%, -50%); border:5px solid black"">","","","","","","","",""
"","763.4949996136129","sequential-stimulus-presentation-old","147","305200","0.0-31.0-1.3","SS1619115241762","trial","","40","500","1263.494999613613","images/stimuli/spore_stims/complex_10_A_a.gif","images/stimuli/spore_stims/complex_04_A_b.gif","forced_short","","11","complex_dissimilar","images/stimuli/spore_stims/complex_04_A_b.gif","","","","",""
"","null","html-keyboard-response","148","306162","0.0-31.0-0.4","SS1619115241762","","","null","","","","","","<p><img src= images/blank.png width =""600"" height = ""600"" style=""position:fixed;top:50%; left:50%; transform: translate(-50%, -50%); border:5px solid black"">","","","","","","","",""
"","116.61999998614192","sequential-stimulus-presentation-old","149","306784","0.0-31.0-1.4","SS1619115241762","trial","","40","500","616.6199999861419","images/stimuli/spore_stims/complex_10_A_a.gif","images/stimuli/spore_stims/complex_04_A_b.gif","forced_short","","11","complex_dissimilar","images/stimuli/spore_stims/complex_04_A_b.gif","","","","",""
"[{""page_index"":0,""viewing_time"":2517.4400000832975}]","2518.470000009984","instructions","150","309308","0.0-32.0","SS1619115241762","instructions","","","","","","","","","","","","","","","",""
"","2973.9899998530746","survey-likert","151","312292","0.0-33.0","SS1619115241762","similarity_question","","","","","","","","","","","","{""Q0"":4}","[0]","","images/stimuli/spore_stims/simple_11_A_a.gif","images/stimuli/spore_stims/simple_01_A_b.gif"
"","2527.0699998363853","survey-likert","152","314827","0.0-34.0","SS1619115241762","similarity_question","","","","","","","","","","","","{""Q0"":4}","[0]","","images/stimuli/spore_stims/complex_01_A_b.gif","images/stimuli/spore_stims/complex_20_A_a.gif"
"","2387.679999694228","survey-likert","153","317222","0.0-35.0","SS1619115241762","similarity_question","","","","","","","","","","","","{""Q0"":3}","[0]","","images/stimuli/spore_stims/simple_03_A_b.gif","images/stimuli/spore_stims/simple_10_A_a.gif"
"","2941.5150000713766","survey-likert","154","320174","0.0-36.0","SS1619115241762","similarity_question","","","","","","","","","","","","{""Q0"":1}","[0]","","images/stimuli/spore_stims/simple_13_A_b.gif","images/stimuli/spore_stims/simple_07_A_a.gif"
"","2365.379999857396","survey-likert","155","322547","0.0-37.0","SS1619115241762","similarity_question","","","","","","","","","","","","{""Q0"":4}","[0]","","images/stimuli/spore_stims/complex_10_A_a.gif","images/stimuli/spore_stims/complex_04_A_b.gif"
"","2207.4049999937415","survey-likert","156","324763","0.0-38.0","SS1619115241762","similarity_question","","","","","","","","","","","","{""Q0"":3}","[0]","","images/stimuli/spore_stims/simple_04_A_a.gif","images/stimuli/spore_stims/simple_17_A_b.gif"
"","1985.8849998563528","survey-likert","157","326755","0.0-39.0","SS1619115241762","similarity_question","","","","","","","","","","","","{""Q0"":4}","[0]","","images/stimuli/spore_stims/simple_11_A_b.gif","images/stimuli/spore_stims/simple_16_A_a.gif"
"","2168.5349997133017","survey-likert","158","328931","0.0-40.0","SS1619115241762","similarity_question","","","","","","","","","","","","{""Q0"":3}","[0]","","images/stimuli/spore_stims/simple_12_A_b.gif","images/stimuli/spore_stims/simple_14_A_a.gif"
"","2138.4850000031292","survey-likert","159","331076","0.0-41.0","SS1619115241762","similarity_question","","","","","","","","","","","","{""Q0"":2}","[0]","","images/stimuli/spore_stims/complex_01_A_a.gif","images/stimuli/spore_stims/complex_03_A_b.gif"
"","2311.0199999064207","survey-likert","160","333395","0.0-42.0","SS1619115241762","similarity_question","","","","","","","","","","","","{""Q0"":1}","[0]","","images/stimuli/spore_stims/complex_12_A_b.gif","images/stimuli/spore_stims/complex_13_A_a.gif"
"","2273.009999655187","survey-likert","161","335675","0.0-43.0","SS1619115241762","similarity_question","","","","","","","","","","","","{""Q0"":2}","[0]","","images/stimuli/spore_stims/complex_09_A_b.gif","images/stimuli/spore_stims/complex_15_A_a.gif"
"","2882.7049997635186","survey-likert","162","338563","0.0-44.0","SS1619115241762","similarity_question","","","","","","","","","","","","{""Q0"":4}","[0]","","images/stimuli/spore_stims/complex_11_A_a.gif","images/stimuli/spore_stims/complex_07_A_b.gif"
"[{""page_index"":0,""viewing_time"":4567.5699999555945}]","4567.900000140071","instructions","163","343139","0.0-45.0","SS1619115241762","instructions","","","","","","","","","","","","","","","",""
"","3623.0450002476573","survey-likert","164","346771","0.0-46.0","SS1619115241762","","","","","","","","","images/stimuli/spore_stims/complex_09_A_b.gif","","","","{""Q0"":5}","[0]","","",""
"","2048.3949999324977","survey-likert","165","348827","0.0-47.0","SS1619115241762","","","","","","","","","images/stimuli/spore_stims/simple_17_A_b.gif","","","","{""Q0"":1}","[0]","","",""
"","2249.7649998404086","survey-likert","166","351084","0.0-48.0","SS1619115241762","","","","","","","","","images/stimuli/spore_stims/complex_01_A_a.gif","","","","{""Q0"":5}","[0]","","",""
"","2111.775000113994","survey-likert","167","353205","0.0-49.0","SS1619115241762","","","","","","","","","images/stimuli/spore_stims/simple_11_A_a.gif","","","","{""Q0"":1}","[0]","","",""
"","2305.0550003536046","survey-likert","168","355516","0.0-50.0","SS1619115241762","","","","","","","","","images/stimuli/spore_stims/simple_03_A_b.gif","","","","{""Q0"":1}","[0]","","",""
"","2714.5600002259016","survey-likert","169","358237","0.0-51.0","SS1619115241762","","","","","","","","","images/stimuli/spore_stims/complex_07_A_b.gif","","","","{""Q0"":6}","[0]","","",""
"","1894.0400001592934","survey-likert","170","360139","0.0-52.0","SS1619115241762","","","","","","","","","images/stimuli/spore_stims/simple_16_A_a.gif","","","","{""Q0"":1}","[0]","","",""
"","2027.0499996840954","survey-likert","171","362172","0.0-53.0","SS1619115241762","","","","","","","","","images/stimuli/spore_stims/complex_12_A_b.gif","","","","{""Q0"":5}","[0]","","",""
"","2575.315000023693","survey-likert","172","364755","0.0-54.0","SS1619115241762","","","","","","","","","images/stimuli/spore_stims/complex_20_A_a.gif","","","","{""Q0"":4}","[0]","","",""
"","2001.7849998548627","survey-likert","173","366763","0.0-55.0","SS1619115241762","","","","","","","","","images/stimuli/spore_stims/complex_04_A_b.gif","","","","{""Q0"":4}","[0]","","",""
"","1793.2199998758733","survey-likert","174","368563","0.0-56.0","SS1619115241762","","","","","","","","","images/stimuli/spore_stims/simple_14_A_a.gif","","","","{""Q0"":1}","[0]","","",""
"","1929.47500012815","survey-likert","175","370499","0.0-57.0","SS1619115241762","","","","","","","","","images/stimuli/spore_stims/simple_13_A_b.gif","","","","{""Q0"":1}","[0]","","",""
"[{""page_index"":0,""viewing_time"":2368.0050000548363}]","2368.305000010878","instructions","176","372875","0.0-58.0","SS1619115241762","instructions","","","","","","","","","","","","","","","",""
"","2462.2599999420345","demog-age","177","375348","0.0-59.0","SS1619115241762","","","","","","","","","","","","","{""age"":""25""}","","","",""
"","2074.4650000706315","demog-ethnic-US","178","377436","0.0-60.0","SS1619115241762","","","","","","","","","","","","","{""ethnicity"":[""Asian""]}","[0]","","",""
"","4270.8749999292195","demog-gender-and-education","179","381716","0.0-61.0","SS1619115241762","","","","","","","","","","","","","{""gender"":""Female"",""education"":""Bachelor's Degree""}","[0,1]","","",""
"","5300.575000233948","survey-text","180","387027","0.0-62.0","SS1619115241762","feedback","","","","","","","","","","","","{""Q0"":""none""}","","","",""
"[{""page_index"":0,""viewing_time"":1482.4600000865757}]","1482.7149999327958","instructions","181","388515","0.0-63.0","SS1619115241762","instructions","","","","","","","","","","","","","","","",""
