"view_history","rt","trial_type","trial_index","time_elapsed","internal_node_id","subject","stimulus_type","trial_stimulus","key_press","minimum_viewing_duration","trial_looking_time","block_deviant","block_background","exposure_type","stimulus","block_number","block_type","stimulus_displayed","responses","question_order","math_correct_answer","stimulus_left","stimulus_right"
"[{""page_index"":0,""viewing_time"":80840.75499999744}]","80841.64999998757","instructions","0","80846","0.0-0.0","SS1619113880904","","","","","","","","","","","","","","","","",""
"[{""page_index"":0,""viewing_time"":9448.080000001937},{""page_index"":1,""viewing_time"":4518.654999992577}]","13966.97999999742","instructions","1","96815","0.0-1.0","SS1619113880904","instructions","","","","","","","","","","","","","","","",""
"","4362.649999995483","sequential-stimulus-presentation-old","2","101682","0.0-2.0","SS1619113880904","","","40","500","4862.649999995483","null","null","self_paced","","","","","","","","",""
"","2769.224999996368","sequential-stimulus-presentation-old","3","104954","0.0-3.0","SS1619113880904","","","40","500","3269.224999996368","null","null","self_paced","","","","","","","","",""
"[{""page_index"":0,""viewing_time"":13443.894999989425}]","13444.164999993518","instructions","4","118399","0.0-4.0","SS1619113880904","instructions","","","","","","","","","","","","","","","",""
"","1861.014999987674","sequential-stimulus-presentation-old","5","130264","0.0-5.0","SS1619113880904","","","40","500","2361.014999987674","null","null","forced_long","","","","","","","","",""
"","4098.169999997481","sequential-stimulus-presentation-old","6","134468","0.0-6.0","SS1619113880904","","","40","500","4598.169999997481","null","null","forced_long","","","","","","","","",""
"[{""page_index"":0,""viewing_time"":3519.7449999977835}]","3519.929999994929","instructions","7","137989","0.0-7.0","SS1619113880904","instructions","","","","","","","","","","","","","","","",""
"[{""page_index"":0,""viewing_time"":6317.390000011073},{""page_index"":1,""viewing_time"":7191.879999998491},{""page_index"":2,""viewing_time"":3993.369999996503},{""page_index"":3,""viewing_time"":1132.7149999997346},{""page_index"":4,""viewing_time"":1377.569999996922}]","20013.165000011213","instructions","8","158004","0.0-8.0","SS1619113880904","instructions","","","","","","","","","","","","","","","",""
"","null","html-keyboard-response","9","159064","0.0-9.0-0.0","SS1619113880904","","","null","","","","","","<p><img src= images/blank.png width =""600"" height = ""600"" style=""position:fixed;top:50%; left:50%; transform: translate(-50%, -50%); border:5px solid black"">","","","","","","","",""
"","3566.095000001951","sequential-stimulus-presentation-old","10","163138","0.0-9.0-1.0","SS1619113880904","trial","","40","500","4066.095000001951","images/stimuli/spore_stims/simple_15_A_b.gif","images/stimuli/spore_stims/simple_14_A_a.gif","self_paced","","0","simple_dissimilar","images/stimuli/spore_stims/simple_14_A_a.gif","","","","",""
"","null","html-keyboard-response","11","164121","0.0-9.0-0.1","SS1619113880904","","","null","","","","","","<p><img src= images/blank.png width =""600"" height = ""600"" style=""position:fixed;top:50%; left:50%; transform: translate(-50%, -50%); border:5px solid black"">","","","","","","","",""
"","737.1899999998277","sequential-stimulus-presentation-old","12","165363","0.0-9.0-1.1","SS1619113880904","trial","","40","500","1237.1899999998277","images/stimuli/spore_stims/simple_15_A_b.gif","images/stimuli/spore_stims/simple_14_A_a.gif","self_paced","","0","simple_dissimilar","images/stimuli/spore_stims/simple_14_A_a.gif","","","","",""
"","null","html-keyboard-response","13","166502","0.0-9.0-0.2","SS1619113880904","","","null","","","","","","<p><img src= images/blank.png width =""600"" height = ""600"" style=""position:fixed;top:50%; left:50%; transform: translate(-50%, -50%); border:5px solid black"">","","","","","","","",""
"","745.6700000038836","sequential-stimulus-presentation-old","14","167750","0.0-9.0-1.2","SS1619113880904","trial","","40","500","1245.6700000038836","images/stimuli/spore_stims/simple_15_A_b.gif","images/stimuli/spore_stims/simple_14_A_a.gif","self_paced","","0","simple_dissimilar","images/stimuli/spore_stims/simple_14_A_a.gif","","","","",""
"","null","html-keyboard-response","15","168941","0.0-9.0-0.3","SS1619113880904","","","null","","","","","","<p><img src= images/blank.png width =""600"" height = ""600"" style=""position:fixed;top:50%; left:50%; transform: translate(-50%, -50%); border:5px solid black"">","","","","","","","",""
"","1230.714999997872","sequential-stimulus-presentation-old","16","170677","0.0-9.0-1.3","SS1619113880904","trial","","40","500","1730.714999997872","images/stimuli/spore_stims/simple_15_A_b.gif","images/stimuli/spore_stims/simple_14_A_a.gif","self_paced","","0","simple_dissimilar","images/stimuli/spore_stims/simple_14_A_a.gif","","","","",""
"","null","html-keyboard-response","17","171780","0.0-9.0-0.4","SS1619113880904","","","null","","","","","","<p><img src= images/blank.png width =""600"" height = ""600"" style=""position:fixed;top:50%; left:50%; transform: translate(-50%, -50%); border:5px solid black"">","","","","","","","",""
"","1128.5700000007637","sequential-stimulus-presentation-old","18","173414","0.0-9.0-1.4","SS1619113880904","trial","","40","500","1628.5700000007637","images/stimuli/spore_stims/simple_15_A_b.gif","images/stimuli/spore_stims/simple_14_A_a.gif","self_paced","","0","simple_dissimilar","images/stimuli/spore_stims/simple_14_A_a.gif","","","","",""
"","null","html-keyboard-response","19","174254","0.0-9.0-0.5","SS1619113880904","","","null","","","","","","<p><img src= images/blank.png width =""600"" height = ""600"" style=""position:fixed;top:50%; left:50%; transform: translate(-50%, -50%); border:5px solid black"">","","","","","","","",""
"","278.10999999928754","sequential-stimulus-presentation-old","20","175037","0.0-9.0-1.5","SS1619113880904","trial","","40","500","778.1099999992875","images/stimuli/spore_stims/simple_15_A_b.gif","images/stimuli/spore_stims/simple_14_A_a.gif","self_paced","","0","simple_dissimilar","images/stimuli/spore_stims/simple_14_A_a.gif","","","","",""
"","3111.369999998715","survey-multi-choice","21","178153","0.0-10.0","SS1619113880904","math_question","","","","","","","","","","","","{""Q0"":""8""}","[0]","8","",""
"","null","html-keyboard-response","22","179166","0.0-11.0-0.0","SS1619113880904","","","null","","","","","","<p><img src= images/blank.png width =""600"" height = ""600"" style=""position:fixed;top:50%; left:50%; transform: translate(-50%, -50%); border:5px solid black"">","","","","","","","",""
"","837.1049999987008","sequential-stimulus-presentation-old","23","190011","0.0-11.0-1.0","SS1619113880904","trial","","40","500","1337.1049999987008","images/stimuli/spore_stims/complex_02_A_a.gif","images/stimuli/spore_stims/complex_14_A_b.gif","forced_long","","1","complex_dissimilar","images/stimuli/spore_stims/complex_14_A_b.gif","","","","",""
"","null","html-keyboard-response","24","190928","0.0-11.0-0.1","SS1619113880904","","","null","","","","","","<p><img src= images/blank.png width =""600"" height = ""600"" style=""position:fixed;top:50%; left:50%; transform: translate(-50%, -50%); border:5px solid black"">","","","","","","","",""
"","3474.9250000022585","sequential-stimulus-presentation-old","25","194909","0.0-11.0-1.1","SS1619113880904","trial","","40","500","3974.9250000022585","images/stimuli/spore_stims/complex_02_A_a.gif","images/stimuli/spore_stims/complex_14_A_b.gif","forced_long","","1","complex_dissimilar","images/stimuli/spore_stims/complex_14_A_b.gif","","","","",""
"","null","html-keyboard-response","26","195770","0.0-11.0-0.2","SS1619113880904","","","null","","","","","","<p><img src= images/blank.png width =""600"" height = ""600"" style=""position:fixed;top:50%; left:50%; transform: translate(-50%, -50%); border:5px solid black"">","","","","","","","",""
"","801.6349999961676","sequential-stimulus-presentation-old","27","197077","0.0-11.0-1.2","SS1619113880904","trial","","40","500","1301.6349999961676","images/stimuli/spore_stims/complex_02_A_a.gif","images/stimuli/spore_stims/complex_14_A_b.gif","forced_long","","1","complex_dissimilar","images/stimuli/spore_stims/complex_14_A_b.gif","","","","",""
"","null","html-keyboard-response","28","198309","0.0-11.0-0.3","SS1619113880904","","","null","","","","","","<p><img src= images/blank.png width =""600"" height = ""600"" style=""position:fixed;top:50%; left:50%; transform: translate(-50%, -50%); border:5px solid black"">","","","","","","","",""
"","1046.3799999997718","sequential-stimulus-presentation-old","29","199864","0.0-11.0-1.3","SS1619113880904","trial","","40","500","1546.3799999997718","images/stimuli/spore_stims/complex_02_A_a.gif","images/stimuli/spore_stims/complex_14_A_b.gif","forced_long","","1","complex_dissimilar","images/stimuli/spore_stims/complex_14_A_b.gif","","","","",""
"","2580.614999998943","survey-multi-choice","30","202446","0.0-12.0","SS1619113880904","math_question","","","","","","","","","","","","{""Q0"":""11""}","[0]","11","",""
"","null","html-keyboard-response","31","203654","0.0-13.0-0.0","SS1619113880904","","","null","","","","","","<p><img src= images/blank.png width =""600"" height = ""600"" style=""position:fixed;top:50%; left:50%; transform: translate(-50%, -50%); border:5px solid black"">","","","","","","","",""
"","935.509999995702","sequential-stimulus-presentation-old","32","214598","0.0-13.0-1.0","SS1619113880904","trial","","40","500","1435.509999995702","images/stimuli/spore_stims/simple_05_A_b.gif","images/stimuli/spore_stims/simple_15_A_a.gif","forced_long","","2","simple_dissimilar","images/stimuli/spore_stims/simple_15_A_a.gif","","","","",""
"","null","html-keyboard-response","33","215572","0.0-13.0-0.1","SS1619113880904","","","null","","","","","","<p><img src= images/blank.png width =""600"" height = ""600"" style=""position:fixed;top:50%; left:50%; transform: translate(-50%, -50%); border:5px solid black"">","","","","","","","",""
"","1055.9100000100443","sequential-stimulus-presentation-old","34","217133","0.0-13.0-1.1","SS1619113880904","trial","","40","500","1555.9100000100443","images/stimuli/spore_stims/simple_05_A_b.gif","images/stimuli/spore_stims/simple_15_A_a.gif","forced_long","","2","simple_dissimilar","images/stimuli/spore_stims/simple_15_A_a.gif","","","","",""
"","null","html-keyboard-response","35","218286","0.0-13.0-0.2","SS1619113880904","","","null","","","","","","<p><img src= images/blank.png width =""600"" height = ""600"" style=""position:fixed;top:50%; left:50%; transform: translate(-50%, -50%); border:5px solid black"">","","","","","","","",""
"","280.57000000262633","sequential-stimulus-presentation-old","36","219069","0.0-13.0-1.2","SS1619113880904","trial","","40","500","780.5700000026263","images/stimuli/spore_stims/simple_05_A_b.gif","images/stimuli/spore_stims/simple_15_A_a.gif","forced_long","","2","simple_dissimilar","images/stimuli/spore_stims/simple_15_A_a.gif","","","","",""
"","null","html-keyboard-response","37","220019","0.0-13.0-0.3","SS1619113880904","","","null","","","","","","<p><img src= images/blank.png width =""600"" height = ""600"" style=""position:fixed;top:50%; left:50%; transform: translate(-50%, -50%); border:5px solid black"">","","","","","","","",""
"","1157.7050000050804","sequential-stimulus-presentation-old","38","221679","0.0-13.0-1.3","SS1619113880904","trial","","40","500","1657.7050000050804","images/stimuli/spore_stims/simple_05_A_b.gif","images/stimuli/spore_stims/simple_15_A_a.gif","forced_long","","2","simple_dissimilar","images/stimuli/spore_stims/simple_05_A_b.gif","","","","",""
"","null","html-keyboard-response","39","222973","0.0-13.0-0.4","SS1619113880904","","","null","","","","","","<p><img src= images/blank.png width =""600"" height = ""600"" style=""position:fixed;top:50%; left:50%; transform: translate(-50%, -50%); border:5px solid black"">","","","","","","","",""
"","306.7449999944074","sequential-stimulus-presentation-old","40","223782","0.0-13.0-1.4","SS1619113880904","trial","","40","500","806.7449999944074","images/stimuli/spore_stims/simple_05_A_b.gif","images/stimuli/spore_stims/simple_15_A_a.gif","forced_long","","2","simple_dissimilar","images/stimuli/spore_stims/simple_15_A_a.gif","","","","",""
"","null","html-keyboard-response","41","224953","0.0-13.0-0.5","SS1619113880904","","","null","","","","","","<p><img src= images/blank.png width =""600"" height = ""600"" style=""position:fixed;top:50%; left:50%; transform: translate(-50%, -50%); border:5px solid black"">","","","","","","","",""
"","28.065000005881302","sequential-stimulus-presentation-old","42","225486","0.0-13.0-1.5","SS1619113880904","trial","","40","500","528.0650000058813","images/stimuli/spore_stims/simple_05_A_b.gif","images/stimuli/spore_stims/simple_15_A_a.gif","forced_long","","2","simple_dissimilar","images/stimuli/spore_stims/simple_15_A_a.gif","","","","",""
"","2363.4450000099605","survey-multi-choice","43","227852","0.0-14.0","SS1619113880904","math_question","","","","","","","","","","","","{""Q0"":""9""}","[0]","9","",""
"","null","html-keyboard-response","44","229029","0.0-15.0-0.0","SS1619113880904","","","null","","","","","","<p><img src= images/blank.png width =""600"" height = ""600"" style=""position:fixed;top:50%; left:50%; transform: translate(-50%, -50%); border:5px solid black"">","","","","","","","",""
"","515.2499999967404","sequential-stimulus-presentation-old","45","239552","0.0-15.0-1.0","SS1619113880904","trial","","40","500","1015.2499999967404","images/stimuli/spore_stims/complex_07_A_a.gif","images/stimuli/spore_stims/complex_16_A_b.gif","forced_long","","3","complex_dissimilar","images/stimuli/spore_stims/complex_16_A_b.gif","","","","",""
"","null","html-keyboard-response","46","240500","0.0-15.0-0.1","SS1619113880904","","","null","","","","","","<p><img src= images/blank.png width =""600"" height = ""600"" style=""position:fixed;top:50%; left:50%; transform: translate(-50%, -50%); border:5px solid black"">","","","","","","","",""
"","601.3899999961723","sequential-stimulus-presentation-old","47","241608","0.0-15.0-1.1","SS1619113880904","trial","","40","500","1101.3899999961723","images/stimuli/spore_stims/complex_07_A_a.gif","images/stimuli/spore_stims/complex_16_A_b.gif","forced_long","","3","complex_dissimilar","images/stimuli/spore_stims/complex_16_A_b.gif","","","","",""
"","null","html-keyboard-response","48","242419","0.0-15.0-0.2","SS1619113880904","","","null","","","","","","<p><img src= images/blank.png width =""600"" height = ""600"" style=""position:fixed;top:50%; left:50%; transform: translate(-50%, -50%); border:5px solid black"">","","","","","","","",""
"","1796.3999999919906","sequential-stimulus-presentation-old","49","244722","0.0-15.0-1.2","SS1619113880904","trial","","40","500","2296.3999999919906","images/stimuli/spore_stims/complex_07_A_a.gif","images/stimuli/spore_stims/complex_16_A_b.gif","forced_long","","3","complex_dissimilar","images/stimuli/spore_stims/complex_16_A_b.gif","","","","",""
"","null","html-keyboard-response","50","245669","0.0-15.0-0.3","SS1619113880904","","","null","","","","","","<p><img src= images/blank.png width =""600"" height = ""600"" style=""position:fixed;top:50%; left:50%; transform: translate(-50%, -50%); border:5px solid black"">","","","","","","","",""
"","1830.245000004652","sequential-stimulus-presentation-old","51","248007","0.0-15.0-1.3","SS1619113880904","trial","","40","500","2330.245000004652","images/stimuli/spore_stims/complex_07_A_a.gif","images/stimuli/spore_stims/complex_16_A_b.gif","forced_long","","3","complex_dissimilar","images/stimuli/spore_stims/complex_16_A_b.gif","","","","",""
"","3091.7800000024727","survey-multi-choice","52","251101","0.0-16.0","SS1619113880904","math_question","","","","","","","","","","","","{""Q0"":""9""}","[0]","9","",""
"","null","html-keyboard-response","53","252348","0.0-17.0-0.0","SS1619113880904","","","null","","","","","","<p><img src= images/blank.png width =""600"" height = ""600"" style=""position:fixed;top:50%; left:50%; transform: translate(-50%, -50%); border:5px solid black"">","","","","","","","",""
"","623.2949999975972","sequential-stimulus-presentation-old","54","262979","0.0-17.0-1.0","SS1619113880904","trial","","40","500","1123.2949999975972","images/stimuli/spore_stims/simple_04_A_a.gif","images/stimuli/spore_stims/simple_17_A_b.gif","forced_long","","4","simple_dissimilar","images/stimuli/spore_stims/simple_17_A_b.gif","","","","",""
"","null","html-keyboard-response","55","264142","0.0-17.0-0.1","SS1619113880904","","","null","","","","","","<p><img src= images/blank.png width =""600"" height = ""600"" style=""position:fixed;top:50%; left:50%; transform: translate(-50%, -50%); border:5px solid black"">","","","","","","","",""
"","2086.5349999949103","sequential-stimulus-presentation-old","56","266736","0.0-17.0-1.1","SS1619113880904","trial","","40","500","2586.5349999949103","images/stimuli/spore_stims/simple_04_A_a.gif","images/stimuli/spore_stims/simple_17_A_b.gif","forced_long","","4","simple_dissimilar","images/stimuli/spore_stims/simple_17_A_b.gif","","","","",""
"","null","html-keyboard-response","57","267906","0.0-17.0-0.2","SS1619113880904","","","null","","","","","","<p><img src= images/blank.png width =""600"" height = ""600"" style=""position:fixed;top:50%; left:50%; transform: translate(-50%, -50%); border:5px solid black"">","","","","","","","",""
"","89.61000000999775","sequential-stimulus-presentation-old","58","268502","0.0-17.0-1.2","SS1619113880904","trial","","40","500","589.6100000099977","images/stimuli/spore_stims/simple_04_A_a.gif","images/stimuli/spore_stims/simple_17_A_b.gif","forced_long","","4","simple_dissimilar","images/stimuli/spore_stims/simple_17_A_b.gif","","","","",""
"","null","html-keyboard-response","59","269578","0.0-17.0-0.3","SS1619113880904","","","null","","","","","","<p><img src= images/blank.png width =""600"" height = ""600"" style=""position:fixed;top:50%; left:50%; transform: translate(-50%, -50%); border:5px solid black"">","","","","","","","",""
"","556.3399999955436","sequential-stimulus-presentation-old","60","270639","0.0-17.0-1.3","SS1619113880904","trial","","40","500","1056.3399999955436","images/stimuli/spore_stims/simple_04_A_a.gif","images/stimuli/spore_stims/simple_17_A_b.gif","forced_long","","4","simple_dissimilar","images/stimuli/spore_stims/simple_17_A_b.gif","","","","",""
"","2306.765000001178","survey-multi-choice","61","272948","0.0-18.0","SS1619113880904","math_question","","","","","","","","","","","","{""Q0"":""10""}","[0]","10","",""
"","null","html-keyboard-response","62","273955","0.0-19.0-0.0","SS1619113880904","","","null","","","","","","<p><img src= images/blank.png width =""600"" height = ""600"" style=""position:fixed;top:50%; left:50%; transform: translate(-50%, -50%); border:5px solid black"">","","","","","","","",""
"","462.87499999743886","sequential-stimulus-presentation-old","63","274922","0.0-19.0-1.0","SS1619113880904","trial","","40","500","962.8749999974389","images/stimuli/spore_stims/simple_02_A_b.gif","images/stimuli/spore_stims/simple_08_A_a.gif","self_paced","","5","simple_dissimilar","images/stimuli/spore_stims/simple_08_A_a.gif","","","","",""
"","null","html-keyboard-response","64","275853","0.0-19.0-0.1","SS1619113880904","","","null","","","","","","<p><img src= images/blank.png width =""600"" height = ""600"" style=""position:fixed;top:50%; left:50%; transform: translate(-50%, -50%); border:5px solid black"">","","","","","","","",""
"","737.1949999942444","sequential-stimulus-presentation-old","65","277095","0.0-19.0-1.1","SS1619113880904","trial","","40","500","1237.1949999942444","images/stimuli/spore_stims/simple_02_A_b.gif","images/stimuli/spore_stims/simple_08_A_a.gif","self_paced","","5","simple_dissimilar","images/stimuli/spore_stims/simple_08_A_a.gif","","","","",""
"","null","html-keyboard-response","66","278029","0.0-19.0-0.2","SS1619113880904","","","null","","","","","","<p><img src= images/blank.png width =""600"" height = ""600"" style=""position:fixed;top:50%; left:50%; transform: translate(-50%, -50%); border:5px solid black"">","","","","","","","",""
"","880.9499999915715","sequential-stimulus-presentation-old","67","279416","0.0-19.0-1.2","SS1619113880904","trial","","40","500","1380.9499999915715","images/stimuli/spore_stims/simple_02_A_b.gif","images/stimuli/spore_stims/simple_08_A_a.gif","self_paced","","5","simple_dissimilar","images/stimuli/spore_stims/simple_08_A_a.gif","","","","",""
"","null","html-keyboard-response","68","280422","0.0-19.0-0.3","SS1619113880904","","","null","","","","","","<p><img src= images/blank.png width =""600"" height = ""600"" style=""position:fixed;top:50%; left:50%; transform: translate(-50%, -50%); border:5px solid black"">","","","","","","","",""
"","943.7850000103936","sequential-stimulus-presentation-old","69","281871","0.0-19.0-1.3","SS1619113880904","trial","","40","500","1443.7850000103936","images/stimuli/spore_stims/simple_02_A_b.gif","images/stimuli/spore_stims/simple_08_A_a.gif","self_paced","","5","simple_dissimilar","images/stimuli/spore_stims/simple_08_A_a.gif","","","","",""
"","null","html-keyboard-response","70","282859","0.0-19.0-0.4","SS1619113880904","","","null","","","","","","<p><img src= images/blank.png width =""600"" height = ""600"" style=""position:fixed;top:50%; left:50%; transform: translate(-50%, -50%); border:5px solid black"">","","","","","","","",""
"","931.8600000115111","sequential-stimulus-presentation-old","71","284297","0.0-19.0-1.4","SS1619113880904","trial","","40","500","1431.8600000115111","images/stimuli/spore_stims/simple_02_A_b.gif","images/stimuli/spore_stims/simple_08_A_a.gif","self_paced","","5","simple_dissimilar","images/stimuli/spore_stims/simple_08_A_a.gif","","","","",""
"","null","html-keyboard-response","72","285344","0.0-19.0-0.5","SS1619113880904","","","null","","","","","","<p><img src= images/blank.png width =""600"" height = ""600"" style=""position:fixed;top:50%; left:50%; transform: translate(-50%, -50%); border:5px solid black"">","","","","","","","",""
"","722.0700000034412","sequential-stimulus-presentation-old","73","286571","0.0-19.0-1.5","SS1619113880904","trial","","40","500","1222.0700000034412","images/stimuli/spore_stims/simple_02_A_b.gif","images/stimuli/spore_stims/simple_08_A_a.gif","self_paced","","5","simple_dissimilar","images/stimuli/spore_stims/simple_08_A_a.gif","","","","",""
"","5320.290000003297","survey-multi-choice","74","291893","0.0-20.0","SS1619113880904","math_question","","","","","","","","","","","","{""Q0"":""13""}","[0]","13","",""
"","null","html-keyboard-response","75","292763","0.0-21.0-0.0","SS1619113880904","","","null","","","","","","<p><img src= images/blank.png width =""600"" height = ""600"" style=""position:fixed;top:50%; left:50%; transform: translate(-50%, -50%); border:5px solid black"">","","","","","","","",""
"","2044.7550000099","sequential-stimulus-presentation-old","76","295312","0.0-21.0-1.0","SS1619113880904","trial","","40","500","2544.7550000099","images/stimuli/spore_stims/complex_06_A_b.gif","images/stimuli/spore_stims/complex_13_A_a.gif","self_paced","","6","complex_dissimilar","images/stimuli/spore_stims/complex_13_A_a.gif","","","","",""
"","null","html-keyboard-response","77","296491","0.0-21.0-0.1","SS1619113880904","","","null","","","","","","<p><img src= images/blank.png width =""600"" height = ""600"" style=""position:fixed;top:50%; left:50%; transform: translate(-50%, -50%); border:5px solid black"">","","","","","","","",""
"","2613.9949999924283","sequential-stimulus-presentation-old","78","299609","0.0-21.0-1.1","SS1619113880904","trial","","40","500","3113.9949999924283","images/stimuli/spore_stims/complex_06_A_b.gif","images/stimuli/spore_stims/complex_13_A_a.gif","self_paced","","6","complex_dissimilar","images/stimuli/spore_stims/complex_06_A_b.gif","","","","",""
"","null","html-keyboard-response","79","300902","0.0-21.0-0.2","SS1619113880904","","","null","","","","","","<p><img src= images/blank.png width =""600"" height = ""600"" style=""position:fixed;top:50%; left:50%; transform: translate(-50%, -50%); border:5px solid black"">","","","","","","","",""
"","1175.9149999998044","sequential-stimulus-presentation-old","80","302583","0.0-21.0-1.2","SS1619113880904","trial","","40","500","1675.9149999998044","images/stimuli/spore_stims/complex_06_A_b.gif","images/stimuli/spore_stims/complex_13_A_a.gif","self_paced","","6","complex_dissimilar","images/stimuli/spore_stims/complex_13_A_a.gif","","","","",""
"","null","html-keyboard-response","81","303695","0.0-21.0-0.3","SS1619113880904","","","null","","","","","","<p><img src= images/blank.png width =""600"" height = ""600"" style=""position:fixed;top:50%; left:50%; transform: translate(-50%, -50%); border:5px solid black"">","","","","","","","",""
"","535.6499999907101","sequential-stimulus-presentation-old","82","304735","0.0-21.0-1.3","SS1619113880904","trial","","40","500","1035.64999999071","images/stimuli/spore_stims/complex_06_A_b.gif","images/stimuli/spore_stims/complex_13_A_a.gif","self_paced","","6","complex_dissimilar","images/stimuli/spore_stims/complex_13_A_a.gif","","","","",""
"","null","html-keyboard-response","83","305686","0.0-21.0-0.4","SS1619113880904","","","null","","","","","","<p><img src= images/blank.png width =""600"" height = ""600"" style=""position:fixed;top:50%; left:50%; transform: translate(-50%, -50%); border:5px solid black"">","","","","","","","",""
"","437.80499999411404","sequential-stimulus-presentation-old","84","306630","0.0-21.0-1.4","SS1619113880904","trial","","40","500","937.804999994114","images/stimuli/spore_stims/complex_06_A_b.gif","images/stimuli/spore_stims/complex_13_A_a.gif","self_paced","","6","complex_dissimilar","images/stimuli/spore_stims/complex_13_A_a.gif","","","","",""
"","null","html-keyboard-response","85","307770","0.0-21.0-0.5","SS1619113880904","","","null","","","","","","<p><img src= images/blank.png width =""600"" height = ""600"" style=""position:fixed;top:50%; left:50%; transform: translate(-50%, -50%); border:5px solid black"">","","","","","","","",""
"","636.610000001383","sequential-stimulus-presentation-old","86","308911","0.0-21.0-1.5","SS1619113880904","trial","","40","500","1136.610000001383","images/stimuli/spore_stims/complex_06_A_b.gif","images/stimuli/spore_stims/complex_13_A_a.gif","self_paced","","6","complex_dissimilar","images/stimuli/spore_stims/complex_13_A_a.gif","","","","",""
"","2317.479999997886","survey-multi-choice","87","311233","0.0-22.0","SS1619113880904","math_question","","","","","","","","","","","","{""Q0"":""6""}","[0]","6","",""
"","null","html-keyboard-response","88","312234","0.0-23.0-0.0","SS1619113880904","","","null","","","","","","<p><img src= images/blank.png width =""600"" height = ""600"" style=""position:fixed;top:50%; left:50%; transform: translate(-50%, -50%); border:5px solid black"">","","","","","","","",""
"","3151.58999999403","sequential-stimulus-presentation-old","89","315891","0.0-23.0-1.0","SS1619113880904","trial","","40","500","3651.58999999403","images/stimuli/spore_stims/complex_17_A_b.gif","images/stimuli/spore_stims/complex_08_A_a.gif","self_paced","","7","complex_dissimilar","images/stimuli/spore_stims/complex_08_A_a.gif","","","","",""
"","null","html-keyboard-response","90","316953","0.0-23.0-0.1","SS1619113880904","","","null","","","","","","<p><img src= images/blank.png width =""600"" height = ""600"" style=""position:fixed;top:50%; left:50%; transform: translate(-50%, -50%); border:5px solid black"">","","","","","","","",""
"","584.950000004028","sequential-stimulus-presentation-old","91","318043","0.0-23.0-1.1","SS1619113880904","trial","","40","500","1084.950000004028","images/stimuli/spore_stims/complex_17_A_b.gif","images/stimuli/spore_stims/complex_08_A_a.gif","self_paced","","7","complex_dissimilar","images/stimuli/spore_stims/complex_08_A_a.gif","","","","",""
"","null","html-keyboard-response","92","318869","0.0-23.0-0.2","SS1619113880904","","","null","","","","","","<p><img src= images/blank.png width =""600"" height = ""600"" style=""position:fixed;top:50%; left:50%; transform: translate(-50%, -50%); border:5px solid black"">","","","","","","","",""
"","677.3099999991246","sequential-stimulus-presentation-old","93","320052","0.0-23.0-1.2","SS1619113880904","trial","","40","500","1177.3099999991246","images/stimuli/spore_stims/complex_17_A_b.gif","images/stimuli/spore_stims/complex_08_A_a.gif","self_paced","","7","complex_dissimilar","images/stimuli/spore_stims/complex_08_A_a.gif","","","","",""
"","null","html-keyboard-response","94","321220","0.0-23.0-0.3","SS1619113880904","","","null","","","","","","<p><img src= images/blank.png width =""600"" height = ""600"" style=""position:fixed;top:50%; left:50%; transform: translate(-50%, -50%); border:5px solid black"">","","","","","","","",""
"","958.7650000030408","sequential-stimulus-presentation-old","95","322686","0.0-23.0-1.3","SS1619113880904","trial","","40","500","1458.7650000030408","images/stimuli/spore_stims/complex_17_A_b.gif","images/stimuli/spore_stims/complex_08_A_a.gif","self_paced","","7","complex_dissimilar","images/stimuli/spore_stims/complex_08_A_a.gif","","","","",""
"","2708.6899999994785","survey-multi-choice","96","325397","0.0-24.0","SS1619113880904","math_question","","","","","","","","","","","","{""Q0"":""14""}","[0]","14","",""
"","null","html-keyboard-response","97","326567","0.0-25.0-0.0","SS1619113880904","","","null","","","","","","<p><img src= images/blank.png width =""600"" height = ""600"" style=""position:fixed;top:50%; left:50%; transform: translate(-50%, -50%); border:5px solid black"">","","","","","","","",""
"","1996.22499999532","sequential-stimulus-presentation-old","98","328668","0.0-25.0-1.0","SS1619113880904","trial","","40","500","2496.22499999532","images/stimuli/spore_stims/complex_17_A_a.gif","images/stimuli/spore_stims/complex_10_A_b.gif","forced_short","","8","complex_dissimilar","images/stimuli/spore_stims/complex_10_A_b.gif","","","","",""
"","null","html-keyboard-response","99","329742","0.0-25.0-0.1","SS1619113880904","","","null","","","","","","<p><img src= images/blank.png width =""600"" height = ""600"" style=""position:fixed;top:50%; left:50%; transform: translate(-50%, -50%); border:5px solid black"">","","","","","","","",""
"","1963.0750000069384","sequential-stimulus-presentation-old","100","332211","0.0-25.0-1.1","SS1619113880904","trial","","40","500","2463.0750000069384","images/stimuli/spore_stims/complex_17_A_a.gif","images/stimuli/spore_stims/complex_10_A_b.gif","forced_short","","8","complex_dissimilar","images/stimuli/spore_stims/complex_10_A_b.gif","","","","",""
"","null","html-keyboard-response","101","333127","0.0-25.0-0.2","SS1619113880904","","","null","","","","","","<p><img src= images/blank.png width =""600"" height = ""600"" style=""position:fixed;top:50%; left:50%; transform: translate(-50%, -50%); border:5px solid black"">","","","","","","","",""
"","158.16000000631902","sequential-stimulus-presentation-old","102","333790","0.0-25.0-1.2","SS1619113880904","trial","","40","500","658.160000006319","images/stimuli/spore_stims/complex_17_A_a.gif","images/stimuli/spore_stims/complex_10_A_b.gif","forced_short","","8","complex_dissimilar","images/stimuli/spore_stims/complex_10_A_b.gif","","","","",""
"","null","html-keyboard-response","103","334757","0.0-25.0-0.3","SS1619113880904","","","null","","","","","","<p><img src= images/blank.png width =""600"" height = ""600"" style=""position:fixed;top:50%; left:50%; transform: translate(-50%, -50%); border:5px solid black"">","","","","","","","",""
"","2247.6949999982025","sequential-stimulus-presentation-old","104","337510","0.0-25.0-1.3","SS1619113880904","trial","","40","500","2747.6949999982025","images/stimuli/spore_stims/complex_17_A_a.gif","images/stimuli/spore_stims/complex_10_A_b.gif","forced_short","","8","complex_dissimilar","images/stimuli/spore_stims/complex_17_A_a.gif","","","","",""
"","null","html-keyboard-response","105","338659","0.0-25.0-0.4","SS1619113880904","","","null","","","","","","<p><img src= images/blank.png width =""600"" height = ""600"" style=""position:fixed;top:50%; left:50%; transform: translate(-50%, -50%); border:5px solid black"">","","","","","","","",""
"","840.8399999898393","sequential-stimulus-presentation-old","106","340006","0.0-25.0-1.4","SS1619113880904","trial","","40","500","1340.8399999898393","images/stimuli/spore_stims/complex_17_A_a.gif","images/stimuli/spore_stims/complex_10_A_b.gif","forced_short","","8","complex_dissimilar","images/stimuli/spore_stims/complex_10_A_b.gif","","","","",""
"","2900.0099999975646","survey-multi-choice","107","342908","0.0-26.0","SS1619113880904","math_question","","","","","","","","","","","","{""Q0"":""12""}","[0]","12","",""
"","null","html-keyboard-response","108","344133","0.0-27.0-0.0","SS1619113880904","","","null","","","","","","<p><img src= images/blank.png width =""600"" height = ""600"" style=""position:fixed;top:50%; left:50%; transform: translate(-50%, -50%); border:5px solid black"">","","","","","","","",""
"","2662.9899999970803","sequential-stimulus-presentation-old","109","346901","0.0-27.0-1.0","SS1619113880904","trial","","40","500","3162.9899999970803","images/stimuli/spore_stims/complex_18_A_a.gif","images/stimuli/spore_stims/complex_09_A_b.gif","forced_short","","9","complex_dissimilar","images/stimuli/spore_stims/complex_09_A_b.gif","","","","",""
"","null","html-keyboard-response","110","348081","0.0-27.0-0.1","SS1619113880904","","","null","","","","","","<p><img src= images/blank.png width =""600"" height = ""600"" style=""position:fixed;top:50%; left:50%; transform: translate(-50%, -50%); border:5px solid black"">","","","","","","","",""
"","2734.4199999934062","sequential-stimulus-presentation-old","111","351320","0.0-27.0-1.1","SS1619113880904","trial","","40","500","3234.4199999934062","images/stimuli/spore_stims/complex_18_A_a.gif","images/stimuli/spore_stims/complex_09_A_b.gif","forced_short","","9","complex_dissimilar","images/stimuli/spore_stims/complex_09_A_b.gif","","","","",""
"","null","html-keyboard-response","112","352243","0.0-27.0-0.2","SS1619113880904","","","null","","","","","","<p><img src= images/blank.png width =""600"" height = ""600"" style=""position:fixed;top:50%; left:50%; transform: translate(-50%, -50%); border:5px solid black"">","","","","","","","",""
"","331.1399999947753","sequential-stimulus-presentation-old","113","353079","0.0-27.0-1.2","SS1619113880904","trial","","40","500","831.1399999947753","images/stimuli/spore_stims/complex_18_A_a.gif","images/stimuli/spore_stims/complex_09_A_b.gif","forced_short","","9","complex_dissimilar","images/stimuli/spore_stims/complex_09_A_b.gif","","","","",""
"","null","html-keyboard-response","114","354222","0.0-27.0-0.3","SS1619113880904","","","null","","","","","","<p><img src= images/blank.png width =""600"" height = ""600"" style=""position:fixed;top:50%; left:50%; transform: translate(-50%, -50%); border:5px solid black"">","","","","","","","",""
"","224.27000000607222","sequential-stimulus-presentation-old","115","354954","0.0-27.0-1.3","SS1619113880904","trial","","40","500","724.2700000060722","images/stimuli/spore_stims/complex_18_A_a.gif","images/stimuli/spore_stims/complex_09_A_b.gif","forced_short","","9","complex_dissimilar","images/stimuli/spore_stims/complex_09_A_b.gif","","","","",""
"","null","html-keyboard-response","116","355906","0.0-27.0-0.4","SS1619113880904","","","null","","","","","","<p><img src= images/blank.png width =""600"" height = ""600"" style=""position:fixed;top:50%; left:50%; transform: translate(-50%, -50%); border:5px solid black"">","","","","","","","",""
"","175.4300000029616","sequential-stimulus-presentation-old","117","356590","0.0-27.0-1.4","SS1619113880904","trial","","40","500","675.4300000029616","images/stimuli/spore_stims/complex_18_A_a.gif","images/stimuli/spore_stims/complex_09_A_b.gif","forced_short","","9","complex_dissimilar","images/stimuli/spore_stims/complex_09_A_b.gif","","","","",""
"","2971.5800000121817","survey-multi-choice","118","359564","0.0-28.0","SS1619113880904","math_question","","","","","","","","","","","","{""Q0"":""11""}","[0]","11","",""
"","null","html-keyboard-response","119","360788","0.0-29.0-0.0","SS1619113880904","","","null","","","","","","<p><img src= images/blank.png width =""600"" height = ""600"" style=""position:fixed;top:50%; left:50%; transform: translate(-50%, -50%); border:5px solid black"">","","","","","","","",""
"","1058.229999995092","sequential-stimulus-presentation-old","120","361951","0.0-29.0-1.0","SS1619113880904","trial","","40","500","1558.229999995092","images/stimuli/spore_stims/simple_19_A_b.gif","images/stimuli/spore_stims/simple_18_A_a.gif","forced_short","","10","simple_dissimilar","images/stimuli/spore_stims/simple_18_A_a.gif","","","","",""
"","null","html-keyboard-response","121","362901","0.0-29.0-0.1","SS1619113880904","","","null","","","","","","<p><img src= images/blank.png width =""600"" height = ""600"" style=""position:fixed;top:50%; left:50%; transform: translate(-50%, -50%); border:5px solid black"">","","","","","","","",""
"","1456.8600000056904","sequential-stimulus-presentation-old","122","364863","0.0-29.0-1.1","SS1619113880904","trial","","40","500","1956.8600000056904","images/stimuli/spore_stims/simple_19_A_b.gif","images/stimuli/spore_stims/simple_18_A_a.gif","forced_short","","10","simple_dissimilar","images/stimuli/spore_stims/simple_18_A_a.gif","","","","",""
"","null","html-keyboard-response","123","365845","0.0-29.0-0.2","SS1619113880904","","","null","","","","","","<p><img src= images/blank.png width =""600"" height = ""600"" style=""position:fixed;top:50%; left:50%; transform: translate(-50%, -50%); border:5px solid black"">","","","","","","","",""
"","617.2250000090571","sequential-stimulus-presentation-old","124","366967","0.0-29.0-1.2","SS1619113880904","trial","","40","500","1117.225000009057","images/stimuli/spore_stims/simple_19_A_b.gif","images/stimuli/spore_stims/simple_18_A_a.gif","forced_short","","10","simple_dissimilar","images/stimuli/spore_stims/simple_18_A_a.gif","","","","",""
"","null","html-keyboard-response","125","367778","0.0-29.0-0.3","SS1619113880904","","","null","","","","","","<p><img src= images/blank.png width =""600"" height = ""600"" style=""position:fixed;top:50%; left:50%; transform: translate(-50%, -50%); border:5px solid black"">","","","","","","","",""
"","1282.5750000047265","sequential-stimulus-presentation-old","126","369570","0.0-29.0-1.3","SS1619113880904","trial","","40","500","1782.5750000047265","images/stimuli/spore_stims/simple_19_A_b.gif","images/stimuli/spore_stims/simple_18_A_a.gif","forced_short","","10","simple_dissimilar","images/stimuli/spore_stims/simple_18_A_a.gif","","","","",""
"","null","html-keyboard-response","127","370599","0.0-29.0-0.4","SS1619113880904","","","null","","","","","","<p><img src= images/blank.png width =""600"" height = ""600"" style=""position:fixed;top:50%; left:50%; transform: translate(-50%, -50%); border:5px solid black"">","","","","","","","",""
"","1639.020000002347","sequential-stimulus-presentation-old","128","372743","0.0-29.0-1.4","SS1619113880904","trial","","40","500","2139.020000002347","images/stimuli/spore_stims/simple_19_A_b.gif","images/stimuli/spore_stims/simple_18_A_a.gif","forced_short","","10","simple_dissimilar","images/stimuli/spore_stims/simple_19_A_b.gif","","","","",""
"","null","html-keyboard-response","129","373931","0.0-29.0-0.5","SS1619113880904","","","null","","","","","","<p><img src= images/blank.png width =""600"" height = ""600"" style=""position:fixed;top:50%; left:50%; transform: translate(-50%, -50%); border:5px solid black"">","","","","","","","",""
"","269.7700000135228","sequential-stimulus-presentation-old","130","374711","0.0-29.0-1.5","SS1619113880904","trial","","40","500","769.7700000135228","images/stimuli/spore_stims/simple_19_A_b.gif","images/stimuli/spore_stims/simple_18_A_a.gif","forced_short","","10","simple_dissimilar","images/stimuli/spore_stims/simple_19_A_b.gif","","","","",""
"","2537.190000002738","survey-multi-choice","131","377251","0.0-30.0","SS1619113880904","math_question","","","","","","","","","","","","{""Q0"":""9""}","[0]","9","",""
"","null","html-keyboard-response","132","378142","0.0-31.0-0.0","SS1619113880904","","","null","","","","","","<p><img src= images/blank.png width =""600"" height = ""600"" style=""position:fixed;top:50%; left:50%; transform: translate(-50%, -50%); border:5px solid black"">","","","","","","","",""
"","949.0999999979977","sequential-stimulus-presentation-old","133","379200","0.0-31.0-1.0","SS1619113880904","trial","","40","500","1449.0999999979977","images/stimuli/spore_stims/simple_18_A_b.gif","images/stimuli/spore_stims/simple_09_A_a.gif","forced_short","","11","simple_dissimilar","images/stimuli/spore_stims/simple_09_A_a.gif","","","","",""
"","null","html-keyboard-response","134","380299","0.0-31.0-0.1","SS1619113880904","","","null","","","","","","<p><img src= images/blank.png width =""600"" height = ""600"" style=""position:fixed;top:50%; left:50%; transform: translate(-50%, -50%); border:5px solid black"">","","","","","","","",""
"","1541.5999999968335","sequential-stimulus-presentation-old","135","382346","0.0-31.0-1.1","SS1619113880904","trial","","40","500","2041.5999999968335","images/stimuli/spore_stims/simple_18_A_b.gif","images/stimuli/spore_stims/simple_09_A_a.gif","forced_short","","11","simple_dissimilar","images/stimuli/spore_stims/simple_09_A_a.gif","","","","",""
"","null","html-keyboard-response","136","383243","0.0-31.0-0.2","SS1619113880904","","","null","","","","","","<p><img src= images/blank.png width =""600"" height = ""600"" style=""position:fixed;top:50%; left:50%; transform: translate(-50%, -50%); border:5px solid black"">","","","","","","","",""
"","312.89499999547843","sequential-stimulus-presentation-old","137","384064","0.0-31.0-1.2","SS1619113880904","trial","","40","500","812.8949999954784","images/stimuli/spore_stims/simple_18_A_b.gif","images/stimuli/spore_stims/simple_09_A_a.gif","forced_short","","11","simple_dissimilar","images/stimuli/spore_stims/simple_09_A_a.gif","","","","",""
"","null","html-keyboard-response","138","385246","0.0-31.0-0.3","SS1619113880904","","","null","","","","","","<p><img src= images/blank.png width =""600"" height = ""600"" style=""position:fixed;top:50%; left:50%; transform: translate(-50%, -50%); border:5px solid black"">","","","","","","","",""
"","269.33999999891967","sequential-stimulus-presentation-old","139","386023","0.0-31.0-1.3","SS1619113880904","trial","","40","500","769.3399999989197","images/stimuli/spore_stims/simple_18_A_b.gif","images/stimuli/spore_stims/simple_09_A_a.gif","forced_short","","11","simple_dissimilar","images/stimuli/spore_stims/simple_09_A_a.gif","","","","",""
"[{""page_index"":0,""viewing_time"":2791.1949999979697}]","2791.465000002063","instructions","140","388817","0.0-32.0","SS1619113880904","instructions","","","","","","","","","","","","","","","",""
"","6466.860000000452","survey-likert","141","395288","0.0-33.0","SS1619113880904","similarity_question","","","","","","","","","","","","{""Q0"":4}","[0]","","images/stimuli/spore_stims/simple_09_A_a.gif","images/stimuli/spore_stims/simple_18_A_b.gif"
"","5438.340000007884","survey-likert","142","400734","0.0-34.0","SS1619113880904","similarity_question","","","","","","","","","","","","{""Q0"":5}","[0]","","images/stimuli/spore_stims/complex_16_A_b.gif","images/stimuli/spore_stims/complex_07_A_a.gif"
"","5151.949999999488","survey-likert","143","405890","0.0-35.0","SS1619113880904","similarity_question","","","","","","","","","","","","{""Q0"":2}","[0]","","images/stimuli/spore_stims/complex_17_A_a.gif","images/stimuli/spore_stims/complex_10_A_b.gif"
"","3574.884999994538","survey-likert","144","409468","0.0-36.0","SS1619113880904","similarity_question","","","","","","","","","","","","{""Q0"":5}","[0]","","images/stimuli/spore_stims/complex_09_A_b.gif","images/stimuli/spore_stims/complex_18_A_a.gif"
"","6488.865000006626","survey-likert","145","415961","0.0-37.0","SS1619113880904","similarity_question","","","","","","","","","","","","{""Q0"":3}","[0]","","images/stimuli/spore_stims/complex_02_A_a.gif","images/stimuli/spore_stims/complex_14_A_b.gif"
"","3227.215000006254","survey-likert","146","419192","0.0-38.0","SS1619113880904","similarity_question","","","","","","","","","","","","{""Q0"":6}","[0]","","images/stimuli/spore_stims/simple_08_A_a.gif","images/stimuli/spore_stims/simple_02_A_b.gif"
"","3466.3949999958277","survey-likert","147","422662","0.0-39.0","SS1619113880904","similarity_question","","","","","","","","","","","","{""Q0"":5}","[0]","","images/stimuli/spore_stims/simple_17_A_b.gif","images/stimuli/spore_stims/simple_04_A_a.gif"
"","2705.649999988964","survey-likert","148","425372","0.0-40.0","SS1619113880904","similarity_question","","","","","","","","","","","","{""Q0"":5}","[0]","","images/stimuli/spore_stims/simple_15_A_a.gif","images/stimuli/spore_stims/simple_05_A_b.gif"
"","3439.939999996568","survey-likert","149","428815","0.0-41.0","SS1619113880904","similarity_question","","","","","","","","","","","","{""Q0"":5}","[0]","","images/stimuli/spore_stims/simple_15_A_b.gif","images/stimuli/spore_stims/simple_14_A_a.gif"
"","6185.039999996661","survey-likert","150","435004","0.0-42.0","SS1619113880904","similarity_question","","","","","","","","","","","","{""Q0"":2}","[0]","","images/stimuli/spore_stims/complex_17_A_b.gif","images/stimuli/spore_stims/complex_08_A_a.gif"
"","3533.100000000559","survey-likert","151","438541","0.0-43.0","SS1619113880904","similarity_question","","","","","","","","","","","","{""Q0"":3}","[0]","","images/stimuli/spore_stims/simple_18_A_a.gif","images/stimuli/spore_stims/simple_19_A_b.gif"
"","4953.045000002021","survey-likert","152","443497","0.0-44.0","SS1619113880904","similarity_question","","","","","","","","","","","","{""Q0"":4}","[0]","","images/stimuli/spore_stims/complex_13_A_a.gif","images/stimuli/spore_stims/complex_06_A_b.gif"
"[{""page_index"":0,""viewing_time"":2394.975000002887}]","2395.235000003595","instructions","153","445903","0.0-45.0","SS1619113880904","instructions","","","","","","","","","","","","","","","",""
"","3460.9899999923073","survey-likert","154","449367","0.0-46.0","SS1619113880904","","","","","","","","","images/stimuli/spore_stims/simple_18_A_b.gif","","","","{""Q0"":1}","[0]","","",""
"","3215.9800000081304","survey-likert","155","452588","0.0-47.0","SS1619113880904","","","","","","","","","images/stimuli/spore_stims/complex_02_A_a.gif","","","","{""Q0"":5}","[0]","","",""
"","3619.5450000086566","survey-likert","156","456211","0.0-48.0","SS1619113880904","","","","","","","","","images/stimuli/spore_stims/complex_09_A_b.gif","","","","{""Q0"":6}","[0]","","",""
"","4181.410000004689","survey-likert","157","460397","0.0-49.0","SS1619113880904","","","","","","","","","images/stimuli/spore_stims/complex_13_A_a.gif","","","","{""Q0"":6}","[0]","","",""
"","2267.619999998715","survey-likert","158","462668","0.0-50.0","SS1619113880904","","","","","","","","","images/stimuli/spore_stims/simple_19_A_b.gif","","","","{""Q0"":3}","[0]","","",""
"","4800.344999996014","survey-likert","159","467472","0.0-51.0","SS1619113880904","","","","","","","","","images/stimuli/spore_stims/complex_08_A_a.gif","","","","{""Q0"":4}","[0]","","",""
"","3109.1400000004796","survey-likert","160","470590","0.0-52.0","SS1619113880904","","","","","","","","","images/stimuli/spore_stims/simple_17_A_b.gif","","","","{""Q0"":1}","[0]","","",""
"","2346.5199999918696","survey-likert","161","472940","0.0-53.0","SS1619113880904","","","","","","","","","images/stimuli/spore_stims/simple_08_A_a.gif","","","","{""Q0"":0}","[0]","","",""
"","3656.635000006645","survey-likert","162","476601","0.0-54.0","SS1619113880904","","","","","","","","","images/stimuli/spore_stims/complex_17_A_a.gif","","","","{""Q0"":6}","[0]","","",""
"","3432.1950000012293","survey-likert","163","480038","0.0-55.0","SS1619113880904","","","","","","","","","images/stimuli/spore_stims/simple_05_A_b.gif","","","","{""Q0"":1}","[0]","","",""
"","2370.230000000447","survey-likert","164","482412","0.0-56.0","SS1619113880904","","","","","","","","","images/stimuli/spore_stims/complex_16_A_b.gif","","","","{""Q0"":6}","[0]","","",""
"","3725.8749999891734","survey-likert","165","486142","0.0-57.0","SS1619113880904","","","","","","","","","images/stimuli/spore_stims/simple_15_A_b.gif","","","","{""Q0"":1}","[0]","","",""
"[{""page_index"":0,""viewing_time"":1658.7900000013178}]","1659.0649999998277","instructions","166","487804","0.0-58.0","SS1619113880904","instructions","","","","","","","","","","","","","","","",""
"","4133.099999991828","demog-age","167","491942","0.0-59.0","SS1619113880904","","","","","","","","","","","","","{""age"":""45""}","","","",""
"","2950.1000000018394","demog-ethnic-US","168","494899","0.0-60.0","SS1619113880904","","","","","","","","","","","","","{""ethnicity"":[""White""]}","[0]","","",""
"","6483.684999999241","demog-gender-and-education","169","501387","0.0-61.0","SS1619113880904","","","","","","","","","","","","","{""gender"":""Male"",""education"":""Bachelor's Degree""}","[0,1]","","",""
"","27760.989999995218","survey-text","170","529154","0.0-62.0","SS1619113880904","feedback","","","","","","","","","","","","{""Q0"":""It wasn't laggy but it was pixely.""}","","","",""
"[{""page_index"":0,""viewing_time"":1927.49499999627}]","1927.7250000013737","instructions","171","531085","0.0-63.0","SS1619113880904","instructions","","","","","","","","","","","","","","","",""
