"view_history","rt","trial_type","trial_index","time_elapsed","internal_node_id","subject","stimulus_type","trial_stimulus","key_press","minimum_viewing_duration","trial_looking_time","block_deviant","block_background","exposure_type","stimulus","block_number","block_type","stimulus_displayed","responses","question_order","math_correct_answer","stimulus_left","stimulus_right"
"[{""page_index"":0,""viewing_time"":2731.8149999991874}]","2734.0000000003783","instructions","0","2749","0.0-0.0","SS1619115768332","","","","","","","","","","","","","","","","",""
"[{""page_index"":0,""viewing_time"":3187.244999999166},{""page_index"":1,""viewing_time"":2043.9949999999953}]","5232.159999999567","instructions","1","9990","0.0-1.0","SS1619115768332","instructions","","","","","","","","","","","","","","","",""
"","2319.6900000002643","sequential-stimulus-presentation-old","2","12861","0.0-2.0","SS1619115768332","","","40","500","2819.6900000002643","null","null","self_paced","","","","","","","","",""
"","768.3450000004086","sequential-stimulus-presentation-old","3","14142","0.0-3.0","SS1619115768332","","","40","500","1268.3450000004086","null","null","self_paced","","","","","","","","",""
"[{""page_index"":0,""viewing_time"":3447.3399999988033}]","3448.3650000001944","instructions","4","17593","0.0-4.0","SS1619115768332","instructions","","","","","","","","","","","","","","","",""
"","355.79000000143424","sequential-stimulus-presentation-old","5","27961","0.0-5.0","SS1619115768332","","","40","500","855.7900000014342","null","null","forced_long","","","","","","","","",""
"","1307.490000001053","sequential-stimulus-presentation-old","6","29390","0.0-6.0","SS1619115768332","","","40","500","1807.490000001053","null","null","forced_long","","","","","","","","",""
"[{""page_index"":0,""viewing_time"":1612.859999999273}]","1613.8350000001083","instructions","7","31016","0.0-7.0","SS1619115768332","instructions","","","","","","","","","","","","","","","",""
"[{""page_index"":0,""viewing_time"":2911.969999999201},{""page_index"":1,""viewing_time"":2227.950000000419},{""page_index"":2,""viewing_time"":1413.6300000009214},{""page_index"":3,""viewing_time"":730.6849999986298},{""page_index"":4,""viewing_time"":629.2050000010931}]","7914.36000000067","instructions","8","38936","0.0-8.0","SS1619115768332","instructions","","","","","","","","","","","","","","","",""
"","null","html-keyboard-response","9","39964","0.0-9.0-0.0","SS1619115768332","","","null","","","","","","<p><img src= images/blank.png width =""600"" height = ""600"" style=""position:fixed;top:50%; left:50%; transform: translate(-50%, -50%); border:5px solid black"">","","","","","","","",""
"","360.7900000006339","sequential-stimulus-presentation-old","10","40441","0.0-9.0-1.0","SS1619115768332","trial","","40","500","860.7900000006339","images/stimuli/spore_stims/complex_13_A_a.gif","images/stimuli/spore_stims/complex_19_A_b.gif","forced_short","","0","complex_dissimilar","images/stimuli/spore_stims/complex_19_A_b.gif","","","","",""
"","null","html-keyboard-response","11","41400","0.0-9.0-0.1","SS1619115768332","","","null","","","","","","<p><img src= images/blank.png width =""600"" height = ""600"" style=""position:fixed;top:50%; left:50%; transform: translate(-50%, -50%); border:5px solid black"">","","","","","","","",""
"","13168.564999999944","sequential-stimulus-presentation-old","12","55076","0.0-9.0-1.1","SS1619115768332","trial","","40","500","13668.564999999944","images/stimuli/spore_stims/complex_13_A_a.gif","images/stimuli/spore_stims/complex_19_A_b.gif","forced_short","","0","complex_dissimilar","images/stimuli/spore_stims/complex_13_A_a.gif","","","","",""
"","null","html-keyboard-response","13","56240","0.0-9.0-0.2","SS1619115768332","","","null","","","","","","<p><img src= images/blank.png width =""600"" height = ""600"" style=""position:fixed;top:50%; left:50%; transform: translate(-50%, -50%); border:5px solid black"">","","","","","","","",""
"","1923.6650000002555","sequential-stimulus-presentation-old","14","58673","0.0-9.0-1.2","SS1619115768332","trial","","40","500","2423.6650000002555","images/stimuli/spore_stims/complex_13_A_a.gif","images/stimuli/spore_stims/complex_19_A_b.gif","forced_short","","0","complex_dissimilar","images/stimuli/spore_stims/complex_19_A_b.gif","","","","",""
"","null","html-keyboard-response","15","59670","0.0-9.0-0.3","SS1619115768332","","","null","","","","","","<p><img src= images/blank.png width =""600"" height = ""600"" style=""position:fixed;top:50%; left:50%; transform: translate(-50%, -50%); border:5px solid black"">","","","","","","","",""
"","1536.710000000312","sequential-stimulus-presentation-old","16","61721","0.0-9.0-1.3","SS1619115768332","trial","","40","500","2036.710000000312","images/stimuli/spore_stims/complex_13_A_a.gif","images/stimuli/spore_stims/complex_19_A_b.gif","forced_short","","0","complex_dissimilar","images/stimuli/spore_stims/complex_19_A_b.gif","","","","",""
"","null","html-keyboard-response","17","62713","0.0-9.0-0.4","SS1619115768332","","","null","","","","","","<p><img src= images/blank.png width =""600"" height = ""600"" style=""position:fixed;top:50%; left:50%; transform: translate(-50%, -50%); border:5px solid black"">","","","","","","","",""
"","2601.5150000002905","sequential-stimulus-presentation-old","18","65820","0.0-9.0-1.4","SS1619115768332","trial","","40","500","3101.5150000002905","images/stimuli/spore_stims/complex_13_A_a.gif","images/stimuli/spore_stims/complex_19_A_b.gif","forced_short","","0","complex_dissimilar","images/stimuli/spore_stims/complex_13_A_a.gif","","","","",""
"","2118.6649999999645","survey-multi-choice","19","67981","0.0-10.0","SS1619115768332","math_question","","","","","","","","","","","","{""Q0"":""6""}","[0]","6","",""
"","null","html-keyboard-response","20","68909","0.0-11.0-0.0","SS1619115768332","","","null","","","","","","<p><img src= images/blank.png width =""600"" height = ""600"" style=""position:fixed;top:50%; left:50%; transform: translate(-50%, -50%); border:5px solid black"">","","","","","","","",""
"","340.28500000022177","sequential-stimulus-presentation-old","21","79256","0.0-11.0-1.0","SS1619115768332","trial","","40","500","840.2850000002218","images/stimuli/spore_stims/complex_09_A_b.gif","images/stimuli/spore_stims/complex_11_A_a.gif","forced_long","","1","complex_dissimilar","images/stimuli/spore_stims/complex_11_A_a.gif","","","","",""
"","null","html-keyboard-response","22","80266","0.0-11.0-0.1","SS1619115768332","","","null","","","","","","<p><img src= images/blank.png width =""600"" height = ""600"" style=""position:fixed;top:50%; left:50%; transform: translate(-50%, -50%); border:5px solid black"">","","","","","","","",""
"","120.95500000032189","sequential-stimulus-presentation-old","23","80899","0.0-11.0-1.1","SS1619115768332","trial","","40","500","620.9550000003219","images/stimuli/spore_stims/complex_09_A_b.gif","images/stimuli/spore_stims/complex_11_A_a.gif","forced_long","","1","complex_dissimilar","images/stimuli/spore_stims/complex_11_A_a.gif","","","","",""
"","null","html-keyboard-response","24","81759","0.0-11.0-0.2","SS1619115768332","","","null","","","","","","<p><img src= images/blank.png width =""600"" height = ""600"" style=""position:fixed;top:50%; left:50%; transform: translate(-50%, -50%); border:5px solid black"">","","","","","","","",""
"","633.6100000007718","sequential-stimulus-presentation-old","25","82901","0.0-11.0-1.2","SS1619115768332","trial","","40","500","1133.6100000007718","images/stimuli/spore_stims/complex_09_A_b.gif","images/stimuli/spore_stims/complex_11_A_a.gif","forced_long","","1","complex_dissimilar","images/stimuli/spore_stims/complex_09_A_b.gif","","","","",""
"","null","html-keyboard-response","26","83748","0.0-11.0-0.3","SS1619115768332","","","null","","","","","","<p><img src= images/blank.png width =""600"" height = ""600"" style=""position:fixed;top:50%; left:50%; transform: translate(-50%, -50%); border:5px solid black"">","","","","","","","",""
"","560.5749999995169","sequential-stimulus-presentation-old","27","84820","0.0-11.0-1.3","SS1619115768332","trial","","40","500","1060.5749999995169","images/stimuli/spore_stims/complex_09_A_b.gif","images/stimuli/spore_stims/complex_11_A_a.gif","forced_long","","1","complex_dissimilar","images/stimuli/spore_stims/complex_11_A_a.gif","","","","",""
"","2224.0899999997055","survey-multi-choice","28","87049","0.0-12.0","SS1619115768332","math_question","","","","","","","","","","","","{""Q0"":""16""}","[0]","16","",""
"","null","html-keyboard-response","29","87943","0.0-13.0-0.0","SS1619115768332","","","null","","","","","","<p><img src= images/blank.png width =""600"" height = ""600"" style=""position:fixed;top:50%; left:50%; transform: translate(-50%, -50%); border:5px solid black"">","","","","","","","",""
"","422.85500000070897","sequential-stimulus-presentation-old","30","88474","0.0-13.0-1.0","SS1619115768332","trial","","40","500","922.855000000709","images/stimuli/spore_stims/simple_12_A_b.gif","images/stimuli/spore_stims/simple_05_A_a.gif","forced_short","","2","simple_dissimilar","images/stimuli/spore_stims/simple_05_A_a.gif","","","","",""
"","null","html-keyboard-response","31","89683","0.0-13.0-0.1","SS1619115768332","","","null","","","","","","<p><img src= images/blank.png width =""600"" height = ""600"" style=""position:fixed;top:50%; left:50%; transform: translate(-50%, -50%); border:5px solid black"">","","","","","","","",""
"","495.3900000000431","sequential-stimulus-presentation-old","32","90697","0.0-13.0-1.1","SS1619115768332","trial","","40","500","995.3900000000431","images/stimuli/spore_stims/simple_12_A_b.gif","images/stimuli/spore_stims/simple_05_A_a.gif","forced_short","","2","simple_dissimilar","images/stimuli/spore_stims/simple_05_A_a.gif","","","","",""
"","null","html-keyboard-response","33","91991","0.0-13.0-0.2","SS1619115768332","","","null","","","","","","<p><img src= images/blank.png width =""600"" height = ""600"" style=""position:fixed;top:50%; left:50%; transform: translate(-50%, -50%); border:5px solid black"">","","","","","","","",""
"","1680.2049999987503","sequential-stimulus-presentation-old","34","94176","0.0-13.0-1.2","SS1619115768332","trial","","40","500","2180.2049999987503","images/stimuli/spore_stims/simple_12_A_b.gif","images/stimuli/spore_stims/simple_05_A_a.gif","forced_short","","2","simple_dissimilar","images/stimuli/spore_stims/simple_05_A_a.gif","","","","",""
"","null","html-keyboard-response","35","95231","0.0-13.0-0.3","SS1619115768332","","","null","","","","","","<p><img src= images/blank.png width =""600"" height = ""600"" style=""position:fixed;top:50%; left:50%; transform: translate(-50%, -50%); border:5px solid black"">","","","","","","","",""
"","1249.2500000007567","sequential-stimulus-presentation-old","36","96993","0.0-13.0-1.3","SS1619115768332","trial","","40","500","1749.2500000007567","images/stimuli/spore_stims/simple_12_A_b.gif","images/stimuli/spore_stims/simple_05_A_a.gif","forced_short","","2","simple_dissimilar","images/stimuli/spore_stims/simple_12_A_b.gif","","","","",""
"","null","html-keyboard-response","37","98259","0.0-13.0-0.4","SS1619115768332","","","null","","","","","","<p><img src= images/blank.png width =""600"" height = ""600"" style=""position:fixed;top:50%; left:50%; transform: translate(-50%, -50%); border:5px solid black"">","","","","","","","",""
"","967.5799999986339","sequential-stimulus-presentation-old","38","99735","0.0-13.0-1.4","SS1619115768332","trial","","40","500","1467.5799999986339","images/stimuli/spore_stims/simple_12_A_b.gif","images/stimuli/spore_stims/simple_05_A_a.gif","forced_short","","2","simple_dissimilar","images/stimuli/spore_stims/simple_05_A_a.gif","","","","",""
"","null","html-keyboard-response","39","101043","0.0-13.0-0.5","SS1619115768332","","","null","","","","","","<p><img src= images/blank.png width =""600"" height = ""600"" style=""position:fixed;top:50%; left:50%; transform: translate(-50%, -50%); border:5px solid black"">","","","","","","","",""
"","162.29999999995925","sequential-stimulus-presentation-old","40","101710","0.0-13.0-1.5","SS1619115768332","trial","","40","500","662.2999999999593","images/stimuli/spore_stims/simple_12_A_b.gif","images/stimuli/spore_stims/simple_05_A_a.gif","forced_short","","2","simple_dissimilar","images/stimuli/spore_stims/simple_05_A_a.gif","","","","",""
"","1886.6049999996903","survey-multi-choice","41","103604","0.0-14.0","SS1619115768332","math_question","","","","","","","","","","","","{""Q0"":""11""}","[0]","11","",""
"","null","html-keyboard-response","42","104754","0.0-15.0-0.0","SS1619115768332","","","null","","","","","","<p><img src= images/blank.png width =""600"" height = ""600"" style=""position:fixed;top:50%; left:50%; transform: translate(-50%, -50%); border:5px solid black"">","","","","","","","",""
"","430.8849999997765","sequential-stimulus-presentation-old","43","115192","0.0-15.0-1.0","SS1619115768332","trial","","40","500","930.8849999997765","images/stimuli/spore_stims/complex_15_A_b.gif","images/stimuli/spore_stims/complex_07_A_a.gif","forced_long","","3","complex_dissimilar","images/stimuli/spore_stims/complex_07_A_a.gif","","","","",""
"","null","html-keyboard-response","44","116297","0.0-15.0-0.1","SS1619115768332","","","null","","","","","","<p><img src= images/blank.png width =""600"" height = ""600"" style=""position:fixed;top:50%; left:50%; transform: translate(-50%, -50%); border:5px solid black"">","","","","","","","",""
"","508.8599999998987","sequential-stimulus-presentation-old","45","117328","0.0-15.0-1.1","SS1619115768332","trial","","40","500","1008.8599999998987","images/stimuli/spore_stims/complex_15_A_b.gif","images/stimuli/spore_stims/complex_07_A_a.gif","forced_long","","3","complex_dissimilar","images/stimuli/spore_stims/complex_15_A_b.gif","","","","",""
"","null","html-keyboard-response","46","118309","0.0-15.0-0.2","SS1619115768332","","","null","","","","","","<p><img src= images/blank.png width =""600"" height = ""600"" style=""position:fixed;top:50%; left:50%; transform: translate(-50%, -50%); border:5px solid black"">","","","","","","","",""
"","4929.275000000402","sequential-stimulus-presentation-old","47","123745","0.0-15.0-1.2","SS1619115768332","trial","","40","500","5429.275000000402","images/stimuli/spore_stims/complex_15_A_b.gif","images/stimuli/spore_stims/complex_07_A_a.gif","forced_long","","3","complex_dissimilar","images/stimuli/spore_stims/complex_07_A_a.gif","","","","",""
"","null","html-keyboard-response","48","124567","0.0-15.0-0.3","SS1619115768332","","","null","","","","","","<p><img src= images/blank.png width =""600"" height = ""600"" style=""position:fixed;top:50%; left:50%; transform: translate(-50%, -50%); border:5px solid black"">","","","","","","","",""
"","79.86500000150409","sequential-stimulus-presentation-old","49","125160","0.0-15.0-1.3","SS1619115768332","trial","","40","500","579.8650000015041","images/stimuli/spore_stims/complex_15_A_b.gif","images/stimuli/spore_stims/complex_07_A_a.gif","forced_long","","3","complex_dissimilar","images/stimuli/spore_stims/complex_15_A_b.gif","","","","",""
"","null","html-keyboard-response","50","126266","0.0-15.0-0.4","SS1619115768332","","","null","","","","","","<p><img src= images/blank.png width =""600"" height = ""600"" style=""position:fixed;top:50%; left:50%; transform: translate(-50%, -50%); border:5px solid black"">","","","","","","","",""
"","650.7250000013446","sequential-stimulus-presentation-old","51","127422","0.0-15.0-1.4","SS1619115768332","trial","","40","500","1150.7250000013446","images/stimuli/spore_stims/complex_15_A_b.gif","images/stimuli/spore_stims/complex_07_A_a.gif","forced_long","","3","complex_dissimilar","images/stimuli/spore_stims/complex_07_A_a.gif","","","","",""
"","2291.504999999248","survey-multi-choice","52","129720","0.0-16.0","SS1619115768332","math_question","","","","","","","","","","","","{""Q0"":""7""}","[0]","7","",""
"","null","html-keyboard-response","53","130994","0.0-17.0-0.0","SS1619115768332","","","null","","","","","","<p><img src= images/blank.png width =""600"" height = ""600"" style=""position:fixed;top:50%; left:50%; transform: translate(-50%, -50%); border:5px solid black"">","","","","","","","",""
"","335.87499999883585","sequential-stimulus-presentation-old","54","141340","0.0-17.0-1.0","SS1619115768332","trial","","40","500","835.8749999988358","images/stimuli/spore_stims/simple_15_A_b.gif","images/stimuli/spore_stims/simple_10_A_a.gif","forced_long","","4","simple_dissimilar","images/stimuli/spore_stims/simple_10_A_a.gif","","","","",""
"","null","html-keyboard-response","55","142644","0.0-17.0-0.1","SS1619115768332","","","null","","","","","","<p><img src= images/blank.png width =""600"" height = ""600"" style=""position:fixed;top:50%; left:50%; transform: translate(-50%, -50%); border:5px solid black"">","","","","","","","",""
"","12989.95000000103","sequential-stimulus-presentation-old","56","156152","0.0-17.0-1.1","SS1619115768332","trial","","40","500","13489.95000000103","images/stimuli/spore_stims/simple_15_A_b.gif","images/stimuli/spore_stims/simple_10_A_a.gif","forced_long","","4","simple_dissimilar","images/stimuli/spore_stims/simple_10_A_a.gif","","","","",""
"","null","html-keyboard-response","57","157065","0.0-17.0-0.2","SS1619115768332","","","null","","","","","","<p><img src= images/blank.png width =""600"" height = ""600"" style=""position:fixed;top:50%; left:50%; transform: translate(-50%, -50%); border:5px solid black"">","","","","","","","",""
"","223.82500000094296","sequential-stimulus-presentation-old","58","157802","0.0-17.0-1.2","SS1619115768332","trial","","40","500","723.825000000943","images/stimuli/spore_stims/simple_15_A_b.gif","images/stimuli/spore_stims/simple_10_A_a.gif","forced_long","","4","simple_dissimilar","images/stimuli/spore_stims/simple_10_A_a.gif","","","","",""
"","null","html-keyboard-response","59","159034","0.0-17.0-0.3","SS1619115768332","","","null","","","","","","<p><img src= images/blank.png width =""600"" height = ""600"" style=""position:fixed;top:50%; left:50%; transform: translate(-50%, -50%); border:5px solid black"">","","","","","","","",""
"","318.769999999844","sequential-stimulus-presentation-old","60","159861","0.0-17.0-1.3","SS1619115768332","trial","","40","500","818.769999999844","images/stimuli/spore_stims/simple_15_A_b.gif","images/stimuli/spore_stims/simple_10_A_a.gif","forced_long","","4","simple_dissimilar","images/stimuli/spore_stims/simple_10_A_a.gif","","","","",""
"","2070.200000000099","survey-multi-choice","61","161950","0.0-18.0","SS1619115768332","math_question","","","","","","","","","","","","{""Q0"":""10""}","[0]","10","",""
"","null","html-keyboard-response","62","162958","0.0-19.0-0.0","SS1619115768332","","","null","","","","","","<p><img src= images/blank.png width =""600"" height = ""600"" style=""position:fixed;top:50%; left:50%; transform: translate(-50%, -50%); border:5px solid black"">","","","","","","","",""
"","380.1649999986694","sequential-stimulus-presentation-old","63","163450","0.0-19.0-1.0","SS1619115768332","trial","","40","500","880.1649999986694","images/stimuli/spore_stims/complex_10_A_b.gif","images/stimuli/spore_stims/complex_19_A_a.gif","forced_short","","5","complex_dissimilar","images/stimuli/spore_stims/complex_19_A_a.gif","","","","",""
"","null","html-keyboard-response","64","164382","0.0-19.0-0.1","SS1619115768332","","","null","","","","","","<p><img src= images/blank.png width =""600"" height = ""600"" style=""position:fixed;top:50%; left:50%; transform: translate(-50%, -50%); border:5px solid black"">","","","","","","","",""
"","426.72499999936554","sequential-stimulus-presentation-old","65","165346","0.0-19.0-1.1","SS1619115768332","trial","","40","500","926.7249999993655","images/stimuli/spore_stims/complex_10_A_b.gif","images/stimuli/spore_stims/complex_19_A_a.gif","forced_short","","5","complex_dissimilar","images/stimuli/spore_stims/complex_19_A_a.gif","","","","",""
"","null","html-keyboard-response","66","166304","0.0-19.0-0.2","SS1619115768332","","","null","","","","","","<p><img src= images/blank.png width =""600"" height = ""600"" style=""position:fixed;top:50%; left:50%; transform: translate(-50%, -50%); border:5px solid black"">","","","","","","","",""
"","1304.399999999092","sequential-stimulus-presentation-old","67","168120","0.0-19.0-1.2","SS1619115768332","trial","","40","500","1804.399999999092","images/stimuli/spore_stims/complex_10_A_b.gif","images/stimuli/spore_stims/complex_19_A_a.gif","forced_short","","5","complex_dissimilar","images/stimuli/spore_stims/complex_19_A_a.gif","","","","",""
"","null","html-keyboard-response","68","169081","0.0-19.0-0.3","SS1619115768332","","","null","","","","","","<p><img src= images/blank.png width =""600"" height = ""600"" style=""position:fixed;top:50%; left:50%; transform: translate(-50%, -50%); border:5px solid black"">","","","","","","","",""
"","1456.0500000006869","sequential-stimulus-presentation-old","69","171043","0.0-19.0-1.3","SS1619115768332","trial","","40","500","1956.0500000006869","images/stimuli/spore_stims/complex_10_A_b.gif","images/stimuli/spore_stims/complex_19_A_a.gif","forced_short","","5","complex_dissimilar","images/stimuli/spore_stims/complex_10_A_b.gif","","","","",""
"","2050.1299999996263","survey-multi-choice","70","173107","0.0-20.0","SS1619115768332","math_question","","","","","","","","","","","","{""Q0"":""12""}","[0]","12","",""
"","null","html-keyboard-response","71","174211","0.0-21.0-0.0","SS1619115768332","","","null","","","","","","<p><img src= images/blank.png width =""600"" height = ""600"" style=""position:fixed;top:50%; left:50%; transform: translate(-50%, -50%); border:5px solid black"">","","","","","","","",""
"","1960.5100000007951","sequential-stimulus-presentation-old","72","176684","0.0-21.0-1.0","SS1619115768332","trial","","40","500","2460.510000000795","images/stimuli/spore_stims/complex_10_A_a.gif","images/stimuli/spore_stims/complex_08_A_b.gif","self_paced","","6","complex_dissimilar","images/stimuli/spore_stims/complex_08_A_b.gif","","","","",""
"","null","html-keyboard-response","73","177683","0.0-21.0-0.1","SS1619115768332","","","null","","","","","","<p><img src= images/blank.png width =""600"" height = ""600"" style=""position:fixed;top:50%; left:50%; transform: translate(-50%, -50%); border:5px solid black"">","","","","","","","",""
"","511.46000000153435","sequential-stimulus-presentation-old","74","178708","0.0-21.0-1.1","SS1619115768332","trial","","40","500","1011.4600000015344","images/stimuli/spore_stims/complex_10_A_a.gif","images/stimuli/spore_stims/complex_08_A_b.gif","self_paced","","6","complex_dissimilar","images/stimuli/spore_stims/complex_08_A_b.gif","","","","",""
"","null","html-keyboard-response","75","180035","0.0-21.0-0.2","SS1619115768332","","","null","","","","","","<p><img src= images/blank.png width =""600"" height = ""600"" style=""position:fixed;top:50%; left:50%; transform: translate(-50%, -50%); border:5px solid black"">","","","","","","","",""
"","1361.9149999994843","sequential-stimulus-presentation-old","76","181907","0.0-21.0-1.2","SS1619115768332","trial","","40","500","1861.9149999994843","images/stimuli/spore_stims/complex_10_A_a.gif","images/stimuli/spore_stims/complex_08_A_b.gif","self_paced","","6","complex_dissimilar","images/stimuli/spore_stims/complex_10_A_a.gif","","","","",""
"","null","html-keyboard-response","77","183216","0.0-21.0-0.3","SS1619115768332","","","null","","","","","","<p><img src= images/blank.png width =""600"" height = ""600"" style=""position:fixed;top:50%; left:50%; transform: translate(-50%, -50%); border:5px solid black"">","","","","","","","",""
"","2479.475000000093","sequential-stimulus-presentation-old","78","186213","0.0-21.0-1.3","SS1619115768332","trial","","40","500","2979.475000000093","images/stimuli/spore_stims/complex_10_A_a.gif","images/stimuli/spore_stims/complex_08_A_b.gif","self_paced","","6","complex_dissimilar","images/stimuli/spore_stims/complex_08_A_b.gif","","","","",""
"","null","html-keyboard-response","79","187161","0.0-21.0-0.4","SS1619115768332","","","null","","","","","","<p><img src= images/blank.png width =""600"" height = ""600"" style=""position:fixed;top:50%; left:50%; transform: translate(-50%, -50%); border:5px solid black"">","","","","","","","",""
"","2709.770000001299","sequential-stimulus-presentation-old","80","190385","0.0-21.0-1.4","SS1619115768332","trial","","40","500","3209.770000001299","images/stimuli/spore_stims/complex_10_A_a.gif","images/stimuli/spore_stims/complex_08_A_b.gif","self_paced","","6","complex_dissimilar","images/stimuli/spore_stims/complex_10_A_a.gif","","","","",""
"","null","html-keyboard-response","81","191294","0.0-21.0-0.5","SS1619115768332","","","null","","","","","","<p><img src= images/blank.png width =""600"" height = ""600"" style=""position:fixed;top:50%; left:50%; transform: translate(-50%, -50%); border:5px solid black"">","","","","","","","",""
"","2266.11000000051","sequential-stimulus-presentation-old","82","194079","0.0-21.0-1.5","SS1619115768332","trial","","40","500","2766.11000000051","images/stimuli/spore_stims/complex_10_A_a.gif","images/stimuli/spore_stims/complex_08_A_b.gif","self_paced","","6","complex_dissimilar","images/stimuli/spore_stims/complex_08_A_b.gif","","","","",""
"","3185.7049999998417","survey-multi-choice","83","197273","0.0-22.0","SS1619115768332","math_question","","","","","","","","","","","","{""Q0"":""13""}","[0]","13","",""
"","null","html-keyboard-response","84","198474","0.0-23.0-0.0","SS1619115768332","","","null","","","","","","<p><img src= images/blank.png width =""600"" height = ""600"" style=""position:fixed;top:50%; left:50%; transform: translate(-50%, -50%); border:5px solid black"">","","","","","","","",""
"","867.8049999998766","sequential-stimulus-presentation-old","85","199459","0.0-23.0-1.0","SS1619115768332","trial","","40","500","1367.8049999998766","images/stimuli/spore_stims/simple_17_A_b.gif","images/stimuli/spore_stims/simple_13_A_a.gif","forced_short","","7","simple_dissimilar","images/stimuli/spore_stims/simple_13_A_a.gif","","","","",""
"","null","html-keyboard-response","86","200321","0.0-23.0-0.1","SS1619115768332","","","null","","","","","","<p><img src= images/blank.png width =""600"" height = ""600"" style=""position:fixed;top:50%; left:50%; transform: translate(-50%, -50%); border:5px solid black"">","","","","","","","",""
"","1211.1549999990384","sequential-stimulus-presentation-old","87","202043","0.0-23.0-1.1","SS1619115768332","trial","","40","500","1711.1549999990384","images/stimuli/spore_stims/simple_17_A_b.gif","images/stimuli/spore_stims/simple_13_A_a.gif","forced_short","","7","simple_dissimilar","images/stimuli/spore_stims/simple_13_A_a.gif","","","","",""
"","null","html-keyboard-response","88","203331","0.0-23.0-0.2","SS1619115768332","","","null","","","","","","<p><img src= images/blank.png width =""600"" height = ""600"" style=""position:fixed;top:50%; left:50%; transform: translate(-50%, -50%); border:5px solid black"">","","","","","","","",""
"","870.7250000006752","sequential-stimulus-presentation-old","89","204750","0.0-23.0-1.2","SS1619115768332","trial","","40","500","1370.7250000006752","images/stimuli/spore_stims/simple_17_A_b.gif","images/stimuli/spore_stims/simple_13_A_a.gif","forced_short","","7","simple_dissimilar","images/stimuli/spore_stims/simple_13_A_a.gif","","","","",""
"","null","html-keyboard-response","90","205976","0.0-23.0-0.3","SS1619115768332","","","null","","","","","","<p><img src= images/blank.png width =""600"" height = ""600"" style=""position:fixed;top:50%; left:50%; transform: translate(-50%, -50%); border:5px solid black"">","","","","","","","",""
"","298.57500000071013","sequential-stimulus-presentation-old","91","206782","0.0-23.0-1.3","SS1619115768332","trial","","40","500","798.5750000007101","images/stimuli/spore_stims/simple_17_A_b.gif","images/stimuli/spore_stims/simple_13_A_a.gif","forced_short","","7","simple_dissimilar","images/stimuli/spore_stims/simple_13_A_a.gif","","","","",""
"","1969.7500000002037","survey-multi-choice","92","208773","0.0-24.0","SS1619115768332","math_question","","","","","","","","","","","","{""Q0"":""11""}","[0]","11","",""
"","null","html-keyboard-response","93","210009","0.0-25.0-0.0","SS1619115768332","","","null","","","","","","<p><img src= images/blank.png width =""600"" height = ""600"" style=""position:fixed;top:50%; left:50%; transform: translate(-50%, -50%); border:5px solid black"">","","","","","","","",""
"","1170.7049999986484","sequential-stimulus-presentation-old","94","211689","0.0-25.0-1.0","SS1619115768332","trial","","40","500","1670.7049999986484","images/stimuli/spore_stims/complex_06_A_b.gif","images/stimuli/spore_stims/complex_08_A_a.gif","self_paced","","8","complex_dissimilar","images/stimuli/spore_stims/complex_08_A_a.gif","","","","",""
"","null","html-keyboard-response","95","212810","0.0-25.0-0.1","SS1619115768332","","","null","","","","","","<p><img src= images/blank.png width =""600"" height = ""600"" style=""position:fixed;top:50%; left:50%; transform: translate(-50%, -50%); border:5px solid black"">","","","","","","","",""
"","339.9399999998568","sequential-stimulus-presentation-old","96","213658","0.0-25.0-1.1","SS1619115768332","trial","","40","500","839.9399999998568","images/stimuli/spore_stims/complex_06_A_b.gif","images/stimuli/spore_stims/complex_08_A_a.gif","self_paced","","8","complex_dissimilar","images/stimuli/spore_stims/complex_08_A_a.gif","","","","",""
"","null","html-keyboard-response","97","214519","0.0-25.0-0.2","SS1619115768332","","","null","","","","","","<p><img src= images/blank.png width =""600"" height = ""600"" style=""position:fixed;top:50%; left:50%; transform: translate(-50%, -50%); border:5px solid black"">","","","","","","","",""
"","917.9700000004086","sequential-stimulus-presentation-old","98","215945","0.0-25.0-1.2","SS1619115768332","trial","","40","500","1417.9700000004086","images/stimuli/spore_stims/complex_06_A_b.gif","images/stimuli/spore_stims/complex_08_A_a.gif","self_paced","","8","complex_dissimilar","images/stimuli/spore_stims/complex_08_A_a.gif","","","","",""
"","null","html-keyboard-response","99","216955","0.0-25.0-0.3","SS1619115768332","","","null","","","","","","<p><img src= images/blank.png width =""600"" height = ""600"" style=""position:fixed;top:50%; left:50%; transform: translate(-50%, -50%); border:5px solid black"">","","","","","","","",""
"","2193.564999999595","sequential-stimulus-presentation-old","100","219663","0.0-25.0-1.3","SS1619115768332","trial","","40","500","2693.564999999595","images/stimuli/spore_stims/complex_06_A_b.gif","images/stimuli/spore_stims/complex_08_A_a.gif","self_paced","","8","complex_dissimilar","images/stimuli/spore_stims/complex_08_A_a.gif","","","","",""
"","null","html-keyboard-response","101","220757","0.0-25.0-0.4","SS1619115768332","","","null","","","","","","<p><img src= images/blank.png width =""600"" height = ""600"" style=""position:fixed;top:50%; left:50%; transform: translate(-50%, -50%); border:5px solid black"">","","","","","","","",""
"","1058.3900000001304","sequential-stimulus-presentation-old","102","222324","0.0-25.0-1.4","SS1619115768332","trial","","40","500","1558.3900000001304","images/stimuli/spore_stims/complex_06_A_b.gif","images/stimuli/spore_stims/complex_08_A_a.gif","self_paced","","8","complex_dissimilar","images/stimuli/spore_stims/complex_08_A_a.gif","","","","",""
"","null","html-keyboard-response","103","223520","0.0-25.0-0.5","SS1619115768332","","","null","","","","","","<p><img src= images/blank.png width =""600"" height = ""600"" style=""position:fixed;top:50%; left:50%; transform: translate(-50%, -50%); border:5px solid black"">","","","","","","","",""
"","541.7550000001793","sequential-stimulus-presentation-old","104","224579","0.0-25.0-1.5","SS1619115768332","trial","","40","500","1041.7550000001793","images/stimuli/spore_stims/complex_06_A_b.gif","images/stimuli/spore_stims/complex_08_A_a.gif","self_paced","","8","complex_dissimilar","images/stimuli/spore_stims/complex_08_A_a.gif","","","","",""
"","2411.6749999994063","survey-multi-choice","105","227008","0.0-26.0","SS1619115768332","math_question","","","","","","","","","","","","{""Q0"":""11""}","[0]","11","",""
"","null","html-keyboard-response","106","228142","0.0-27.0-0.0","SS1619115768332","","","null","","","","","","<p><img src= images/blank.png width =""600"" height = ""600"" style=""position:fixed;top:50%; left:50%; transform: translate(-50%, -50%); border:5px solid black"">","","","","","","","",""
"","1731.9400000014866","sequential-stimulus-presentation-old","107","231555","0.0-27.0-1.0","SS1619115768332","trial","","40","500","2231.9400000014866","images/stimuli/spore_stims/simple_11_A_a.gif","images/stimuli/spore_stims/simple_08_A_b.gif","self_paced","","9","simple_dissimilar","images/stimuli/spore_stims/simple_08_A_b.gif","","","","",""
"","null","html-keyboard-response","108","232717","0.0-27.0-0.1","SS1619115768332","","","null","","","","","","<p><img src= images/blank.png width =""600"" height = ""600"" style=""position:fixed;top:50%; left:50%; transform: translate(-50%, -50%); border:5px solid black"">","","","","","","","",""
"","59.250000000261934","sequential-stimulus-presentation-old","109","233296","0.0-27.0-1.1","SS1619115768332","trial","","40","500","559.2500000002619","images/stimuli/spore_stims/simple_11_A_a.gif","images/stimuli/spore_stims/simple_08_A_b.gif","self_paced","","9","simple_dissimilar","images/stimuli/spore_stims/simple_08_A_b.gif","","","","",""
"","null","html-keyboard-response","110","234603","0.0-27.0-0.2","SS1619115768332","","","null","","","","","","<p><img src= images/blank.png width =""600"" height = ""600"" style=""position:fixed;top:50%; left:50%; transform: translate(-50%, -50%); border:5px solid black"">","","","","","","","",""
"","962.4999999996217","sequential-stimulus-presentation-old","111","236072","0.0-27.0-1.2","SS1619115768332","trial","","40","500","1462.4999999996217","images/stimuli/spore_stims/simple_11_A_a.gif","images/stimuli/spore_stims/simple_08_A_b.gif","self_paced","","9","simple_dissimilar","images/stimuli/spore_stims/simple_08_A_b.gif","","","","",""
"","null","html-keyboard-response","112","237134","0.0-27.0-0.3","SS1619115768332","","","null","","","","","","<p><img src= images/blank.png width =""600"" height = ""600"" style=""position:fixed;top:50%; left:50%; transform: translate(-50%, -50%); border:5px solid black"">","","","","","","","",""
"","856.9250000000466","sequential-stimulus-presentation-old","113","238506","0.0-27.0-1.3","SS1619115768332","trial","","40","500","1356.9250000000466","images/stimuli/spore_stims/simple_11_A_a.gif","images/stimuli/spore_stims/simple_08_A_b.gif","self_paced","","9","simple_dissimilar","images/stimuli/spore_stims/simple_08_A_b.gif","","","","",""
"","null","html-keyboard-response","114","239724","0.0-27.0-0.4","SS1619115768332","","","null","","","","","","<p><img src= images/blank.png width =""600"" height = ""600"" style=""position:fixed;top:50%; left:50%; transform: translate(-50%, -50%); border:5px solid black"">","","","","","","","",""
"","290.6150000017078","sequential-stimulus-presentation-old","115","240522","0.0-27.0-1.4","SS1619115768332","trial","","40","500","790.6150000017078","images/stimuli/spore_stims/simple_11_A_a.gif","images/stimuli/spore_stims/simple_08_A_b.gif","self_paced","","9","simple_dissimilar","images/stimuli/spore_stims/simple_11_A_a.gif","","","","",""
"","2115.8599999998987","survey-multi-choice","116","242646","0.0-28.0","SS1619115768332","math_question","","","","","","","","","","","","{""Q0"":""10""}","[0]","10","",""
"","null","html-keyboard-response","117","243554","0.0-29.0-0.0","SS1619115768332","","","null","","","","","","<p><img src= images/blank.png width =""600"" height = ""600"" style=""position:fixed;top:50%; left:50%; transform: translate(-50%, -50%); border:5px solid black"">","","","","","","","",""
"","1265.2099999995553","sequential-stimulus-presentation-old","118","245330","0.0-29.0-1.0","SS1619115768332","trial","","40","500","1765.2099999995553","images/stimuli/spore_stims/simple_01_A_a.gif","images/stimuli/spore_stims/simple_18_A_b.gif","self_paced","","10","simple_dissimilar","images/stimuli/spore_stims/simple_18_A_b.gif","","","","",""
"","null","html-keyboard-response","119","246317","0.0-29.0-0.1","SS1619115768332","","","null","","","","","","<p><img src= images/blank.png width =""600"" height = ""600"" style=""position:fixed;top:50%; left:50%; transform: translate(-50%, -50%); border:5px solid black"">","","","","","","","",""
"","1007.9550000009476","sequential-stimulus-presentation-old","120","247839","0.0-29.0-1.1","SS1619115768332","trial","","40","500","1507.9550000009476","images/stimuli/spore_stims/simple_01_A_a.gif","images/stimuli/spore_stims/simple_18_A_b.gif","self_paced","","10","simple_dissimilar","images/stimuli/spore_stims/simple_18_A_b.gif","","","","",""
"","null","html-keyboard-response","121","248709","0.0-29.0-0.2","SS1619115768332","","","null","","","","","","<p><img src= images/blank.png width =""600"" height = ""600"" style=""position:fixed;top:50%; left:50%; transform: translate(-50%, -50%); border:5px solid black"">","","","","","","","",""
"","287.20500000054017","sequential-stimulus-presentation-old","122","249526","0.0-29.0-1.2","SS1619115768332","trial","","40","500","787.2050000005402","images/stimuli/spore_stims/simple_01_A_a.gif","images/stimuli/spore_stims/simple_18_A_b.gif","self_paced","","10","simple_dissimilar","images/stimuli/spore_stims/simple_18_A_b.gif","","","","",""
"","null","html-keyboard-response","123","250574","0.0-29.0-0.3","SS1619115768332","","","null","","","","","","<p><img src= images/blank.png width =""600"" height = ""600"" style=""position:fixed;top:50%; left:50%; transform: translate(-50%, -50%); border:5px solid black"">","","","","","","","",""
"","1128.6350000009406","sequential-stimulus-presentation-old","124","252221","0.0-29.0-1.3","SS1619115768332","trial","","40","500","1628.6350000009406","images/stimuli/spore_stims/simple_01_A_a.gif","images/stimuli/spore_stims/simple_18_A_b.gif","self_paced","","10","simple_dissimilar","images/stimuli/spore_stims/simple_01_A_a.gif","","","","",""
"","null","html-keyboard-response","125","253178","0.0-29.0-0.4","SS1619115768332","","","null","","","","","","<p><img src= images/blank.png width =""600"" height = ""600"" style=""position:fixed;top:50%; left:50%; transform: translate(-50%, -50%); border:5px solid black"">","","","","","","","",""
"","205.4649999991525","sequential-stimulus-presentation-old","126","253894","0.0-29.0-1.4","SS1619115768332","trial","","40","500","705.4649999991525","images/stimuli/spore_stims/simple_01_A_a.gif","images/stimuli/spore_stims/simple_18_A_b.gif","self_paced","","10","simple_dissimilar","images/stimuli/spore_stims/simple_01_A_a.gif","","","","",""
"","1995.6650000003865","survey-multi-choice","127","255898","0.0-30.0","SS1619115768332","math_question","","","","","","","","","","","","{""Q0"":""8""}","[0]","8","",""
"","null","html-keyboard-response","128","256843","0.0-31.0-0.0","SS1619115768332","","","null","","","","","","<p><img src= images/blank.png width =""600"" height = ""600"" style=""position:fixed;top:50%; left:50%; transform: translate(-50%, -50%); border:5px solid black"">","","","","","","","",""
"","581.2700000006007","sequential-stimulus-presentation-old","129","267433","0.0-31.0-1.0","SS1619115768332","trial","","40","500","1081.2700000006007","images/stimuli/spore_stims/simple_11_A_b.gif","images/stimuli/spore_stims/simple_17_A_a.gif","forced_long","","11","simple_dissimilar","images/stimuli/spore_stims/simple_17_A_a.gif","","","","",""
"","null","html-keyboard-response","130","268703","0.0-31.0-0.1","SS1619115768332","","","null","","","","","","<p><img src= images/blank.png width =""600"" height = ""600"" style=""position:fixed;top:50%; left:50%; transform: translate(-50%, -50%); border:5px solid black"">","","","","","","","",""
"","1394.7750000006636","sequential-stimulus-presentation-old","131","270608","0.0-31.0-1.1","SS1619115768332","trial","","40","500","1894.7750000006636","images/stimuli/spore_stims/simple_11_A_b.gif","images/stimuli/spore_stims/simple_17_A_a.gif","forced_long","","11","simple_dissimilar","images/stimuli/spore_stims/simple_17_A_a.gif","","","","",""
"","null","html-keyboard-response","132","271671","0.0-31.0-0.2","SS1619115768332","","","null","","","","","","<p><img src= images/blank.png width =""600"" height = ""600"" style=""position:fixed;top:50%; left:50%; transform: translate(-50%, -50%); border:5px solid black"">","","","","","","","",""
"","207.34000000084052","sequential-stimulus-presentation-old","133","272405","0.0-31.0-1.2","SS1619115768332","trial","","40","500","707.3400000008405","images/stimuli/spore_stims/simple_11_A_b.gif","images/stimuli/spore_stims/simple_17_A_a.gif","forced_long","","11","simple_dissimilar","images/stimuli/spore_stims/simple_17_A_a.gif","","","","",""
"","null","html-keyboard-response","134","273491","0.0-31.0-0.3","SS1619115768332","","","null","","","","","","<p><img src= images/blank.png width =""600"" height = ""600"" style=""position:fixed;top:50%; left:50%; transform: translate(-50%, -50%); border:5px solid black"">","","","","","","","",""
"","315.4849999991711","sequential-stimulus-presentation-old","135","274318","0.0-31.0-1.3","SS1619115768332","trial","","40","500","815.4849999991711","images/stimuli/spore_stims/simple_11_A_b.gif","images/stimuli/spore_stims/simple_17_A_a.gif","forced_long","","11","simple_dissimilar","images/stimuli/spore_stims/simple_11_A_b.gif","","","","",""
"","null","html-keyboard-response","136","275591","0.0-31.0-0.4","SS1619115768332","","","null","","","","","","<p><img src= images/blank.png width =""600"" height = ""600"" style=""position:fixed;top:50%; left:50%; transform: translate(-50%, -50%); border:5px solid black"">","","","","","","","",""
"","491.3400000004913","sequential-stimulus-presentation-old","137","276594","0.0-31.0-1.4","SS1619115768332","trial","","40","500","991.3400000004913","images/stimuli/spore_stims/simple_11_A_b.gif","images/stimuli/spore_stims/simple_17_A_a.gif","forced_long","","11","simple_dissimilar","images/stimuli/spore_stims/simple_17_A_a.gif","","","","",""
"","null","html-keyboard-response","138","277892","0.0-31.0-0.5","SS1619115768332","","","null","","","","","","<p><img src= images/blank.png width =""600"" height = ""600"" style=""position:fixed;top:50%; left:50%; transform: translate(-50%, -50%); border:5px solid black"">","","","","","","","",""
"","225.8149999997695","sequential-stimulus-presentation-old","139","278629","0.0-31.0-1.5","SS1619115768332","trial","","40","500","725.8149999997695","images/stimuli/spore_stims/simple_11_A_b.gif","images/stimuli/spore_stims/simple_17_A_a.gif","forced_long","","11","simple_dissimilar","images/stimuli/spore_stims/simple_11_A_b.gif","","","","",""
"[{""page_index"":0,""viewing_time"":1437.0150000013527}]","1438.030000001192","instructions","140","280073","0.0-32.0","SS1619115768332","instructions","","","","","","","","","","","","","","","",""
"","2697.685000000987","survey-likert","141","282783","0.0-33.0","SS1619115768332","similarity_question","","","","","","","","","","","","{""Q0"":5}","[0]","","images/stimuli/spore_stims/simple_10_A_a.gif","images/stimuli/spore_stims/simple_15_A_b.gif"
"","2166.119999999879","survey-likert","142","284961","0.0-34.0","SS1619115768332","similarity_question","","","","","","","","","","","","{""Q0"":4}","[0]","","images/stimuli/spore_stims/complex_08_A_a.gif","images/stimuli/spore_stims/complex_06_A_b.gif"
"","3054.8900000012363","survey-likert","143","288054","0.0-35.0","SS1619115768332","similarity_question","","","","","","","","","","","","{""Q0"":3}","[0]","","images/stimuli/spore_stims/complex_15_A_b.gif","images/stimuli/spore_stims/complex_07_A_a.gif"
"","2798.7699999993783","survey-likert","144","290885","0.0-36.0","SS1619115768332","similarity_question","","","","","","","","","","","","{""Q0"":4}","[0]","","images/stimuli/spore_stims/complex_10_A_a.gif","images/stimuli/spore_stims/complex_08_A_b.gif"
"","3601.1300000008778","survey-likert","145","294511","0.0-37.0","SS1619115768332","similarity_question","","","","","","","","","","","","{""Q0"":2}","[0]","","images/stimuli/spore_stims/simple_18_A_b.gif","images/stimuli/spore_stims/simple_01_A_a.gif"
"","2874.770000000368","survey-likert","146","297418","0.0-38.0","SS1619115768332","similarity_question","","","","","","","","","","","","{""Q0"":4}","[0]","","images/stimuli/spore_stims/simple_11_A_b.gif","images/stimuli/spore_stims/simple_17_A_a.gif"
"","3374.274999998277","survey-likert","147","300837","0.0-39.0","SS1619115768332","similarity_question","","","","","","","","","","","","{""Q0"":1}","[0]","","images/stimuli/spore_stims/complex_09_A_b.gif","images/stimuli/spore_stims/complex_11_A_a.gif"
"","3336.3900000004214","survey-likert","148","304188","0.0-40.0","SS1619115768332","similarity_question","","","","","","","","","","","","{""Q0"":5}","[0]","","images/stimuli/spore_stims/complex_19_A_a.gif","images/stimuli/spore_stims/complex_10_A_b.gif"
"","1974.5849999999045","survey-likert","149","306191","0.0-41.0","SS1619115768332","similarity_question","","","","","","","","","","","","{""Q0"":4}","[0]","","images/stimuli/spore_stims/simple_08_A_b.gif","images/stimuli/spore_stims/simple_11_A_a.gif"
"","3033.5699999995995","survey-likert","150","309288","0.0-42.0","SS1619115768332","similarity_question","","","","","","","","","","","","{""Q0"":5}","[0]","","images/stimuli/spore_stims/simple_17_A_b.gif","images/stimuli/spore_stims/simple_13_A_a.gif"
"","2602.790000000852","survey-likert","151","311927","0.0-43.0","SS1619115768332","similarity_question","","","","","","","","","","","","{""Q0"":5}","[0]","","images/stimuli/spore_stims/simple_05_A_a.gif","images/stimuli/spore_stims/simple_12_A_b.gif"
"","5023.669999998703","survey-likert","152","316963","0.0-44.0","SS1619115768332","similarity_question","","","","","","","","","","","","{""Q0"":2}","[0]","","images/stimuli/spore_stims/complex_19_A_b.gif","images/stimuli/spore_stims/complex_13_A_a.gif"
"[{""page_index"":0,""viewing_time"":1418.4949999999371}]","1420.7749999987427","instructions","153","318430","0.0-45.0","SS1619115768332","instructions","","","","","","","","","","","","","","","",""
"","1929.1400000001886","survey-likert","154","320392","0.0-46.0","SS1619115768332","","","","","","","","","images/stimuli/spore_stims/simple_11_A_a.gif","","","","{""Q0"":1}","[0]","","",""
"","2344.5800000008894","survey-likert","155","322769","0.0-47.0","SS1619115768332","","","","","","","","","images/stimuli/spore_stims/simple_18_A_b.gif","","","","{""Q0"":1}","[0]","","",""
"","1466.0000000003492","survey-likert","156","324257","0.0-48.0","SS1619115768332","","","","","","","","","images/stimuli/spore_stims/simple_17_A_a.gif","","","","{""Q0"":1}","[0]","","",""
"","1955.470000000787","survey-likert","157","326246","0.0-49.0","SS1619115768332","","","","","","","","","images/stimuli/spore_stims/simple_13_A_a.gif","","","","{""Q0"":0}","[0]","","",""
"","2180.0599999987753","survey-likert","158","328455","0.0-50.0","SS1619115768332","","","","","","","","","images/stimuli/spore_stims/complex_11_A_a.gif","","","","{""Q0"":5}","[0]","","",""
"","1776.6149999988847","survey-likert","159","330261","0.0-51.0","SS1619115768332","","","","","","","","","images/stimuli/spore_stims/simple_12_A_b.gif","","","","{""Q0"":0}","[0]","","",""
"","1702.0800000008894","survey-likert","160","331989","0.0-52.0","SS1619115768332","","","","","","","","","images/stimuli/spore_stims/complex_15_A_b.gif","","","","{""Q0"":5}","[0]","","",""
"","2123.5300000007264","survey-likert","161","334150","0.0-53.0","SS1619115768332","","","","","","","","","images/stimuli/spore_stims/complex_08_A_b.gif","","","","{""Q0"":5}","[0]","","",""
"","1438.0550000005169","survey-likert","162","335609","0.0-54.0","SS1619115768332","","","","","","","","","images/stimuli/spore_stims/complex_13_A_a.gif","","","","{""Q0"":5}","[0]","","",""
"","2490.91500000027","survey-likert","163","338137","0.0-55.0","SS1619115768332","","","","","","","","","images/stimuli/spore_stims/complex_19_A_a.gif","","","","{""Q0"":5}","[0]","","",""
"","1954.024999999092","survey-likert","164","340116","0.0-56.0","SS1619115768332","","","","","","","","","images/stimuli/spore_stims/simple_10_A_a.gif","","","","{""Q0"":0}","[0]","","",""
"","1719.6999999996624","survey-likert","165","341869","0.0-57.0","SS1619115768332","","","","","","","","","images/stimuli/spore_stims/complex_08_A_a.gif","","","","{""Q0"":5}","[0]","","",""
"[{""page_index"":0,""viewing_time"":949.734999998298}]","950.4649999999092","instructions","166","342857","0.0-58.0","SS1619115768332","instructions","","","","","","","","","","","","","","","",""
"","2753.015000000247","demog-age","167","345639","0.0-59.0","SS1619115768332","","","","","","","","","","","","","{""age"":""35""}","","","",""
"","1352.83999999956","demog-ethnic-US","168","347019","0.0-60.0","SS1619115768332","","","","","","","","","","","","","{""ethnicity"":[""Asian""]}","[0]","","",""
"","3424.8850000003586","demog-gender-and-education","169","350463","0.0-61.0","SS1619115768332","","","","","","","","","","","","","{""gender"":""Non-binary"",""education"":""Associate Degree/Technical certification""}","[0,1]","","",""
"","24242.685000001104","survey-text","170","374728","0.0-62.0","SS1619115768332","feedback","","","","","","","","","","","","{""Q0"":""10 minute timer is TOO SHORT TOO SHORT TOO SHORT I am RUSHING through this so I won't be scammed out of more money""}","","","",""
"[{""page_index"":0,""viewing_time"":1136.0650000005844}]","1137.0999999999185","instructions","171","375876","0.0-63.0","SS1619115768332","instructions","","","","","","","","","","","","","","","",""
