"view_history","rt","trial_type","trial_index","time_elapsed","internal_node_id","subject","stimulus_type","trial_stimulus","key_press","minimum_viewing_duration","trial_looking_time","block_deviant","block_background","exposure_type","stimulus","block_number","block_type","stimulus_displayed","responses","question_order","math_correct_answer","stimulus_left","stimulus_right"
"[{""page_index"":0,""viewing_time"":1666}]","1666","instructions","0","1670","0.0-0.0","SS1619114701279","","","","","","","","","","","","","","","","",""
"[{""page_index"":0,""viewing_time"":10361},{""page_index"":1,""viewing_time"":4453}]","14814","instructions","1","18487","0.0-1.0","SS1619114701279","instructions","","","","","","","","","","","","","","","",""
"","4976","sequential-stimulus-presentation-old","2","23966","0.0-2.0","SS1619114701279","","","40","500","5476","null","null","self_paced","","","","","","","","",""
"","6259","sequential-stimulus-presentation-old","3","30728","0.0-3.0","SS1619114701279","","","40","500","6759","null","null","self_paced","","","","","","","","",""
"[{""page_index"":0,""viewing_time"":21099}]","21099","instructions","4","51828","0.0-4.0","SS1619114701279","instructions","","","","","","","","","","","","","","","",""
"","803","sequential-stimulus-presentation-old","5","62634","0.0-5.0","SS1619114701279","","","40","500","1303","null","null","forced_long","","","","","","","","",""
"","3462","sequential-stimulus-presentation-old","6","66199","0.0-6.0","SS1619114701279","","","40","500","3962","null","null","forced_long","","","","","","","","",""
"[{""page_index"":0,""viewing_time"":3066}]","3066","instructions","7","69266","0.0-7.0","SS1619114701279","instructions","","","","","","","","","","","","","","","",""
"[{""page_index"":0,""viewing_time"":5643},{""page_index"":1,""viewing_time"":6305},{""page_index"":2,""viewing_time"":1850},{""page_index"":1,""viewing_time"":3055},{""page_index"":2,""viewing_time"":4672},{""page_index"":3,""viewing_time"":1212},{""page_index"":4,""viewing_time"":1426}]","24163","instructions","8","93434","0.0-8.0","SS1619114701279","instructions","","","","","","","","","","","","","","","",""
"","null","html-keyboard-response","9","94628","0.0-9.0-0.0","SS1619114701279","","","null","","","","","","<p><img src= images/blank.png width =""600"" height = ""600"" style=""position:fixed;top:50%; left:50%; transform: translate(-50%, -50%); border:5px solid black"">","","","","","","","",""
"","1685","sequential-stimulus-presentation-old","10","96415","0.0-9.0-1.0","SS1619114701279","trial","","40","500","2185","images/stimuli/spore_stims/complex_04_A_a.gif","images/stimuli/spore_stims/complex_16_A_b.gif","forced_short","","0","complex_dissimilar","images/stimuli/spore_stims/complex_16_A_b.gif","","","","",""
"","null","html-keyboard-response","11","97310","0.0-9.0-0.1","SS1619114701279","","","null","","","","","","<p><img src= images/blank.png width =""600"" height = ""600"" style=""position:fixed;top:50%; left:50%; transform: translate(-50%, -50%); border:5px solid black"">","","","","","","","",""
"","3280","sequential-stimulus-presentation-old","12","101092","0.0-9.0-1.1","SS1619114701279","trial","","40","500","3780","images/stimuli/spore_stims/complex_04_A_a.gif","images/stimuli/spore_stims/complex_16_A_b.gif","forced_short","","0","complex_dissimilar","images/stimuli/spore_stims/complex_04_A_a.gif","","","","",""
"","null","html-keyboard-response","13","101964","0.0-9.0-0.2","SS1619114701279","","","null","","","","","","<p><img src= images/blank.png width =""600"" height = ""600"" style=""position:fixed;top:50%; left:50%; transform: translate(-50%, -50%); border:5px solid black"">","","","","","","","",""
"","2806","sequential-stimulus-presentation-old","14","105274","0.0-9.0-1.2","SS1619114701279","trial","","40","500","3306","images/stimuli/spore_stims/complex_04_A_a.gif","images/stimuli/spore_stims/complex_16_A_b.gif","forced_short","","0","complex_dissimilar","images/stimuli/spore_stims/complex_04_A_a.gif","","","","",""
"","null","html-keyboard-response","15","106484","0.0-9.0-0.3","SS1619114701279","","","null","","","","","","<p><img src= images/blank.png width =""600"" height = ""600"" style=""position:fixed;top:50%; left:50%; transform: translate(-50%, -50%); border:5px solid black"">","","","","","","","",""
"","3882","sequential-stimulus-presentation-old","16","110870","0.0-9.0-1.3","SS1619114701279","trial","","40","500","4382","images/stimuli/spore_stims/complex_04_A_a.gif","images/stimuli/spore_stims/complex_16_A_b.gif","forced_short","","0","complex_dissimilar","images/stimuli/spore_stims/complex_16_A_b.gif","","","","",""
"","5086","survey-multi-choice","17","115957","0.0-10.0","SS1619114701279","math_question","","","","","","","","","","","","{""Q0"":""9""}","[0]","9","",""
"","null","html-keyboard-response","18","116995","0.0-11.0-0.0","SS1619114701279","","","null","","","","","","<p><img src= images/blank.png width =""600"" height = ""600"" style=""position:fixed;top:50%; left:50%; transform: translate(-50%, -50%); border:5px solid black"">","","","","","","","",""
"","3988","sequential-stimulus-presentation-old","19","121485","0.0-11.0-1.0","SS1619114701279","trial","","40","500","4488","images/stimuli/spore_stims/complex_11_A_a.gif","images/stimuli/spore_stims/complex_06_A_b.gif","self_paced","","1","complex_dissimilar","images/stimuli/spore_stims/complex_06_A_b.gif","","","","",""
"","null","html-keyboard-response","20","122496","0.0-11.0-0.1","SS1619114701279","","","null","","","","","","<p><img src= images/blank.png width =""600"" height = ""600"" style=""position:fixed;top:50%; left:50%; transform: translate(-50%, -50%); border:5px solid black"">","","","","","","","",""
"","5138","sequential-stimulus-presentation-old","21","128135","0.0-11.0-1.1","SS1619114701279","trial","","40","500","5638","images/stimuli/spore_stims/complex_11_A_a.gif","images/stimuli/spore_stims/complex_06_A_b.gif","self_paced","","1","complex_dissimilar","images/stimuli/spore_stims/complex_11_A_a.gif","","","","",""
"","null","html-keyboard-response","22","129315","0.0-11.0-0.2","SS1619114701279","","","null","","","","","","<p><img src= images/blank.png width =""600"" height = ""600"" style=""position:fixed;top:50%; left:50%; transform: translate(-50%, -50%); border:5px solid black"">","","","","","","","",""
"","2060","sequential-stimulus-presentation-old","23","131879","0.0-11.0-1.2","SS1619114701279","trial","","40","500","2560","images/stimuli/spore_stims/complex_11_A_a.gif","images/stimuli/spore_stims/complex_06_A_b.gif","self_paced","","1","complex_dissimilar","images/stimuli/spore_stims/complex_06_A_b.gif","","","","",""
"","null","html-keyboard-response","24","132716","0.0-11.0-0.3","SS1619114701279","","","null","","","","","","<p><img src= images/blank.png width =""600"" height = ""600"" style=""position:fixed;top:50%; left:50%; transform: translate(-50%, -50%); border:5px solid black"">","","","","","","","",""
"","3544","sequential-stimulus-presentation-old","25","136762","0.0-11.0-1.3","SS1619114701279","trial","","40","500","4044","images/stimuli/spore_stims/complex_11_A_a.gif","images/stimuli/spore_stims/complex_06_A_b.gif","self_paced","","1","complex_dissimilar","images/stimuli/spore_stims/complex_11_A_a.gif","","","","",""
"","null","html-keyboard-response","26","137966","0.0-11.0-0.4","SS1619114701279","","","null","","","","","","<p><img src= images/blank.png width =""600"" height = ""600"" style=""position:fixed;top:50%; left:50%; transform: translate(-50%, -50%); border:5px solid black"">","","","","","","","",""
"","2137","sequential-stimulus-presentation-old","27","140608","0.0-11.0-1.4","SS1619114701279","trial","","40","500","2637","images/stimuli/spore_stims/complex_11_A_a.gif","images/stimuli/spore_stims/complex_06_A_b.gif","self_paced","","1","complex_dissimilar","images/stimuli/spore_stims/complex_06_A_b.gif","","","","",""
"","null","html-keyboard-response","28","141542","0.0-11.0-0.5","SS1619114701279","","","null","","","","","","<p><img src= images/blank.png width =""600"" height = ""600"" style=""position:fixed;top:50%; left:50%; transform: translate(-50%, -50%); border:5px solid black"">","","","","","","","",""
"","1282","sequential-stimulus-presentation-old","29","143326","0.0-11.0-1.5","SS1619114701279","trial","","40","500","1782","images/stimuli/spore_stims/complex_11_A_a.gif","images/stimuli/spore_stims/complex_06_A_b.gif","self_paced","","1","complex_dissimilar","images/stimuli/spore_stims/complex_06_A_b.gif","","","","",""
"","5844","survey-multi-choice","30","149172","0.0-12.0","SS1619114701279","math_question","","","","","","","","","","","","{""Q0"":""16""}","[0]","16","",""
"","null","html-keyboard-response","31","150467","0.0-13.0-0.0","SS1619114701279","","","null","","","","","","<p><img src= images/blank.png width =""600"" height = ""600"" style=""position:fixed;top:50%; left:50%; transform: translate(-50%, -50%); border:5px solid black"">","","","","","","","",""
"","4924","sequential-stimulus-presentation-old","32","155892","0.0-13.0-1.0","SS1619114701279","trial","","40","500","5424","images/stimuli/spore_stims/simple_07_A_b.gif","images/stimuli/spore_stims/simple_01_A_a.gif","self_paced","","2","simple_dissimilar","images/stimuli/spore_stims/simple_01_A_a.gif","","","","",""
"","null","html-keyboard-response","33","156777","0.0-13.0-0.1","SS1619114701279","","","null","","","","","","<p><img src= images/blank.png width =""600"" height = ""600"" style=""position:fixed;top:50%; left:50%; transform: translate(-50%, -50%); border:5px solid black"">","","","","","","","",""
"","1044","sequential-stimulus-presentation-old","34","158323","0.0-13.0-1.1","SS1619114701279","trial","","40","500","1544","images/stimuli/spore_stims/simple_07_A_b.gif","images/stimuli/spore_stims/simple_01_A_a.gif","self_paced","","2","simple_dissimilar","images/stimuli/spore_stims/simple_01_A_a.gif","","","","",""
"","null","html-keyboard-response","35","159242","0.0-13.0-0.2","SS1619114701279","","","null","","","","","","<p><img src= images/blank.png width =""600"" height = ""600"" style=""position:fixed;top:50%; left:50%; transform: translate(-50%, -50%); border:5px solid black"">","","","","","","","",""
"","519","sequential-stimulus-presentation-old","36","160264","0.0-13.0-1.2","SS1619114701279","trial","","40","500","1019","images/stimuli/spore_stims/simple_07_A_b.gif","images/stimuli/spore_stims/simple_01_A_a.gif","self_paced","","2","simple_dissimilar","images/stimuli/spore_stims/simple_01_A_a.gif","","","","",""
"","null","html-keyboard-response","37","161233","0.0-13.0-0.3","SS1619114701279","","","null","","","","","","<p><img src= images/blank.png width =""600"" height = ""600"" style=""position:fixed;top:50%; left:50%; transform: translate(-50%, -50%); border:5px solid black"">","","","","","","","",""
"","416","sequential-stimulus-presentation-old","38","162151","0.0-13.0-1.3","SS1619114701279","trial","","40","500","916","images/stimuli/spore_stims/simple_07_A_b.gif","images/stimuli/spore_stims/simple_01_A_a.gif","self_paced","","2","simple_dissimilar","images/stimuli/spore_stims/simple_01_A_a.gif","","","","",""
"","null","html-keyboard-response","39","163414","0.0-13.0-0.4","SS1619114701279","","","null","","","","","","<p><img src= images/blank.png width =""600"" height = ""600"" style=""position:fixed;top:50%; left:50%; transform: translate(-50%, -50%); border:5px solid black"">","","","","","","","",""
"","656","sequential-stimulus-presentation-old","40","164573","0.0-13.0-1.4","SS1619114701279","trial","","40","500","1156","images/stimuli/spore_stims/simple_07_A_b.gif","images/stimuli/spore_stims/simple_01_A_a.gif","self_paced","","2","simple_dissimilar","images/stimuli/spore_stims/simple_01_A_a.gif","","","","",""
"","3558","survey-multi-choice","41","168133","0.0-14.0","SS1619114701279","math_question","","","","","","","","","","","","{""Q0"":""12""}","[0]","12","",""
"","null","html-keyboard-response","42","169401","0.0-15.0-0.0","SS1619114701279","","","null","","","","","","<p><img src= images/blank.png width =""600"" height = ""600"" style=""position:fixed;top:50%; left:50%; transform: translate(-50%, -50%); border:5px solid black"">","","","","","","","",""
"","319","sequential-stimulus-presentation-old","43","179722","0.0-15.0-1.0","SS1619114701279","trial","","40","500","819","images/stimuli/spore_stims/simple_13_A_a.gif","images/stimuli/spore_stims/simple_19_A_b.gif","forced_long","","3","simple_dissimilar","images/stimuli/spore_stims/simple_19_A_b.gif","","","","",""
"","null","html-keyboard-response","44","180949","0.0-15.0-0.1","SS1619114701279","","","null","","","","","","<p><img src= images/blank.png width =""600"" height = ""600"" style=""position:fixed;top:50%; left:50%; transform: translate(-50%, -50%); border:5px solid black"">","","","","","","","",""
"","2778","sequential-stimulus-presentation-old","45","184230","0.0-15.0-1.1","SS1619114701279","trial","","40","500","3278","images/stimuli/spore_stims/simple_13_A_a.gif","images/stimuli/spore_stims/simple_19_A_b.gif","forced_long","","3","simple_dissimilar","images/stimuli/spore_stims/simple_13_A_a.gif","","","","",""
"","null","html-keyboard-response","46","185329","0.0-15.0-0.2","SS1619114701279","","","null","","","","","","<p><img src= images/blank.png width =""600"" height = ""600"" style=""position:fixed;top:50%; left:50%; transform: translate(-50%, -50%); border:5px solid black"">","","","","","","","",""
"","1734","sequential-stimulus-presentation-old","47","187564","0.0-15.0-1.2","SS1619114701279","trial","","40","500","2234","images/stimuli/spore_stims/simple_13_A_a.gif","images/stimuli/spore_stims/simple_19_A_b.gif","forced_long","","3","simple_dissimilar","images/stimuli/spore_stims/simple_19_A_b.gif","","","","",""
"","null","html-keyboard-response","48","188683","0.0-15.0-0.3","SS1619114701279","","","null","","","","","","<p><img src= images/blank.png width =""600"" height = ""600"" style=""position:fixed;top:50%; left:50%; transform: translate(-50%, -50%); border:5px solid black"">","","","","","","","",""
"","2193","sequential-stimulus-presentation-old","49","191378","0.0-15.0-1.3","SS1619114701279","trial","","40","500","2693","images/stimuli/spore_stims/simple_13_A_a.gif","images/stimuli/spore_stims/simple_19_A_b.gif","forced_long","","3","simple_dissimilar","images/stimuli/spore_stims/simple_19_A_b.gif","","","","",""
"","3068","survey-multi-choice","50","194449","0.0-16.0","SS1619114701279","math_question","","","","","","","","","","","","{""Q0"":""5""}","[0]","5","",""
"","null","html-keyboard-response","51","195530","0.0-17.0-0.0","SS1619114701279","","","null","","","","","","<p><img src= images/blank.png width =""600"" height = ""600"" style=""position:fixed;top:50%; left:50%; transform: translate(-50%, -50%); border:5px solid black"">","","","","","","","",""
"","3617","sequential-stimulus-presentation-old","52","199650","0.0-17.0-1.0","SS1619114701279","trial","","40","500","4117","images/stimuli/spore_stims/complex_07_A_a.gif","images/stimuli/spore_stims/complex_19_A_b.gif","self_paced","","4","complex_dissimilar","images/stimuli/spore_stims/complex_19_A_b.gif","","","","",""
"","null","html-keyboard-response","53","200549","0.0-17.0-0.1","SS1619114701279","","","null","","","","","","<p><img src= images/blank.png width =""600"" height = ""600"" style=""position:fixed;top:50%; left:50%; transform: translate(-50%, -50%); border:5px solid black"">","","","","","","","",""
"","1013","sequential-stimulus-presentation-old","54","202065","0.0-17.0-1.1","SS1619114701279","trial","","40","500","1513","images/stimuli/spore_stims/complex_07_A_a.gif","images/stimuli/spore_stims/complex_19_A_b.gif","self_paced","","4","complex_dissimilar","images/stimuli/spore_stims/complex_19_A_b.gif","","","","",""
"","null","html-keyboard-response","55","203149","0.0-17.0-0.2","SS1619114701279","","","null","","","","","","<p><img src= images/blank.png width =""600"" height = ""600"" style=""position:fixed;top:50%; left:50%; transform: translate(-50%, -50%); border:5px solid black"">","","","","","","","",""
"","1852","sequential-stimulus-presentation-old","56","205502","0.0-17.0-1.2","SS1619114701279","trial","","40","500","2352","images/stimuli/spore_stims/complex_07_A_a.gif","images/stimuli/spore_stims/complex_19_A_b.gif","self_paced","","4","complex_dissimilar","images/stimuli/spore_stims/complex_19_A_b.gif","","","","",""
"","null","html-keyboard-response","57","206692","0.0-17.0-0.3","SS1619114701279","","","null","","","","","","<p><img src= images/blank.png width =""600"" height = ""600"" style=""position:fixed;top:50%; left:50%; transform: translate(-50%, -50%); border:5px solid black"">","","","","","","","",""
"","2673","sequential-stimulus-presentation-old","58","209867","0.0-17.0-1.3","SS1619114701279","trial","","40","500","3173","images/stimuli/spore_stims/complex_07_A_a.gif","images/stimuli/spore_stims/complex_19_A_b.gif","self_paced","","4","complex_dissimilar","images/stimuli/spore_stims/complex_19_A_b.gif","","","","",""
"","2669","survey-multi-choice","59","212539","0.0-18.0","SS1619114701279","math_question","","","","","","","","","","","","{""Q0"":""4""}","[0]","4","",""
"","null","html-keyboard-response","60","213801","0.0-19.0-0.0","SS1619114701279","","","null","","","","","","<p><img src= images/blank.png width =""600"" height = ""600"" style=""position:fixed;top:50%; left:50%; transform: translate(-50%, -50%); border:5px solid black"">","","","","","","","",""
"","2406","sequential-stimulus-presentation-old","61","216710","0.0-19.0-1.0","SS1619114701279","trial","","40","500","2906","images/stimuli/spore_stims/simple_05_A_a.gif","images/stimuli/spore_stims/simple_20_A_b.gif","self_paced","","5","simple_dissimilar","images/stimuli/spore_stims/simple_20_A_b.gif","","","","",""
"","null","html-keyboard-response","62","217878","0.0-19.0-0.1","SS1619114701279","","","null","","","","","","<p><img src= images/blank.png width =""600"" height = ""600"" style=""position:fixed;top:50%; left:50%; transform: translate(-50%, -50%); border:5px solid black"">","","","","","","","",""
"","1741","sequential-stimulus-presentation-old","63","220123","0.0-19.0-1.1","SS1619114701279","trial","","40","500","2241","images/stimuli/spore_stims/simple_05_A_a.gif","images/stimuli/spore_stims/simple_20_A_b.gif","self_paced","","5","simple_dissimilar","images/stimuli/spore_stims/simple_20_A_b.gif","","","","",""
"","null","html-keyboard-response","64","221228","0.0-19.0-0.2","SS1619114701279","","","null","","","","","","<p><img src= images/blank.png width =""600"" height = ""600"" style=""position:fixed;top:50%; left:50%; transform: translate(-50%, -50%); border:5px solid black"">","","","","","","","",""
"","472","sequential-stimulus-presentation-old","65","222202","0.0-19.0-1.2","SS1619114701279","trial","","40","500","972","images/stimuli/spore_stims/simple_05_A_a.gif","images/stimuli/spore_stims/simple_20_A_b.gif","self_paced","","5","simple_dissimilar","images/stimuli/spore_stims/simple_20_A_b.gif","","","","",""
"","null","html-keyboard-response","66","223407","0.0-19.0-0.3","SS1619114701279","","","null","","","","","","<p><img src= images/blank.png width =""600"" height = ""600"" style=""position:fixed;top:50%; left:50%; transform: translate(-50%, -50%); border:5px solid black"">","","","","","","","",""
"","682","sequential-stimulus-presentation-old","67","224592","0.0-19.0-1.3","SS1619114701279","trial","","40","500","1182","images/stimuli/spore_stims/simple_05_A_a.gif","images/stimuli/spore_stims/simple_20_A_b.gif","self_paced","","5","simple_dissimilar","images/stimuli/spore_stims/simple_20_A_b.gif","","","","",""
"","null","html-keyboard-response","68","225477","0.0-19.0-0.4","SS1619114701279","","","null","","","","","","<p><img src= images/blank.png width =""600"" height = ""600"" style=""position:fixed;top:50%; left:50%; transform: translate(-50%, -50%); border:5px solid black"">","","","","","","","",""
"","1075","sequential-stimulus-presentation-old","69","227053","0.0-19.0-1.4","SS1619114701279","trial","","40","500","1575","images/stimuli/spore_stims/simple_05_A_a.gif","images/stimuli/spore_stims/simple_20_A_b.gif","self_paced","","5","simple_dissimilar","images/stimuli/spore_stims/simple_20_A_b.gif","","","","",""
"","null","html-keyboard-response","70","228182","0.0-19.0-0.5","SS1619114701279","","","null","","","","","","<p><img src= images/blank.png width =""600"" height = ""600"" style=""position:fixed;top:50%; left:50%; transform: translate(-50%, -50%); border:5px solid black"">","","","","","","","",""
"","870","sequential-stimulus-presentation-old","71","229555","0.0-19.0-1.5","SS1619114701279","trial","","40","500","1370","images/stimuli/spore_stims/simple_05_A_a.gif","images/stimuli/spore_stims/simple_20_A_b.gif","self_paced","","5","simple_dissimilar","images/stimuli/spore_stims/simple_20_A_b.gif","","","","",""
"","2165","survey-multi-choice","72","231722","0.0-20.0","SS1619114701279","math_question","","","","","","","","","","","","{""Q0"":""11""}","[0]","11","",""
"","null","html-keyboard-response","73","232808","0.0-21.0-0.0","SS1619114701279","","","null","","","","","","<p><img src= images/blank.png width =""600"" height = ""600"" style=""position:fixed;top:50%; left:50%; transform: translate(-50%, -50%); border:5px solid black"">","","","","","","","",""
"","1728","sequential-stimulus-presentation-old","74","234639","0.0-21.0-1.0","SS1619114701279","trial","","40","500","2228","images/stimuli/spore_stims/complex_01_A_b.gif","images/stimuli/spore_stims/complex_05_A_a.gif","forced_short","","6","complex_dissimilar","images/stimuli/spore_stims/complex_05_A_a.gif","","","","",""
"","null","html-keyboard-response","75","235539","0.0-21.0-0.1","SS1619114701279","","","null","","","","","","<p><img src= images/blank.png width =""600"" height = ""600"" style=""position:fixed;top:50%; left:50%; transform: translate(-50%, -50%); border:5px solid black"">","","","","","","","",""
"","4594","sequential-stimulus-presentation-old","76","240636","0.0-21.0-1.1","SS1619114701279","trial","","40","500","5094","images/stimuli/spore_stims/complex_01_A_b.gif","images/stimuli/spore_stims/complex_05_A_a.gif","forced_short","","6","complex_dissimilar","images/stimuli/spore_stims/complex_05_A_a.gif","","","","",""
"","null","html-keyboard-response","77","241923","0.0-21.0-0.2","SS1619114701279","","","null","","","","","","<p><img src= images/blank.png width =""600"" height = ""600"" style=""position:fixed;top:50%; left:50%; transform: translate(-50%, -50%); border:5px solid black"">","","","","","","","",""
"","888","sequential-stimulus-presentation-old","78","243313","0.0-21.0-1.2","SS1619114701279","trial","","40","500","1388","images/stimuli/spore_stims/complex_01_A_b.gif","images/stimuli/spore_stims/complex_05_A_a.gif","forced_short","","6","complex_dissimilar","images/stimuli/spore_stims/complex_05_A_a.gif","","","","",""
"","null","html-keyboard-response","79","244299","0.0-21.0-0.3","SS1619114701279","","","null","","","","","","<p><img src= images/blank.png width =""600"" height = ""600"" style=""position:fixed;top:50%; left:50%; transform: translate(-50%, -50%); border:5px solid black"">","","","","","","","",""
"","990","sequential-stimulus-presentation-old","80","245791","0.0-21.0-1.3","SS1619114701279","trial","","40","500","1490","images/stimuli/spore_stims/complex_01_A_b.gif","images/stimuli/spore_stims/complex_05_A_a.gif","forced_short","","6","complex_dissimilar","images/stimuli/spore_stims/complex_05_A_a.gif","","","","",""
"","5196","survey-multi-choice","81","250991","0.0-22.0","SS1619114701279","math_question","","","","","","","","","","","","{""Q0"":""12""}","[0]","12","",""
"","null","html-keyboard-response","82","252287","0.0-23.0-0.0","SS1619114701279","","","null","","","","","","<p><img src= images/blank.png width =""600"" height = ""600"" style=""position:fixed;top:50%; left:50%; transform: translate(-50%, -50%); border:5px solid black"">","","","","","","","",""
"","304","sequential-stimulus-presentation-old","83","262595","0.0-23.0-1.0","SS1619114701279","trial","","40","500","804","images/stimuli/spore_stims/simple_09_A_a.gif","images/stimuli/spore_stims/simple_14_A_b.gif","forced_long","","7","simple_dissimilar","images/stimuli/spore_stims/simple_14_A_b.gif","","","","",""
"","null","html-keyboard-response","84","263456","0.0-23.0-0.1","SS1619114701279","","","null","","","","","","<p><img src= images/blank.png width =""600"" height = ""600"" style=""position:fixed;top:50%; left:50%; transform: translate(-50%, -50%); border:5px solid black"">","","","","","","","",""
"","860","sequential-stimulus-presentation-old","85","264818","0.0-23.0-1.1","SS1619114701279","trial","","40","500","1360","images/stimuli/spore_stims/simple_09_A_a.gif","images/stimuli/spore_stims/simple_14_A_b.gif","forced_long","","7","simple_dissimilar","images/stimuli/spore_stims/simple_14_A_b.gif","","","","",""
"","null","html-keyboard-response","86","265728","0.0-23.0-0.2","SS1619114701279","","","null","","","","","","<p><img src= images/blank.png width =""600"" height = ""600"" style=""position:fixed;top:50%; left:50%; transform: translate(-50%, -50%); border:5px solid black"">","","","","","","","",""
"","36","sequential-stimulus-presentation-old","87","266265","0.0-23.0-1.2","SS1619114701279","trial","","40","500","536","images/stimuli/spore_stims/simple_09_A_a.gif","images/stimuli/spore_stims/simple_14_A_b.gif","forced_long","","7","simple_dissimilar","images/stimuli/spore_stims/simple_14_A_b.gif","","","","",""
"","null","html-keyboard-response","88","267478","0.0-23.0-0.3","SS1619114701279","","","null","","","","","","<p><img src= images/blank.png width =""600"" height = ""600"" style=""position:fixed;top:50%; left:50%; transform: translate(-50%, -50%); border:5px solid black"">","","","","","","","",""
"","315","sequential-stimulus-presentation-old","89","268296","0.0-23.0-1.3","SS1619114701279","trial","","40","500","815","images/stimuli/spore_stims/simple_09_A_a.gif","images/stimuli/spore_stims/simple_14_A_b.gif","forced_long","","7","simple_dissimilar","images/stimuli/spore_stims/simple_14_A_b.gif","","","","",""
"","null","html-keyboard-response","90","269407","0.0-23.0-0.4","SS1619114701279","","","null","","","","","","<p><img src= images/blank.png width =""600"" height = ""600"" style=""position:fixed;top:50%; left:50%; transform: translate(-50%, -50%); border:5px solid black"">","","","","","","","",""
"","1191","sequential-stimulus-presentation-old","91","271102","0.0-23.0-1.4","SS1619114701279","trial","","40","500","1691","images/stimuli/spore_stims/simple_09_A_a.gif","images/stimuli/spore_stims/simple_14_A_b.gif","forced_long","","7","simple_dissimilar","images/stimuli/spore_stims/simple_14_A_b.gif","","","","",""
"","3825","survey-multi-choice","92","274931","0.0-24.0","SS1619114701279","math_question","","","","","","","","","","","","{""Q0"":""13""}","[0]","13","",""
"","null","html-keyboard-response","93","275956","0.0-25.0-0.0","SS1619114701279","","","null","","","","","","<p><img src= images/blank.png width =""600"" height = ""600"" style=""position:fixed;top:50%; left:50%; transform: translate(-50%, -50%); border:5px solid black"">","","","","","","","",""
"","324","sequential-stimulus-presentation-old","94","286284","0.0-25.0-1.0","SS1619114701279","trial","","40","500","824","images/stimuli/spore_stims/complex_08_A_b.gif","images/stimuli/spore_stims/complex_01_A_a.gif","forced_long","","8","complex_dissimilar","images/stimuli/spore_stims/complex_01_A_a.gif","","","","",""
"","null","html-keyboard-response","95","287109","0.0-25.0-0.1","SS1619114701279","","","null","","","","","","<p><img src= images/blank.png width =""600"" height = ""600"" style=""position:fixed;top:50%; left:50%; transform: translate(-50%, -50%); border:5px solid black"">","","","","","","","",""
"","1335","sequential-stimulus-presentation-old","96","288946","0.0-25.0-1.1","SS1619114701279","trial","","40","500","1835","images/stimuli/spore_stims/complex_08_A_b.gif","images/stimuli/spore_stims/complex_01_A_a.gif","forced_long","","8","complex_dissimilar","images/stimuli/spore_stims/complex_01_A_a.gif","","","","",""
"","null","html-keyboard-response","97","290042","0.0-25.0-0.2","SS1619114701279","","","null","","","","","","<p><img src= images/blank.png width =""600"" height = ""600"" style=""position:fixed;top:50%; left:50%; transform: translate(-50%, -50%); border:5px solid black"">","","","","","","","",""
"","13","sequential-stimulus-presentation-old","98","290559","0.0-25.0-1.2","SS1619114701279","trial","","40","500","513","images/stimuli/spore_stims/complex_08_A_b.gif","images/stimuli/spore_stims/complex_01_A_a.gif","forced_long","","8","complex_dissimilar","images/stimuli/spore_stims/complex_01_A_a.gif","","","","",""
"","null","html-keyboard-response","99","291501","0.0-25.0-0.3","SS1619114701279","","","null","","","","","","<p><img src= images/blank.png width =""600"" height = ""600"" style=""position:fixed;top:50%; left:50%; transform: translate(-50%, -50%); border:5px solid black"">","","","","","","","",""
"","1115","sequential-stimulus-presentation-old","100","293118","0.0-25.0-1.3","SS1619114701279","trial","","40","500","1615","images/stimuli/spore_stims/complex_08_A_b.gif","images/stimuli/spore_stims/complex_01_A_a.gif","forced_long","","8","complex_dissimilar","images/stimuli/spore_stims/complex_01_A_a.gif","","","","",""
"","null","html-keyboard-response","101","293982","0.0-25.0-0.4","SS1619114701279","","","null","","","","","","<p><img src= images/blank.png width =""600"" height = ""600"" style=""position:fixed;top:50%; left:50%; transform: translate(-50%, -50%); border:5px solid black"">","","","","","","","",""
"","464","sequential-stimulus-presentation-old","102","294947","0.0-25.0-1.4","SS1619114701279","trial","","40","500","964","images/stimuli/spore_stims/complex_08_A_b.gif","images/stimuli/spore_stims/complex_01_A_a.gif","forced_long","","8","complex_dissimilar","images/stimuli/spore_stims/complex_01_A_a.gif","","","","",""
"","null","html-keyboard-response","103","296213","0.0-25.0-0.5","SS1619114701279","","","null","","","","","","<p><img src= images/blank.png width =""600"" height = ""600"" style=""position:fixed;top:50%; left:50%; transform: translate(-50%, -50%); border:5px solid black"">","","","","","","","",""
"","1285","sequential-stimulus-presentation-old","104","298002","0.0-25.0-1.5","SS1619114701279","trial","","40","500","1785","images/stimuli/spore_stims/complex_08_A_b.gif","images/stimuli/spore_stims/complex_01_A_a.gif","forced_long","","8","complex_dissimilar","images/stimuli/spore_stims/complex_01_A_a.gif","","","","",""
"","3681","survey-multi-choice","105","301685","0.0-26.0","SS1619114701279","math_question","","","","","","","","","","","","{""Q0"":""8""}","[0]","8","",""
"","null","html-keyboard-response","106","302553","0.0-27.0-0.0","SS1619114701279","","","null","","","","","","<p><img src= images/blank.png width =""600"" height = ""600"" style=""position:fixed;top:50%; left:50%; transform: translate(-50%, -50%); border:5px solid black"">","","","","","","","",""
"","1083","sequential-stimulus-presentation-old","107","303742","0.0-27.0-1.0","SS1619114701279","trial","","40","500","1583","images/stimuli/spore_stims/simple_04_A_b.gif","images/stimuli/spore_stims/simple_16_A_a.gif","forced_short","","9","simple_dissimilar","images/stimuli/spore_stims/simple_16_A_a.gif","","","","",""
"","null","html-keyboard-response","108","304799","0.0-27.0-0.1","SS1619114701279","","","null","","","","","","<p><img src= images/blank.png width =""600"" height = ""600"" style=""position:fixed;top:50%; left:50%; transform: translate(-50%, -50%); border:5px solid black"">","","","","","","","",""
"","3035","sequential-stimulus-presentation-old","109","308338","0.0-27.0-1.1","SS1619114701279","trial","","40","500","3535","images/stimuli/spore_stims/simple_04_A_b.gif","images/stimuli/spore_stims/simple_16_A_a.gif","forced_short","","9","simple_dissimilar","images/stimuli/spore_stims/simple_16_A_a.gif","","","","",""
"","null","html-keyboard-response","110","309482","0.0-27.0-0.2","SS1619114701279","","","null","","","","","","<p><img src= images/blank.png width =""600"" height = ""600"" style=""position:fixed;top:50%; left:50%; transform: translate(-50%, -50%); border:5px solid black"">","","","","","","","",""
"","24","sequential-stimulus-presentation-old","111","310009","0.0-27.0-1.2","SS1619114701279","trial","","40","500","524","images/stimuli/spore_stims/simple_04_A_b.gif","images/stimuli/spore_stims/simple_16_A_a.gif","forced_short","","9","simple_dissimilar","images/stimuli/spore_stims/simple_16_A_a.gif","","","","",""
"","null","html-keyboard-response","112","311306","0.0-27.0-0.3","SS1619114701279","","","null","","","","","","<p><img src= images/blank.png width =""600"" height = ""600"" style=""position:fixed;top:50%; left:50%; transform: translate(-50%, -50%); border:5px solid black"">","","","","","","","",""
"","2823","sequential-stimulus-presentation-old","113","314630","0.0-27.0-1.3","SS1619114701279","trial","","40","500","3323","images/stimuli/spore_stims/simple_04_A_b.gif","images/stimuli/spore_stims/simple_16_A_a.gif","forced_short","","9","simple_dissimilar","images/stimuli/spore_stims/simple_04_A_b.gif","","","","",""
"","null","html-keyboard-response","114","315708","0.0-27.0-0.4","SS1619114701279","","","null","","","","","","<p><img src= images/blank.png width =""600"" height = ""600"" style=""position:fixed;top:50%; left:50%; transform: translate(-50%, -50%); border:5px solid black"">","","","","","","","",""
"","519","sequential-stimulus-presentation-old","115","316732","0.0-27.0-1.4","SS1619114701279","trial","","40","500","1019","images/stimuli/spore_stims/simple_04_A_b.gif","images/stimuli/spore_stims/simple_16_A_a.gif","forced_short","","9","simple_dissimilar","images/stimuli/spore_stims/simple_16_A_a.gif","","","","",""
"","null","html-keyboard-response","116","317912","0.0-27.0-0.5","SS1619114701279","","","null","","","","","","<p><img src= images/blank.png width =""600"" height = ""600"" style=""position:fixed;top:50%; left:50%; transform: translate(-50%, -50%); border:5px solid black"">","","","","","","","",""
"","1243","sequential-stimulus-presentation-old","117","319658","0.0-27.0-1.5","SS1619114701279","trial","","40","500","1743","images/stimuli/spore_stims/simple_04_A_b.gif","images/stimuli/spore_stims/simple_16_A_a.gif","forced_short","","9","simple_dissimilar","images/stimuli/spore_stims/simple_04_A_b.gif","","","","",""
"","3559","survey-multi-choice","118","323220","0.0-28.0","SS1619114701279","math_question","","","","","","","","","","","","{""Q0"":""14""}","[0]","14","",""
"","null","html-keyboard-response","119","324148","0.0-29.0-0.0","SS1619114701279","","","null","","","","","","<p><img src= images/blank.png width =""600"" height = ""600"" style=""position:fixed;top:50%; left:50%; transform: translate(-50%, -50%); border:5px solid black"">","","","","","","","",""
"","247","sequential-stimulus-presentation-old","120","334399","0.0-29.0-1.0","SS1619114701279","trial","","40","500","747","images/stimuli/spore_stims/complex_19_A_a.gif","images/stimuli/spore_stims/complex_05_A_b.gif","forced_long","","10","complex_dissimilar","images/stimuli/spore_stims/complex_05_A_b.gif","","","","",""
"","null","html-keyboard-response","121","335350","0.0-29.0-0.1","SS1619114701279","","","null","","","","","","<p><img src= images/blank.png width =""600"" height = ""600"" style=""position:fixed;top:50%; left:50%; transform: translate(-50%, -50%); border:5px solid black"">","","","","","","","",""
"","682","sequential-stimulus-presentation-old","122","336533","0.0-29.0-1.1","SS1619114701279","trial","","40","500","1182","images/stimuli/spore_stims/complex_19_A_a.gif","images/stimuli/spore_stims/complex_05_A_b.gif","forced_long","","10","complex_dissimilar","images/stimuli/spore_stims/complex_05_A_b.gif","","","","",""
"","null","html-keyboard-response","123","337707","0.0-29.0-0.2","SS1619114701279","","","null","","","","","","<p><img src= images/blank.png width =""600"" height = ""600"" style=""position:fixed;top:50%; left:50%; transform: translate(-50%, -50%); border:5px solid black"">","","","","","","","",""
"","2704","sequential-stimulus-presentation-old","124","340914","0.0-29.0-1.2","SS1619114701279","trial","","40","500","3204","images/stimuli/spore_stims/complex_19_A_a.gif","images/stimuli/spore_stims/complex_05_A_b.gif","forced_long","","10","complex_dissimilar","images/stimuli/spore_stims/complex_05_A_b.gif","","","","",""
"","null","html-keyboard-response","125","342153","0.0-29.0-0.3","SS1619114701279","","","null","","","","","","<p><img src= images/blank.png width =""600"" height = ""600"" style=""position:fixed;top:50%; left:50%; transform: translate(-50%, -50%); border:5px solid black"">","","","","","","","",""
"","729","sequential-stimulus-presentation-old","126","343384","0.0-29.0-1.3","SS1619114701279","trial","","40","500","1229","images/stimuli/spore_stims/complex_19_A_a.gif","images/stimuli/spore_stims/complex_05_A_b.gif","forced_long","","10","complex_dissimilar","images/stimuli/spore_stims/complex_05_A_b.gif","","","","",""
"","null","html-keyboard-response","127","344580","0.0-29.0-0.4","SS1619114701279","","","null","","","","","","<p><img src= images/blank.png width =""600"" height = ""600"" style=""position:fixed;top:50%; left:50%; transform: translate(-50%, -50%); border:5px solid black"">","","","","","","","",""
"","823","sequential-stimulus-presentation-old","128","345910","0.0-29.0-1.4","SS1619114701279","trial","","40","500","1323","images/stimuli/spore_stims/complex_19_A_a.gif","images/stimuli/spore_stims/complex_05_A_b.gif","forced_long","","10","complex_dissimilar","images/stimuli/spore_stims/complex_05_A_b.gif","","","","",""
"","null","html-keyboard-response","129","347133","0.0-29.0-0.5","SS1619114701279","","","null","","","","","","<p><img src= images/blank.png width =""600"" height = ""600"" style=""position:fixed;top:50%; left:50%; transform: translate(-50%, -50%); border:5px solid black"">","","","","","","","",""
"","193","sequential-stimulus-presentation-old","130","347829","0.0-29.0-1.5","SS1619114701279","trial","","40","500","693","images/stimuli/spore_stims/complex_19_A_a.gif","images/stimuli/spore_stims/complex_05_A_b.gif","forced_long","","10","complex_dissimilar","images/stimuli/spore_stims/complex_05_A_b.gif","","","","",""
"","2542","survey-multi-choice","131","350377","0.0-30.0","SS1619114701279","math_question","","","","","","","","","","","","{""Q0"":""13""}","[0]","13","",""
"","null","html-keyboard-response","132","351246","0.0-31.0-0.0","SS1619114701279","","","null","","","","","","<p><img src= images/blank.png width =""600"" height = ""600"" style=""position:fixed;top:50%; left:50%; transform: translate(-50%, -50%); border:5px solid black"">","","","","","","","",""
"","717","sequential-stimulus-presentation-old","133","352067","0.0-31.0-1.0","SS1619114701279","trial","","40","500","1217","images/stimuli/spore_stims/simple_12_A_b.gif","images/stimuli/spore_stims/simple_08_A_a.gif","forced_short","","11","simple_dissimilar","images/stimuli/spore_stims/simple_08_A_a.gif","","","","",""
"","null","html-keyboard-response","134","353158","0.0-31.0-0.1","SS1619114701279","","","null","","","","","","<p><img src= images/blank.png width =""600"" height = ""600"" style=""position:fixed;top:50%; left:50%; transform: translate(-50%, -50%); border:5px solid black"">","","","","","","","",""
"","1194","sequential-stimulus-presentation-old","135","354856","0.0-31.0-1.1","SS1619114701279","trial","","40","500","1694","images/stimuli/spore_stims/simple_12_A_b.gif","images/stimuli/spore_stims/simple_08_A_a.gif","forced_short","","11","simple_dissimilar","images/stimuli/spore_stims/simple_08_A_a.gif","","","","",""
"","null","html-keyboard-response","136","355951","0.0-31.0-0.2","SS1619114701279","","","null","","","","","","<p><img src= images/blank.png width =""600"" height = ""600"" style=""position:fixed;top:50%; left:50%; transform: translate(-50%, -50%); border:5px solid black"">","","","","","","","",""
"","408","sequential-stimulus-presentation-old","137","356863","0.0-31.0-1.2","SS1619114701279","trial","","40","500","908","images/stimuli/spore_stims/simple_12_A_b.gif","images/stimuli/spore_stims/simple_08_A_a.gif","forced_short","","11","simple_dissimilar","images/stimuli/spore_stims/simple_08_A_a.gif","","","","",""
"","null","html-keyboard-response","138","358099","0.0-31.0-0.3","SS1619114701279","","","null","","","","","","<p><img src= images/blank.png width =""600"" height = ""600"" style=""position:fixed;top:50%; left:50%; transform: translate(-50%, -50%); border:5px solid black"">","","","","","","","",""
"","1009","sequential-stimulus-presentation-old","139","359612","0.0-31.0-1.3","SS1619114701279","trial","","40","500","1509","images/stimuli/spore_stims/simple_12_A_b.gif","images/stimuli/spore_stims/simple_08_A_a.gif","forced_short","","11","simple_dissimilar","images/stimuli/spore_stims/simple_08_A_a.gif","","","","",""
"","null","html-keyboard-response","140","360818","0.0-31.0-0.4","SS1619114701279","","","null","","","","","","<p><img src= images/blank.png width =""600"" height = ""600"" style=""position:fixed;top:50%; left:50%; transform: translate(-50%, -50%); border:5px solid black"">","","","","","","","",""
"","507","sequential-stimulus-presentation-old","141","361828","0.0-31.0-1.4","SS1619114701279","trial","","40","500","1007","images/stimuli/spore_stims/simple_12_A_b.gif","images/stimuli/spore_stims/simple_08_A_a.gif","forced_short","","11","simple_dissimilar","images/stimuli/spore_stims/simple_08_A_a.gif","","","","",""
"","null","html-keyboard-response","142","362912","0.0-31.0-0.5","SS1619114701279","","","null","","","","","","<p><img src= images/blank.png width =""600"" height = ""600"" style=""position:fixed;top:50%; left:50%; transform: translate(-50%, -50%); border:5px solid black"">","","","","","","","",""
"","3367","sequential-stimulus-presentation-old","143","366783","0.0-31.0-1.5","SS1619114701279","trial","","40","500","3867","images/stimuli/spore_stims/simple_12_A_b.gif","images/stimuli/spore_stims/simple_08_A_a.gif","forced_short","","11","simple_dissimilar","images/stimuli/spore_stims/simple_12_A_b.gif","","","","",""
"[{""page_index"":0,""viewing_time"":3642}]","3642","instructions","144","370426","0.0-32.0","SS1619114701279","instructions","","","","","","","","","","","","","","","",""
"","7009","survey-likert","145","377440","0.0-33.0","SS1619114701279","similarity_question","","","","","","","","","","","","{""Q0"":4}","[0]","","images/stimuli/spore_stims/simple_12_A_b.gif","images/stimuli/spore_stims/simple_08_A_a.gif"
"","12065","survey-likert","146","389508","0.0-34.0","SS1619114701279","similarity_question","","","","","","","","","","","","{""Q0"":1}","[0]","","images/stimuli/spore_stims/complex_05_A_b.gif","images/stimuli/spore_stims/complex_19_A_a.gif"
"","9012","survey-likert","147","398525","0.0-35.0","SS1619114701279","similarity_question","","","","","","","","","","","","{""Q0"":2}","[0]","","images/stimuli/spore_stims/complex_19_A_b.gif","images/stimuli/spore_stims/complex_07_A_a.gif"
"","5007","survey-likert","148","403541","0.0-36.0","SS1619114701279","similarity_question","","","","","","","","","","","","{""Q0"":4}","[0]","","images/stimuli/spore_stims/complex_08_A_b.gif","images/stimuli/spore_stims/complex_01_A_a.gif"
"","7348","survey-likert","149","410897","0.0-37.0","SS1619114701279","similarity_question","","","","","","","","","","","","{""Q0"":4}","[0]","","images/stimuli/spore_stims/simple_07_A_b.gif","images/stimuli/spore_stims/simple_01_A_a.gif"
"","6021","survey-likert","150","416923","0.0-38.0","SS1619114701279","similarity_question","","","","","","","","","","","","{""Q0"":2}","[0]","","images/stimuli/spore_stims/complex_04_A_a.gif","images/stimuli/spore_stims/complex_16_A_b.gif"
"","4258","survey-likert","151","421190","0.0-39.0","SS1619114701279","similarity_question","","","","","","","","","","","","{""Q0"":5}","[0]","","images/stimuli/spore_stims/simple_19_A_b.gif","images/stimuli/spore_stims/simple_13_A_a.gif"
"","9675","survey-likert","152","430871","0.0-40.0","SS1619114701279","similarity_question","","","","","","","","","","","","{""Q0"":1}","[0]","","images/stimuli/spore_stims/complex_05_A_a.gif","images/stimuli/spore_stims/complex_01_A_b.gif"
"","5960","survey-likert","153","436839","0.0-41.0","SS1619114701279","similarity_question","","","","","","","","","","","","{""Q0"":1}","[0]","","images/stimuli/spore_stims/complex_11_A_a.gif","images/stimuli/spore_stims/complex_06_A_b.gif"
"","3874","survey-likert","154","440717","0.0-42.0","SS1619114701279","similarity_question","","","","","","","","","","","","{""Q0"":4}","[0]","","images/stimuli/spore_stims/simple_16_A_a.gif","images/stimuli/spore_stims/simple_04_A_b.gif"
"","3072","survey-likert","155","443798","0.0-43.0","SS1619114701279","similarity_question","","","","","","","","","","","","{""Q0"":4}","[0]","","images/stimuli/spore_stims/simple_05_A_a.gif","images/stimuli/spore_stims/simple_20_A_b.gif"
"","2554","survey-likert","156","446356","0.0-44.0","SS1619114701279","similarity_question","","","","","","","","","","","","{""Q0"":4}","[0]","","images/stimuli/spore_stims/simple_14_A_b.gif","images/stimuli/spore_stims/simple_09_A_a.gif"
"[{""page_index"":0,""viewing_time"":3757}]","3757","instructions","157","450118","0.0-45.0","SS1619114701279","instructions","","","","","","","","","","","","","","","",""
"","5406","survey-likert","158","455531","0.0-46.0","SS1619114701279","","","","","","","","","images/stimuli/spore_stims/simple_01_A_a.gif","","","","{""Q0"":0}","[0]","","",""
"","2486","survey-likert","159","458026","0.0-47.0","SS1619114701279","","","","","","","","","images/stimuli/spore_stims/simple_20_A_b.gif","","","","{""Q0"":1}","[0]","","",""
"","5738","survey-likert","160","463768","0.0-48.0","SS1619114701279","","","","","","","","","images/stimuli/spore_stims/complex_07_A_a.gif","","","","{""Q0"":5}","[0]","","",""
"","3242","survey-likert","161","467016","0.0-49.0","SS1619114701279","","","","","","","","","images/stimuli/spore_stims/simple_08_A_a.gif","","","","{""Q0"":0}","[0]","","",""
"","4208","survey-likert","162","471228","0.0-50.0","SS1619114701279","","","","","","","","","images/stimuli/spore_stims/complex_01_A_a.gif","","","","{""Q0"":5}","[0]","","",""
"","5196","survey-likert","163","476429","0.0-51.0","SS1619114701279","","","","","","","","","images/stimuli/spore_stims/simple_13_A_a.gif","","","","{""Q0"":0}","[0]","","",""
"","3427","survey-likert","164","479861","0.0-52.0","SS1619114701279","","","","","","","","","images/stimuli/spore_stims/complex_06_A_b.gif","","","","{""Q0"":5}","[0]","","",""
"","4796","survey-likert","165","484661","0.0-53.0","SS1619114701279","","","","","","","","","images/stimuli/spore_stims/complex_05_A_a.gif","","","","{""Q0"":5}","[0]","","",""
"","4698","survey-likert","166","489365","0.0-54.0","SS1619114701279","","","","","","","","","images/stimuli/spore_stims/complex_04_A_a.gif","","","","{""Q0"":5}","[0]","","",""
"","3405","survey-likert","167","492797","0.0-55.0","SS1619114701279","","","","","","","","","images/stimuli/spore_stims/simple_16_A_a.gif","","","","{""Q0"":1}","[0]","","",""
"","3320","survey-likert","168","496122","0.0-56.0","SS1619114701279","","","","","","","","","images/stimuli/spore_stims/simple_09_A_a.gif","","","","{""Q0"":1}","[0]","","",""
"","3480","survey-likert","169","499608","0.0-57.0","SS1619114701279","","","","","","","","","images/stimuli/spore_stims/complex_05_A_b.gif","","","","{""Q0"":5}","[0]","","",""
"[{""page_index"":0,""viewing_time"":1820}]","1820","instructions","170","501436","0.0-58.0","SS1619114701279","instructions","","","","","","","","","","","","","","","",""
"","4301","demog-age","171","505741","0.0-59.0","SS1619114701279","","","","","","","","","","","","","{""age"":""41""}","","","",""
"","3801","demog-ethnic-US","172","509554","0.0-60.0","SS1619114701279","","","","","","","","","","","","","{""ethnicity"":[""White""]}","[0]","","",""
"","8597","demog-gender-and-education","173","518159","0.0-61.0","SS1619114701279","","","","","","","","","","","","","{""gender"":""Male"",""education"":""High school diploma""}","[0,1]","","",""
"","24803","survey-text","174","542968","0.0-62.0","SS1619114701279","feedback","","","","","","","","","","","","{""Q0"":""The time for subission on MTurk is way too short.""}","","","",""
"[{""page_index"":0,""viewing_time"":962}]","962","instructions","175","543936","0.0-63.0","SS1619114701279","instructions","","","","","","","","","","","","","","","",""
