"view_history","rt","trial_type","trial_index","time_elapsed","internal_node_id","subject","stimulus_type","trial_stimulus","key_press","minimum_viewing_duration","trial_looking_time","block_deviant","block_background","exposure_type","stimulus","block_number","block_type","stimulus_displayed","responses","question_order","math_correct_answer","stimulus_left","stimulus_right"
"[{""page_index"":0,""viewing_time"":3899.7200000449084}]","3899.9100000364706","instructions","0","3902","0.0-0.0","SS1619113907158","","","","","","","","","","","","","","","","",""
"[{""page_index"":0,""viewing_time"":2027.5499999988824},{""page_index"":1,""viewing_time"":5272.909999999683}]","7300.68000004394","instructions","1","13216","0.0-1.0","SS1619113907158","instructions","","","","","","","","","","","","","","","",""
"","3555.27000001166","sequential-stimulus-presentation-old","2","17276","0.0-2.0","SS1619113907158","","","40","500","4055.27000001166","null","null","self_paced","","","","","","","","",""
"","1009.84499999322","sequential-stimulus-presentation-old","3","18789","0.0-3.0","SS1619113907158","","","40","500","1509.84499999322","null","null","self_paced","","","","","","","","",""
"[{""page_index"":0,""viewing_time"":15350.625000020955}]","15350.969999970403","instructions","4","34141","0.0-4.0","SS1619113907158","instructions","","","","","","","","","","","","","","","",""
"","1327.4450000026263","sequential-stimulus-presentation-old","5","45472","0.0-5.0","SS1619113907158","","","40","500","1827.4450000026263","null","null","forced_long","","","","","","","","",""
"","3120.684999972582","sequential-stimulus-presentation-old","6","48695","0.0-6.0","SS1619113907158","","","40","500","3620.684999972582","null","null","forced_long","","","","","","","","",""
"[{""page_index"":0,""viewing_time"":4881.724999984726}]","4882.069999992382","instructions","7","53579","0.0-7.0","SS1619113907158","instructions","","","","","","","","","","","","","","","",""
"[{""page_index"":0,""viewing_time"":6033.435000048485},{""page_index"":1,""viewing_time"":9896.565000002738},{""page_index"":2,""viewing_time"":2818.574999982957},{""page_index"":3,""viewing_time"":1477.6849999907427},{""page_index"":4,""viewing_time"":1122.4100000108592}]","21349.0050000255","instructions","8","74929","0.0-8.0","SS1619113907158","instructions","","","","","","","","","","","","","","","",""
"","null","html-keyboard-response","9","76012","0.0-9.0-0.0","SS1619113907158","","","null","","","","","","<p><img src= images/blank.png width =""600"" height = ""600"" style=""position:fixed;top:50%; left:50%; transform: translate(-50%, -50%); border:5px solid black"">","","","","","","","",""
"","682.8300000051968","sequential-stimulus-presentation-old","10","77200","0.0-9.0-1.0","SS1619113907158","trial","","40","500","1182.8300000051968","images/stimuli/spore_stims/complex_07_A_b.gif","images/stimuli/spore_stims/complex_19_A_a.gif","self_paced","","0","complex_dissimilar","images/stimuli/spore_stims/complex_19_A_a.gif","","","","",""
"","null","html-keyboard-response","11","78145","0.0-9.0-0.1","SS1619113907158","","","null","","","","","","<p><img src= images/blank.png width =""600"" height = ""600"" style=""position:fixed;top:50%; left:50%; transform: translate(-50%, -50%); border:5px solid black"">","","","","","","","",""
"","1248.1849999749102","sequential-stimulus-presentation-old","12","79897","0.0-9.0-1.1","SS1619113907158","trial","","40","500","1748.1849999749102","images/stimuli/spore_stims/complex_07_A_b.gif","images/stimuli/spore_stims/complex_19_A_a.gif","self_paced","","0","complex_dissimilar","images/stimuli/spore_stims/complex_19_A_a.gif","","","","",""
"","null","html-keyboard-response","13","80907","0.0-9.0-0.2","SS1619113907158","","","null","","","","","","<p><img src= images/blank.png width =""600"" height = ""600"" style=""position:fixed;top:50%; left:50%; transform: translate(-50%, -50%); border:5px solid black"">","","","","","","","",""
"","353.33499999251217","sequential-stimulus-presentation-old","14","81763","0.0-9.0-1.2","SS1619113907158","trial","","40","500","853.3349999925122","images/stimuli/spore_stims/complex_07_A_b.gif","images/stimuli/spore_stims/complex_19_A_a.gif","self_paced","","0","complex_dissimilar","images/stimuli/spore_stims/complex_19_A_a.gif","","","","",""
"","null","html-keyboard-response","15","82789","0.0-9.0-0.3","SS1619113907158","","","null","","","","","","<p><img src= images/blank.png width =""600"" height = ""600"" style=""position:fixed;top:50%; left:50%; transform: translate(-50%, -50%); border:5px solid black"">","","","","","","","",""
"","66.97499996516854","sequential-stimulus-presentation-old","16","83359","0.0-9.0-1.3","SS1619113907158","trial","","40","500","566.9749999651685","images/stimuli/spore_stims/complex_07_A_b.gif","images/stimuli/spore_stims/complex_19_A_a.gif","self_paced","","0","complex_dissimilar","images/stimuli/spore_stims/complex_19_A_a.gif","","","","",""
"","4871.900000027381","survey-multi-choice","17","88234","0.0-10.0","SS1619113907158","math_question","","","","","","","","","","","","{""Q0"":""13""}","[0]","13","",""
"","null","html-keyboard-response","18","89061","0.0-11.0-0.0","SS1619113907158","","","null","","","","","","<p><img src= images/blank.png width =""600"" height = ""600"" style=""position:fixed;top:50%; left:50%; transform: translate(-50%, -50%); border:5px solid black"">","","","","","","","",""
"","498.50500002503395","sequential-stimulus-presentation-old","19","99564","0.0-11.0-1.0","SS1619113907158","trial","","40","500","998.505000025034","images/stimuli/spore_stims/simple_07_A_a.gif","images/stimuli/spore_stims/simple_14_A_b.gif","forced_long","","1","simple_dissimilar","images/stimuli/spore_stims/simple_14_A_b.gif","","","","",""
"","null","html-keyboard-response","20","100773","0.0-11.0-0.1","SS1619113907158","","","null","","","","","","<p><img src= images/blank.png width =""600"" height = ""600"" style=""position:fixed;top:50%; left:50%; transform: translate(-50%, -50%); border:5px solid black"">","","","","","","","",""
"","381.3750000554137","sequential-stimulus-presentation-old","21","101660","0.0-11.0-1.1","SS1619113907158","trial","","40","500","881.3750000554137","images/stimuli/spore_stims/simple_07_A_a.gif","images/stimuli/spore_stims/simple_14_A_b.gif","forced_long","","1","simple_dissimilar","images/stimuli/spore_stims/simple_14_A_b.gif","","","","",""
"","null","html-keyboard-response","22","102876","0.0-11.0-0.2","SS1619113907158","","","null","","","","","","<p><img src= images/blank.png width =""600"" height = ""600"" style=""position:fixed;top:50%; left:50%; transform: translate(-50%, -50%); border:5px solid black"">","","","","","","","",""
"","9471.535000018775","sequential-stimulus-presentation-old","23","112850","0.0-11.0-1.2","SS1619113907158","trial","","40","500","9971.535000018775","images/stimuli/spore_stims/simple_07_A_a.gif","images/stimuli/spore_stims/simple_14_A_b.gif","forced_long","","1","simple_dissimilar","images/stimuli/spore_stims/simple_14_A_b.gif","","","","",""
"","null","html-keyboard-response","24","113806","0.0-11.0-0.3","SS1619113907158","","","null","","","","","","<p><img src= images/blank.png width =""600"" height = ""600"" style=""position:fixed;top:50%; left:50%; transform: translate(-50%, -50%); border:5px solid black"">","","","","","","","",""
"","520.7400000072084","sequential-stimulus-presentation-old","25","114831","0.0-11.0-1.3","SS1619113907158","trial","","40","500","1020.7400000072084","images/stimuli/spore_stims/simple_07_A_a.gif","images/stimuli/spore_stims/simple_14_A_b.gif","forced_long","","1","simple_dissimilar","images/stimuli/spore_stims/simple_14_A_b.gif","","","","",""
"","null","html-keyboard-response","26","115694","0.0-11.0-0.4","SS1619113907158","","","null","","","","","","<p><img src= images/blank.png width =""600"" height = ""600"" style=""position:fixed;top:50%; left:50%; transform: translate(-50%, -50%); border:5px solid black"">","","","","","","","",""
"","89.80499999597669","sequential-stimulus-presentation-old","27","116288","0.0-11.0-1.4","SS1619113907158","trial","","40","500","589.8049999959767","images/stimuli/spore_stims/simple_07_A_a.gif","images/stimuli/spore_stims/simple_14_A_b.gif","forced_long","","1","simple_dissimilar","images/stimuli/spore_stims/simple_14_A_b.gif","","","","",""
"","null","html-keyboard-response","28","117324","0.0-11.0-0.5","SS1619113907158","","","null","","","","","","<p><img src= images/blank.png width =""600"" height = ""600"" style=""position:fixed;top:50%; left:50%; transform: translate(-50%, -50%); border:5px solid black"">","","","","","","","",""
"","8.245000033639371","sequential-stimulus-presentation-old","29","117835","0.0-11.0-1.5","SS1619113907158","trial","","40","500","508.24500003363937","images/stimuli/spore_stims/simple_07_A_a.gif","images/stimuli/spore_stims/simple_14_A_b.gif","forced_long","","1","simple_dissimilar","images/stimuli/spore_stims/simple_14_A_b.gif","","","","",""
"","3491.860000009183","survey-multi-choice","30","121329","0.0-12.0","SS1619113907158","math_question","","","","","","","","","","","","{""Q0"":""6""}","[0]","6","",""
"","null","html-keyboard-response","31","122582","0.0-13.0-0.0","SS1619113907158","","","null","","","","","","<p><img src= images/blank.png width =""600"" height = ""600"" style=""position:fixed;top:50%; left:50%; transform: translate(-50%, -50%); border:5px solid black"">","","","","","","","",""
"","2764.499999990221","sequential-stimulus-presentation-old","32","125850","0.0-13.0-1.0","SS1619113907158","trial","","40","500","3264.499999990221","images/stimuli/spore_stims/simple_18_A_a.gif","images/stimuli/spore_stims/simple_11_A_b.gif","self_paced","","2","simple_dissimilar","images/stimuli/spore_stims/simple_11_A_b.gif","","","","",""
"","null","html-keyboard-response","33","126656","0.0-13.0-0.1","SS1619113907158","","","null","","","","","","<p><img src= images/blank.png width =""600"" height = ""600"" style=""position:fixed;top:50%; left:50%; transform: translate(-50%, -50%); border:5px solid black"">","","","","","","","",""
"","398.31000001868233","sequential-stimulus-presentation-old","34","127558","0.0-13.0-1.1","SS1619113907158","trial","","40","500","898.3100000186823","images/stimuli/spore_stims/simple_18_A_a.gif","images/stimuli/spore_stims/simple_11_A_b.gif","self_paced","","2","simple_dissimilar","images/stimuli/spore_stims/simple_18_A_a.gif","","","","",""
"","null","html-keyboard-response","35","128723","0.0-13.0-0.2","SS1619113907158","","","null","","","","","","<p><img src= images/blank.png width =""600"" height = ""600"" style=""position:fixed;top:50%; left:50%; transform: translate(-50%, -50%); border:5px solid black"">","","","","","","","",""
"","1216.7550000012852","sequential-stimulus-presentation-old","36","130444","0.0-13.0-1.2","SS1619113907158","trial","","40","500","1716.7550000012852","images/stimuli/spore_stims/simple_18_A_a.gif","images/stimuli/spore_stims/simple_11_A_b.gif","self_paced","","2","simple_dissimilar","images/stimuli/spore_stims/simple_18_A_a.gif","","","","",""
"","null","html-keyboard-response","37","131724","0.0-13.0-0.3","SS1619113907158","","","null","","","","","","<p><img src= images/blank.png width =""600"" height = ""600"" style=""position:fixed;top:50%; left:50%; transform: translate(-50%, -50%); border:5px solid black"">","","","","","","","",""
"","4045.3550000092946","sequential-stimulus-presentation-old","38","136273","0.0-13.0-1.3","SS1619113907158","trial","","40","500","4545.355000009295","images/stimuli/spore_stims/simple_18_A_a.gif","images/stimuli/spore_stims/simple_11_A_b.gif","self_paced","","2","simple_dissimilar","images/stimuli/spore_stims/simple_11_A_b.gif","","","","",""
"","7891.204999992624","survey-multi-choice","39","144167","0.0-14.0","SS1619113907158","math_question","","","","","","","","","","","","{""Q0"":""13""}","[0]","13","",""
"","null","html-keyboard-response","40","145389","0.0-15.0-0.0","SS1619113907158","","","null","","","","","","<p><img src= images/blank.png width =""600"" height = ""600"" style=""position:fixed;top:50%; left:50%; transform: translate(-50%, -50%); border:5px solid black"">","","","","","","","",""
"","1162.015000008978","sequential-stimulus-presentation-old","41","156557","0.0-15.0-1.0","SS1619113907158","trial","","40","500","1662.015000008978","images/stimuli/spore_stims/complex_01_A_a.gif","images/stimuli/spore_stims/complex_12_A_b.gif","forced_long","","3","complex_dissimilar","images/stimuli/spore_stims/complex_12_A_b.gif","","","","",""
"","null","html-keyboard-response","42","157788","0.0-15.0-0.1","SS1619113907158","","","null","","","","","","<p><img src= images/blank.png width =""600"" height = ""600"" style=""position:fixed;top:50%; left:50%; transform: translate(-50%, -50%); border:5px solid black"">","","","","","","","",""
"","2150.6050000316463","sequential-stimulus-presentation-old","43","160443","0.0-15.0-1.1","SS1619113907158","trial","","40","500","2650.6050000316463","images/stimuli/spore_stims/complex_01_A_a.gif","images/stimuli/spore_stims/complex_12_A_b.gif","forced_long","","3","complex_dissimilar","images/stimuli/spore_stims/complex_12_A_b.gif","","","","",""
"","null","html-keyboard-response","44","161730","0.0-15.0-0.2","SS1619113907158","","","null","","","","","","<p><img src= images/blank.png width =""600"" height = ""600"" style=""position:fixed;top:50%; left:50%; transform: translate(-50%, -50%); border:5px solid black"">","","","","","","","",""
"","567.7150000119582","sequential-stimulus-presentation-old","45","162802","0.0-15.0-1.2","SS1619113907158","trial","","40","500","1067.7150000119582","images/stimuli/spore_stims/complex_01_A_a.gif","images/stimuli/spore_stims/complex_12_A_b.gif","forced_long","","3","complex_dissimilar","images/stimuli/spore_stims/complex_12_A_b.gif","","","","",""
"","null","html-keyboard-response","46","163690","0.0-15.0-0.3","SS1619113907158","","","null","","","","","","<p><img src= images/blank.png width =""600"" height = ""600"" style=""position:fixed;top:50%; left:50%; transform: translate(-50%, -50%); border:5px solid black"">","","","","","","","",""
"","307.3500000173226","sequential-stimulus-presentation-old","47","164501","0.0-15.0-1.3","SS1619113907158","trial","","40","500","807.3500000173226","images/stimuli/spore_stims/complex_01_A_a.gif","images/stimuli/spore_stims/complex_12_A_b.gif","forced_long","","3","complex_dissimilar","images/stimuli/spore_stims/complex_12_A_b.gif","","","","",""
"","null","html-keyboard-response","48","165418","0.0-15.0-0.4","SS1619113907158","","","null","","","","","","<p><img src= images/blank.png width =""600"" height = ""600"" style=""position:fixed;top:50%; left:50%; transform: translate(-50%, -50%); border:5px solid black"">","","","","","","","",""
"","802.765000029467","sequential-stimulus-presentation-old","49","166725","0.0-15.0-1.4","SS1619113907158","trial","","40","500","1302.765000029467","images/stimuli/spore_stims/complex_01_A_a.gif","images/stimuli/spore_stims/complex_12_A_b.gif","forced_long","","3","complex_dissimilar","images/stimuli/spore_stims/complex_12_A_b.gif","","","","",""
"","3720.035000005737","survey-multi-choice","50","170447","0.0-16.0","SS1619113907158","math_question","","","","","","","","","","","","{""Q0"":""10""}","[0]","10","",""
"","null","html-keyboard-response","51","171410","0.0-17.0-0.0","SS1619113907158","","","null","","","","","","<p><img src= images/blank.png width =""600"" height = ""600"" style=""position:fixed;top:50%; left:50%; transform: translate(-50%, -50%); border:5px solid black"">","","","","","","","",""
"","318.0300000240095","sequential-stimulus-presentation-old","52","181732","0.0-17.0-1.0","SS1619113907158","trial","","40","500","818.0300000240095","images/stimuli/spore_stims/simple_12_A_a.gif","images/stimuli/spore_stims/simple_05_A_b.gif","forced_long","","4","simple_dissimilar","images/stimuli/spore_stims/simple_05_A_b.gif","","","","",""
"","null","html-keyboard-response","53","182750","0.0-17.0-0.1","SS1619113907158","","","null","","","","","","<p><img src= images/blank.png width =""600"" height = ""600"" style=""position:fixed;top:50%; left:50%; transform: translate(-50%, -50%); border:5px solid black"">","","","","","","","",""
"","155.399999988731","sequential-stimulus-presentation-old","54","183410","0.0-17.0-1.1","SS1619113907158","trial","","40","500","655.399999988731","images/stimuli/spore_stims/simple_12_A_a.gif","images/stimuli/spore_stims/simple_05_A_b.gif","forced_long","","4","simple_dissimilar","images/stimuli/spore_stims/simple_05_A_b.gif","","","","",""
"","null","html-keyboard-response","55","184220","0.0-17.0-0.2","SS1619113907158","","","null","","","","","","<p><img src= images/blank.png width =""600"" height = ""600"" style=""position:fixed;top:50%; left:50%; transform: translate(-50%, -50%); border:5px solid black"">","","","","","","","",""
"","25.305000017397106","sequential-stimulus-presentation-old","56","184749","0.0-17.0-1.2","SS1619113907158","trial","","40","500","525.3050000173971","images/stimuli/spore_stims/simple_12_A_a.gif","images/stimuli/spore_stims/simple_05_A_b.gif","forced_long","","4","simple_dissimilar","images/stimuli/spore_stims/simple_12_A_a.gif","","","","",""
"","null","html-keyboard-response","57","185920","0.0-17.0-0.3","SS1619113907158","","","null","","","","","","<p><img src= images/blank.png width =""600"" height = ""600"" style=""position:fixed;top:50%; left:50%; transform: translate(-50%, -50%); border:5px solid black"">","","","","","","","",""
"","1729.8449999652803","sequential-stimulus-presentation-old","58","188155","0.0-17.0-1.3","SS1619113907158","trial","","40","500","2229.8449999652803","images/stimuli/spore_stims/simple_12_A_a.gif","images/stimuli/spore_stims/simple_05_A_b.gif","forced_long","","4","simple_dissimilar","images/stimuli/spore_stims/simple_05_A_b.gif","","","","",""
"","null","html-keyboard-response","59","189059","0.0-17.0-0.4","SS1619113907158","","","null","","","","","","<p><img src= images/blank.png width =""600"" height = ""600"" style=""position:fixed;top:50%; left:50%; transform: translate(-50%, -50%); border:5px solid black"">","","","","","","","",""
"","99.69000000273809","sequential-stimulus-presentation-old","60","189662","0.0-17.0-1.4","SS1619113907158","trial","","40","500","599.6900000027381","images/stimuli/spore_stims/simple_12_A_a.gif","images/stimuli/spore_stims/simple_05_A_b.gif","forced_long","","4","simple_dissimilar","images/stimuli/spore_stims/simple_12_A_a.gif","","","","",""
"","3905.9249999700114","survey-multi-choice","61","193571","0.0-18.0","SS1619113907158","math_question","","","","","","","","","","","","{""Q0"":""9""}","[0]","9","",""
"","null","html-keyboard-response","62","194636","0.0-19.0-0.0","SS1619113907158","","","null","","","","","","<p><img src= images/blank.png width =""600"" height = ""600"" style=""position:fixed;top:50%; left:50%; transform: translate(-50%, -50%); border:5px solid black"">","","","","","","","",""
"","330.1600000122562","sequential-stimulus-presentation-old","63","195470","0.0-19.0-1.0","SS1619113907158","trial","","40","500","830.1600000122562","images/stimuli/spore_stims/simple_16_A_b.gif","images/stimuli/spore_stims/simple_15_A_a.gif","self_paced","","5","simple_dissimilar","images/stimuli/spore_stims/simple_15_A_a.gif","","","","",""
"","null","html-keyboard-response","64","196277","0.0-19.0-0.1","SS1619113907158","","","null","","","","","","<p><img src= images/blank.png width =""600"" height = ""600"" style=""position:fixed;top:50%; left:50%; transform: translate(-50%, -50%); border:5px solid black"">","","","","","","","",""
"","387.9399999859743","sequential-stimulus-presentation-old","65","197169","0.0-19.0-1.1","SS1619113907158","trial","","40","500","887.9399999859743","images/stimuli/spore_stims/simple_16_A_b.gif","images/stimuli/spore_stims/simple_15_A_a.gif","self_paced","","5","simple_dissimilar","images/stimuli/spore_stims/simple_15_A_a.gif","","","","",""
"","null","html-keyboard-response","66","198012","0.0-19.0-0.2","SS1619113907158","","","null","","","","","","<p><img src= images/blank.png width =""600"" height = ""600"" style=""position:fixed;top:50%; left:50%; transform: translate(-50%, -50%); border:5px solid black"">","","","","","","","",""
"","972.345000016503","sequential-stimulus-presentation-old","67","199489","0.0-19.0-1.2","SS1619113907158","trial","","40","500","1472.345000016503","images/stimuli/spore_stims/simple_16_A_b.gif","images/stimuli/spore_stims/simple_15_A_a.gif","self_paced","","5","simple_dissimilar","images/stimuli/spore_stims/simple_15_A_a.gif","","","","",""
"","null","html-keyboard-response","68","200340","0.0-19.0-0.3","SS1619113907158","","","null","","","","","","<p><img src= images/blank.png width =""600"" height = ""600"" style=""position:fixed;top:50%; left:50%; transform: translate(-50%, -50%); border:5px solid black"">","","","","","","","",""
"","4081.164999981411","sequential-stimulus-presentation-old","69","204926","0.0-19.0-1.3","SS1619113907158","trial","","40","500","4581.164999981411","images/stimuli/spore_stims/simple_16_A_b.gif","images/stimuli/spore_stims/simple_15_A_a.gif","self_paced","","5","simple_dissimilar","images/stimuli/spore_stims/simple_15_A_a.gif","","","","",""
"","null","html-keyboard-response","70","205987","0.0-19.0-0.4","SS1619113907158","","","null","","","","","","<p><img src= images/blank.png width =""600"" height = ""600"" style=""position:fixed;top:50%; left:50%; transform: translate(-50%, -50%); border:5px solid black"">","","","","","","","",""
"","1669.2599999951199","sequential-stimulus-presentation-old","71","208161","0.0-19.0-1.4","SS1619113907158","trial","","40","500","2169.25999999512","images/stimuli/spore_stims/simple_16_A_b.gif","images/stimuli/spore_stims/simple_15_A_a.gif","self_paced","","5","simple_dissimilar","images/stimuli/spore_stims/simple_15_A_a.gif","","","","",""
"","4515.79999999376","survey-multi-choice","72","212680","0.0-20.0","SS1619113907158","math_question","","","","","","","","","","","","{""Q0"":""11""}","[0]","11","",""
"","null","html-keyboard-response","73","213569","0.0-21.0-0.0","SS1619113907158","","","null","","","","","","<p><img src= images/blank.png width =""600"" height = ""600"" style=""position:fixed;top:50%; left:50%; transform: translate(-50%, -50%); border:5px solid black"">","","","","","","","",""
"","349.38999998848885","sequential-stimulus-presentation-old","74","214022","0.0-21.0-1.0","SS1619113907158","trial","","40","500","849.3899999884889","images/stimuli/spore_stims/simple_13_A_b.gif","images/stimuli/spore_stims/simple_03_A_a.gif","forced_short","","6","simple_dissimilar","images/stimuli/spore_stims/simple_03_A_a.gif","","","","",""
"","null","html-keyboard-response","75","215208","0.0-21.0-0.1","SS1619113907158","","","null","","","","","","<p><img src= images/blank.png width =""600"" height = ""600"" style=""position:fixed;top:50%; left:50%; transform: translate(-50%, -50%); border:5px solid black"">","","","","","","","",""
"","682.0000000298023","sequential-stimulus-presentation-old","76","216395","0.0-21.0-1.1","SS1619113907158","trial","","40","500","1182.0000000298023","images/stimuli/spore_stims/simple_13_A_b.gif","images/stimuli/spore_stims/simple_03_A_a.gif","forced_short","","6","simple_dissimilar","images/stimuli/spore_stims/simple_03_A_a.gif","","","","",""
"","null","html-keyboard-response","77","217497","0.0-21.0-0.2","SS1619113907158","","","null","","","","","","<p><img src= images/blank.png width =""600"" height = ""600"" style=""position:fixed;top:50%; left:50%; transform: translate(-50%, -50%); border:5px solid black"">","","","","","","","",""
"","1371.3149999966845","sequential-stimulus-presentation-old","78","219372","0.0-21.0-1.2","SS1619113907158","trial","","40","500","1871.3149999966845","images/stimuli/spore_stims/simple_13_A_b.gif","images/stimuli/spore_stims/simple_03_A_a.gif","forced_short","","6","simple_dissimilar","images/stimuli/spore_stims/simple_13_A_b.gif","","","","",""
"","null","html-keyboard-response","79","220243","0.0-21.0-0.3","SS1619113907158","","","null","","","","","","<p><img src= images/blank.png width =""600"" height = ""600"" style=""position:fixed;top:50%; left:50%; transform: translate(-50%, -50%); border:5px solid black"">","","","","","","","",""
"","2430.355000018608","sequential-stimulus-presentation-old","80","223177","0.0-21.0-1.3","SS1619113907158","trial","","40","500","2930.355000018608","images/stimuli/spore_stims/simple_13_A_b.gif","images/stimuli/spore_stims/simple_03_A_a.gif","forced_short","","6","simple_dissimilar","images/stimuli/spore_stims/simple_13_A_b.gif","","","","",""
"","2727.8100000112318","survey-multi-choice","81","225909","0.0-22.0","SS1619113907158","math_question","","","","","","","","","","","","{""Q0"":""10""}","[0]","10","",""
"","null","html-keyboard-response","82","227109","0.0-23.0-0.0","SS1619113907158","","","null","","","","","","<p><img src= images/blank.png width =""600"" height = ""600"" style=""position:fixed;top:50%; left:50%; transform: translate(-50%, -50%); border:5px solid black"">","","","","","","","",""
"","3690.520000003744","sequential-stimulus-presentation-old","83","230904","0.0-23.0-1.0","SS1619113907158","trial","","40","500","4190.520000003744","images/stimuli/spore_stims/simple_02_A_b.gif","images/stimuli/spore_stims/simple_01_A_a.gif","forced_short","","7","simple_dissimilar","images/stimuli/spore_stims/simple_01_A_a.gif","","","","",""
"","null","html-keyboard-response","84","232179","0.0-23.0-0.1","SS1619113907158","","","null","","","","","","<p><img src= images/blank.png width =""600"" height = ""600"" style=""position:fixed;top:50%; left:50%; transform: translate(-50%, -50%); border:5px solid black"">","","","","","","","",""
"","5.550000001676381","sequential-stimulus-presentation-old","85","232689","0.0-23.0-1.1","SS1619113907158","trial","","40","500","505.5500000016764","images/stimuli/spore_stims/simple_02_A_b.gif","images/stimuli/spore_stims/simple_01_A_a.gif","forced_short","","7","simple_dissimilar","images/stimuli/spore_stims/simple_01_A_a.gif","","","","",""
"","null","html-keyboard-response","86","233925","0.0-23.0-0.2","SS1619113907158","","","null","","","","","","<p><img src= images/blank.png width =""600"" height = ""600"" style=""position:fixed;top:50%; left:50%; transform: translate(-50%, -50%); border:5px solid black"">","","","","","","","",""
"","3631.984999985434","sequential-stimulus-presentation-old","87","238062","0.0-23.0-1.2","SS1619113907158","trial","","40","500","4131.984999985434","images/stimuli/spore_stims/simple_02_A_b.gif","images/stimuli/spore_stims/simple_01_A_a.gif","forced_short","","7","simple_dissimilar","images/stimuli/spore_stims/simple_02_A_b.gif","","","","",""
"","null","html-keyboard-response","88","238902","0.0-23.0-0.3","SS1619113907158","","","null","","","","","","<p><img src= images/blank.png width =""600"" height = ""600"" style=""position:fixed;top:50%; left:50%; transform: translate(-50%, -50%); border:5px solid black"">","","","","","","","",""
"","1587.5249999808148","sequential-stimulus-presentation-old","89","240994","0.0-23.0-1.3","SS1619113907158","trial","","40","500","2087.5249999808148","images/stimuli/spore_stims/simple_02_A_b.gif","images/stimuli/spore_stims/simple_01_A_a.gif","forced_short","","7","simple_dissimilar","images/stimuli/spore_stims/simple_01_A_a.gif","","","","",""
"","null","html-keyboard-response","90","241801","0.0-23.0-0.4","SS1619113907158","","","null","","","","","","<p><img src= images/blank.png width =""600"" height = ""600"" style=""position:fixed;top:50%; left:50%; transform: translate(-50%, -50%); border:5px solid black"">","","","","","","","",""
"","1767.6600000122562","sequential-stimulus-presentation-old","91","244072","0.0-23.0-1.4","SS1619113907158","trial","","40","500","2267.660000012256","images/stimuli/spore_stims/simple_02_A_b.gif","images/stimuli/spore_stims/simple_01_A_a.gif","forced_short","","7","simple_dissimilar","images/stimuli/spore_stims/simple_01_A_a.gif","","","","",""
"","5848.150000034366","survey-multi-choice","92","249924","0.0-24.0","SS1619113907158","math_question","","","","","","","","","","","","{""Q0"":""13""}","[0]","13","",""
"","null","html-keyboard-response","93","250972","0.0-25.0-0.0","SS1619113907158","","","null","","","","","","<p><img src= images/blank.png width =""600"" height = ""600"" style=""position:fixed;top:50%; left:50%; transform: translate(-50%, -50%); border:5px solid black"">","","","","","","","",""
"","445.37999999010935","sequential-stimulus-presentation-old","94","261422","0.0-25.0-1.0","SS1619113907158","trial","","40","500","945.3799999901094","images/stimuli/spore_stims/complex_17_A_a.gif","images/stimuli/spore_stims/complex_18_A_b.gif","forced_long","","8","complex_dissimilar","images/stimuli/spore_stims/complex_18_A_b.gif","","","","",""
"","null","html-keyboard-response","95","262306","0.0-25.0-0.1","SS1619113907158","","","null","","","","","","<p><img src= images/blank.png width =""600"" height = ""600"" style=""position:fixed;top:50%; left:50%; transform: translate(-50%, -50%); border:5px solid black"">","","","","","","","",""
"","325.9599999873899","sequential-stimulus-presentation-old","96","263137","0.0-25.0-1.1","SS1619113907158","trial","","40","500","825.9599999873899","images/stimuli/spore_stims/complex_17_A_a.gif","images/stimuli/spore_stims/complex_18_A_b.gif","forced_long","","8","complex_dissimilar","images/stimuli/spore_stims/complex_18_A_b.gif","","","","",""
"","null","html-keyboard-response","97","264199","0.0-25.0-0.2","SS1619113907158","","","null","","","","","","<p><img src= images/blank.png width =""600"" height = ""600"" style=""position:fixed;top:50%; left:50%; transform: translate(-50%, -50%); border:5px solid black"">","","","","","","","",""
"","833.760000008624","sequential-stimulus-presentation-old","98","265538","0.0-25.0-1.2","SS1619113907158","trial","","40","500","1333.760000008624","images/stimuli/spore_stims/complex_17_A_a.gif","images/stimuli/spore_stims/complex_18_A_b.gif","forced_long","","8","complex_dissimilar","images/stimuli/spore_stims/complex_18_A_b.gif","","","","",""
"","null","html-keyboard-response","99","266619","0.0-25.0-0.3","SS1619113907158","","","null","","","","","","<p><img src= images/blank.png width =""600"" height = ""600"" style=""position:fixed;top:50%; left:50%; transform: translate(-50%, -50%); border:5px solid black"">","","","","","","","",""
"","1.4400000218302011","sequential-stimulus-presentation-old","100","267125","0.0-25.0-1.3","SS1619113907158","trial","","40","500","501.4400000218302","images/stimuli/spore_stims/complex_17_A_a.gif","images/stimuli/spore_stims/complex_18_A_b.gif","forced_long","","8","complex_dissimilar","images/stimuli/spore_stims/complex_18_A_b.gif","","","","",""
"","null","html-keyboard-response","101","268159","0.0-25.0-0.4","SS1619113907158","","","null","","","","","","<p><img src= images/blank.png width =""600"" height = ""600"" style=""position:fixed;top:50%; left:50%; transform: translate(-50%, -50%); border:5px solid black"">","","","","","","","",""
"","676.6499999794178","sequential-stimulus-presentation-old","102","269340","0.0-25.0-1.4","SS1619113907158","trial","","40","500","1176.6499999794178","images/stimuli/spore_stims/complex_17_A_a.gif","images/stimuli/spore_stims/complex_18_A_b.gif","forced_long","","8","complex_dissimilar","images/stimuli/spore_stims/complex_17_A_a.gif","","","","",""
"","3072.2899999818765","survey-multi-choice","103","272417","0.0-26.0","SS1619113907158","math_question","","","","","","","","","","","","{""Q0"":""11""}","[0]","11","",""
"","null","html-keyboard-response","104","273631","0.0-27.0-0.0","SS1619113907158","","","null","","","","","","<p><img src= images/blank.png width =""600"" height = ""600"" style=""position:fixed;top:50%; left:50%; transform: translate(-50%, -50%); border:5px solid black"">","","","","","","","",""
"","2002.5949999690056","sequential-stimulus-presentation-old","105","276137","0.0-27.0-1.0","SS1619113907158","trial","","40","500","2502.5949999690056","images/stimuli/spore_stims/complex_05_A_a.gif","images/stimuli/spore_stims/complex_09_A_b.gif","self_paced","","9","complex_dissimilar","images/stimuli/spore_stims/complex_09_A_b.gif","","","","",""
"","null","html-keyboard-response","106","277081","0.0-27.0-0.1","SS1619113907158","","","null","","","","","","<p><img src= images/blank.png width =""600"" height = ""600"" style=""position:fixed;top:50%; left:50%; transform: translate(-50%, -50%); border:5px solid black"">","","","","","","","",""
"","843.0550000048243","sequential-stimulus-presentation-old","107","278428","0.0-27.0-1.1","SS1619113907158","trial","","40","500","1343.0550000048243","images/stimuli/spore_stims/complex_05_A_a.gif","images/stimuli/spore_stims/complex_09_A_b.gif","self_paced","","9","complex_dissimilar","images/stimuli/spore_stims/complex_09_A_b.gif","","","","",""
"","null","html-keyboard-response","108","279392","0.0-27.0-0.2","SS1619113907158","","","null","","","","","","<p><img src= images/blank.png width =""600"" height = ""600"" style=""position:fixed;top:50%; left:50%; transform: translate(-50%, -50%); border:5px solid black"">","","","","","","","",""
"","798.6649999511428","sequential-stimulus-presentation-old","109","280695","0.0-27.0-1.2","SS1619113907158","trial","","40","500","1298.6649999511428","images/stimuli/spore_stims/complex_05_A_a.gif","images/stimuli/spore_stims/complex_09_A_b.gif","self_paced","","9","complex_dissimilar","images/stimuli/spore_stims/complex_09_A_b.gif","","","","",""
"","null","html-keyboard-response","110","281639","0.0-27.0-0.3","SS1619113907158","","","null","","","","","","<p><img src= images/blank.png width =""600"" height = ""600"" style=""position:fixed;top:50%; left:50%; transform: translate(-50%, -50%); border:5px solid black"">","","","","","","","",""
"","1983.2300000125542","sequential-stimulus-presentation-old","111","284127","0.0-27.0-1.3","SS1619113907158","trial","","40","500","2483.2300000125542","images/stimuli/spore_stims/complex_05_A_a.gif","images/stimuli/spore_stims/complex_09_A_b.gif","self_paced","","9","complex_dissimilar","images/stimuli/spore_stims/complex_09_A_b.gif","","","","",""
"","4482.865000027232","survey-multi-choice","112","288613","0.0-28.0","SS1619113907158","math_question","","","","","","","","","","","","{""Q0"":""16""}","[0]","16","",""
"","null","html-keyboard-response","113","289661","0.0-29.0-0.0","SS1619113907158","","","null","","","","","","<p><img src= images/blank.png width =""600"" height = ""600"" style=""position:fixed;top:50%; left:50%; transform: translate(-50%, -50%); border:5px solid black"">","","","","","","","",""
"","972.8799999575131","sequential-stimulus-presentation-old","114","290740","0.0-29.0-1.0","SS1619113907158","trial","","40","500","1472.879999957513","images/stimuli/spore_stims/complex_08_A_b.gif","images/stimuli/spore_stims/complex_03_A_a.gif","forced_short","","10","complex_dissimilar","images/stimuli/spore_stims/complex_03_A_a.gif","","","","",""
"","null","html-keyboard-response","115","291580","0.0-29.0-0.1","SS1619113907158","","","null","","","","","","<p><img src= images/blank.png width =""600"" height = ""600"" style=""position:fixed;top:50%; left:50%; transform: translate(-50%, -50%); border:5px solid black"">","","","","","","","",""
"","271.40999998664483","sequential-stimulus-presentation-old","116","292356","0.0-29.0-1.1","SS1619113907158","trial","","40","500","771.4099999866448","images/stimuli/spore_stims/complex_08_A_b.gif","images/stimuli/spore_stims/complex_03_A_a.gif","forced_short","","10","complex_dissimilar","images/stimuli/spore_stims/complex_03_A_a.gif","","","","",""
"","null","html-keyboard-response","117","293476","0.0-29.0-0.2","SS1619113907158","","","null","","","","","","<p><img src= images/blank.png width =""600"" height = ""600"" style=""position:fixed;top:50%; left:50%; transform: translate(-50%, -50%); border:5px solid black"">","","","","","","","",""
"","146.78000001003966","sequential-stimulus-presentation-old","118","294128","0.0-29.0-1.2","SS1619113907158","trial","","40","500","646.7800000100397","images/stimuli/spore_stims/complex_08_A_b.gif","images/stimuli/spore_stims/complex_03_A_a.gif","forced_short","","10","complex_dissimilar","images/stimuli/spore_stims/complex_08_A_b.gif","","","","",""
"","null","html-keyboard-response","119","295019","0.0-29.0-0.3","SS1619113907158","","","null","","","","","","<p><img src= images/blank.png width =""600"" height = ""600"" style=""position:fixed;top:50%; left:50%; transform: translate(-50%, -50%); border:5px solid black"">","","","","","","","",""
"","82.05999998608604","sequential-stimulus-presentation-old","120","295606","0.0-29.0-1.3","SS1619113907158","trial","","40","500","582.059999986086","images/stimuli/spore_stims/complex_08_A_b.gif","images/stimuli/spore_stims/complex_03_A_a.gif","forced_short","","10","complex_dissimilar","images/stimuli/spore_stims/complex_03_A_a.gif","","","","",""
"","null","html-keyboard-response","121","296892","0.0-29.0-0.4","SS1619113907158","","","null","","","","","","<p><img src= images/blank.png width =""600"" height = ""600"" style=""position:fixed;top:50%; left:50%; transform: translate(-50%, -50%); border:5px solid black"">","","","","","","","",""
"","316.4200000464916","sequential-stimulus-presentation-old","122","297712","0.0-29.0-1.4","SS1619113907158","trial","","40","500","816.4200000464916","images/stimuli/spore_stims/complex_08_A_b.gif","images/stimuli/spore_stims/complex_03_A_a.gif","forced_short","","10","complex_dissimilar","images/stimuli/spore_stims/complex_08_A_b.gif","","","","",""
"","4011.4900000044145","survey-multi-choice","123","301728","0.0-30.0","SS1619113907158","math_question","","","","","","","","","","","","{""Q0"":""10""}","[0]","10","",""
"","null","html-keyboard-response","124","302850","0.0-31.0-0.0","SS1619113907158","","","null","","","","","","<p><img src= images/blank.png width =""600"" height = ""600"" style=""position:fixed;top:50%; left:50%; transform: translate(-50%, -50%); border:5px solid black"">","","","","","","","",""
"","2750.285000016447","sequential-stimulus-presentation-old","125","305706","0.0-31.0-1.0","SS1619113907158","trial","","40","500","3250.285000016447","images/stimuli/spore_stims/complex_07_A_a.gif","images/stimuli/spore_stims/complex_16_A_b.gif","forced_short","","11","complex_dissimilar","images/stimuli/spore_stims/complex_16_A_b.gif","","","","",""
"","null","html-keyboard-response","126","306866","0.0-31.0-0.1","SS1619113907158","","","null","","","","","","<p><img src= images/blank.png width =""600"" height = ""600"" style=""position:fixed;top:50%; left:50%; transform: translate(-50%, -50%); border:5px solid black"">","","","","","","","",""
"","1085.2200000081211","sequential-stimulus-presentation-old","127","308455","0.0-31.0-1.1","SS1619113907158","trial","","40","500","1585.2200000081211","images/stimuli/spore_stims/complex_07_A_a.gif","images/stimuli/spore_stims/complex_16_A_b.gif","forced_short","","11","complex_dissimilar","images/stimuli/spore_stims/complex_16_A_b.gif","","","","",""
"","null","html-keyboard-response","128","309639","0.0-31.0-0.2","SS1619113907158","","","null","","","","","","<p><img src= images/blank.png width =""600"" height = ""600"" style=""position:fixed;top:50%; left:50%; transform: translate(-50%, -50%); border:5px solid black"">","","","","","","","",""
"","139.89499997114763","sequential-stimulus-presentation-old","129","310284","0.0-31.0-1.2","SS1619113907158","trial","","40","500","639.8949999711476","images/stimuli/spore_stims/complex_07_A_a.gif","images/stimuli/spore_stims/complex_16_A_b.gif","forced_short","","11","complex_dissimilar","images/stimuli/spore_stims/complex_16_A_b.gif","","","","",""
"","null","html-keyboard-response","130","311243","0.0-31.0-0.3","SS1619113907158","","","null","","","","","","<p><img src= images/blank.png width =""600"" height = ""600"" style=""position:fixed;top:50%; left:50%; transform: translate(-50%, -50%); border:5px solid black"">","","","","","","","",""
"","276.01999999023974","sequential-stimulus-presentation-old","131","312024","0.0-31.0-1.3","SS1619113907158","trial","","40","500","776.0199999902397","images/stimuli/spore_stims/complex_07_A_a.gif","images/stimuli/spore_stims/complex_16_A_b.gif","forced_short","","11","complex_dissimilar","images/stimuli/spore_stims/complex_07_A_a.gif","","","","",""
"","null","html-keyboard-response","132","312876","0.0-31.0-0.4","SS1619113907158","","","null","","","","","","<p><img src= images/blank.png width =""600"" height = ""600"" style=""position:fixed;top:50%; left:50%; transform: translate(-50%, -50%); border:5px solid black"">","","","","","","","",""
"","379.7649999614805","sequential-stimulus-presentation-old","133","313760","0.0-31.0-1.4","SS1619113907158","trial","","40","500","879.7649999614805","images/stimuli/spore_stims/complex_07_A_a.gif","images/stimuli/spore_stims/complex_16_A_b.gif","forced_short","","11","complex_dissimilar","images/stimuli/spore_stims/complex_16_A_b.gif","","","","",""
"","null","html-keyboard-response","134","314779","0.0-31.0-0.5","SS1619113907158","","","null","","","","","","<p><img src= images/blank.png width =""600"" height = ""600"" style=""position:fixed;top:50%; left:50%; transform: translate(-50%, -50%); border:5px solid black"">","","","","","","","",""
"","1115.0150000466965","sequential-stimulus-presentation-old","135","316399","0.0-31.0-1.5","SS1619113907158","trial","","40","500","1615.0150000466965","images/stimuli/spore_stims/complex_07_A_a.gif","images/stimuli/spore_stims/complex_16_A_b.gif","forced_short","","11","complex_dissimilar","images/stimuli/spore_stims/complex_07_A_a.gif","","","","",""
"[{""page_index"":0,""viewing_time"":3186.2749999854714}]","3186.6099999751896","instructions","136","319589","0.0-32.0","SS1619113907158","instructions","","","","","","","","","","","","","","","",""
"","9301.719999988563","survey-likert","137","328896","0.0-33.0","SS1619113907158","similarity_question","","","","","","","","","","","","{""Q0"":2}","[0]","","images/stimuli/spore_stims/simple_11_A_b.gif","images/stimuli/spore_stims/simple_18_A_a.gif"
"","4265.305000008084","survey-likert","138","333166","0.0-34.0","SS1619113907158","similarity_question","","","","","","","","","","","","{""Q0"":5}","[0]","","images/stimuli/spore_stims/simple_01_A_a.gif","images/stimuli/spore_stims/simple_02_A_b.gif"
"","2778.0499999644235","survey-likert","139","335949","0.0-35.0","SS1619113907158","similarity_question","","","","","","","","","","","","{""Q0"":4}","[0]","","images/stimuli/spore_stims/simple_05_A_b.gif","images/stimuli/spore_stims/simple_12_A_a.gif"
"","3397.209999966435","survey-likert","140","339352","0.0-36.0","SS1619113907158","similarity_question","","","","","","","","","","","","{""Q0"":3}","[0]","","images/stimuli/spore_stims/complex_17_A_a.gif","images/stimuli/spore_stims/complex_18_A_b.gif"
"","2922.6849999977276","survey-likert","141","342279","0.0-37.0","SS1619113907158","similarity_question","","","","","","","","","","","","{""Q0"":4}","[0]","","images/stimuli/spore_stims/complex_07_A_a.gif","images/stimuli/spore_stims/complex_16_A_b.gif"
"","3164.7599999560043","survey-likert","142","345449","0.0-38.0","SS1619113907158","similarity_question","","","","","","","","","","","","{""Q0"":5}","[0]","","images/stimuli/spore_stims/simple_16_A_b.gif","images/stimuli/spore_stims/simple_15_A_a.gif"
"","4272.0899999840185","survey-likert","143","349726","0.0-39.0","SS1619113907158","similarity_question","","","","","","","","","","","","{""Q0"":1}","[0]","","images/stimuli/spore_stims/simple_13_A_b.gif","images/stimuli/spore_stims/simple_03_A_a.gif"
"","5170.054999995045","survey-likert","144","354899","0.0-40.0","SS1619113907158","similarity_question","","","","","","","","","","","","{""Q0"":4}","[0]","","images/stimuli/spore_stims/complex_05_A_a.gif","images/stimuli/spore_stims/complex_09_A_b.gif"
"","2991.1149999825284","survey-likert","145","357895","0.0-41.0","SS1619113907158","similarity_question","","","","","","","","","","","","{""Q0"":2}","[0]","","images/stimuli/spore_stims/complex_12_A_b.gif","images/stimuli/spore_stims/complex_01_A_a.gif"
"","4740.579999983311","survey-likert","146","362639","0.0-42.0","SS1619113907158","similarity_question","","","","","","","","","","","","{""Q0"":4}","[0]","","images/stimuli/spore_stims/complex_08_A_b.gif","images/stimuli/spore_stims/complex_03_A_a.gif"
"","4195.2649999875575","survey-likert","147","366840","0.0-43.0","SS1619113907158","similarity_question","","","","","","","","","","","","{""Q0"":4}","[0]","","images/stimuli/spore_stims/complex_19_A_a.gif","images/stimuli/spore_stims/complex_07_A_b.gif"
"","3645.925000018906","survey-likert","148","370491","0.0-44.0","SS1619113907158","similarity_question","","","","","","","","","","","","{""Q0"":2}","[0]","","images/stimuli/spore_stims/simple_14_A_b.gif","images/stimuli/spore_stims/simple_07_A_a.gif"
"[{""page_index"":0,""viewing_time"":3819.149999995716}]","3819.5200000191107","instructions","149","374313","0.0-45.0","SS1619113907158","instructions","","","","","","","","","","","","","","","",""
"","4933.130000019446","survey-likert","150","379250","0.0-46.0","SS1619113907158","","","","","","","","","images/stimuli/spore_stims/complex_09_A_b.gif","","","","{""Q0"":6}","[0]","","",""
"","3766.120000043884","survey-likert","151","383022","0.0-47.0","SS1619113907158","","","","","","","","","images/stimuli/spore_stims/complex_07_A_a.gif","","","","{""Q0"":5}","[0]","","",""
"","2670.8050000015646","survey-likert","152","385699","0.0-48.0","SS1619113907158","","","","","","","","","images/stimuli/spore_stims/complex_12_A_b.gif","","","","{""Q0"":5}","[0]","","",""
"","4316.035000025295","survey-likert","153","390020","0.0-49.0","SS1619113907158","","","","","","","","","images/stimuli/spore_stims/simple_03_A_a.gif","","","","{""Q0"":2}","[0]","","",""
"","3014.8749999934807","survey-likert","154","393040","0.0-50.0","SS1619113907158","","","","","","","","","images/stimuli/spore_stims/complex_07_A_b.gif","","","","{""Q0"":5}","[0]","","",""
"","3080.885000003036","survey-likert","155","396126","0.0-51.0","SS1619113907158","","","","","","","","","images/stimuli/spore_stims/simple_07_A_a.gif","","","","{""Q0"":1}","[0]","","",""
"","2903.279999969527","survey-likert","156","399034","0.0-52.0","SS1619113907158","","","","","","","","","images/stimuli/spore_stims/complex_17_A_a.gif","","","","{""Q0"":4}","[0]","","",""
"","4871.759999950882","survey-likert","157","403911","0.0-53.0","SS1619113907158","","","","","","","","","images/stimuli/spore_stims/simple_18_A_a.gif","","","","{""Q0"":2}","[0]","","",""
"","5100.140000053216","survey-likert","158","409017","0.0-54.0","SS1619113907158","","","","","","","","","images/stimuli/spore_stims/complex_08_A_b.gif","","","","{""Q0"":6}","[0]","","",""
"","2495.3099999693222","survey-likert","159","411517","0.0-55.0","SS1619113907158","","","","","","","","","images/stimuli/spore_stims/simple_15_A_a.gif","","","","{""Q0"":3}","[0]","","",""
"","6264.810000022408","survey-likert","160","417788","0.0-56.0","SS1619113907158","","","","","","","","","images/stimuli/spore_stims/simple_02_A_b.gif","","","","{""Q0"":2}","[0]","","",""
"","2721.354999986943","survey-likert","161","420514","0.0-57.0","SS1619113907158","","","","","","","","","images/stimuli/spore_stims/simple_12_A_a.gif","","","","{""Q0"":4}","[0]","","",""
"[{""page_index"":0,""viewing_time"":1481.3500000163913}]","1481.7049999837764","instructions","162","421999","0.0-58.0","SS1619113907158","instructions","","","","","","","","","","","","","","","",""
"","3573.6350000370294","demog-age","163","425578","0.0-59.0","SS1619113907158","","","","","","","","","","","","","{""age"":""27""}","","","",""
"","3360.1900000358","demog-ethnic-US","164","428948","0.0-60.0","SS1619113907158","","","","","","","","","","","","","{""ethnicity"":[""White""]}","[0]","","",""
"","6035.009999992326","demog-gender-and-education","165","434989","0.0-61.0","SS1619113907158","","","","","","","","","","","","","{""gender"":""Female"",""education"":""Associate Degree/Technical certification""}","[0,1]","","",""
"","7072.200000053272","survey-text","166","442068","0.0-62.0","SS1619113907158","feedback","","","","","","","","","","","","{""Q0"":""none""}","","","",""
"[{""page_index"":0,""viewing_time"":1505.9049999690615}]","1506.2250000191852","instructions","167","443579","0.0-63.0","SS1619113907158","instructions","","","","","","","","","","","","","","","",""
