"view_history","rt","trial_type","trial_index","time_elapsed","internal_node_id","subject","stimulus_type","trial_stimulus","key_press","minimum_viewing_duration","trial_looking_time","block_deviant","block_background","exposure_type","stimulus","block_number","block_type","stimulus_displayed","responses","question_order","math_correct_answer","stimulus_left","stimulus_right"
"[{""page_index"":0,""viewing_time"":5297.0600000007835}]","5297.855000000709","instructions","0","5299","0.0-0.0","SS1619114495088","","","","","","","","","","","","","","","","",""
"[{""page_index"":0,""viewing_time"":15860.16500000187},{""page_index"":1,""viewing_time"":10491.199999996752}]","26352.050000001327","instructions","1","34341","0.0-1.0","SS1619114495088","instructions","","","","","","","","","","","","","","","",""
"","7049.380000000383","sequential-stimulus-presentation-old","2","41895","0.0-2.0","SS1619114495088","","","40","500","7549.380000000383","null","null","self_paced","","","","","","","","",""
"","7146.83999999761","sequential-stimulus-presentation-old","3","49544","0.0-3.0","SS1619114495088","","","40","500","7646.83999999761","null","null","self_paced","","","","","","","","",""
"[{""page_index"":0,""viewing_time"":1503.6550000004354}]","1504.0850000004866","instructions","4","51049","0.0-4.0","SS1619114495088","instructions","","","","","","","","","","","","","","","",""
"","242.89499999940745","sequential-stimulus-presentation-old","5","61295","0.0-5.0","SS1619114495088","","","40","500","742.8949999994074","null","null","forced_long","","","","","","","","",""
"","7798.965000001772","sequential-stimulus-presentation-old","6","69199","0.0-6.0","SS1619114495088","","","40","500","8298.965000001772","null","null","forced_long","","","","","","","","",""
"[{""page_index"":0,""viewing_time"":77.41999999780091}]","77.5549999998475","instructions","7","69280","0.0-7.0","SS1619114495088","instructions","","","","","","","","","","","","","","","",""
"[{""page_index"":0,""viewing_time"":774.8949999986507},{""page_index"":1,""viewing_time"":568.4000000001106},{""page_index"":2,""viewing_time"":468.60000000015134},{""page_index"":3,""viewing_time"":826.9249999975727},{""page_index"":4,""viewing_time"":880.0150000024587}]","3518.999999996595","instructions","8","72799","0.0-8.0","SS1619114495088","instructions","","","","","","","","","","","","","","","",""
"","null","html-keyboard-response","9","73936","0.0-9.0-0.0","SS1619114495088","","","null","","","","","","<p><img src= images/blank.png width =""600"" height = ""600"" style=""position:fixed;top:50%; left:50%; transform: translate(-50%, -50%); border:5px solid black"">","","","","","","","",""
"","4319.070000001375","sequential-stimulus-presentation-old","10","78359","0.0-9.0-1.0","SS1619114495088","trial","","40","500","4819.070000001375","images/stimuli/spore_stims/simple_15_A_b.gif","images/stimuli/spore_stims/simple_16_A_a.gif","forced_short","","0","simple_dissimilar","images/stimuli/spore_stims/simple_16_A_a.gif","","","","",""
"","null","html-keyboard-response","11","79413","0.0-9.0-0.1","SS1619114495088","","","null","","","","","","<p><img src= images/blank.png width =""600"" height = ""600"" style=""position:fixed;top:50%; left:50%; transform: translate(-50%, -50%); border:5px solid black"">","","","","","","","",""
"","1869.8199999998906","sequential-stimulus-presentation-old","12","81785","0.0-9.0-1.1","SS1619114495088","trial","","40","500","2369.8199999998906","images/stimuli/spore_stims/simple_15_A_b.gif","images/stimuli/spore_stims/simple_16_A_a.gif","forced_short","","0","simple_dissimilar","images/stimuli/spore_stims/simple_16_A_a.gif","","","","",""
"","null","html-keyboard-response","13","83040","0.0-9.0-0.2","SS1619114495088","","","null","","","","","","<p><img src= images/blank.png width =""600"" height = ""600"" style=""position:fixed;top:50%; left:50%; transform: translate(-50%, -50%); border:5px solid black"">","","","","","","","",""
"","158.55999999985215","sequential-stimulus-presentation-old","14","83703","0.0-9.0-1.2","SS1619114495088","trial","","40","500","658.5599999998522","images/stimuli/spore_stims/simple_15_A_b.gif","images/stimuli/spore_stims/simple_16_A_a.gif","forced_short","","0","simple_dissimilar","images/stimuli/spore_stims/simple_16_A_a.gif","","","","",""
"","null","html-keyboard-response","15","84891","0.0-9.0-0.3","SS1619114495088","","","null","","","","","","<p><img src= images/blank.png width =""600"" height = ""600"" style=""position:fixed;top:50%; left:50%; transform: translate(-50%, -50%); border:5px solid black"">","","","","","","","",""
"","925.3150000004098","sequential-stimulus-presentation-old","16","86319","0.0-9.0-1.3","SS1619114495088","trial","","40","500","1425.3150000004098","images/stimuli/spore_stims/simple_15_A_b.gif","images/stimuli/spore_stims/simple_16_A_a.gif","forced_short","","0","simple_dissimilar","images/stimuli/spore_stims/simple_16_A_a.gif","","","","",""
"","null","html-keyboard-response","17","87505","0.0-9.0-0.4","SS1619114495088","","","null","","","","","","<p><img src= images/blank.png width =""600"" height = ""600"" style=""position:fixed;top:50%; left:50%; transform: translate(-50%, -50%); border:5px solid black"">","","","","","","","",""
"","270.53499999965425","sequential-stimulus-presentation-old","18","88279","0.0-9.0-1.4","SS1619114495088","trial","","40","500","770.5349999996542","images/stimuli/spore_stims/simple_15_A_b.gif","images/stimuli/spore_stims/simple_16_A_a.gif","forced_short","","0","simple_dissimilar","images/stimuli/spore_stims/simple_16_A_a.gif","","","","",""
"","null","html-keyboard-response","19","89302","0.0-9.0-0.5","SS1619114495088","","","null","","","","","","<p><img src= images/blank.png width =""600"" height = ""600"" style=""position:fixed;top:50%; left:50%; transform: translate(-50%, -50%); border:5px solid black"">","","","","","","","",""
"","170.88000000148895","sequential-stimulus-presentation-old","20","89975","0.0-9.0-1.5","SS1619114495088","trial","","40","500","670.880000001489","images/stimuli/spore_stims/simple_15_A_b.gif","images/stimuli/spore_stims/simple_16_A_a.gif","forced_short","","0","simple_dissimilar","images/stimuli/spore_stims/simple_16_A_a.gif","","","","",""
"","14897.895000001881","survey-multi-choice","21","104876","0.0-10.0","SS1619114495088","math_question","","","","","","","","","","","","{""Q0"":""8""}","[0]","8","",""
"","null","html-keyboard-response","22","105727","0.0-11.0-0.0","SS1619114495088","","","null","","","","","","<p><img src= images/blank.png width =""600"" height = ""600"" style=""position:fixed;top:50%; left:50%; transform: translate(-50%, -50%); border:5px solid black"">","","","","","","","",""
"","4057.2900000006484","sequential-stimulus-presentation-old","23","119792","0.0-11.0-1.0","SS1619114495088","trial","","40","500","4557.290000000648","images/stimuli/spore_stims/complex_09_A_b.gif","images/stimuli/spore_stims/complex_05_A_a.gif","forced_long","","1","complex_dissimilar","images/stimuli/spore_stims/complex_05_A_a.gif","","","","",""
"","null","html-keyboard-response","24","121126","0.0-11.0-0.1","SS1619114495088","","","null","","","","","","<p><img src= images/blank.png width =""600"" height = ""600"" style=""position:fixed;top:50%; left:50%; transform: translate(-50%, -50%); border:5px solid black"">","","","","","","","",""
"","1225.1349999969534","sequential-stimulus-presentation-old","25","122856","0.0-11.0-1.1","SS1619114495088","trial","","40","500","1725.1349999969534","images/stimuli/spore_stims/complex_09_A_b.gif","images/stimuli/spore_stims/complex_05_A_a.gif","forced_long","","1","complex_dissimilar","images/stimuli/spore_stims/complex_05_A_a.gif","","","","",""
"","null","html-keyboard-response","26","124070","0.0-11.0-0.2","SS1619114495088","","","null","","","","","","<p><img src= images/blank.png width =""600"" height = ""600"" style=""position:fixed;top:50%; left:50%; transform: translate(-50%, -50%); border:5px solid black"">","","","","","","","",""
"","1856.6649999993388","sequential-stimulus-presentation-old","27","126472","0.0-11.0-1.2","SS1619114495088","trial","","40","500","2356.6649999993388","images/stimuli/spore_stims/complex_09_A_b.gif","images/stimuli/spore_stims/complex_05_A_a.gif","forced_long","","1","complex_dissimilar","images/stimuli/spore_stims/complex_05_A_a.gif","","","","",""
"","null","html-keyboard-response","28","127459","0.0-11.0-0.3","SS1619114495088","","","null","","","","","","<p><img src= images/blank.png width =""600"" height = ""600"" style=""position:fixed;top:50%; left:50%; transform: translate(-50%, -50%); border:5px solid black"">","","","","","","","",""
"","7.115000000339933","sequential-stimulus-presentation-old","29","127975","0.0-11.0-1.3","SS1619114495088","trial","","40","500","507.11500000033993","images/stimuli/spore_stims/complex_09_A_b.gif","images/stimuli/spore_stims/complex_05_A_a.gif","forced_long","","1","complex_dissimilar","images/stimuli/spore_stims/complex_05_A_a.gif","","","","",""
"","null","html-keyboard-response","30","129025","0.0-11.0-0.4","SS1619114495088","","","null","","","","","","<p><img src= images/blank.png width =""600"" height = ""600"" style=""position:fixed;top:50%; left:50%; transform: translate(-50%, -50%); border:5px solid black"">","","","","","","","",""
"","44.200000000273576","sequential-stimulus-presentation-old","31","129573","0.0-11.0-1.4","SS1619114495088","trial","","40","500","544.2000000002736","images/stimuli/spore_stims/complex_09_A_b.gif","images/stimuli/spore_stims/complex_05_A_a.gif","forced_long","","1","complex_dissimilar","images/stimuli/spore_stims/complex_05_A_a.gif","","","","",""
"","9769.1049999994","survey-multi-choice","32","139346","0.0-12.0","SS1619114495088","math_question","","","","","","","","","","","","{""Q0"":""6""}","[0]","6","",""
"","null","html-keyboard-response","33","140263","0.0-13.0-0.0","SS1619114495088","","","null","","","","","","<p><img src= images/blank.png width =""600"" height = ""600"" style=""position:fixed;top:50%; left:50%; transform: translate(-50%, -50%); border:5px solid black"">","","","","","","","",""
"","11.539999999513384","sequential-stimulus-presentation-old","34","150281","0.0-13.0-1.0","SS1619114495088","trial","","40","500","511.5399999995134","images/stimuli/spore_stims/complex_19_A_a.gif","images/stimuli/spore_stims/complex_06_A_b.gif","forced_long","","2","complex_dissimilar","images/stimuli/spore_stims/complex_06_A_b.gif","","","","",""
"","null","html-keyboard-response","35","151229","0.0-13.0-0.1","SS1619114495088","","","null","","","","","","<p><img src= images/blank.png width =""600"" height = ""600"" style=""position:fixed;top:50%; left:50%; transform: translate(-50%, -50%); border:5px solid black"">","","","","","","","",""
"","103.72000000279513","sequential-stimulus-presentation-old","36","151839","0.0-13.0-1.1","SS1619114495088","trial","","40","500","603.7200000027951","images/stimuli/spore_stims/complex_19_A_a.gif","images/stimuli/spore_stims/complex_06_A_b.gif","forced_long","","2","complex_dissimilar","images/stimuli/spore_stims/complex_19_A_a.gif","","","","",""
"","null","html-keyboard-response","37","152654","0.0-13.0-0.2","SS1619114495088","","","null","","","","","","<p><img src= images/blank.png width =""600"" height = ""600"" style=""position:fixed;top:50%; left:50%; transform: translate(-50%, -50%); border:5px solid black"">","","","","","","","",""
"","74.84499999918626","sequential-stimulus-presentation-old","38","153231","0.0-13.0-1.2","SS1619114495088","trial","","40","500","574.8449999991863","images/stimuli/spore_stims/complex_19_A_a.gif","images/stimuli/spore_stims/complex_06_A_b.gif","forced_long","","2","complex_dissimilar","images/stimuli/spore_stims/complex_06_A_b.gif","","","","",""
"","null","html-keyboard-response","39","154514","0.0-13.0-0.3","SS1619114495088","","","null","","","","","","<p><img src= images/blank.png width =""600"" height = ""600"" style=""position:fixed;top:50%; left:50%; transform: translate(-50%, -50%); border:5px solid black"">","","","","","","","",""
"","388.04999999774736","sequential-stimulus-presentation-old","40","155407","0.0-13.0-1.3","SS1619114495088","trial","","40","500","888.0499999977474","images/stimuli/spore_stims/complex_19_A_a.gif","images/stimuli/spore_stims/complex_06_A_b.gif","forced_long","","2","complex_dissimilar","images/stimuli/spore_stims/complex_19_A_a.gif","","","","",""
"","null","html-keyboard-response","41","156310","0.0-13.0-0.4","SS1619114495088","","","null","","","","","","<p><img src= images/blank.png width =""600"" height = ""600"" style=""position:fixed;top:50%; left:50%; transform: translate(-50%, -50%); border:5px solid black"">","","","","","","","",""
"","121.71500000113156","sequential-stimulus-presentation-old","42","156935","0.0-13.0-1.4","SS1619114495088","trial","","40","500","621.7150000011316","images/stimuli/spore_stims/complex_19_A_a.gif","images/stimuli/spore_stims/complex_06_A_b.gif","forced_long","","2","complex_dissimilar","images/stimuli/spore_stims/complex_06_A_b.gif","","","","",""
"","9631.209999999555","survey-multi-choice","43","166568","0.0-14.0","SS1619114495088","math_question","","","","","","","","","","","","{""Q0"":""11""}","[0]","11","",""
"","null","html-keyboard-response","44","167855","0.0-15.0-0.0","SS1619114495088","","","null","","","","","","<p><img src= images/blank.png width =""600"" height = ""600"" style=""position:fixed;top:50%; left:50%; transform: translate(-50%, -50%); border:5px solid black"">","","","","","","","",""
"","5121.274999997695","sequential-stimulus-presentation-old","45","182983","0.0-15.0-1.0","SS1619114495088","trial","","40","500","5621.274999997695","images/stimuli/spore_stims/simple_09_A_a.gif","images/stimuli/spore_stims/simple_12_A_b.gif","forced_long","","3","simple_dissimilar","images/stimuli/spore_stims/simple_12_A_b.gif","","","","",""
"","null","html-keyboard-response","46","183830","0.0-15.0-0.1","SS1619114495088","","","null","","","","","","<p><img src= images/blank.png width =""600"" height = ""600"" style=""position:fixed;top:50%; left:50%; transform: translate(-50%, -50%); border:5px solid black"">","","","","","","","",""
"","196.76999999865075","sequential-stimulus-presentation-old","47","184531","0.0-15.0-1.1","SS1619114495088","trial","","40","500","696.7699999986507","images/stimuli/spore_stims/simple_09_A_a.gif","images/stimuli/spore_stims/simple_12_A_b.gif","forced_long","","3","simple_dissimilar","images/stimuli/spore_stims/simple_12_A_b.gif","","","","",""
"","null","html-keyboard-response","48","185771","0.0-15.0-0.2","SS1619114495088","","","null","","","","","","<p><img src= images/blank.png width =""600"" height = ""600"" style=""position:fixed;top:50%; left:50%; transform: translate(-50%, -50%); border:5px solid black"">","","","","","","","",""
"","84.85499999733292","sequential-stimulus-presentation-old","49","186359","0.0-15.0-1.2","SS1619114495088","trial","","40","500","584.8549999973329","images/stimuli/spore_stims/simple_09_A_a.gif","images/stimuli/spore_stims/simple_12_A_b.gif","forced_long","","3","simple_dissimilar","images/stimuli/spore_stims/simple_12_A_b.gif","","","","",""
"","null","html-keyboard-response","50","187190","0.0-15.0-0.3","SS1619114495088","","","null","","","","","","<p><img src= images/blank.png width =""600"" height = ""600"" style=""position:fixed;top:50%; left:50%; transform: translate(-50%, -50%); border:5px solid black"">","","","","","","","",""
"","143.5749999982363","sequential-stimulus-presentation-old","51","187839","0.0-15.0-1.3","SS1619114495088","trial","","40","500","643.5749999982363","images/stimuli/spore_stims/simple_09_A_a.gif","images/stimuli/spore_stims/simple_12_A_b.gif","forced_long","","3","simple_dissimilar","images/stimuli/spore_stims/simple_12_A_b.gif","","","","",""
"","18798.344999999244","survey-multi-choice","52","206640","0.0-16.0","SS1619114495088","math_question","","","","","","","","","","","","{""Q0"":""14""}","[0]","14","",""
"","null","html-keyboard-response","53","207831","0.0-17.0-0.0","SS1619114495088","","","null","","","","","","<p><img src= images/blank.png width =""600"" height = ""600"" style=""position:fixed;top:50%; left:50%; transform: translate(-50%, -50%); border:5px solid black"">","","","","","","","",""
"","112.64499999742839","sequential-stimulus-presentation-old","54","208046","0.0-17.0-1.0","SS1619114495088","trial","","40","500","612.6449999974284","images/stimuli/spore_stims/complex_20_A_b.gif","images/stimuli/spore_stims/complex_04_A_a.gif","forced_short","","4","complex_dissimilar","images/stimuli/spore_stims/complex_04_A_a.gif","","","","",""
"","null","html-keyboard-response","55","209038","0.0-17.0-0.1","SS1619114495088","","","null","","","","","","<p><img src= images/blank.png width =""600"" height = ""600"" style=""position:fixed;top:50%; left:50%; transform: translate(-50%, -50%); border:5px solid black"">","","","","","","","",""
"","108.09499999959371","sequential-stimulus-presentation-old","56","209662","0.0-17.0-1.1","SS1619114495088","trial","","40","500","608.0949999995937","images/stimuli/spore_stims/complex_20_A_b.gif","images/stimuli/spore_stims/complex_04_A_a.gif","forced_short","","4","complex_dissimilar","images/stimuli/spore_stims/complex_04_A_a.gif","","","","",""
"","null","html-keyboard-response","57","210964","0.0-17.0-0.2","SS1619114495088","","","null","","","","","","<p><img src= images/blank.png width =""600"" height = ""600"" style=""position:fixed;top:50%; left:50%; transform: translate(-50%, -50%); border:5px solid black"">","","","","","","","",""
"","50.0449999999546","sequential-stimulus-presentation-old","58","211519","0.0-17.0-1.2","SS1619114495088","trial","","40","500","550.0449999999546","images/stimuli/spore_stims/complex_20_A_b.gif","images/stimuli/spore_stims/complex_04_A_a.gif","forced_short","","4","complex_dissimilar","images/stimuli/spore_stims/complex_04_A_a.gif","","","","",""
"","null","html-keyboard-response","59","212525","0.0-17.0-0.3","SS1619114495088","","","null","","","","","","<p><img src= images/blank.png width =""600"" height = ""600"" style=""position:fixed;top:50%; left:50%; transform: translate(-50%, -50%); border:5px solid black"">","","","","","","","",""
"","33.57999999934691","sequential-stimulus-presentation-old","60","213062","0.0-17.0-1.3","SS1619114495088","trial","","40","500","533.5799999993469","images/stimuli/spore_stims/complex_20_A_b.gif","images/stimuli/spore_stims/complex_04_A_a.gif","forced_short","","4","complex_dissimilar","images/stimuli/spore_stims/complex_04_A_a.gif","","","","",""
"","null","html-keyboard-response","61","214115","0.0-17.0-0.4","SS1619114495088","","","null","","","","","","<p><img src= images/blank.png width =""600"" height = ""600"" style=""position:fixed;top:50%; left:50%; transform: translate(-50%, -50%); border:5px solid black"">","","","","","","","",""
"","89.31999999913387","sequential-stimulus-presentation-old","62","214719","0.0-17.0-1.4","SS1619114495088","trial","","40","500","589.3199999991339","images/stimuli/spore_stims/complex_20_A_b.gif","images/stimuli/spore_stims/complex_04_A_a.gif","forced_short","","4","complex_dissimilar","images/stimuli/spore_stims/complex_20_A_b.gif","","","","",""
"","4757.964999997057","survey-multi-choice","63","219480","0.0-18.0","SS1619114495088","math_question","","","","","","","","","","","","{""Q0"":""16""}","[0]","16","",""
"","null","html-keyboard-response","64","220505","0.0-19.0-0.0","SS1619114495088","","","null","","","","","","<p><img src= images/blank.png width =""600"" height = ""600"" style=""position:fixed;top:50%; left:50%; transform: translate(-50%, -50%); border:5px solid black"">","","","","","","","",""
"","100.73000000193133","sequential-stimulus-presentation-old","65","221110","0.0-19.0-1.0","SS1619114495088","trial","","40","500","600.7300000019313","images/stimuli/spore_stims/complex_05_A_b.gif","images/stimuli/spore_stims/complex_01_A_a.gif","self_paced","","5","complex_dissimilar","images/stimuli/spore_stims/complex_01_A_a.gif","","","","",""
"","null","html-keyboard-response","66","222047","0.0-19.0-0.1","SS1619114495088","","","null","","","","","","<p><img src= images/blank.png width =""600"" height = ""600"" style=""position:fixed;top:50%; left:50%; transform: translate(-50%, -50%); border:5px solid black"">","","","","","","","",""
"","30.705000001034932","sequential-stimulus-presentation-old","67","222582","0.0-19.0-1.1","SS1619114495088","trial","","40","500","530.7050000010349","images/stimuli/spore_stims/complex_05_A_b.gif","images/stimuli/spore_stims/complex_01_A_a.gif","self_paced","","5","complex_dissimilar","images/stimuli/spore_stims/complex_01_A_a.gif","","","","",""
"","null","html-keyboard-response","68","223541","0.0-19.0-0.2","SS1619114495088","","","null","","","","","","<p><img src= images/blank.png width =""600"" height = ""600"" style=""position:fixed;top:50%; left:50%; transform: translate(-50%, -50%); border:5px solid black"">","","","","","","","",""
"","31.53999999994994","sequential-stimulus-presentation-old","69","224078","0.0-19.0-1.2","SS1619114495088","trial","","40","500","531.5399999999499","images/stimuli/spore_stims/complex_05_A_b.gif","images/stimuli/spore_stims/complex_01_A_a.gif","self_paced","","5","complex_dissimilar","images/stimuli/spore_stims/complex_05_A_b.gif","","","","",""
"","null","html-keyboard-response","70","224881","0.0-19.0-0.3","SS1619114495088","","","null","","","","","","<p><img src= images/blank.png width =""600"" height = ""600"" style=""position:fixed;top:50%; left:50%; transform: translate(-50%, -50%); border:5px solid black"">","","","","","","","",""
"","29.409999999188585","sequential-stimulus-presentation-old","71","225414","0.0-19.0-1.3","SS1619114495088","trial","","40","500","529.4099999991886","images/stimuli/spore_stims/complex_05_A_b.gif","images/stimuli/spore_stims/complex_01_A_a.gif","self_paced","","5","complex_dissimilar","images/stimuli/spore_stims/complex_01_A_a.gif","","","","",""
"","null","html-keyboard-response","72","226436","0.0-19.0-0.4","SS1619114495088","","","null","","","","","","<p><img src= images/blank.png width =""600"" height = ""600"" style=""position:fixed;top:50%; left:50%; transform: translate(-50%, -50%); border:5px solid black"">","","","","","","","",""
"","81.54999999896972","sequential-stimulus-presentation-old","73","227022","0.0-19.0-1.4","SS1619114495088","trial","","40","500","581.5499999989697","images/stimuli/spore_stims/complex_05_A_b.gif","images/stimuli/spore_stims/complex_01_A_a.gif","self_paced","","5","complex_dissimilar","images/stimuli/spore_stims/complex_05_A_b.gif","","","","",""
"","12198.359999998502","survey-multi-choice","74","239224","0.0-20.0","SS1619114495088","math_question","","","","","","","","","","","","{""Q0"":""2""}","[0]","2","",""
"","null","html-keyboard-response","75","240045","0.0-21.0-0.0","SS1619114495088","","","null","","","","","","<p><img src= images/blank.png width =""600"" height = ""600"" style=""position:fixed;top:50%; left:50%; transform: translate(-50%, -50%); border:5px solid black"">","","","","","","","",""
"","705.6249999986903","sequential-stimulus-presentation-old","76","241255","0.0-21.0-1.0","SS1619114495088","trial","","40","500","1205.6249999986903","images/stimuli/spore_stims/simple_16_A_b.gif","images/stimuli/spore_stims/simple_10_A_a.gif","self_paced","","6","simple_dissimilar","images/stimuli/spore_stims/simple_10_A_a.gif","","","","",""
"","null","html-keyboard-response","77","242860","0.0-21.0-0.1","SS1619114495088","","","null","","","","","","<p><img src= images/blank.png width =""600"" height = ""600"" style=""position:fixed;top:50%; left:50%; transform: translate(-50%, -50%); border:5px solid black"">","","","","","","","",""
"","3944.4300000031944","sequential-stimulus-presentation-old","78","247807","0.0-21.0-1.1","SS1619114495088","trial","","40","500","4444.430000003194","images/stimuli/spore_stims/simple_16_A_b.gif","images/stimuli/spore_stims/simple_10_A_a.gif","self_paced","","6","simple_dissimilar","images/stimuli/spore_stims/simple_10_A_a.gif","","","","",""
"","null","html-keyboard-response","79","248964","0.0-21.0-0.2","SS1619114495088","","","null","","","","","","<p><img src= images/blank.png width =""600"" height = ""600"" style=""position:fixed;top:50%; left:50%; transform: translate(-50%, -50%); border:5px solid black"">","","","","","","","",""
"","89.8750000014843","sequential-stimulus-presentation-old","80","249559","0.0-21.0-1.2","SS1619114495088","trial","","40","500","589.8750000014843","images/stimuli/spore_stims/simple_16_A_b.gif","images/stimuli/spore_stims/simple_10_A_a.gif","self_paced","","6","simple_dissimilar","images/stimuli/spore_stims/simple_16_A_b.gif","","","","",""
"","null","html-keyboard-response","81","250842","0.0-21.0-0.3","SS1619114495088","","","null","","","","","","<p><img src= images/blank.png width =""600"" height = ""600"" style=""position:fixed;top:50%; left:50%; transform: translate(-50%, -50%); border:5px solid black"">","","","","","","","",""
"","121.49499999941327","sequential-stimulus-presentation-old","82","251471","0.0-21.0-1.3","SS1619114495088","trial","","40","500","621.4949999994133","images/stimuli/spore_stims/simple_16_A_b.gif","images/stimuli/spore_stims/simple_10_A_a.gif","self_paced","","6","simple_dissimilar","images/stimuli/spore_stims/simple_10_A_a.gif","","","","",""
"","4063.4349999999977","survey-multi-choice","83","255540","0.0-22.0","SS1619114495088","math_question","","","","","","","","","","","","{""Q0"":""11""}","[0]","11","",""
"","null","html-keyboard-response","84","256519","0.0-23.0-0.0","SS1619114495088","","","null","","","","","","<p><img src= images/blank.png width =""600"" height = ""600"" style=""position:fixed;top:50%; left:50%; transform: translate(-50%, -50%); border:5px solid black"">","","","","","","","",""
"","237.5850000025821","sequential-stimulus-presentation-old","85","257271","0.0-23.0-1.0","SS1619114495088","trial","","40","500","737.5850000025821","images/stimuli/spore_stims/complex_18_A_b.gif","images/stimuli/spore_stims/complex_03_A_a.gif","self_paced","","7","complex_dissimilar","images/stimuli/spore_stims/complex_03_A_a.gif","","","","",""
"","null","html-keyboard-response","86","258363","0.0-23.0-0.1","SS1619114495088","","","null","","","","","","<p><img src= images/blank.png width =""600"" height = ""600"" style=""position:fixed;top:50%; left:50%; transform: translate(-50%, -50%); border:5px solid black"">","","","","","","","",""
"","80.70500000030734","sequential-stimulus-presentation-old","87","258951","0.0-23.0-1.1","SS1619114495088","trial","","40","500","580.7050000003073","images/stimuli/spore_stims/complex_18_A_b.gif","images/stimuli/spore_stims/complex_03_A_a.gif","self_paced","","7","complex_dissimilar","images/stimuli/spore_stims/complex_03_A_a.gif","","","","",""
"","null","html-keyboard-response","88","260109","0.0-23.0-0.2","SS1619114495088","","","null","","","","","","<p><img src= images/blank.png width =""600"" height = ""600"" style=""position:fixed;top:50%; left:50%; transform: translate(-50%, -50%); border:5px solid black"">","","","","","","","",""
"","17.575000001699664","sequential-stimulus-presentation-old","89","260631","0.0-23.0-1.2","SS1619114495088","trial","","40","500","517.5750000016997","images/stimuli/spore_stims/complex_18_A_b.gif","images/stimuli/spore_stims/complex_03_A_a.gif","self_paced","","7","complex_dissimilar","images/stimuli/spore_stims/complex_03_A_a.gif","","","","",""
"","null","html-keyboard-response","90","261609","0.0-23.0-0.3","SS1619114495088","","","null","","","","","","<p><img src= images/blank.png width =""600"" height = ""600"" style=""position:fixed;top:50%; left:50%; transform: translate(-50%, -50%); border:5px solid black"">","","","","","","","",""
"","118.09500000166008","sequential-stimulus-presentation-old","91","262231","0.0-23.0-1.3","SS1619114495088","trial","","40","500","618.0950000016601","images/stimuli/spore_stims/complex_18_A_b.gif","images/stimuli/spore_stims/complex_03_A_a.gif","self_paced","","7","complex_dissimilar","images/stimuli/spore_stims/complex_03_A_a.gif","","","","",""
"","4791.144999999204","survey-multi-choice","92","267024","0.0-24.0","SS1619114495088","math_question","","","","","","","","","","","","{""Q0"":""10""}","[0]","10","",""
"","null","html-keyboard-response","93","268017","0.0-25.0-0.0","SS1619114495088","","","null","","","","","","<p><img src= images/blank.png width =""600"" height = ""600"" style=""position:fixed;top:50%; left:50%; transform: translate(-50%, -50%); border:5px solid black"">","","","","","","","",""
"","140.99999999965075","sequential-stimulus-presentation-old","94","268262","0.0-25.0-1.0","SS1619114495088","trial","","40","500","640.9999999996508","images/stimuli/spore_stims/simple_02_A_b.gif","images/stimuli/spore_stims/simple_04_A_a.gif","forced_short","","8","simple_dissimilar","images/stimuli/spore_stims/simple_04_A_a.gif","","","","",""
"","null","html-keyboard-response","95","269130","0.0-25.0-0.1","SS1619114495088","","","null","","","","","","<p><img src= images/blank.png width =""600"" height = ""600"" style=""position:fixed;top:50%; left:50%; transform: translate(-50%, -50%); border:5px solid black"">","","","","","","","",""
"","37.42000000056578","sequential-stimulus-presentation-old","96","269670","0.0-25.0-1.1","SS1619114495088","trial","","40","500","537.4200000005658","images/stimuli/spore_stims/simple_02_A_b.gif","images/stimuli/spore_stims/simple_04_A_a.gif","forced_short","","8","simple_dissimilar","images/stimuli/spore_stims/simple_04_A_a.gif","","","","",""
"","null","html-keyboard-response","97","270624","0.0-25.0-0.2","SS1619114495088","","","null","","","","","","<p><img src= images/blank.png width =""600"" height = ""600"" style=""position:fixed;top:50%; left:50%; transform: translate(-50%, -50%); border:5px solid black"">","","","","","","","",""
"","73.24999999761349","sequential-stimulus-presentation-old","98","271200","0.0-25.0-1.2","SS1619114495088","trial","","40","500","573.2499999976135","images/stimuli/spore_stims/simple_02_A_b.gif","images/stimuli/spore_stims/simple_04_A_a.gif","forced_short","","8","simple_dissimilar","images/stimuli/spore_stims/simple_02_A_b.gif","","","","",""
"","null","html-keyboard-response","99","272370","0.0-25.0-0.3","SS1619114495088","","","null","","","","","","<p><img src= images/blank.png width =""600"" height = ""600"" style=""position:fixed;top:50%; left:50%; transform: translate(-50%, -50%); border:5px solid black"">","","","","","","","",""
"","11.340000000956934","sequential-stimulus-presentation-old","100","272886","0.0-25.0-1.3","SS1619114495088","trial","","40","500","511.34000000095693","images/stimuli/spore_stims/simple_02_A_b.gif","images/stimuli/spore_stims/simple_04_A_a.gif","forced_short","","8","simple_dissimilar","images/stimuli/spore_stims/simple_04_A_a.gif","","","","",""
"","10671.010000001872","survey-multi-choice","101","283560","0.0-26.0","SS1619114495088","math_question","","","","","","","","","","","","{""Q0"":""10""}","[0]","10","",""
"","null","html-keyboard-response","102","284477","0.0-27.0-0.0","SS1619114495088","","","null","","","","","","<p><img src= images/blank.png width =""600"" height = ""600"" style=""position:fixed;top:50%; left:50%; transform: translate(-50%, -50%); border:5px solid black"">","","","","","","","",""
"","87.6300000018673","sequential-stimulus-presentation-old","103","284670","0.0-27.0-1.0","SS1619114495088","trial","","40","500","587.6300000018673","images/stimuli/spore_stims/complex_12_A_b.gif","images/stimuli/spore_stims/complex_16_A_a.gif","forced_short","","9","complex_dissimilar","images/stimuli/spore_stims/complex_16_A_a.gif","","","","",""
"","null","html-keyboard-response","104","285826","0.0-27.0-0.1","SS1619114495088","","","null","","","","","","<p><img src= images/blank.png width =""600"" height = ""600"" style=""position:fixed;top:50%; left:50%; transform: translate(-50%, -50%); border:5px solid black"">","","","","","","","",""
"","58.90000000002328","sequential-stimulus-presentation-old","105","286391","0.0-27.0-1.1","SS1619114495088","trial","","40","500","558.9000000000233","images/stimuli/spore_stims/complex_12_A_b.gif","images/stimuli/spore_stims/complex_16_A_a.gif","forced_short","","9","complex_dissimilar","images/stimuli/spore_stims/complex_12_A_b.gif","","","","",""
"","null","html-keyboard-response","106","287553","0.0-27.0-0.2","SS1619114495088","","","null","","","","","","<p><img src= images/blank.png width =""600"" height = ""600"" style=""position:fixed;top:50%; left:50%; transform: translate(-50%, -50%); border:5px solid black"">","","","","","","","",""
"","378.2900000005029","sequential-stimulus-presentation-old","107","288438","0.0-27.0-1.2","SS1619114495088","trial","","40","500","878.2900000005029","images/stimuli/spore_stims/complex_12_A_b.gif","images/stimuli/spore_stims/complex_16_A_a.gif","forced_short","","9","complex_dissimilar","images/stimuli/spore_stims/complex_12_A_b.gif","","","","",""
"","null","html-keyboard-response","108","289677","0.0-27.0-0.3","SS1619114495088","","","null","","","","","","<p><img src= images/blank.png width =""600"" height = ""600"" style=""position:fixed;top:50%; left:50%; transform: translate(-50%, -50%); border:5px solid black"">","","","","","","","",""
"","212.1900000019814","sequential-stimulus-presentation-old","109","290399","0.0-27.0-1.3","SS1619114495088","trial","","40","500","712.1900000019814","images/stimuli/spore_stims/complex_12_A_b.gif","images/stimuli/spore_stims/complex_16_A_a.gif","forced_short","","9","complex_dissimilar","images/stimuli/spore_stims/complex_16_A_a.gif","","","","",""
"","4252.250000001339","survey-multi-choice","110","294656","0.0-28.0","SS1619114495088","math_question","","","","","","","","","","","","{""Q0"":""5""}","[0]","5","",""
"","null","html-keyboard-response","111","295940","0.0-29.0-0.0","SS1619114495088","","","null","","","","","","<p><img src= images/blank.png width =""600"" height = ""600"" style=""position:fixed;top:50%; left:50%; transform: translate(-50%, -50%); border:5px solid black"">","","","","","","","",""
"","162.32999999914318","sequential-stimulus-presentation-old","112","296606","0.0-29.0-1.0","SS1619114495088","trial","","40","500","662.3299999991432","images/stimuli/spore_stims/simple_03_A_a.gif","images/stimuli/spore_stims/simple_07_A_b.gif","self_paced","","10","simple_dissimilar","images/stimuli/spore_stims/simple_07_A_b.gif","","","","",""
"","null","html-keyboard-response","113","297801","0.0-29.0-0.1","SS1619114495088","","","null","","","","","","<p><img src= images/blank.png width =""600"" height = ""600"" style=""position:fixed;top:50%; left:50%; transform: translate(-50%, -50%); border:5px solid black"">","","","","","","","",""
"","205.18999999691732","sequential-stimulus-presentation-old","114","298510","0.0-29.0-1.1","SS1619114495088","trial","","40","500","705.1899999969173","images/stimuli/spore_stims/simple_03_A_a.gif","images/stimuli/spore_stims/simple_07_A_b.gif","self_paced","","10","simple_dissimilar","images/stimuli/spore_stims/simple_03_A_a.gif","","","","",""
"","null","html-keyboard-response","115","299428","0.0-29.0-0.2","SS1619114495088","","","null","","","","","","<p><img src= images/blank.png width =""600"" height = ""600"" style=""position:fixed;top:50%; left:50%; transform: translate(-50%, -50%); border:5px solid black"">","","","","","","","",""
"","143.30500000139","sequential-stimulus-presentation-old","116","300079","0.0-29.0-1.2","SS1619114495088","trial","","40","500","643.30500000139","images/stimuli/spore_stims/simple_03_A_a.gif","images/stimuli/spore_stims/simple_07_A_b.gif","self_paced","","10","simple_dissimilar","images/stimuli/spore_stims/simple_07_A_b.gif","","","","",""
"","null","html-keyboard-response","117","301134","0.0-29.0-0.3","SS1619114495088","","","null","","","","","","<p><img src= images/blank.png width =""600"" height = ""600"" style=""position:fixed;top:50%; left:50%; transform: translate(-50%, -50%); border:5px solid black"">","","","","","","","",""
"","190.81999999983236","sequential-stimulus-presentation-old","118","301910","0.0-29.0-1.3","SS1619114495088","trial","","40","500","690.8199999998324","images/stimuli/spore_stims/simple_03_A_a.gif","images/stimuli/spore_stims/simple_07_A_b.gif","self_paced","","10","simple_dissimilar","images/stimuli/spore_stims/simple_07_A_b.gif","","","","",""
"","null","html-keyboard-response","119","303003","0.0-29.0-0.4","SS1619114495088","","","null","","","","","","<p><img src= images/blank.png width =""600"" height = ""600"" style=""position:fixed;top:50%; left:50%; transform: translate(-50%, -50%); border:5px solid black"">","","","","","","","",""
"","125.355000000156","sequential-stimulus-presentation-old","120","303636","0.0-29.0-1.4","SS1619114495088","trial","","40","500","625.355000000156","images/stimuli/spore_stims/simple_03_A_a.gif","images/stimuli/spore_stims/simple_07_A_b.gif","self_paced","","10","simple_dissimilar","images/stimuli/spore_stims/simple_03_A_a.gif","","","","",""
"","9295.584999999846","survey-multi-choice","121","312936","0.0-30.0","SS1619114495088","math_question","","","","","","","","","","","","{""Q0"":""6""}","[0]","6","",""
"","null","html-keyboard-response","122","314070","0.0-31.0-0.0","SS1619114495088","","","null","","","","","","<p><img src= images/blank.png width =""600"" height = ""600"" style=""position:fixed;top:50%; left:50%; transform: translate(-50%, -50%); border:5px solid black"">","","","","","","","",""
"","142.10000000096625","sequential-stimulus-presentation-old","123","324222","0.0-31.0-1.0","SS1619114495088","trial","","40","500","642.1000000009662","images/stimuli/spore_stims/simple_20_A_a.gif","images/stimuli/spore_stims/simple_11_A_b.gif","forced_long","","11","simple_dissimilar","images/stimuli/spore_stims/simple_11_A_b.gif","","","","",""
"","null","html-keyboard-response","124","325222","0.0-31.0-0.1","SS1619114495088","","","null","","","","","","<p><img src= images/blank.png width =""600"" height = ""600"" style=""position:fixed;top:50%; left:50%; transform: translate(-50%, -50%); border:5px solid black"">","","","","","","","",""
"","118.85000000259606","sequential-stimulus-presentation-old","125","325846","0.0-31.0-1.1","SS1619114495088","trial","","40","500","618.8500000025961","images/stimuli/spore_stims/simple_20_A_a.gif","images/stimuli/spore_stims/simple_11_A_b.gif","forced_long","","11","simple_dissimilar","images/stimuli/spore_stims/simple_11_A_b.gif","","","","",""
"","null","html-keyboard-response","126","326843","0.0-31.0-0.2","SS1619114495088","","","null","","","","","","<p><img src= images/blank.png width =""600"" height = ""600"" style=""position:fixed;top:50%; left:50%; transform: translate(-50%, -50%); border:5px solid black"">","","","","","","","",""
"","121.95499999867752","sequential-stimulus-presentation-old","127","327470","0.0-31.0-1.2","SS1619114495088","trial","","40","500","621.9549999986775","images/stimuli/spore_stims/simple_20_A_a.gif","images/stimuli/spore_stims/simple_11_A_b.gif","forced_long","","11","simple_dissimilar","images/stimuli/spore_stims/simple_20_A_a.gif","","","","",""
"","null","html-keyboard-response","128","328703","0.0-31.0-0.3","SS1619114495088","","","null","","","","","","<p><img src= images/blank.png width =""600"" height = ""600"" style=""position:fixed;top:50%; left:50%; transform: translate(-50%, -50%); border:5px solid black"">","","","","","","","",""
"","134.87000000168337","sequential-stimulus-presentation-old","129","329342","0.0-31.0-1.3","SS1619114495088","trial","","40","500","634.8700000016834","images/stimuli/spore_stims/simple_20_A_a.gif","images/stimuli/spore_stims/simple_11_A_b.gif","forced_long","","11","simple_dissimilar","images/stimuli/spore_stims/simple_20_A_a.gif","","","","",""
"[{""page_index"":0,""viewing_time"":3429.4599999993807}]","3429.7000000005937","instructions","130","332774","0.0-32.0","SS1619114495088","instructions","","","","","","","","","","","","","","","",""
"","3245.95500000217","survey-likert","131","336025","0.0-33.0","SS1619114495088","similarity_question","","","","","","","","","","","","{""Q0"":5}","[0]","","images/stimuli/spore_stims/simple_03_A_a.gif","images/stimuli/spore_stims/simple_07_A_b.gif"
"","2081.384999997681","survey-likert","132","338111","0.0-34.0","SS1619114495088","similarity_question","","","","","","","","","","","","{""Q0"":5}","[0]","","images/stimuli/spore_stims/complex_04_A_a.gif","images/stimuli/spore_stims/complex_20_A_b.gif"
"","2227.579999998852","survey-likert","133","340344","0.0-35.0","SS1619114495088","similarity_question","","","","","","","","","","","","{""Q0"":3}","[0]","","images/stimuli/spore_stims/complex_12_A_b.gif","images/stimuli/spore_stims/complex_16_A_a.gif"
"","1499.0849999994389","survey-likert","134","341855","0.0-36.0","SS1619114495088","similarity_question","","","","","","","","","","","","{""Q0"":4}","[0]","","images/stimuli/spore_stims/simple_12_A_b.gif","images/stimuli/spore_stims/simple_09_A_a.gif"
"","1644.6849999992992","survey-likert","135","343503","0.0-37.0","SS1619114495088","similarity_question","","","","","","","","","","","","{""Q0"":1}","[0]","","images/stimuli/spore_stims/complex_01_A_a.gif","images/stimuli/spore_stims/complex_05_A_b.gif"
"","3549.3900000001304","survey-likert","136","347063","0.0-38.0","SS1619114495088","similarity_question","","","","","","","","","","","","{""Q0"":4}","[0]","","images/stimuli/spore_stims/simple_10_A_a.gif","images/stimuli/spore_stims/simple_16_A_b.gif"
"","4699.694999999367","survey-likert","137","351768","0.0-39.0","SS1619114495088","similarity_question","","","","","","","","","","","","{""Q0"":5}","[0]","","images/stimuli/spore_stims/simple_20_A_a.gif","images/stimuli/spore_stims/simple_11_A_b.gif"
"","4204.225000001257","survey-likert","138","355976","0.0-40.0","SS1619114495088","similarity_question","","","","","","","","","","","","{""Q0"":2}","[0]","","images/stimuli/spore_stims/complex_05_A_a.gif","images/stimuli/spore_stims/complex_09_A_b.gif"
"","4670.855000000272","survey-likert","139","360655","0.0-41.0","SS1619114495088","similarity_question","","","","","","","","","","","","{""Q0"":2}","[0]","","images/stimuli/spore_stims/complex_06_A_b.gif","images/stimuli/spore_stims/complex_19_A_a.gif"
"","3375.5550000023795","survey-likert","140","364039","0.0-42.0","SS1619114495088","similarity_question","","","","","","","","","","","","{""Q0"":5}","[0]","","images/stimuli/spore_stims/complex_18_A_b.gif","images/stimuli/spore_stims/complex_03_A_a.gif"
"","1186.8049999976065","survey-likert","141","365231","0.0-43.0","SS1619114495088","similarity_question","","","","","","","","","","","","{""Q0"":4}","[0]","","images/stimuli/spore_stims/simple_04_A_a.gif","images/stimuli/spore_stims/simple_02_A_b.gif"
"","1363.5899999971734","survey-likert","142","366599","0.0-44.0","SS1619114495088","similarity_question","","","","","","","","","","","","{""Q0"":5}","[0]","","images/stimuli/spore_stims/simple_15_A_b.gif","images/stimuli/spore_stims/simple_16_A_a.gif"
"[{""page_index"":0,""viewing_time"":1180.515000000014}]","1181.0499999992317","instructions","143","367784","0.0-45.0","SS1619114495088","instructions","","","","","","","","","","","","","","","",""
"","2241.9349999981932","survey-likert","144","370031","0.0-46.0","SS1619114495088","","","","","","","","","images/stimuli/spore_stims/complex_16_A_a.gif","","","","{""Q0"":4}","[0]","","",""
"","5936.604999998934","survey-likert","145","375975","0.0-47.0","SS1619114495088","","","","","","","","","images/stimuli/spore_stims/simple_16_A_a.gif","","","","{""Q0"":5}","[0]","","",""
"","1682.5300000018906","survey-likert","146","377663","0.0-48.0","SS1619114495088","","","","","","","","","images/stimuli/spore_stims/complex_05_A_b.gif","","","","{""Q0"":3}","[0]","","",""
"","3578.959999998915","survey-likert","147","381247","0.0-49.0","SS1619114495088","","","","","","","","","images/stimuli/spore_stims/simple_20_A_a.gif","","","","{""Q0"":5}","[0]","","",""
"","868.3149999997113","survey-likert","148","382119","0.0-50.0","SS1619114495088","","","","","","","","","images/stimuli/spore_stims/simple_04_A_a.gif","","","","{""Q0"":4}","[0]","","",""
"","2696.169999999227","survey-likert","149","384823","0.0-51.0","SS1619114495088","","","","","","","","","images/stimuli/spore_stims/simple_16_A_b.gif","","","","{""Q0"":5}","[0]","","",""
"","999.7199999997392","survey-likert","150","385832","0.0-52.0","SS1619114495088","","","","","","","","","images/stimuli/spore_stims/simple_12_A_b.gif","","","","{""Q0"":4}","[0]","","",""
"","1938.4050000007846","survey-likert","151","387775","0.0-53.0","SS1619114495088","","","","","","","","","images/stimuli/spore_stims/complex_04_A_a.gif","","","","{""Q0"":5}","[0]","","",""
"","1688.314999999362","survey-likert","152","389471","0.0-54.0","SS1619114495088","","","","","","","","","images/stimuli/spore_stims/complex_18_A_b.gif","","","","{""Q0"":3}","[0]","","",""
"","1637.3849999981467","survey-likert","153","391114","0.0-55.0","SS1619114495088","","","","","","","","","images/stimuli/spore_stims/complex_05_A_a.gif","","","","{""Q0"":5}","[0]","","",""
"","958.7699999974575","survey-likert","154","392079","0.0-56.0","SS1619114495088","","","","","","","","","images/stimuli/spore_stims/simple_03_A_a.gif","","","","{""Q0"":5}","[0]","","",""
"","1308.1249999995925","survey-likert","155","393391","0.0-57.0","SS1619114495088","","","","","","","","","images/stimuli/spore_stims/complex_06_A_b.gif","","","","{""Q0"":4}","[0]","","",""
"[{""page_index"":0,""viewing_time"":1492.3699999999953}]","1492.904999999213","instructions","156","394887","0.0-58.0","SS1619114495088","instructions","","","","","","","","","","","","","","","",""
"","3113.1199999981327","demog-age","157","398007","0.0-59.0","SS1619114495088","","","","","","","","","","","","","{""age"":""38""}","","","",""
"","2570.494999999879","demog-ethnic-US","158","400583","0.0-60.0","SS1619114495088","","","","","","","","","","","","","{""ethnicity"":[""Asian""]}","[0]","","",""
"","4682.580000000598","demog-gender-and-education","159","405271","0.0-61.0","SS1619114495088","","","","","","","","","","","","","{""gender"":""Male"",""education"":""Bachelor's Degree""}","[0,1]","","",""
"","8778.535000001255","survey-text","160","414057","0.0-62.0","SS1619114495088","feedback","","","","","","","","","","","","{""Q0"":""interesting ""}","","","",""
"[{""page_index"":0,""viewing_time"":2106.425000001793}]","2106.6850000025006","instructions","161","416167","0.0-63.0","SS1619114495088","instructions","","","","","","","","","","","","","","","",""
