"view_history","rt","trial_type","trial_index","time_elapsed","internal_node_id","subject","stimulus_type","trial_stimulus","key_press","minimum_viewing_duration","trial_looking_time","block_deviant","block_background","exposure_type","stimulus","block_number","block_type","stimulus_displayed","responses","question_order","math_correct_answer","stimulus_left","stimulus_right"
"[{""page_index"":0,""viewing_time"":2870.709999995597}]","2871.3599999973667","instructions","0","2875","0.0-0.0","SS1619116400194","","","","","","","","","","","","","","","","",""
"[{""page_index"":0,""viewing_time"":11394.509999998263},{""page_index"":1,""viewing_time"":19287.810000001627}]","30682.730000000447","instructions","1","35561","0.0-1.0","SS1619116400194","instructions","","","","","","","","","","","","","","","",""
"","7617.125000004307","sequential-stimulus-presentation-old","2","43685","0.0-2.0","SS1619116400194","","","40","500","8117.125000004307","null","null","self_paced","","","","","","","","",""
"","3716.9450000001234","sequential-stimulus-presentation-old","3","47905","0.0-3.0","SS1619116400194","","","40","500","4216.945000000123","null","null","self_paced","","","","","","","","",""
"[{""page_index"":0,""viewing_time"":35124.72500000149}]","35125.130000000354","instructions","4","83032","0.0-4.0","SS1619116400194","instructions","","","","","","","","","","","","","","","",""
"","291.98499999620253","sequential-stimulus-presentation-old","5","93329","0.0-5.0","SS1619116400194","","","40","500","791.9849999962025","null","null","forced_long","","","","","","","","",""
"","335.1299999994808","sequential-stimulus-presentation-old","6","93769","0.0-6.0","SS1619116400194","","","40","500","835.1299999994808","null","null","forced_long","","","","","","","","",""
"[{""page_index"":0,""viewing_time"":2867.98500000441}]","2868.3450000025914","instructions","7","96640","0.0-7.0","SS1619116400194","instructions","","","","","","","","","","","","","","","",""
"[{""page_index"":0,""viewing_time"":1797.2549999976764},{""page_index"":1,""viewing_time"":29791.519999998854},{""page_index"":2,""viewing_time"":2415.840000001481},{""page_index"":3,""viewing_time"":1263.8450000013108},{""page_index"":4,""viewing_time"":904.0999999997439}]","36172.99500000081","instructions","8","132817","0.0-8.0","SS1619116400194","instructions","","","","","","","","","","","","","","","",""
"","null","html-keyboard-response","9","133888","0.0-9.0-0.0","SS1619116400194","","","null","","","","","","<p><img src= images/blank.png width =""600"" height = ""600"" style=""position:fixed;top:50%; left:50%; transform: translate(-50%, -50%); border:5px solid black"">","","","","","","","",""
"","3582.640000000538","sequential-stimulus-presentation-old","10","137585","0.0-9.0-1.0","SS1619116400194","trial","","40","500","4082.640000000538","images/stimuli/spore_stims/complex_16_A_a.gif","images/stimuli/spore_stims/complex_04_A_b.gif","forced_short","","0","complex_dissimilar","images/stimuli/spore_stims/complex_04_A_b.gif","","","","",""
"","null","html-keyboard-response","11","138556","0.0-9.0-0.1","SS1619116400194","","","null","","","","","","<p><img src= images/blank.png width =""600"" height = ""600"" style=""position:fixed;top:50%; left:50%; transform: translate(-50%, -50%); border:5px solid black"">","","","","","","","",""
"","108.51499999989755","sequential-stimulus-presentation-old","12","139169","0.0-9.0-1.1","SS1619116400194","trial","","40","500","608.5149999998976","images/stimuli/spore_stims/complex_16_A_a.gif","images/stimuli/spore_stims/complex_04_A_b.gif","forced_short","","0","complex_dissimilar","images/stimuli/spore_stims/complex_04_A_b.gif","","","","",""
"","null","html-keyboard-response","13","140398","0.0-9.0-0.2","SS1619116400194","","","null","","","","","","<p><img src= images/blank.png width =""600"" height = ""600"" style=""position:fixed;top:50%; left:50%; transform: translate(-50%, -50%); border:5px solid black"">","","","","","","","",""
"","130.37500000064028","sequential-stimulus-presentation-old","14","141033","0.0-9.0-1.2","SS1619116400194","trial","","40","500","630.3750000006403","images/stimuli/spore_stims/complex_16_A_a.gif","images/stimuli/spore_stims/complex_04_A_b.gif","forced_short","","0","complex_dissimilar","images/stimuli/spore_stims/complex_16_A_a.gif","","","","",""
"","null","html-keyboard-response","15","141921","0.0-9.0-0.3","SS1619116400194","","","null","","","","","","<p><img src= images/blank.png width =""600"" height = ""600"" style=""position:fixed;top:50%; left:50%; transform: translate(-50%, -50%); border:5px solid black"">","","","","","","","",""
"","31.32999999797903","sequential-stimulus-presentation-old","16","142457","0.0-9.0-1.3","SS1619116400194","trial","","40","500","531.329999997979","images/stimuli/spore_stims/complex_16_A_a.gif","images/stimuli/spore_stims/complex_04_A_b.gif","forced_short","","0","complex_dissimilar","images/stimuli/spore_stims/complex_04_A_b.gif","","","","",""
"","null","html-keyboard-response","17","143265","0.0-9.0-0.4","SS1619116400194","","","null","","","","","","<p><img src= images/blank.png width =""600"" height = ""600"" style=""position:fixed;top:50%; left:50%; transform: translate(-50%, -50%); border:5px solid black"">","","","","","","","",""
"","168.1749999988824","sequential-stimulus-presentation-old","18","143937","0.0-9.0-1.4","SS1619116400194","trial","","40","500","668.1749999988824","images/stimuli/spore_stims/complex_16_A_a.gif","images/stimuli/spore_stims/complex_04_A_b.gif","forced_short","","0","complex_dissimilar","images/stimuli/spore_stims/complex_04_A_b.gif","","","","",""
"","null","html-keyboard-response","19","144964","0.0-9.0-0.5","SS1619116400194","","","null","","","","","","<p><img src= images/blank.png width =""600"" height = ""600"" style=""position:fixed;top:50%; left:50%; transform: translate(-50%, -50%); border:5px solid black"">","","","","","","","",""
"","189.089999999851","sequential-stimulus-presentation-old","20","145657","0.0-9.0-1.5","SS1619116400194","trial","","40","500","689.089999999851","images/stimuli/spore_stims/complex_16_A_a.gif","images/stimuli/spore_stims/complex_04_A_b.gif","forced_short","","0","complex_dissimilar","images/stimuli/spore_stims/complex_16_A_a.gif","","","","",""
"","4746.510000004491","survey-multi-choice","21","150410","0.0-10.0","SS1619116400194","math_question","","","","","","","","","","","","{""Q0"":""14""}","[0]","14","",""
"","null","html-keyboard-response","22","151355","0.0-11.0-0.0","SS1619116400194","","","null","","","","","","<p><img src= images/blank.png width =""600"" height = ""600"" style=""position:fixed;top:50%; left:50%; transform: translate(-50%, -50%); border:5px solid black"">","","","","","","","",""
"","1876.8600000039442","sequential-stimulus-presentation-old","23","153737","0.0-11.0-1.0","SS1619116400194","trial","","40","500","2376.860000003944","images/stimuli/spore_stims/complex_09_A_b.gif","images/stimuli/spore_stims/complex_02_A_a.gif","self_paced","","1","complex_dissimilar","images/stimuli/spore_stims/complex_02_A_a.gif","","","","",""
"","null","html-keyboard-response","24","154625","0.0-11.0-0.1","SS1619116400194","","","null","","","","","","<p><img src= images/blank.png width =""600"" height = ""600"" style=""position:fixed;top:50%; left:50%; transform: translate(-50%, -50%); border:5px solid black"">","","","","","","","",""
"","71.51000000158092","sequential-stimulus-presentation-old","25","155201","0.0-11.0-1.1","SS1619116400194","trial","","40","500","571.5100000015809","images/stimuli/spore_stims/complex_09_A_b.gif","images/stimuli/spore_stims/complex_02_A_a.gif","self_paced","","1","complex_dissimilar","images/stimuli/spore_stims/complex_02_A_a.gif","","","","",""
"","null","html-keyboard-response","26","156196","0.0-11.0-0.2","SS1619116400194","","","null","","","","","","<p><img src= images/blank.png width =""600"" height = ""600"" style=""position:fixed;top:50%; left:50%; transform: translate(-50%, -50%); border:5px solid black"">","","","","","","","",""
"","8.555000000342261","sequential-stimulus-presentation-old","27","156713","0.0-11.0-1.2","SS1619116400194","trial","","40","500","508.55500000034226","images/stimuli/spore_stims/complex_09_A_b.gif","images/stimuli/spore_stims/complex_02_A_a.gif","self_paced","","1","complex_dissimilar","images/stimuli/spore_stims/complex_02_A_a.gif","","","","",""
"","null","html-keyboard-response","28","157999","0.0-11.0-0.3","SS1619116400194","","","null","","","","","","<p><img src= images/blank.png width =""600"" height = ""600"" style=""position:fixed;top:50%; left:50%; transform: translate(-50%, -50%); border:5px solid black"">","","","","","","","",""
"","215.55999999691267","sequential-stimulus-presentation-old","29","158721","0.0-11.0-1.3","SS1619116400194","trial","","40","500","715.5599999969127","images/stimuli/spore_stims/complex_09_A_b.gif","images/stimuli/spore_stims/complex_02_A_a.gif","self_paced","","1","complex_dissimilar","images/stimuli/spore_stims/complex_09_A_b.gif","","","","",""
"","null","html-keyboard-response","30","159585","0.0-11.0-0.4","SS1619116400194","","","null","","","","","","<p><img src= images/blank.png width =""600"" height = ""600"" style=""position:fixed;top:50%; left:50%; transform: translate(-50%, -50%); border:5px solid black"">","","","","","","","",""
"","96.44000000116648","sequential-stimulus-presentation-old","31","160185","0.0-11.0-1.4","SS1619116400194","trial","","40","500","596.4400000011665","images/stimuli/spore_stims/complex_09_A_b.gif","images/stimuli/spore_stims/complex_02_A_a.gif","self_paced","","1","complex_dissimilar","images/stimuli/spore_stims/complex_02_A_a.gif","","","","",""
"","null","html-keyboard-response","32","161370","0.0-11.0-0.5","SS1619116400194","","","null","","","","","","<p><img src= images/blank.png width =""600"" height = ""600"" style=""position:fixed;top:50%; left:50%; transform: translate(-50%, -50%); border:5px solid black"">","","","","","","","",""
"","223.07999999611638","sequential-stimulus-presentation-old","33","162097","0.0-11.0-1.5","SS1619116400194","trial","","40","500","723.0799999961164","images/stimuli/spore_stims/complex_09_A_b.gif","images/stimuli/spore_stims/complex_02_A_a.gif","self_paced","","1","complex_dissimilar","images/stimuli/spore_stims/complex_09_A_b.gif","","","","",""
"","2780.2150000061374","survey-multi-choice","34","164881","0.0-12.0","SS1619116400194","math_question","","","","","","","","","","","","{""Q0"":""5""}","[0]","5","",""
"","null","html-keyboard-response","35","166010","0.0-13.0-0.0","SS1619116400194","","","null","","","","","","<p><img src= images/blank.png width =""600"" height = ""600"" style=""position:fixed;top:50%; left:50%; transform: translate(-50%, -50%); border:5px solid black"">","","","","","","","",""
"","1596.9750000003842","sequential-stimulus-presentation-old","36","167713","0.0-13.0-1.0","SS1619116400194","trial","","40","500","2096.975000000384","images/stimuli/spore_stims/complex_18_A_b.gif","images/stimuli/spore_stims/complex_17_A_a.gif","forced_short","","2","complex_dissimilar","images/stimuli/spore_stims/complex_17_A_a.gif","","","","",""
"","null","html-keyboard-response","37","168574","0.0-13.0-0.1","SS1619116400194","","","null","","","","","","<p><img src= images/blank.png width =""600"" height = ""600"" style=""position:fixed;top:50%; left:50%; transform: translate(-50%, -50%); border:5px solid black"">","","","","","","","",""
"","9.559999998600688","sequential-stimulus-presentation-old","38","169089","0.0-13.0-1.1","SS1619116400194","trial","","40","500","509.5599999986007","images/stimuli/spore_stims/complex_18_A_b.gif","images/stimuli/spore_stims/complex_17_A_a.gif","forced_short","","2","complex_dissimilar","images/stimuli/spore_stims/complex_17_A_a.gif","","","","",""
"","null","html-keyboard-response","39","170372","0.0-13.0-0.2","SS1619116400194","","","null","","","","","","<p><img src= images/blank.png width =""600"" height = ""600"" style=""position:fixed;top:50%; left:50%; transform: translate(-50%, -50%); border:5px solid black"">","","","","","","","",""
"","74.8200000016368","sequential-stimulus-presentation-old","40","170953","0.0-13.0-1.2","SS1619116400194","trial","","40","500","574.8200000016368","images/stimuli/spore_stims/complex_18_A_b.gif","images/stimuli/spore_stims/complex_17_A_a.gif","forced_short","","2","complex_dissimilar","images/stimuli/spore_stims/complex_17_A_a.gif","","","","",""
"","null","html-keyboard-response","41","171849","0.0-13.0-0.3","SS1619116400194","","","null","","","","","","<p><img src= images/blank.png width =""600"" height = ""600"" style=""position:fixed;top:50%; left:50%; transform: translate(-50%, -50%); border:5px solid black"">","","","","","","","",""
"","126.57000000035623","sequential-stimulus-presentation-old","42","172481","0.0-13.0-1.3","SS1619116400194","trial","","40","500","626.5700000003562","images/stimuli/spore_stims/complex_18_A_b.gif","images/stimuli/spore_stims/complex_17_A_a.gif","forced_short","","2","complex_dissimilar","images/stimuli/spore_stims/complex_18_A_b.gif","","","","",""
"","3067.2799999956624","survey-multi-choice","43","175553","0.0-14.0","SS1619116400194","math_question","","","","","","","","","","","","{""Q0"":""7""}","[0]","7","",""
"","null","html-keyboard-response","44","176703","0.0-15.0-0.0","SS1619116400194","","","null","","","","","","<p><img src= images/blank.png width =""600"" height = ""600"" style=""position:fixed;top:50%; left:50%; transform: translate(-50%, -50%); border:5px solid black"">","","","","","","","",""
"","1783.4900000016205","sequential-stimulus-presentation-old","45","178993","0.0-15.0-1.0","SS1619116400194","trial","","40","500","2283.4900000016205","images/stimuli/spore_stims/complex_05_A_a.gif","images/stimuli/spore_stims/complex_02_A_b.gif","self_paced","","3","complex_dissimilar","images/stimuli/spore_stims/complex_02_A_b.gif","","","","",""
"","null","html-keyboard-response","46","180267","0.0-15.0-0.1","SS1619116400194","","","null","","","","","","<p><img src= images/blank.png width =""600"" height = ""600"" style=""position:fixed;top:50%; left:50%; transform: translate(-50%, -50%); border:5px solid black"">","","","","","","","",""
"","156.41499999765074","sequential-stimulus-presentation-old","47","180929","0.0-15.0-1.1","SS1619116400194","trial","","40","500","656.4149999976507","images/stimuli/spore_stims/complex_05_A_a.gif","images/stimuli/spore_stims/complex_02_A_b.gif","self_paced","","3","complex_dissimilar","images/stimuli/spore_stims/complex_05_A_a.gif","","","","",""
"","null","html-keyboard-response","48","182159","0.0-15.0-0.2","SS1619116400194","","","null","","","","","","<p><img src= images/blank.png width =""600"" height = ""600"" style=""position:fixed;top:50%; left:50%; transform: translate(-50%, -50%); border:5px solid black"">","","","","","","","",""
"","17.010000003210735","sequential-stimulus-presentation-old","49","182681","0.0-15.0-1.2","SS1619116400194","trial","","40","500","517.0100000032107","images/stimuli/spore_stims/complex_05_A_a.gif","images/stimuli/spore_stims/complex_02_A_b.gif","self_paced","","3","complex_dissimilar","images/stimuli/spore_stims/complex_02_A_b.gif","","","","",""
"","null","html-keyboard-response","50","183725","0.0-15.0-0.3","SS1619116400194","","","null","","","","","","<p><img src= images/blank.png width =""600"" height = ""600"" style=""position:fixed;top:50%; left:50%; transform: translate(-50%, -50%); border:5px solid black"">","","","","","","","",""
"","50.94499999540858","sequential-stimulus-presentation-old","51","184281","0.0-15.0-1.3","SS1619116400194","trial","","40","500","550.9449999954086","images/stimuli/spore_stims/complex_05_A_a.gif","images/stimuli/spore_stims/complex_02_A_b.gif","self_paced","","3","complex_dissimilar","images/stimuli/spore_stims/complex_02_A_b.gif","","","","",""
"","null","html-keyboard-response","52","185366","0.0-15.0-0.4","SS1619116400194","","","null","","","","","","<p><img src= images/blank.png width =""600"" height = ""600"" style=""position:fixed;top:50%; left:50%; transform: translate(-50%, -50%); border:5px solid black"">","","","","","","","",""
"","49.010000002454035","sequential-stimulus-presentation-old","53","185921","0.0-15.0-1.4","SS1619116400194","trial","","40","500","549.010000002454","images/stimuli/spore_stims/complex_05_A_a.gif","images/stimuli/spore_stims/complex_02_A_b.gif","self_paced","","3","complex_dissimilar","images/stimuli/spore_stims/complex_05_A_a.gif","","","","",""
"","2891.4650000006077","survey-multi-choice","54","188817","0.0-16.0","SS1619116400194","math_question","","","","","","","","","","","","{""Q0"":""10""}","[0]","10","",""
"","null","html-keyboard-response","55","189944","0.0-17.0-0.0","SS1619116400194","","","null","","","","","","<p><img src= images/blank.png width =""600"" height = ""600"" style=""position:fixed;top:50%; left:50%; transform: translate(-50%, -50%); border:5px solid black"">","","","","","","","",""
"","154.63499999896158","sequential-stimulus-presentation-old","56","200105","0.0-17.0-1.0","SS1619116400194","trial","","40","500","654.6349999989616","images/stimuli/spore_stims/complex_03_A_a.gif","images/stimuli/spore_stims/complex_17_A_b.gif","forced_long","","4","complex_dissimilar","images/stimuli/spore_stims/complex_17_A_b.gif","","","","",""
"","null","html-keyboard-response","57","201329","0.0-17.0-0.1","SS1619116400194","","","null","","","","","","<p><img src= images/blank.png width =""600"" height = ""600"" style=""position:fixed;top:50%; left:50%; transform: translate(-50%, -50%); border:5px solid black"">","","","","","","","",""
"","317.12000000698026","sequential-stimulus-presentation-old","58","202153","0.0-17.0-1.1","SS1619116400194","trial","","40","500","817.1200000069803","images/stimuli/spore_stims/complex_03_A_a.gif","images/stimuli/spore_stims/complex_17_A_b.gif","forced_long","","4","complex_dissimilar","images/stimuli/spore_stims/complex_03_A_a.gif","","","","",""
"","null","html-keyboard-response","59","203456","0.0-17.0-0.2","SS1619116400194","","","null","","","","","","<p><img src= images/blank.png width =""600"" height = ""600"" style=""position:fixed;top:50%; left:50%; transform: translate(-50%, -50%); border:5px solid black"">","","","","","","","",""
"","55.540000001201406","sequential-stimulus-presentation-old","60","204017","0.0-17.0-1.2","SS1619116400194","trial","","40","500","555.5400000012014","images/stimuli/spore_stims/complex_03_A_a.gif","images/stimuli/spore_stims/complex_17_A_b.gif","forced_long","","4","complex_dissimilar","images/stimuli/spore_stims/complex_17_A_b.gif","","","","",""
"","null","html-keyboard-response","61","204909","0.0-17.0-0.3","SS1619116400194","","","null","","","","","","<p><img src= images/blank.png width =""600"" height = ""600"" style=""position:fixed;top:50%; left:50%; transform: translate(-50%, -50%); border:5px solid black"">","","","","","","","",""
"","146.74999999988358","sequential-stimulus-presentation-old","62","205561","0.0-17.0-1.3","SS1619116400194","trial","","40","500","646.7499999998836","images/stimuli/spore_stims/complex_03_A_a.gif","images/stimuli/spore_stims/complex_17_A_b.gif","forced_long","","4","complex_dissimilar","images/stimuli/spore_stims/complex_17_A_b.gif","","","","",""
"","null","html-keyboard-response","63","206811","0.0-17.0-0.4","SS1619116400194","","","null","","","","","","<p><img src= images/blank.png width =""600"" height = ""600"" style=""position:fixed;top:50%; left:50%; transform: translate(-50%, -50%); border:5px solid black"">","","","","","","","",""
"","4.690000001573935","sequential-stimulus-presentation-old","64","207321","0.0-17.0-1.4","SS1619116400194","trial","","40","500","504.69000000157394","images/stimuli/spore_stims/complex_03_A_a.gif","images/stimuli/spore_stims/complex_17_A_b.gif","forced_long","","4","complex_dissimilar","images/stimuli/spore_stims/complex_17_A_b.gif","","","","",""
"","null","html-keyboard-response","65","208344","0.0-17.0-0.5","SS1619116400194","","","null","","","","","","<p><img src= images/blank.png width =""600"" height = ""600"" style=""position:fixed;top:50%; left:50%; transform: translate(-50%, -50%); border:5px solid black"">","","","","","","","",""
"","270.6400000024587","sequential-stimulus-presentation-old","66","209121","0.0-17.0-1.5","SS1619116400194","trial","","40","500","770.6400000024587","images/stimuli/spore_stims/complex_03_A_a.gif","images/stimuli/spore_stims/complex_17_A_b.gif","forced_long","","4","complex_dissimilar","images/stimuli/spore_stims/complex_03_A_a.gif","","","","",""
"","2666.8449999997392","survey-multi-choice","67","211792","0.0-18.0","SS1619116400194","math_question","","","","","","","","","","","","{""Q0"":""10""}","[0]","10","",""
"","null","html-keyboard-response","68","212766","0.0-19.0-0.0","SS1619116400194","","","null","","","","","","<p><img src= images/blank.png width =""600"" height = ""600"" style=""position:fixed;top:50%; left:50%; transform: translate(-50%, -50%); border:5px solid black"">","","","","","","","",""
"","383.34499999473337","sequential-stimulus-presentation-old","69","213656","0.0-19.0-1.0","SS1619116400194","trial","","40","500","883.3449999947334","images/stimuli/spore_stims/simple_11_A_b.gif","images/stimuli/spore_stims/simple_14_A_a.gif","self_paced","","5","simple_dissimilar","images/stimuli/spore_stims/simple_14_A_a.gif","","","","",""
"","null","html-keyboard-response","70","214940","0.0-19.0-0.1","SS1619116400194","","","null","","","","","","<p><img src= images/blank.png width =""600"" height = ""600"" style=""position:fixed;top:50%; left:50%; transform: translate(-50%, -50%); border:5px solid black"">","","","","","","","",""
"","210.31499999662628","sequential-stimulus-presentation-old","71","215656","0.0-19.0-1.1","SS1619116400194","trial","","40","500","710.3149999966263","images/stimuli/spore_stims/simple_11_A_b.gif","images/stimuli/spore_stims/simple_14_A_a.gif","self_paced","","5","simple_dissimilar","images/stimuli/spore_stims/simple_14_A_a.gif","","","","",""
"","null","html-keyboard-response","72","216821","0.0-19.0-0.2","SS1619116400194","","","null","","","","","","<p><img src= images/blank.png width =""600"" height = ""600"" style=""position:fixed;top:50%; left:50%; transform: translate(-50%, -50%); border:5px solid black"">","","","","","","","",""
"","201.99999999749707","sequential-stimulus-presentation-old","73","217528","0.0-19.0-1.2","SS1619116400194","trial","","40","500","701.9999999974971","images/stimuli/spore_stims/simple_11_A_b.gif","images/stimuli/spore_stims/simple_14_A_a.gif","self_paced","","5","simple_dissimilar","images/stimuli/spore_stims/simple_14_A_a.gif","","","","",""
"","null","html-keyboard-response","74","218391","0.0-19.0-0.3","SS1619116400194","","","null","","","","","","<p><img src= images/blank.png width =""600"" height = ""600"" style=""position:fixed;top:50%; left:50%; transform: translate(-50%, -50%); border:5px solid black"">","","","","","","","",""
"","95.00999999727355","sequential-stimulus-presentation-old","75","218994","0.0-19.0-1.3","SS1619116400194","trial","","40","500","595.0099999972736","images/stimuli/spore_stims/simple_11_A_b.gif","images/stimuli/spore_stims/simple_14_A_a.gif","self_paced","","5","simple_dissimilar","images/stimuli/spore_stims/simple_14_A_a.gif","","","","",""
"","null","html-keyboard-response","76","219885","0.0-19.0-0.4","SS1619116400194","","","null","","","","","","<p><img src= images/blank.png width =""600"" height = ""600"" style=""position:fixed;top:50%; left:50%; transform: translate(-50%, -50%); border:5px solid black"">","","","","","","","",""
"","90.96000000135973","sequential-stimulus-presentation-old","77","220482","0.0-19.0-1.4","SS1619116400194","trial","","40","500","590.9600000013597","images/stimuli/spore_stims/simple_11_A_b.gif","images/stimuli/spore_stims/simple_14_A_a.gif","self_paced","","5","simple_dissimilar","images/stimuli/spore_stims/simple_11_A_b.gif","","","","",""
"","3042.830000005779","survey-multi-choice","78","223529","0.0-20.0","SS1619116400194","math_question","","","","","","","","","","","","{""Q0"":""6""}","[0]","6","",""
"","null","html-keyboard-response","79","224720","0.0-21.0-0.0","SS1619116400194","","","null","","","","","","<p><img src= images/blank.png width =""600"" height = ""600"" style=""position:fixed;top:50%; left:50%; transform: translate(-50%, -50%); border:5px solid black"">","","","","","","","",""
"","118.59999999433057","sequential-stimulus-presentation-old","80","224946","0.0-21.0-1.0","SS1619116400194","trial","","40","500","618.5999999943306","images/stimuli/spore_stims/simple_16_A_b.gif","images/stimuli/spore_stims/simple_09_A_a.gif","forced_short","","6","simple_dissimilar","images/stimuli/spore_stims/simple_09_A_a.gif","","","","",""
"","null","html-keyboard-response","81","225921","0.0-21.0-0.1","SS1619116400194","","","null","","","","","","<p><img src= images/blank.png width =""600"" height = ""600"" style=""position:fixed;top:50%; left:50%; transform: translate(-50%, -50%); border:5px solid black"">","","","","","","","",""
"","29.614999999466818","sequential-stimulus-presentation-old","82","226458","0.0-21.0-1.1","SS1619116400194","trial","","40","500","529.6149999994668","images/stimuli/spore_stims/simple_16_A_b.gif","images/stimuli/spore_stims/simple_09_A_a.gif","forced_short","","6","simple_dissimilar","images/stimuli/spore_stims/simple_09_A_a.gif","","","","",""
"","null","html-keyboard-response","83","227458","0.0-21.0-0.2","SS1619116400194","","","null","","","","","","<p><img src= images/blank.png width =""600"" height = ""600"" style=""position:fixed;top:50%; left:50%; transform: translate(-50%, -50%); border:5px solid black"">","","","","","","","",""
"","117.45499999960884","sequential-stimulus-presentation-old","84","228082","0.0-21.0-1.2","SS1619116400194","trial","","40","500","617.4549999996088","images/stimuli/spore_stims/simple_16_A_b.gif","images/stimuli/spore_stims/simple_09_A_a.gif","forced_short","","6","simple_dissimilar","images/stimuli/spore_stims/simple_09_A_a.gif","","","","",""
"","null","html-keyboard-response","85","229020","0.0-21.0-0.3","SS1619116400194","","","null","","","","","","<p><img src= images/blank.png width =""600"" height = ""600"" style=""position:fixed;top:50%; left:50%; transform: translate(-50%, -50%); border:5px solid black"">","","","","","","","",""
"","187.5099999961094","sequential-stimulus-presentation-old","86","229714","0.0-21.0-1.3","SS1619116400194","trial","","40","500","687.5099999961094","images/stimuli/spore_stims/simple_16_A_b.gif","images/stimuli/spore_stims/simple_09_A_a.gif","forced_short","","6","simple_dissimilar","images/stimuli/spore_stims/simple_09_A_a.gif","","","","",""
"","null","html-keyboard-response","87","230773","0.0-21.0-0.4","SS1619116400194","","","null","","","","","","<p><img src= images/blank.png width =""600"" height = ""600"" style=""position:fixed;top:50%; left:50%; transform: translate(-50%, -50%); border:5px solid black"">","","","","","","","",""
"","137.38999999623047","sequential-stimulus-presentation-old","88","231418","0.0-21.0-1.4","SS1619116400194","trial","","40","500","637.3899999962305","images/stimuli/spore_stims/simple_16_A_b.gif","images/stimuli/spore_stims/simple_09_A_a.gif","forced_short","","6","simple_dissimilar","images/stimuli/spore_stims/simple_16_A_b.gif","","","","",""
"","null","html-keyboard-response","89","232258","0.0-21.0-0.5","SS1619116400194","","","null","","","","","","<p><img src= images/blank.png width =""600"" height = ""600"" style=""position:fixed;top:50%; left:50%; transform: translate(-50%, -50%); border:5px solid black"">","","","","","","","",""
"","253.16000000020722","sequential-stimulus-presentation-old","90","233018","0.0-21.0-1.5","SS1619116400194","trial","","40","500","753.1600000002072","images/stimuli/spore_stims/simple_16_A_b.gif","images/stimuli/spore_stims/simple_09_A_a.gif","forced_short","","6","simple_dissimilar","images/stimuli/spore_stims/simple_16_A_b.gif","","","","",""
"","2810.0150000027497","survey-multi-choice","91","235834","0.0-22.0","SS1619116400194","math_question","","","","","","","","","","","","{""Q0"":""8""}","[0]","8","",""
"","null","html-keyboard-response","92","236925","0.0-23.0-0.0","SS1619116400194","","","null","","","","","","<p><img src= images/blank.png width =""600"" height = ""600"" style=""position:fixed;top:50%; left:50%; transform: translate(-50%, -50%); border:5px solid black"">","","","","","","","",""
"","68.37999999697786","sequential-stimulus-presentation-old","93","247001","0.0-23.0-1.0","SS1619116400194","trial","","40","500","568.3799999969779","images/stimuli/spore_stims/simple_01_A_b.gif","images/stimuli/spore_stims/simple_08_A_a.gif","forced_long","","7","simple_dissimilar","images/stimuli/spore_stims/simple_08_A_a.gif","","","","",""
"","null","html-keyboard-response","94","247940","0.0-23.0-0.1","SS1619116400194","","","null","","","","","","<p><img src= images/blank.png width =""600"" height = ""600"" style=""position:fixed;top:50%; left:50%; transform: translate(-50%, -50%); border:5px solid black"">","","","","","","","",""
"","145.27000000089174","sequential-stimulus-presentation-old","95","248593","0.0-23.0-1.1","SS1619116400194","trial","","40","500","645.2700000008917","images/stimuli/spore_stims/simple_01_A_b.gif","images/stimuli/spore_stims/simple_08_A_a.gif","forced_long","","7","simple_dissimilar","images/stimuli/spore_stims/simple_01_A_b.gif","","","","",""
"","null","html-keyboard-response","96","249484","0.0-23.0-0.2","SS1619116400194","","","null","","","","","","<p><img src= images/blank.png width =""600"" height = ""600"" style=""position:fixed;top:50%; left:50%; transform: translate(-50%, -50%); border:5px solid black"">","","","","","","","",""
"","235.26500000298256","sequential-stimulus-presentation-old","97","250225","0.0-23.0-1.2","SS1619116400194","trial","","40","500","735.2650000029826","images/stimuli/spore_stims/simple_01_A_b.gif","images/stimuli/spore_stims/simple_08_A_a.gif","forced_long","","7","simple_dissimilar","images/stimuli/spore_stims/simple_08_A_a.gif","","","","",""
"","null","html-keyboard-response","98","251136","0.0-23.0-0.3","SS1619116400194","","","null","","","","","","<p><img src= images/blank.png width =""600"" height = ""600"" style=""position:fixed;top:50%; left:50%; transform: translate(-50%, -50%); border:5px solid black"">","","","","","","","",""
"","70.44499999756226","sequential-stimulus-presentation-old","99","251713","0.0-23.0-1.3","SS1619116400194","trial","","40","500","570.4449999975623","images/stimuli/spore_stims/simple_01_A_b.gif","images/stimuli/spore_stims/simple_08_A_a.gif","forced_long","","7","simple_dissimilar","images/stimuli/spore_stims/simple_08_A_a.gif","","","","",""
"","null","html-keyboard-response","100","252523","0.0-23.0-0.4","SS1619116400194","","","null","","","","","","<p><img src= images/blank.png width =""600"" height = ""600"" style=""position:fixed;top:50%; left:50%; transform: translate(-50%, -50%); border:5px solid black"">","","","","","","","",""
"","130.96000000223285","sequential-stimulus-presentation-old","101","253161","0.0-23.0-1.4","SS1619116400194","trial","","40","500","630.9600000022328","images/stimuli/spore_stims/simple_01_A_b.gif","images/stimuli/spore_stims/simple_08_A_a.gif","forced_long","","7","simple_dissimilar","images/stimuli/spore_stims/simple_01_A_b.gif","","","","",""
"","3451.3349999979255","survey-multi-choice","102","256618","0.0-24.0","SS1619116400194","math_question","","","","","","","","","","","","{""Q0"":""16""}","[0]","16","",""
"","null","html-keyboard-response","103","257920","0.0-25.0-0.0","SS1619116400194","","","null","","","","","","<p><img src= images/blank.png width =""600"" height = ""600"" style=""position:fixed;top:50%; left:50%; transform: translate(-50%, -50%); border:5px solid black"">","","","","","","","",""
"","152.01499999966472","sequential-stimulus-presentation-old","104","268081","0.0-25.0-1.0","SS1619116400194","trial","","40","500","652.0149999996647","images/stimuli/spore_stims/complex_14_A_a.gif","images/stimuli/spore_stims/complex_05_A_b.gif","forced_long","","8","complex_dissimilar","images/stimuli/spore_stims/complex_05_A_b.gif","","","","",""
"","null","html-keyboard-response","105","269222","0.0-25.0-0.1","SS1619116400194","","","null","","","","","","<p><img src= images/blank.png width =""600"" height = ""600"" style=""position:fixed;top:50%; left:50%; transform: translate(-50%, -50%); border:5px solid black"">","","","","","","","",""
"","278.0750000019907","sequential-stimulus-presentation-old","106","270009","0.0-25.0-1.1","SS1619116400194","trial","","40","500","778.0750000019907","images/stimuli/spore_stims/complex_14_A_a.gif","images/stimuli/spore_stims/complex_05_A_b.gif","forced_long","","8","complex_dissimilar","images/stimuli/spore_stims/complex_05_A_b.gif","","","","",""
"","null","html-keyboard-response","107","270916","0.0-25.0-0.2","SS1619116400194","","","null","","","","","","<p><img src= images/blank.png width =""600"" height = ""600"" style=""position:fixed;top:50%; left:50%; transform: translate(-50%, -50%); border:5px solid black"">","","","","","","","",""
"","25.735000002896413","sequential-stimulus-presentation-old","108","271449","0.0-25.0-1.2","SS1619116400194","trial","","40","500","525.7350000028964","images/stimuli/spore_stims/complex_14_A_a.gif","images/stimuli/spore_stims/complex_05_A_b.gif","forced_long","","8","complex_dissimilar","images/stimuli/spore_stims/complex_05_A_b.gif","","","","",""
"","null","html-keyboard-response","109","272460","0.0-25.0-0.3","SS1619116400194","","","null","","","","","","<p><img src= images/blank.png width =""600"" height = ""600"" style=""position:fixed;top:50%; left:50%; transform: translate(-50%, -50%); border:5px solid black"">","","","","","","","",""
"","122.4800000054529","sequential-stimulus-presentation-old","110","273090","0.0-25.0-1.3","SS1619116400194","trial","","40","500","622.4800000054529","images/stimuli/spore_stims/complex_14_A_a.gif","images/stimuli/spore_stims/complex_05_A_b.gif","forced_long","","8","complex_dissimilar","images/stimuli/spore_stims/complex_05_A_b.gif","","","","",""
"","2752.82999999763","survey-multi-choice","111","275849","0.0-26.0","SS1619116400194","math_question","","","","","","","","","","","","{""Q0"":""10""}","[0]","10","",""
"","null","html-keyboard-response","112","277042","0.0-27.0-0.0","SS1619116400194","","","null","","","","","","<p><img src= images/blank.png width =""600"" height = ""600"" style=""position:fixed;top:50%; left:50%; transform: translate(-50%, -50%); border:5px solid black"">","","","","","","","",""
"","66.53499999811174","sequential-stimulus-presentation-old","113","277617","0.0-27.0-1.0","SS1619116400194","trial","","40","500","566.5349999981117","images/stimuli/spore_stims/simple_06_A_b.gif","images/stimuli/spore_stims/simple_04_A_a.gif","self_paced","","9","simple_dissimilar","images/stimuli/spore_stims/simple_04_A_a.gif","","","","",""
"","null","html-keyboard-response","114","278908","0.0-27.0-0.1","SS1619116400194","","","null","","","","","","<p><img src= images/blank.png width =""600"" height = ""600"" style=""position:fixed;top:50%; left:50%; transform: translate(-50%, -50%); border:5px solid black"">","","","","","","","",""
"","201.0950000039884","sequential-stimulus-presentation-old","115","279618","0.0-27.0-1.1","SS1619116400194","trial","","40","500","701.0950000039884","images/stimuli/spore_stims/simple_06_A_b.gif","images/stimuli/spore_stims/simple_04_A_a.gif","self_paced","","9","simple_dissimilar","images/stimuli/spore_stims/simple_04_A_a.gif","","","","",""
"","null","html-keyboard-response","116","280512","0.0-27.0-0.2","SS1619116400194","","","null","","","","","","<p><img src= images/blank.png width =""600"" height = ""600"" style=""position:fixed;top:50%; left:50%; transform: translate(-50%, -50%); border:5px solid black"">","","","","","","","",""
"","190.28000000253087","sequential-stimulus-presentation-old","117","281210","0.0-27.0-1.2","SS1619116400194","trial","","40","500","690.2800000025309","images/stimuli/spore_stims/simple_06_A_b.gif","images/stimuli/spore_stims/simple_04_A_a.gif","self_paced","","9","simple_dissimilar","images/stimuli/spore_stims/simple_06_A_b.gif","","","","",""
"","null","html-keyboard-response","118","282316","0.0-27.0-0.3","SS1619116400194","","","null","","","","","","<p><img src= images/blank.png width =""600"" height = ""600"" style=""position:fixed;top:50%; left:50%; transform: translate(-50%, -50%); border:5px solid black"">","","","","","","","",""
"","82.36500000202795","sequential-stimulus-presentation-old","119","282906","0.0-27.0-1.3","SS1619116400194","trial","","40","500","582.365000002028","images/stimuli/spore_stims/simple_06_A_b.gif","images/stimuli/spore_stims/simple_04_A_a.gif","self_paced","","9","simple_dissimilar","images/stimuli/spore_stims/simple_04_A_a.gif","","","","",""
"","null","html-keyboard-response","120","283859","0.0-27.0-0.4","SS1619116400194","","","null","","","","","","<p><img src= images/blank.png width =""600"" height = ""600"" style=""position:fixed;top:50%; left:50%; transform: translate(-50%, -50%); border:5px solid black"">","","","","","","","",""
"","233.02999999577878","sequential-stimulus-presentation-old","121","284602","0.0-27.0-1.4","SS1619116400194","trial","","40","500","733.0299999957788","images/stimuli/spore_stims/simple_06_A_b.gif","images/stimuli/spore_stims/simple_04_A_a.gif","self_paced","","9","simple_dissimilar","images/stimuli/spore_stims/simple_04_A_a.gif","","","","",""
"","null","html-keyboard-response","122","285430","0.0-27.0-0.5","SS1619116400194","","","null","","","","","","<p><img src= images/blank.png width =""600"" height = ""600"" style=""position:fixed;top:50%; left:50%; transform: translate(-50%, -50%); border:5px solid black"">","","","","","","","",""
"","30.320000005303882","sequential-stimulus-presentation-old","123","285970","0.0-27.0-1.5","SS1619116400194","trial","","40","500","530.3200000053039","images/stimuli/spore_stims/simple_06_A_b.gif","images/stimuli/spore_stims/simple_04_A_a.gif","self_paced","","9","simple_dissimilar","images/stimuli/spore_stims/simple_04_A_a.gif","","","","",""
"","4513.694999994186","survey-multi-choice","124","290489","0.0-28.0","SS1619116400194","math_question","","","","","","","","","","","","{""Q0"":""17""}","[0]","17","",""
"","null","html-keyboard-response","125","291445","0.0-29.0-0.0","SS1619116400194","","","null","","","","","","<p><img src= images/blank.png width =""600"" height = ""600"" style=""position:fixed;top:50%; left:50%; transform: translate(-50%, -50%); border:5px solid black"">","","","","","","","",""
"","12.175000003480818","sequential-stimulus-presentation-old","126","301465","0.0-29.0-1.0","SS1619116400194","trial","","40","500","512.1750000034808","images/stimuli/spore_stims/simple_09_A_b.gif","images/stimuli/spore_stims/simple_02_A_a.gif","forced_long","","10","simple_dissimilar","images/stimuli/spore_stims/simple_02_A_a.gif","","","","",""
"","null","html-keyboard-response","127","302714","0.0-29.0-0.1","SS1619116400194","","","null","","","","","","<p><img src= images/blank.png width =""600"" height = ""600"" style=""position:fixed;top:50%; left:50%; transform: translate(-50%, -50%); border:5px solid black"">","","","","","","","",""
"","315.2200000040466","sequential-stimulus-presentation-old","128","303538","0.0-29.0-1.1","SS1619116400194","trial","","40","500","815.2200000040466","images/stimuli/spore_stims/simple_09_A_b.gif","images/stimuli/spore_stims/simple_02_A_a.gif","forced_long","","10","simple_dissimilar","images/stimuli/spore_stims/simple_02_A_a.gif","","","","",""
"","null","html-keyboard-response","129","304596","0.0-29.0-0.2","SS1619116400194","","","null","","","","","","<p><img src= images/blank.png width =""600"" height = ""600"" style=""position:fixed;top:50%; left:50%; transform: translate(-50%, -50%); border:5px solid black"">","","","","","","","",""
"","74.09000000188826","sequential-stimulus-presentation-old","130","305177","0.0-29.0-1.2","SS1619116400194","trial","","40","500","574.0900000018883","images/stimuli/spore_stims/simple_09_A_b.gif","images/stimuli/spore_stims/simple_02_A_a.gif","forced_long","","10","simple_dissimilar","images/stimuli/spore_stims/simple_02_A_a.gif","","","","",""
"","null","html-keyboard-response","131","306052","0.0-29.0-0.3","SS1619116400194","","","null","","","","","","<p><img src= images/blank.png width =""600"" height = ""600"" style=""position:fixed;top:50%; left:50%; transform: translate(-50%, -50%); border:5px solid black"">","","","","","","","",""
"","33.929999997781124","sequential-stimulus-presentation-old","132","306593","0.0-29.0-1.3","SS1619116400194","trial","","40","500","533.9299999977811","images/stimuli/spore_stims/simple_09_A_b.gif","images/stimuli/spore_stims/simple_02_A_a.gif","forced_long","","10","simple_dissimilar","images/stimuli/spore_stims/simple_02_A_a.gif","","","","",""
"","3073.01500000176","survey-multi-choice","133","309673","0.0-30.0","SS1619116400194","math_question","","","","","","","","","","","","{""Q0"":""3""}","[0]","3","",""
"","null","html-keyboard-response","134","310840","0.0-31.0-0.0","SS1619116400194","","","null","","","","","","<p><img src= images/blank.png width =""600"" height = ""600"" style=""position:fixed;top:50%; left:50%; transform: translate(-50%, -50%); border:5px solid black"">","","","","","","","",""
"","1092.0100000003004","sequential-stimulus-presentation-old","135","312042","0.0-31.0-1.0","SS1619116400194","trial","","40","500","1592.0100000003004","images/stimuli/spore_stims/simple_15_A_a.gif","images/stimuli/spore_stims/simple_08_A_b.gif","forced_short","","11","simple_dissimilar","images/stimuli/spore_stims/simple_08_A_b.gif","","","","",""
"","null","html-keyboard-response","136","312931","0.0-31.0-0.1","SS1619116400194","","","null","","","","","","<p><img src= images/blank.png width =""600"" height = ""600"" style=""position:fixed;top:50%; left:50%; transform: translate(-50%, -50%); border:5px solid black"">","","","","","","","",""
"","161.72499999811407","sequential-stimulus-presentation-old","137","313601","0.0-31.0-1.1","SS1619116400194","trial","","40","500","661.7249999981141","images/stimuli/spore_stims/simple_15_A_a.gif","images/stimuli/spore_stims/simple_08_A_b.gif","forced_short","","11","simple_dissimilar","images/stimuli/spore_stims/simple_15_A_a.gif","","","","",""
"","null","html-keyboard-response","138","314461","0.0-31.0-0.2","SS1619116400194","","","null","","","","","","<p><img src= images/blank.png width =""600"" height = ""600"" style=""position:fixed;top:50%; left:50%; transform: translate(-50%, -50%); border:5px solid black"">","","","","","","","",""
"","119.68999999953667","sequential-stimulus-presentation-old","139","315089","0.0-31.0-1.2","SS1619116400194","trial","","40","500","619.6899999995367","images/stimuli/spore_stims/simple_15_A_a.gif","images/stimuli/spore_stims/simple_08_A_b.gif","forced_short","","11","simple_dissimilar","images/stimuli/spore_stims/simple_08_A_b.gif","","","","",""
"","null","html-keyboard-response","140","316348","0.0-31.0-0.3","SS1619116400194","","","null","","","","","","<p><img src= images/blank.png width =""600"" height = ""600"" style=""position:fixed;top:50%; left:50%; transform: translate(-50%, -50%); border:5px solid black"">","","","","","","","",""
"","97.42499999993015","sequential-stimulus-presentation-old","141","316953","0.0-31.0-1.3","SS1619116400194","trial","","40","500","597.4249999999302","images/stimuli/spore_stims/simple_15_A_a.gif","images/stimuli/spore_stims/simple_08_A_b.gif","forced_short","","11","simple_dissimilar","images/stimuli/spore_stims/simple_08_A_b.gif","","","","",""
"[{""page_index"":0,""viewing_time"":4687.959999995655}]","4688.38500000129","instructions","142","321649","0.0-32.0","SS1619116400194","instructions","","","","","","","","","","","","","","","",""
"","7310.835000003863","survey-likert","143","328969","0.0-33.0","SS1619116400194","similarity_question","","","","","","","","","","","","{""Q0"":1}","[0]","","images/stimuli/spore_stims/simple_09_A_a.gif","images/stimuli/spore_stims/simple_16_A_b.gif"
"","5565.39000000339","survey-likert","144","334546","0.0-34.0","SS1619116400194","similarity_question","","","","","","","","","","","","{""Q0"":4}","[0]","","images/stimuli/spore_stims/simple_08_A_b.gif","images/stimuli/spore_stims/simple_15_A_a.gif"
"","4245.889999998326","survey-likert","145","338801","0.0-35.0","SS1619116400194","similarity_question","","","","","","","","","","","","{""Q0"":1}","[0]","","images/stimuli/spore_stims/simple_04_A_a.gif","images/stimuli/spore_stims/simple_06_A_b.gif"
"","2822.919999998703","survey-likert","146","341634","0.0-36.0","SS1619116400194","similarity_question","","","","","","","","","","","","{""Q0"":1}","[0]","","images/stimuli/spore_stims/complex_03_A_a.gif","images/stimuli/spore_stims/complex_17_A_b.gif"
"","2270.1149999993504","survey-likert","147","343914","0.0-37.0","SS1619116400194","similarity_question","","","","","","","","","","","","{""Q0"":1}","[0]","","images/stimuli/spore_stims/complex_02_A_a.gif","images/stimuli/spore_stims/complex_09_A_b.gif"
"","1750.290000003588","survey-likert","148","345674","0.0-38.0","SS1619116400194","similarity_question","","","","","","","","","","","","{""Q0"":1}","[0]","","images/stimuli/spore_stims/complex_18_A_b.gif","images/stimuli/spore_stims/complex_17_A_a.gif"
"","5006.775000001653","survey-likert","149","350690","0.0-39.0","SS1619116400194","similarity_question","","","","","","","","","","","","{""Q0"":1}","[0]","","images/stimuli/spore_stims/complex_04_A_b.gif","images/stimuli/spore_stims/complex_16_A_a.gif"
"","2374.004999997851","survey-likert","150","353074","0.0-40.0","SS1619116400194","similarity_question","","","","","","","","","","","","{""Q0"":1}","[0]","","images/stimuli/spore_stims/simple_09_A_b.gif","images/stimuli/spore_stims/simple_02_A_a.gif"
"","3558.230000002368","survey-likert","151","356642","0.0-41.0","SS1619116400194","similarity_question","","","","","","","","","","","","{""Q0"":2}","[0]","","images/stimuli/spore_stims/simple_14_A_a.gif","images/stimuli/spore_stims/simple_11_A_b.gif"
"","2486.959999994724","survey-likert","152","359138","0.0-42.0","SS1619116400194","similarity_question","","","","","","","","","","","","{""Q0"":4}","[0]","","images/stimuli/spore_stims/simple_08_A_a.gif","images/stimuli/spore_stims/simple_01_A_b.gif"
"","4054.3650000035996","survey-likert","153","363202","0.0-43.0","SS1619116400194","similarity_question","","","","","","","","","","","","{""Q0"":4}","[0]","","images/stimuli/spore_stims/complex_05_A_a.gif","images/stimuli/spore_stims/complex_02_A_b.gif"
"","2500.91500000417","survey-likert","154","365714","0.0-44.0","SS1619116400194","similarity_question","","","","","","","","","","","","{""Q0"":4}","[0]","","images/stimuli/spore_stims/complex_05_A_b.gif","images/stimuli/spore_stims/complex_14_A_a.gif"
"[{""page_index"":0,""viewing_time"":3519.6199999991222}]","3520.1250000027358","instructions","155","369241","0.0-45.0","SS1619116400194","instructions","","","","","","","","","","","","","","","",""
"","4639.054999999644","survey-likert","156","373890","0.0-46.0","SS1619116400194","","","","","","","","","images/stimuli/spore_stims/complex_03_A_a.gif","","","","{""Q0"":4}","[0]","","",""
"","1494.0950000018347","survey-likert","157","375393","0.0-47.0","SS1619116400194","","","","","","","","","images/stimuli/spore_stims/simple_09_A_b.gif","","","","{""Q0"":4}","[0]","","",""
"","2544.1199999986566","survey-likert","158","377947","0.0-48.0","SS1619116400194","","","","","","","","","images/stimuli/spore_stims/simple_08_A_a.gif","","","","{""Q0"":4}","[0]","","",""
"","1652.5299999993877","survey-likert","159","379610","0.0-49.0","SS1619116400194","","","","","","","","","images/stimuli/spore_stims/simple_08_A_b.gif","","","","{""Q0"":2}","[0]","","",""
"","2717.6299999991897","survey-likert","160","382337","0.0-50.0","SS1619116400194","","","","","","","","","images/stimuli/spore_stims/complex_14_A_a.gif","","","","{""Q0"":4}","[0]","","",""
"","3797.76000000129","survey-likert","161","386145","0.0-51.0","SS1619116400194","","","","","","","","","images/stimuli/spore_stims/complex_04_A_b.gif","","","","{""Q0"":4}","[0]","","",""
"","1918.6499999996158","survey-likert","162","388074","0.0-52.0","SS1619116400194","","","","","","","","","images/stimuli/spore_stims/complex_02_A_a.gif","","","","{""Q0"":4}","[0]","","",""
"","3013.95500000217","survey-likert","163","391098","0.0-53.0","SS1619116400194","","","","","","","","","images/stimuli/spore_stims/complex_17_A_a.gif","","","","{""Q0"":4}","[0]","","",""
"","2022.4200000011479","survey-likert","164","393129","0.0-54.0","SS1619116400194","","","","","","","","","images/stimuli/spore_stims/simple_11_A_b.gif","","","","{""Q0"":4}","[0]","","",""
"","2399.649999999383","survey-likert","165","395539","0.0-55.0","SS1619116400194","","","","","","","","","images/stimuli/spore_stims/simple_16_A_b.gif","","","","{""Q0"":4}","[0]","","",""
"","1323.1599999999162","survey-likert","166","396873","0.0-56.0","SS1619116400194","","","","","","","","","images/stimuli/spore_stims/complex_02_A_b.gif","","","","{""Q0"":4}","[0]","","",""
"","1743.3799999998882","survey-likert","167","398625","0.0-57.0","SS1619116400194","","","","","","","","","images/stimuli/spore_stims/simple_06_A_b.gif","","","","{""Q0"":4}","[0]","","",""
"[{""page_index"":0,""viewing_time"":2325.880000003963}]","2326.325000001816","instructions","168","400961","0.0-58.0","SS1619116400194","instructions","","","","","","","","","","","","","","","",""
"","3310.714999999618","demog-age","169","404284","0.0-59.0","SS1619116400194","","","","","","","","","","","","","{""age"":""25""}","","","",""
"","6229.120000003604","demog-ethnic-US","170","410547","0.0-60.0","SS1619116400194","","","","","","","","","","","","","{""ethnicity"":[""White""]}","[0]","","",""
"","6331.355000002077","demog-gender-and-education","171","416890","0.0-61.0","SS1619116400194","","","","","","","","","","","","","{""gender"":""Male"",""education"":""Bachelor's Degree""}","[0,1]","","",""
"","10050.555000001623","survey-text","172","426953","0.0-62.0","SS1619116400194","feedback","","","","","","","","","","","","{""Q0"":""GOOD ""}","","","",""
"[{""page_index"":0,""viewing_time"":1182.9799999977695}]","1183.3849999966333","instructions","173","428144","0.0-63.0","SS1619116400194","instructions","","","","","","","","","","","","","","","",""
