view_history,rt,trial_type,trial_index,time_elapsed,internal_node_id,subject,stimulus_type,trial_stimulus,key_press,minimum_viewing_duration,trial_looking_time,block_deviant,block_background,exposure_type,stimulus,block_number,block_type,stimulus_displayed,responses,question_order,math_correct_answer,stimulus_left,stimulus_right
"[{""page_index"":0,""viewing_time"":80840.75499999744}]",80841.64999998757,instructions,0,80846,0.0-0.0,SS1619113880904,NA,NA,NA,NA,NA,NA,NA,NA,NA,NA,NA,NA,NA,NA,NA,NA,NA
"[{""page_index"":0,""viewing_time"":9448.080000001937},{""page_index"":1,""viewing_time"":4518.654999992577}]",13966.97999999742,instructions,1,96815,0.0-1.0,SS1619113880904,instructions,NA,NA,NA,NA,NA,NA,NA,NA,NA,NA,NA,NA,NA,NA,NA,NA
NA,4362.649999995483,sequential-stimulus-presentation-old,2,101682,0.0-2.0,SS1619113880904,NA,NA,40,500,4862.649999995483,null,null,self_paced,NA,NA,NA,NA,NA,NA,NA,NA,NA
NA,2769.224999996368,sequential-stimulus-presentation-old,3,104954,0.0-3.0,SS1619113880904,NA,NA,40,500,3269.224999996368,null,null,self_paced,NA,NA,NA,NA,NA,NA,NA,NA,NA
"[{""page_index"":0,""viewing_time"":13443.894999989425}]",13444.164999993518,instructions,4,118399,0.0-4.0,SS1619113880904,instructions,NA,NA,NA,NA,NA,NA,NA,NA,NA,NA,NA,NA,NA,NA,NA,NA
NA,1861.014999987674,sequential-stimulus-presentation-old,5,130264,0.0-5.0,SS1619113880904,NA,NA,40,500,2361.014999987674,null,null,forced_long,NA,NA,NA,NA,NA,NA,NA,NA,NA
NA,4098.169999997481,sequential-stimulus-presentation-old,6,134468,0.0-6.0,SS1619113880904,NA,NA,40,500,4598.169999997481,null,null,forced_long,NA,NA,NA,NA,NA,NA,NA,NA,NA
"[{""page_index"":0,""viewing_time"":3519.7449999977835}]",3519.929999994929,instructions,7,137989,0.0-7.0,SS1619113880904,instructions,NA,NA,NA,NA,NA,NA,NA,NA,NA,NA,NA,NA,NA,NA,NA,NA
"[{""page_index"":0,""viewing_time"":6317.390000011073},{""page_index"":1,""viewing_time"":7191.879999998491},{""page_index"":2,""viewing_time"":3993.369999996503},{""page_index"":3,""viewing_time"":1132.7149999997346},{""page_index"":4,""viewing_time"":1377.569999996922}]",20013.165000011213,instructions,8,158004,0.0-8.0,SS1619113880904,instructions,NA,NA,NA,NA,NA,NA,NA,NA,NA,NA,NA,NA,NA,NA,NA,NA
NA,null,html-keyboard-response,9,159064,0.0-9.0-0.0,SS1619113880904,NA,NA,null,NA,NA,NA,NA,NA,"<p><img src= images/blank.png width =""600"" height = ""600"" style=""position:fixed;top:50%; left:50%; transform: translate(-50%, -50%); border:5px solid black"">",NA,NA,NA,NA,NA,NA,NA,NA
NA,3566.095000001951,sequential-stimulus-presentation-old,10,163138,0.0-9.0-1.0,SS1619113880904,trial,NA,40,500,4066.095000001951,images/stimuli/spore_stims/simple_15_A_b.gif,images/stimuli/spore_stims/simple_14_A_a.gif,self_paced,NA,0,simple_dissimilar,images/stimuli/spore_stims/simple_14_A_a.gif,NA,NA,NA,NA,NA
NA,null,html-keyboard-response,11,164121,0.0-9.0-0.1,SS1619113880904,NA,NA,null,NA,NA,NA,NA,NA,"<p><img src= images/blank.png width =""600"" height = ""600"" style=""position:fixed;top:50%; left:50%; transform: translate(-50%, -50%); border:5px solid black"">",NA,NA,NA,NA,NA,NA,NA,NA
NA,737.1899999998277,sequential-stimulus-presentation-old,12,165363,0.0-9.0-1.1,SS1619113880904,trial,NA,40,500,1237.1899999998277,images/stimuli/spore_stims/simple_15_A_b.gif,images/stimuli/spore_stims/simple_14_A_a.gif,self_paced,NA,0,simple_dissimilar,images/stimuli/spore_stims/simple_14_A_a.gif,NA,NA,NA,NA,NA
NA,null,html-keyboard-response,13,166502,0.0-9.0-0.2,SS1619113880904,NA,NA,null,NA,NA,NA,NA,NA,"<p><img src= images/blank.png width =""600"" height = ""600"" style=""position:fixed;top:50%; left:50%; transform: translate(-50%, -50%); border:5px solid black"">",NA,NA,NA,NA,NA,NA,NA,NA
NA,745.6700000038836,sequential-stimulus-presentation-old,14,167750,0.0-9.0-1.2,SS1619113880904,trial,NA,40,500,1245.6700000038836,images/stimuli/spore_stims/simple_15_A_b.gif,images/stimuli/spore_stims/simple_14_A_a.gif,self_paced,NA,0,simple_dissimilar,images/stimuli/spore_stims/simple_14_A_a.gif,NA,NA,NA,NA,NA
NA,null,html-keyboard-response,15,168941,0.0-9.0-0.3,SS1619113880904,NA,NA,null,NA,NA,NA,NA,NA,"<p><img src= images/blank.png width =""600"" height = ""600"" style=""position:fixed;top:50%; left:50%; transform: translate(-50%, -50%); border:5px solid black"">",NA,NA,NA,NA,NA,NA,NA,NA
NA,1230.714999997872,sequential-stimulus-presentation-old,16,170677,0.0-9.0-1.3,SS1619113880904,trial,NA,40,500,1730.714999997872,images/stimuli/spore_stims/simple_15_A_b.gif,images/stimuli/spore_stims/simple_14_A_a.gif,self_paced,NA,0,simple_dissimilar,images/stimuli/spore_stims/simple_14_A_a.gif,NA,NA,NA,NA,NA
NA,null,html-keyboard-response,17,171780,0.0-9.0-0.4,SS1619113880904,NA,NA,null,NA,NA,NA,NA,NA,"<p><img src= images/blank.png width =""600"" height = ""600"" style=""position:fixed;top:50%; left:50%; transform: translate(-50%, -50%); border:5px solid black"">",NA,NA,NA,NA,NA,NA,NA,NA
NA,1128.5700000007637,sequential-stimulus-presentation-old,18,173414,0.0-9.0-1.4,SS1619113880904,trial,NA,40,500,1628.5700000007637,images/stimuli/spore_stims/simple_15_A_b.gif,images/stimuli/spore_stims/simple_14_A_a.gif,self_paced,NA,0,simple_dissimilar,images/stimuli/spore_stims/simple_14_A_a.gif,NA,NA,NA,NA,NA
NA,null,html-keyboard-response,19,174254,0.0-9.0-0.5,SS1619113880904,NA,NA,null,NA,NA,NA,NA,NA,"<p><img src= images/blank.png width =""600"" height = ""600"" style=""position:fixed;top:50%; left:50%; transform: translate(-50%, -50%); border:5px solid black"">",NA,NA,NA,NA,NA,NA,NA,NA
NA,278.10999999928754,sequential-stimulus-presentation-old,20,175037,0.0-9.0-1.5,SS1619113880904,trial,NA,40,500,778.1099999992875,images/stimuli/spore_stims/simple_15_A_b.gif,images/stimuli/spore_stims/simple_14_A_a.gif,self_paced,NA,0,simple_dissimilar,images/stimuli/spore_stims/simple_14_A_a.gif,NA,NA,NA,NA,NA
NA,3111.369999998715,survey-multi-choice,21,178153,0.0-10.0,SS1619113880904,math_question,NA,NA,NA,NA,NA,NA,NA,NA,NA,NA,NA,"{""Q0"":""8""}",[0],8,NA,NA
NA,null,html-keyboard-response,22,179166,0.0-11.0-0.0,SS1619113880904,NA,NA,null,NA,NA,NA,NA,NA,"<p><img src= images/blank.png width =""600"" height = ""600"" style=""position:fixed;top:50%; left:50%; transform: translate(-50%, -50%); border:5px solid black"">",NA,NA,NA,NA,NA,NA,NA,NA
NA,837.1049999987008,sequential-stimulus-presentation-old,23,190011,0.0-11.0-1.0,SS1619113880904,trial,NA,40,500,1337.1049999987008,images/stimuli/spore_stims/complex_02_A_a.gif,images/stimuli/spore_stims/complex_14_A_b.gif,forced_long,NA,1,complex_dissimilar,images/stimuli/spore_stims/complex_14_A_b.gif,NA,NA,NA,NA,NA
NA,null,html-keyboard-response,24,190928,0.0-11.0-0.1,SS1619113880904,NA,NA,null,NA,NA,NA,NA,NA,"<p><img src= images/blank.png width =""600"" height = ""600"" style=""position:fixed;top:50%; left:50%; transform: translate(-50%, -50%); border:5px solid black"">",NA,NA,NA,NA,NA,NA,NA,NA
NA,3474.9250000022585,sequential-stimulus-presentation-old,25,194909,0.0-11.0-1.1,SS1619113880904,trial,NA,40,500,3974.9250000022585,images/stimuli/spore_stims/complex_02_A_a.gif,images/stimuli/spore_stims/complex_14_A_b.gif,forced_long,NA,1,complex_dissimilar,images/stimuli/spore_stims/complex_14_A_b.gif,NA,NA,NA,NA,NA
NA,null,html-keyboard-response,26,195770,0.0-11.0-0.2,SS1619113880904,NA,NA,null,NA,NA,NA,NA,NA,"<p><img src= images/blank.png width =""600"" height = ""600"" style=""position:fixed;top:50%; left:50%; transform: translate(-50%, -50%); border:5px solid black"">",NA,NA,NA,NA,NA,NA,NA,NA
NA,801.6349999961676,sequential-stimulus-presentation-old,27,197077,0.0-11.0-1.2,SS1619113880904,trial,NA,40,500,1301.6349999961676,images/stimuli/spore_stims/complex_02_A_a.gif,images/stimuli/spore_stims/complex_14_A_b.gif,forced_long,NA,1,complex_dissimilar,images/stimuli/spore_stims/complex_14_A_b.gif,NA,NA,NA,NA,NA
NA,null,html-keyboard-response,28,198309,0.0-11.0-0.3,SS1619113880904,NA,NA,null,NA,NA,NA,NA,NA,"<p><img src= images/blank.png width =""600"" height = ""600"" style=""position:fixed;top:50%; left:50%; transform: translate(-50%, -50%); border:5px solid black"">",NA,NA,NA,NA,NA,NA,NA,NA
NA,1046.3799999997718,sequential-stimulus-presentation-old,29,199864,0.0-11.0-1.3,SS1619113880904,trial,NA,40,500,1546.3799999997718,images/stimuli/spore_stims/complex_02_A_a.gif,images/stimuli/spore_stims/complex_14_A_b.gif,forced_long,NA,1,complex_dissimilar,images/stimuli/spore_stims/complex_14_A_b.gif,NA,NA,NA,NA,NA
NA,2580.614999998943,survey-multi-choice,30,202446,0.0-12.0,SS1619113880904,math_question,NA,NA,NA,NA,NA,NA,NA,NA,NA,NA,NA,"{""Q0"":""11""}",[0],11,NA,NA
NA,null,html-keyboard-response,31,203654,0.0-13.0-0.0,SS1619113880904,NA,NA,null,NA,NA,NA,NA,NA,"<p><img src= images/blank.png width =""600"" height = ""600"" style=""position:fixed;top:50%; left:50%; transform: translate(-50%, -50%); border:5px solid black"">",NA,NA,NA,NA,NA,NA,NA,NA
NA,935.509999995702,sequential-stimulus-presentation-old,32,214598,0.0-13.0-1.0,SS1619113880904,trial,NA,40,500,1435.509999995702,images/stimuli/spore_stims/simple_05_A_b.gif,images/stimuli/spore_stims/simple_15_A_a.gif,forced_long,NA,2,simple_dissimilar,images/stimuli/spore_stims/simple_15_A_a.gif,NA,NA,NA,NA,NA
NA,null,html-keyboard-response,33,215572,0.0-13.0-0.1,SS1619113880904,NA,NA,null,NA,NA,NA,NA,NA,"<p><img src= images/blank.png width =""600"" height = ""600"" style=""position:fixed;top:50%; left:50%; transform: translate(-50%, -50%); border:5px solid black"">",NA,NA,NA,NA,NA,NA,NA,NA
NA,1055.9100000100443,sequential-stimulus-presentation-old,34,217133,0.0-13.0-1.1,SS1619113880904,trial,NA,40,500,1555.9100000100443,images/stimuli/spore_stims/simple_05_A_b.gif,images/stimuli/spore_stims/simple_15_A_a.gif,forced_long,NA,2,simple_dissimilar,images/stimuli/spore_stims/simple_15_A_a.gif,NA,NA,NA,NA,NA
NA,null,html-keyboard-response,35,218286,0.0-13.0-0.2,SS1619113880904,NA,NA,null,NA,NA,NA,NA,NA,"<p><img src= images/blank.png width =""600"" height = ""600"" style=""position:fixed;top:50%; left:50%; transform: translate(-50%, -50%); border:5px solid black"">",NA,NA,NA,NA,NA,NA,NA,NA
NA,280.57000000262633,sequential-stimulus-presentation-old,36,219069,0.0-13.0-1.2,SS1619113880904,trial,NA,40,500,780.5700000026263,images/stimuli/spore_stims/simple_05_A_b.gif,images/stimuli/spore_stims/simple_15_A_a.gif,forced_long,NA,2,simple_dissimilar,images/stimuli/spore_stims/simple_15_A_a.gif,NA,NA,NA,NA,NA
NA,null,html-keyboard-response,37,220019,0.0-13.0-0.3,SS1619113880904,NA,NA,null,NA,NA,NA,NA,NA,"<p><img src= images/blank.png width =""600"" height = ""600"" style=""position:fixed;top:50%; left:50%; transform: translate(-50%, -50%); border:5px solid black"">",NA,NA,NA,NA,NA,NA,NA,NA
NA,1157.7050000050804,sequential-stimulus-presentation-old,38,221679,0.0-13.0-1.3,SS1619113880904,trial,NA,40,500,1657.7050000050804,images/stimuli/spore_stims/simple_05_A_b.gif,images/stimuli/spore_stims/simple_15_A_a.gif,forced_long,NA,2,simple_dissimilar,images/stimuli/spore_stims/simple_05_A_b.gif,NA,NA,NA,NA,NA
NA,null,html-keyboard-response,39,222973,0.0-13.0-0.4,SS1619113880904,NA,NA,null,NA,NA,NA,NA,NA,"<p><img src= images/blank.png width =""600"" height = ""600"" style=""position:fixed;top:50%; left:50%; transform: translate(-50%, -50%); border:5px solid black"">",NA,NA,NA,NA,NA,NA,NA,NA
NA,306.7449999944074,sequential-stimulus-presentation-old,40,223782,0.0-13.0-1.4,SS1619113880904,trial,NA,40,500,806.7449999944074,images/stimuli/spore_stims/simple_05_A_b.gif,images/stimuli/spore_stims/simple_15_A_a.gif,forced_long,NA,2,simple_dissimilar,images/stimuli/spore_stims/simple_15_A_a.gif,NA,NA,NA,NA,NA
NA,null,html-keyboard-response,41,224953,0.0-13.0-0.5,SS1619113880904,NA,NA,null,NA,NA,NA,NA,NA,"<p><img src= images/blank.png width =""600"" height = ""600"" style=""position:fixed;top:50%; left:50%; transform: translate(-50%, -50%); border:5px solid black"">",NA,NA,NA,NA,NA,NA,NA,NA
NA,28.065000005881302,sequential-stimulus-presentation-old,42,225486,0.0-13.0-1.5,SS1619113880904,trial,NA,40,500,528.0650000058813,images/stimuli/spore_stims/simple_05_A_b.gif,images/stimuli/spore_stims/simple_15_A_a.gif,forced_long,NA,2,simple_dissimilar,images/stimuli/spore_stims/simple_15_A_a.gif,NA,NA,NA,NA,NA
NA,2363.4450000099605,survey-multi-choice,43,227852,0.0-14.0,SS1619113880904,math_question,NA,NA,NA,NA,NA,NA,NA,NA,NA,NA,NA,"{""Q0"":""9""}",[0],9,NA,NA
NA,null,html-keyboard-response,44,229029,0.0-15.0-0.0,SS1619113880904,NA,NA,null,NA,NA,NA,NA,NA,"<p><img src= images/blank.png width =""600"" height = ""600"" style=""position:fixed;top:50%; left:50%; transform: translate(-50%, -50%); border:5px solid black"">",NA,NA,NA,NA,NA,NA,NA,NA
NA,515.2499999967404,sequential-stimulus-presentation-old,45,239552,0.0-15.0-1.0,SS1619113880904,trial,NA,40,500,1015.2499999967404,images/stimuli/spore_stims/complex_07_A_a.gif,images/stimuli/spore_stims/complex_16_A_b.gif,forced_long,NA,3,complex_dissimilar,images/stimuli/spore_stims/complex_16_A_b.gif,NA,NA,NA,NA,NA
NA,null,html-keyboard-response,46,240500,0.0-15.0-0.1,SS1619113880904,NA,NA,null,NA,NA,NA,NA,NA,"<p><img src= images/blank.png width =""600"" height = ""600"" style=""position:fixed;top:50%; left:50%; transform: translate(-50%, -50%); border:5px solid black"">",NA,NA,NA,NA,NA,NA,NA,NA
NA,601.3899999961723,sequential-stimulus-presentation-old,47,241608,0.0-15.0-1.1,SS1619113880904,trial,NA,40,500,1101.3899999961723,images/stimuli/spore_stims/complex_07_A_a.gif,images/stimuli/spore_stims/complex_16_A_b.gif,forced_long,NA,3,complex_dissimilar,images/stimuli/spore_stims/complex_16_A_b.gif,NA,NA,NA,NA,NA
NA,null,html-keyboard-response,48,242419,0.0-15.0-0.2,SS1619113880904,NA,NA,null,NA,NA,NA,NA,NA,"<p><img src= images/blank.png width =""600"" height = ""600"" style=""position:fixed;top:50%; left:50%; transform: translate(-50%, -50%); border:5px solid black"">",NA,NA,NA,NA,NA,NA,NA,NA
NA,1796.3999999919906,sequential-stimulus-presentation-old,49,244722,0.0-15.0-1.2,SS1619113880904,trial,NA,40,500,2296.3999999919906,images/stimuli/spore_stims/complex_07_A_a.gif,images/stimuli/spore_stims/complex_16_A_b.gif,forced_long,NA,3,complex_dissimilar,images/stimuli/spore_stims/complex_16_A_b.gif,NA,NA,NA,NA,NA
NA,null,html-keyboard-response,50,245669,0.0-15.0-0.3,SS1619113880904,NA,NA,null,NA,NA,NA,NA,NA,"<p><img src= images/blank.png width =""600"" height = ""600"" style=""position:fixed;top:50%; left:50%; transform: translate(-50%, -50%); border:5px solid black"">",NA,NA,NA,NA,NA,NA,NA,NA
NA,1830.245000004652,sequential-stimulus-presentation-old,51,248007,0.0-15.0-1.3,SS1619113880904,trial,NA,40,500,2330.245000004652,images/stimuli/spore_stims/complex_07_A_a.gif,images/stimuli/spore_stims/complex_16_A_b.gif,forced_long,NA,3,complex_dissimilar,images/stimuli/spore_stims/complex_16_A_b.gif,NA,NA,NA,NA,NA
NA,3091.7800000024727,survey-multi-choice,52,251101,0.0-16.0,SS1619113880904,math_question,NA,NA,NA,NA,NA,NA,NA,NA,NA,NA,NA,"{""Q0"":""9""}",[0],9,NA,NA
NA,null,html-keyboard-response,53,252348,0.0-17.0-0.0,SS1619113880904,NA,NA,null,NA,NA,NA,NA,NA,"<p><img src= images/blank.png width =""600"" height = ""600"" style=""position:fixed;top:50%; left:50%; transform: translate(-50%, -50%); border:5px solid black"">",NA,NA,NA,NA,NA,NA,NA,NA
NA,623.2949999975972,sequential-stimulus-presentation-old,54,262979,0.0-17.0-1.0,SS1619113880904,trial,NA,40,500,1123.2949999975972,images/stimuli/spore_stims/simple_04_A_a.gif,images/stimuli/spore_stims/simple_17_A_b.gif,forced_long,NA,4,simple_dissimilar,images/stimuli/spore_stims/simple_17_A_b.gif,NA,NA,NA,NA,NA
NA,null,html-keyboard-response,55,264142,0.0-17.0-0.1,SS1619113880904,NA,NA,null,NA,NA,NA,NA,NA,"<p><img src= images/blank.png width =""600"" height = ""600"" style=""position:fixed;top:50%; left:50%; transform: translate(-50%, -50%); border:5px solid black"">",NA,NA,NA,NA,NA,NA,NA,NA
NA,2086.5349999949103,sequential-stimulus-presentation-old,56,266736,0.0-17.0-1.1,SS1619113880904,trial,NA,40,500,2586.5349999949103,images/stimuli/spore_stims/simple_04_A_a.gif,images/stimuli/spore_stims/simple_17_A_b.gif,forced_long,NA,4,simple_dissimilar,images/stimuli/spore_stims/simple_17_A_b.gif,NA,NA,NA,NA,NA
NA,null,html-keyboard-response,57,267906,0.0-17.0-0.2,SS1619113880904,NA,NA,null,NA,NA,NA,NA,NA,"<p><img src= images/blank.png width =""600"" height = ""600"" style=""position:fixed;top:50%; left:50%; transform: translate(-50%, -50%); border:5px solid black"">",NA,NA,NA,NA,NA,NA,NA,NA
NA,89.61000000999775,sequential-stimulus-presentation-old,58,268502,0.0-17.0-1.2,SS1619113880904,trial,NA,40,500,589.6100000099977,images/stimuli/spore_stims/simple_04_A_a.gif,images/stimuli/spore_stims/simple_17_A_b.gif,forced_long,NA,4,simple_dissimilar,images/stimuli/spore_stims/simple_17_A_b.gif,NA,NA,NA,NA,NA
NA,null,html-keyboard-response,59,269578,0.0-17.0-0.3,SS1619113880904,NA,NA,null,NA,NA,NA,NA,NA,"<p><img src= images/blank.png width =""600"" height = ""600"" style=""position:fixed;top:50%; left:50%; transform: translate(-50%, -50%); border:5px solid black"">",NA,NA,NA,NA,NA,NA,NA,NA
NA,556.3399999955436,sequential-stimulus-presentation-old,60,270639,0.0-17.0-1.3,SS1619113880904,trial,NA,40,500,1056.3399999955436,images/stimuli/spore_stims/simple_04_A_a.gif,images/stimuli/spore_stims/simple_17_A_b.gif,forced_long,NA,4,simple_dissimilar,images/stimuli/spore_stims/simple_17_A_b.gif,NA,NA,NA,NA,NA
NA,2306.765000001178,survey-multi-choice,61,272948,0.0-18.0,SS1619113880904,math_question,NA,NA,NA,NA,NA,NA,NA,NA,NA,NA,NA,"{""Q0"":""10""}",[0],10,NA,NA
NA,null,html-keyboard-response,62,273955,0.0-19.0-0.0,SS1619113880904,NA,NA,null,NA,NA,NA,NA,NA,"<p><img src= images/blank.png width =""600"" height = ""600"" style=""position:fixed;top:50%; left:50%; transform: translate(-50%, -50%); border:5px solid black"">",NA,NA,NA,NA,NA,NA,NA,NA
NA,462.87499999743886,sequential-stimulus-presentation-old,63,274922,0.0-19.0-1.0,SS1619113880904,trial,NA,40,500,962.8749999974389,images/stimuli/spore_stims/simple_02_A_b.gif,images/stimuli/spore_stims/simple_08_A_a.gif,self_paced,NA,5,simple_dissimilar,images/stimuli/spore_stims/simple_08_A_a.gif,NA,NA,NA,NA,NA
NA,null,html-keyboard-response,64,275853,0.0-19.0-0.1,SS1619113880904,NA,NA,null,NA,NA,NA,NA,NA,"<p><img src= images/blank.png width =""600"" height = ""600"" style=""position:fixed;top:50%; left:50%; transform: translate(-50%, -50%); border:5px solid black"">",NA,NA,NA,NA,NA,NA,NA,NA
NA,737.1949999942444,sequential-stimulus-presentation-old,65,277095,0.0-19.0-1.1,SS1619113880904,trial,NA,40,500,1237.1949999942444,images/stimuli/spore_stims/simple_02_A_b.gif,images/stimuli/spore_stims/simple_08_A_a.gif,self_paced,NA,5,simple_dissimilar,images/stimuli/spore_stims/simple_08_A_a.gif,NA,NA,NA,NA,NA
NA,null,html-keyboard-response,66,278029,0.0-19.0-0.2,SS1619113880904,NA,NA,null,NA,NA,NA,NA,NA,"<p><img src= images/blank.png width =""600"" height = ""600"" style=""position:fixed;top:50%; left:50%; transform: translate(-50%, -50%); border:5px solid black"">",NA,NA,NA,NA,NA,NA,NA,NA
NA,880.9499999915715,sequential-stimulus-presentation-old,67,279416,0.0-19.0-1.2,SS1619113880904,trial,NA,40,500,1380.9499999915715,images/stimuli/spore_stims/simple_02_A_b.gif,images/stimuli/spore_stims/simple_08_A_a.gif,self_paced,NA,5,simple_dissimilar,images/stimuli/spore_stims/simple_08_A_a.gif,NA,NA,NA,NA,NA
NA,null,html-keyboard-response,68,280422,0.0-19.0-0.3,SS1619113880904,NA,NA,null,NA,NA,NA,NA,NA,"<p><img src= images/blank.png width =""600"" height = ""600"" style=""position:fixed;top:50%; left:50%; transform: translate(-50%, -50%); border:5px solid black"">",NA,NA,NA,NA,NA,NA,NA,NA
NA,943.7850000103936,sequential-stimulus-presentation-old,69,281871,0.0-19.0-1.3,SS1619113880904,trial,NA,40,500,1443.7850000103936,images/stimuli/spore_stims/simple_02_A_b.gif,images/stimuli/spore_stims/simple_08_A_a.gif,self_paced,NA,5,simple_dissimilar,images/stimuli/spore_stims/simple_08_A_a.gif,NA,NA,NA,NA,NA
NA,null,html-keyboard-response,70,282859,0.0-19.0-0.4,SS1619113880904,NA,NA,null,NA,NA,NA,NA,NA,"<p><img src= images/blank.png width =""600"" height = ""600"" style=""position:fixed;top:50%; left:50%; transform: translate(-50%, -50%); border:5px solid black"">",NA,NA,NA,NA,NA,NA,NA,NA
NA,931.8600000115111,sequential-stimulus-presentation-old,71,284297,0.0-19.0-1.4,SS1619113880904,trial,NA,40,500,1431.8600000115111,images/stimuli/spore_stims/simple_02_A_b.gif,images/stimuli/spore_stims/simple_08_A_a.gif,self_paced,NA,5,simple_dissimilar,images/stimuli/spore_stims/simple_08_A_a.gif,NA,NA,NA,NA,NA
NA,null,html-keyboard-response,72,285344,0.0-19.0-0.5,SS1619113880904,NA,NA,null,NA,NA,NA,NA,NA,"<p><img src= images/blank.png width =""600"" height = ""600"" style=""position:fixed;top:50%; left:50%; transform: translate(-50%, -50%); border:5px solid black"">",NA,NA,NA,NA,NA,NA,NA,NA
NA,722.0700000034412,sequential-stimulus-presentation-old,73,286571,0.0-19.0-1.5,SS1619113880904,trial,NA,40,500,1222.0700000034412,images/stimuli/spore_stims/simple_02_A_b.gif,images/stimuli/spore_stims/simple_08_A_a.gif,self_paced,NA,5,simple_dissimilar,images/stimuli/spore_stims/simple_08_A_a.gif,NA,NA,NA,NA,NA
NA,5320.290000003297,survey-multi-choice,74,291893,0.0-20.0,SS1619113880904,math_question,NA,NA,NA,NA,NA,NA,NA,NA,NA,NA,NA,"{""Q0"":""13""}",[0],13,NA,NA
NA,null,html-keyboard-response,75,292763,0.0-21.0-0.0,SS1619113880904,NA,NA,null,NA,NA,NA,NA,NA,"<p><img src= images/blank.png width =""600"" height = ""600"" style=""position:fixed;top:50%; left:50%; transform: translate(-50%, -50%); border:5px solid black"">",NA,NA,NA,NA,NA,NA,NA,NA
NA,2044.7550000099,sequential-stimulus-presentation-old,76,295312,0.0-21.0-1.0,SS1619113880904,trial,NA,40,500,2544.7550000099,images/stimuli/spore_stims/complex_06_A_b.gif,images/stimuli/spore_stims/complex_13_A_a.gif,self_paced,NA,6,complex_dissimilar,images/stimuli/spore_stims/complex_13_A_a.gif,NA,NA,NA,NA,NA
NA,null,html-keyboard-response,77,296491,0.0-21.0-0.1,SS1619113880904,NA,NA,null,NA,NA,NA,NA,NA,"<p><img src= images/blank.png width =""600"" height = ""600"" style=""position:fixed;top:50%; left:50%; transform: translate(-50%, -50%); border:5px solid black"">",NA,NA,NA,NA,NA,NA,NA,NA
NA,2613.9949999924283,sequential-stimulus-presentation-old,78,299609,0.0-21.0-1.1,SS1619113880904,trial,NA,40,500,3113.9949999924283,images/stimuli/spore_stims/complex_06_A_b.gif,images/stimuli/spore_stims/complex_13_A_a.gif,self_paced,NA,6,complex_dissimilar,images/stimuli/spore_stims/complex_06_A_b.gif,NA,NA,NA,NA,NA
NA,null,html-keyboard-response,79,300902,0.0-21.0-0.2,SS1619113880904,NA,NA,null,NA,NA,NA,NA,NA,"<p><img src= images/blank.png width =""600"" height = ""600"" style=""position:fixed;top:50%; left:50%; transform: translate(-50%, -50%); border:5px solid black"">",NA,NA,NA,NA,NA,NA,NA,NA
NA,1175.9149999998044,sequential-stimulus-presentation-old,80,302583,0.0-21.0-1.2,SS1619113880904,trial,NA,40,500,1675.9149999998044,images/stimuli/spore_stims/complex_06_A_b.gif,images/stimuli/spore_stims/complex_13_A_a.gif,self_paced,NA,6,complex_dissimilar,images/stimuli/spore_stims/complex_13_A_a.gif,NA,NA,NA,NA,NA
NA,null,html-keyboard-response,81,303695,0.0-21.0-0.3,SS1619113880904,NA,NA,null,NA,NA,NA,NA,NA,"<p><img src= images/blank.png width =""600"" height = ""600"" style=""position:fixed;top:50%; left:50%; transform: translate(-50%, -50%); border:5px solid black"">",NA,NA,NA,NA,NA,NA,NA,NA
NA,535.6499999907101,sequential-stimulus-presentation-old,82,304735,0.0-21.0-1.3,SS1619113880904,trial,NA,40,500,1035.64999999071,images/stimuli/spore_stims/complex_06_A_b.gif,images/stimuli/spore_stims/complex_13_A_a.gif,self_paced,NA,6,complex_dissimilar,images/stimuli/spore_stims/complex_13_A_a.gif,NA,NA,NA,NA,NA
NA,null,html-keyboard-response,83,305686,0.0-21.0-0.4,SS1619113880904,NA,NA,null,NA,NA,NA,NA,NA,"<p><img src= images/blank.png width =""600"" height = ""600"" style=""position:fixed;top:50%; left:50%; transform: translate(-50%, -50%); border:5px solid black"">",NA,NA,NA,NA,NA,NA,NA,NA
NA,437.80499999411404,sequential-stimulus-presentation-old,84,306630,0.0-21.0-1.4,SS1619113880904,trial,NA,40,500,937.804999994114,images/stimuli/spore_stims/complex_06_A_b.gif,images/stimuli/spore_stims/complex_13_A_a.gif,self_paced,NA,6,complex_dissimilar,images/stimuli/spore_stims/complex_13_A_a.gif,NA,NA,NA,NA,NA
NA,null,html-keyboard-response,85,307770,0.0-21.0-0.5,SS1619113880904,NA,NA,null,NA,NA,NA,NA,NA,"<p><img src= images/blank.png width =""600"" height = ""600"" style=""position:fixed;top:50%; left:50%; transform: translate(-50%, -50%); border:5px solid black"">",NA,NA,NA,NA,NA,NA,NA,NA
NA,636.610000001383,sequential-stimulus-presentation-old,86,308911,0.0-21.0-1.5,SS1619113880904,trial,NA,40,500,1136.610000001383,images/stimuli/spore_stims/complex_06_A_b.gif,images/stimuli/spore_stims/complex_13_A_a.gif,self_paced,NA,6,complex_dissimilar,images/stimuli/spore_stims/complex_13_A_a.gif,NA,NA,NA,NA,NA
NA,2317.479999997886,survey-multi-choice,87,311233,0.0-22.0,SS1619113880904,math_question,NA,NA,NA,NA,NA,NA,NA,NA,NA,NA,NA,"{""Q0"":""6""}",[0],6,NA,NA
NA,null,html-keyboard-response,88,312234,0.0-23.0-0.0,SS1619113880904,NA,NA,null,NA,NA,NA,NA,NA,"<p><img src= images/blank.png width =""600"" height = ""600"" style=""position:fixed;top:50%; left:50%; transform: translate(-50%, -50%); border:5px solid black"">",NA,NA,NA,NA,NA,NA,NA,NA
NA,3151.58999999403,sequential-stimulus-presentation-old,89,315891,0.0-23.0-1.0,SS1619113880904,trial,NA,40,500,3651.58999999403,images/stimuli/spore_stims/complex_17_A_b.gif,images/stimuli/spore_stims/complex_08_A_a.gif,self_paced,NA,7,complex_dissimilar,images/stimuli/spore_stims/complex_08_A_a.gif,NA,NA,NA,NA,NA
NA,null,html-keyboard-response,90,316953,0.0-23.0-0.1,SS1619113880904,NA,NA,null,NA,NA,NA,NA,NA,"<p><img src= images/blank.png width =""600"" height = ""600"" style=""position:fixed;top:50%; left:50%; transform: translate(-50%, -50%); border:5px solid black"">",NA,NA,NA,NA,NA,NA,NA,NA
NA,584.950000004028,sequential-stimulus-presentation-old,91,318043,0.0-23.0-1.1,SS1619113880904,trial,NA,40,500,1084.950000004028,images/stimuli/spore_stims/complex_17_A_b.gif,images/stimuli/spore_stims/complex_08_A_a.gif,self_paced,NA,7,complex_dissimilar,images/stimuli/spore_stims/complex_08_A_a.gif,NA,NA,NA,NA,NA
NA,null,html-keyboard-response,92,318869,0.0-23.0-0.2,SS1619113880904,NA,NA,null,NA,NA,NA,NA,NA,"<p><img src= images/blank.png width =""600"" height = ""600"" style=""position:fixed;top:50%; left:50%; transform: translate(-50%, -50%); border:5px solid black"">",NA,NA,NA,NA,NA,NA,NA,NA
NA,677.3099999991246,sequential-stimulus-presentation-old,93,320052,0.0-23.0-1.2,SS1619113880904,trial,NA,40,500,1177.3099999991246,images/stimuli/spore_stims/complex_17_A_b.gif,images/stimuli/spore_stims/complex_08_A_a.gif,self_paced,NA,7,complex_dissimilar,images/stimuli/spore_stims/complex_08_A_a.gif,NA,NA,NA,NA,NA
NA,null,html-keyboard-response,94,321220,0.0-23.0-0.3,SS1619113880904,NA,NA,null,NA,NA,NA,NA,NA,"<p><img src= images/blank.png width =""600"" height = ""600"" style=""position:fixed;top:50%; left:50%; transform: translate(-50%, -50%); border:5px solid black"">",NA,NA,NA,NA,NA,NA,NA,NA
NA,958.7650000030408,sequential-stimulus-presentation-old,95,322686,0.0-23.0-1.3,SS1619113880904,trial,NA,40,500,1458.7650000030408,images/stimuli/spore_stims/complex_17_A_b.gif,images/stimuli/spore_stims/complex_08_A_a.gif,self_paced,NA,7,complex_dissimilar,images/stimuli/spore_stims/complex_08_A_a.gif,NA,NA,NA,NA,NA
NA,2708.6899999994785,survey-multi-choice,96,325397,0.0-24.0,SS1619113880904,math_question,NA,NA,NA,NA,NA,NA,NA,NA,NA,NA,NA,"{""Q0"":""14""}",[0],14,NA,NA
NA,null,html-keyboard-response,97,326567,0.0-25.0-0.0,SS1619113880904,NA,NA,null,NA,NA,NA,NA,NA,"<p><img src= images/blank.png width =""600"" height = ""600"" style=""position:fixed;top:50%; left:50%; transform: translate(-50%, -50%); border:5px solid black"">",NA,NA,NA,NA,NA,NA,NA,NA
NA,1996.22499999532,sequential-stimulus-presentation-old,98,328668,0.0-25.0-1.0,SS1619113880904,trial,NA,40,500,2496.22499999532,images/stimuli/spore_stims/complex_17_A_a.gif,images/stimuli/spore_stims/complex_10_A_b.gif,forced_short,NA,8,complex_dissimilar,images/stimuli/spore_stims/complex_10_A_b.gif,NA,NA,NA,NA,NA
NA,null,html-keyboard-response,99,329742,0.0-25.0-0.1,SS1619113880904,NA,NA,null,NA,NA,NA,NA,NA,"<p><img src= images/blank.png width =""600"" height = ""600"" style=""position:fixed;top:50%; left:50%; transform: translate(-50%, -50%); border:5px solid black"">",NA,NA,NA,NA,NA,NA,NA,NA
NA,1963.0750000069384,sequential-stimulus-presentation-old,100,332211,0.0-25.0-1.1,SS1619113880904,trial,NA,40,500,2463.0750000069384,images/stimuli/spore_stims/complex_17_A_a.gif,images/stimuli/spore_stims/complex_10_A_b.gif,forced_short,NA,8,complex_dissimilar,images/stimuli/spore_stims/complex_10_A_b.gif,NA,NA,NA,NA,NA
NA,null,html-keyboard-response,101,333127,0.0-25.0-0.2,SS1619113880904,NA,NA,null,NA,NA,NA,NA,NA,"<p><img src= images/blank.png width =""600"" height = ""600"" style=""position:fixed;top:50%; left:50%; transform: translate(-50%, -50%); border:5px solid black"">",NA,NA,NA,NA,NA,NA,NA,NA
NA,158.16000000631902,sequential-stimulus-presentation-old,102,333790,0.0-25.0-1.2,SS1619113880904,trial,NA,40,500,658.160000006319,images/stimuli/spore_stims/complex_17_A_a.gif,images/stimuli/spore_stims/complex_10_A_b.gif,forced_short,NA,8,complex_dissimilar,images/stimuli/spore_stims/complex_10_A_b.gif,NA,NA,NA,NA,NA
NA,null,html-keyboard-response,103,334757,0.0-25.0-0.3,SS1619113880904,NA,NA,null,NA,NA,NA,NA,NA,"<p><img src= images/blank.png width =""600"" height = ""600"" style=""position:fixed;top:50%; left:50%; transform: translate(-50%, -50%); border:5px solid black"">",NA,NA,NA,NA,NA,NA,NA,NA
NA,2247.6949999982025,sequential-stimulus-presentation-old,104,337510,0.0-25.0-1.3,SS1619113880904,trial,NA,40,500,2747.6949999982025,images/stimuli/spore_stims/complex_17_A_a.gif,images/stimuli/spore_stims/complex_10_A_b.gif,forced_short,NA,8,complex_dissimilar,images/stimuli/spore_stims/complex_17_A_a.gif,NA,NA,NA,NA,NA
NA,null,html-keyboard-response,105,338659,0.0-25.0-0.4,SS1619113880904,NA,NA,null,NA,NA,NA,NA,NA,"<p><img src= images/blank.png width =""600"" height = ""600"" style=""position:fixed;top:50%; left:50%; transform: translate(-50%, -50%); border:5px solid black"">",NA,NA,NA,NA,NA,NA,NA,NA
NA,840.8399999898393,sequential-stimulus-presentation-old,106,340006,0.0-25.0-1.4,SS1619113880904,trial,NA,40,500,1340.8399999898393,images/stimuli/spore_stims/complex_17_A_a.gif,images/stimuli/spore_stims/complex_10_A_b.gif,forced_short,NA,8,complex_dissimilar,images/stimuli/spore_stims/complex_10_A_b.gif,NA,NA,NA,NA,NA
NA,2900.0099999975646,survey-multi-choice,107,342908,0.0-26.0,SS1619113880904,math_question,NA,NA,NA,NA,NA,NA,NA,NA,NA,NA,NA,"{""Q0"":""12""}",[0],12,NA,NA
NA,null,html-keyboard-response,108,344133,0.0-27.0-0.0,SS1619113880904,NA,NA,null,NA,NA,NA,NA,NA,"<p><img src= images/blank.png width =""600"" height = ""600"" style=""position:fixed;top:50%; left:50%; transform: translate(-50%, -50%); border:5px solid black"">",NA,NA,NA,NA,NA,NA,NA,NA
NA,2662.9899999970803,sequential-stimulus-presentation-old,109,346901,0.0-27.0-1.0,SS1619113880904,trial,NA,40,500,3162.9899999970803,images/stimuli/spore_stims/complex_18_A_a.gif,images/stimuli/spore_stims/complex_09_A_b.gif,forced_short,NA,9,complex_dissimilar,images/stimuli/spore_stims/complex_09_A_b.gif,NA,NA,NA,NA,NA
NA,null,html-keyboard-response,110,348081,0.0-27.0-0.1,SS1619113880904,NA,NA,null,NA,NA,NA,NA,NA,"<p><img src= images/blank.png width =""600"" height = ""600"" style=""position:fixed;top:50%; left:50%; transform: translate(-50%, -50%); border:5px solid black"">",NA,NA,NA,NA,NA,NA,NA,NA
NA,2734.4199999934062,sequential-stimulus-presentation-old,111,351320,0.0-27.0-1.1,SS1619113880904,trial,NA,40,500,3234.4199999934062,images/stimuli/spore_stims/complex_18_A_a.gif,images/stimuli/spore_stims/complex_09_A_b.gif,forced_short,NA,9,complex_dissimilar,images/stimuli/spore_stims/complex_09_A_b.gif,NA,NA,NA,NA,NA
NA,null,html-keyboard-response,112,352243,0.0-27.0-0.2,SS1619113880904,NA,NA,null,NA,NA,NA,NA,NA,"<p><img src= images/blank.png width =""600"" height = ""600"" style=""position:fixed;top:50%; left:50%; transform: translate(-50%, -50%); border:5px solid black"">",NA,NA,NA,NA,NA,NA,NA,NA
NA,331.1399999947753,sequential-stimulus-presentation-old,113,353079,0.0-27.0-1.2,SS1619113880904,trial,NA,40,500,831.1399999947753,images/stimuli/spore_stims/complex_18_A_a.gif,images/stimuli/spore_stims/complex_09_A_b.gif,forced_short,NA,9,complex_dissimilar,images/stimuli/spore_stims/complex_09_A_b.gif,NA,NA,NA,NA,NA
NA,null,html-keyboard-response,114,354222,0.0-27.0-0.3,SS1619113880904,NA,NA,null,NA,NA,NA,NA,NA,"<p><img src= images/blank.png width =""600"" height = ""600"" style=""position:fixed;top:50%; left:50%; transform: translate(-50%, -50%); border:5px solid black"">",NA,NA,NA,NA,NA,NA,NA,NA
NA,224.27000000607222,sequential-stimulus-presentation-old,115,354954,0.0-27.0-1.3,SS1619113880904,trial,NA,40,500,724.2700000060722,images/stimuli/spore_stims/complex_18_A_a.gif,images/stimuli/spore_stims/complex_09_A_b.gif,forced_short,NA,9,complex_dissimilar,images/stimuli/spore_stims/complex_09_A_b.gif,NA,NA,NA,NA,NA
NA,null,html-keyboard-response,116,355906,0.0-27.0-0.4,SS1619113880904,NA,NA,null,NA,NA,NA,NA,NA,"<p><img src= images/blank.png width =""600"" height = ""600"" style=""position:fixed;top:50%; left:50%; transform: translate(-50%, -50%); border:5px solid black"">",NA,NA,NA,NA,NA,NA,NA,NA
NA,175.4300000029616,sequential-stimulus-presentation-old,117,356590,0.0-27.0-1.4,SS1619113880904,trial,NA,40,500,675.4300000029616,images/stimuli/spore_stims/complex_18_A_a.gif,images/stimuli/spore_stims/complex_09_A_b.gif,forced_short,NA,9,complex_dissimilar,images/stimuli/spore_stims/complex_09_A_b.gif,NA,NA,NA,NA,NA
NA,2971.5800000121817,survey-multi-choice,118,359564,0.0-28.0,SS1619113880904,math_question,NA,NA,NA,NA,NA,NA,NA,NA,NA,NA,NA,"{""Q0"":""11""}",[0],11,NA,NA
NA,null,html-keyboard-response,119,360788,0.0-29.0-0.0,SS1619113880904,NA,NA,null,NA,NA,NA,NA,NA,"<p><img src= images/blank.png width =""600"" height = ""600"" style=""position:fixed;top:50%; left:50%; transform: translate(-50%, -50%); border:5px solid black"">",NA,NA,NA,NA,NA,NA,NA,NA
NA,1058.229999995092,sequential-stimulus-presentation-old,120,361951,0.0-29.0-1.0,SS1619113880904,trial,NA,40,500,1558.229999995092,images/stimuli/spore_stims/simple_19_A_b.gif,images/stimuli/spore_stims/simple_18_A_a.gif,forced_short,NA,10,simple_dissimilar,images/stimuli/spore_stims/simple_18_A_a.gif,NA,NA,NA,NA,NA
NA,null,html-keyboard-response,121,362901,0.0-29.0-0.1,SS1619113880904,NA,NA,null,NA,NA,NA,NA,NA,"<p><img src= images/blank.png width =""600"" height = ""600"" style=""position:fixed;top:50%; left:50%; transform: translate(-50%, -50%); border:5px solid black"">",NA,NA,NA,NA,NA,NA,NA,NA
NA,1456.8600000056904,sequential-stimulus-presentation-old,122,364863,0.0-29.0-1.1,SS1619113880904,trial,NA,40,500,1956.8600000056904,images/stimuli/spore_stims/simple_19_A_b.gif,images/stimuli/spore_stims/simple_18_A_a.gif,forced_short,NA,10,simple_dissimilar,images/stimuli/spore_stims/simple_18_A_a.gif,NA,NA,NA,NA,NA
NA,null,html-keyboard-response,123,365845,0.0-29.0-0.2,SS1619113880904,NA,NA,null,NA,NA,NA,NA,NA,"<p><img src= images/blank.png width =""600"" height = ""600"" style=""position:fixed;top:50%; left:50%; transform: translate(-50%, -50%); border:5px solid black"">",NA,NA,NA,NA,NA,NA,NA,NA
NA,617.2250000090571,sequential-stimulus-presentation-old,124,366967,0.0-29.0-1.2,SS1619113880904,trial,NA,40,500,1117.225000009057,images/stimuli/spore_stims/simple_19_A_b.gif,images/stimuli/spore_stims/simple_18_A_a.gif,forced_short,NA,10,simple_dissimilar,images/stimuli/spore_stims/simple_18_A_a.gif,NA,NA,NA,NA,NA
NA,null,html-keyboard-response,125,367778,0.0-29.0-0.3,SS1619113880904,NA,NA,null,NA,NA,NA,NA,NA,"<p><img src= images/blank.png width =""600"" height = ""600"" style=""position:fixed;top:50%; left:50%; transform: translate(-50%, -50%); border:5px solid black"">",NA,NA,NA,NA,NA,NA,NA,NA
NA,1282.5750000047265,sequential-stimulus-presentation-old,126,369570,0.0-29.0-1.3,SS1619113880904,trial,NA,40,500,1782.5750000047265,images/stimuli/spore_stims/simple_19_A_b.gif,images/stimuli/spore_stims/simple_18_A_a.gif,forced_short,NA,10,simple_dissimilar,images/stimuli/spore_stims/simple_18_A_a.gif,NA,NA,NA,NA,NA
NA,null,html-keyboard-response,127,370599,0.0-29.0-0.4,SS1619113880904,NA,NA,null,NA,NA,NA,NA,NA,"<p><img src= images/blank.png width =""600"" height = ""600"" style=""position:fixed;top:50%; left:50%; transform: translate(-50%, -50%); border:5px solid black"">",NA,NA,NA,NA,NA,NA,NA,NA
NA,1639.020000002347,sequential-stimulus-presentation-old,128,372743,0.0-29.0-1.4,SS1619113880904,trial,NA,40,500,2139.020000002347,images/stimuli/spore_stims/simple_19_A_b.gif,images/stimuli/spore_stims/simple_18_A_a.gif,forced_short,NA,10,simple_dissimilar,images/stimuli/spore_stims/simple_19_A_b.gif,NA,NA,NA,NA,NA
NA,null,html-keyboard-response,129,373931,0.0-29.0-0.5,SS1619113880904,NA,NA,null,NA,NA,NA,NA,NA,"<p><img src= images/blank.png width =""600"" height = ""600"" style=""position:fixed;top:50%; left:50%; transform: translate(-50%, -50%); border:5px solid black"">",NA,NA,NA,NA,NA,NA,NA,NA
NA,269.7700000135228,sequential-stimulus-presentation-old,130,374711,0.0-29.0-1.5,SS1619113880904,trial,NA,40,500,769.7700000135228,images/stimuli/spore_stims/simple_19_A_b.gif,images/stimuli/spore_stims/simple_18_A_a.gif,forced_short,NA,10,simple_dissimilar,images/stimuli/spore_stims/simple_19_A_b.gif,NA,NA,NA,NA,NA
NA,2537.190000002738,survey-multi-choice,131,377251,0.0-30.0,SS1619113880904,math_question,NA,NA,NA,NA,NA,NA,NA,NA,NA,NA,NA,"{""Q0"":""9""}",[0],9,NA,NA
NA,null,html-keyboard-response,132,378142,0.0-31.0-0.0,SS1619113880904,NA,NA,null,NA,NA,NA,NA,NA,"<p><img src= images/blank.png width =""600"" height = ""600"" style=""position:fixed;top:50%; left:50%; transform: translate(-50%, -50%); border:5px solid black"">",NA,NA,NA,NA,NA,NA,NA,NA
NA,949.0999999979977,sequential-stimulus-presentation-old,133,379200,0.0-31.0-1.0,SS1619113880904,trial,NA,40,500,1449.0999999979977,images/stimuli/spore_stims/simple_18_A_b.gif,images/stimuli/spore_stims/simple_09_A_a.gif,forced_short,NA,11,simple_dissimilar,images/stimuli/spore_stims/simple_09_A_a.gif,NA,NA,NA,NA,NA
NA,null,html-keyboard-response,134,380299,0.0-31.0-0.1,SS1619113880904,NA,NA,null,NA,NA,NA,NA,NA,"<p><img src= images/blank.png width =""600"" height = ""600"" style=""position:fixed;top:50%; left:50%; transform: translate(-50%, -50%); border:5px solid black"">",NA,NA,NA,NA,NA,NA,NA,NA
NA,1541.5999999968335,sequential-stimulus-presentation-old,135,382346,0.0-31.0-1.1,SS1619113880904,trial,NA,40,500,2041.5999999968335,images/stimuli/spore_stims/simple_18_A_b.gif,images/stimuli/spore_stims/simple_09_A_a.gif,forced_short,NA,11,simple_dissimilar,images/stimuli/spore_stims/simple_09_A_a.gif,NA,NA,NA,NA,NA
NA,null,html-keyboard-response,136,383243,0.0-31.0-0.2,SS1619113880904,NA,NA,null,NA,NA,NA,NA,NA,"<p><img src= images/blank.png width =""600"" height = ""600"" style=""position:fixed;top:50%; left:50%; transform: translate(-50%, -50%); border:5px solid black"">",NA,NA,NA,NA,NA,NA,NA,NA
NA,312.89499999547843,sequential-stimulus-presentation-old,137,384064,0.0-31.0-1.2,SS1619113880904,trial,NA,40,500,812.8949999954784,images/stimuli/spore_stims/simple_18_A_b.gif,images/stimuli/spore_stims/simple_09_A_a.gif,forced_short,NA,11,simple_dissimilar,images/stimuli/spore_stims/simple_09_A_a.gif,NA,NA,NA,NA,NA
NA,null,html-keyboard-response,138,385246,0.0-31.0-0.3,SS1619113880904,NA,NA,null,NA,NA,NA,NA,NA,"<p><img src= images/blank.png width =""600"" height = ""600"" style=""position:fixed;top:50%; left:50%; transform: translate(-50%, -50%); border:5px solid black"">",NA,NA,NA,NA,NA,NA,NA,NA
NA,269.33999999891967,sequential-stimulus-presentation-old,139,386023,0.0-31.0-1.3,SS1619113880904,trial,NA,40,500,769.3399999989197,images/stimuli/spore_stims/simple_18_A_b.gif,images/stimuli/spore_stims/simple_09_A_a.gif,forced_short,NA,11,simple_dissimilar,images/stimuli/spore_stims/simple_09_A_a.gif,NA,NA,NA,NA,NA
"[{""page_index"":0,""viewing_time"":2791.1949999979697}]",2791.465000002063,instructions,140,388817,0.0-32.0,SS1619113880904,instructions,NA,NA,NA,NA,NA,NA,NA,NA,NA,NA,NA,NA,NA,NA,NA,NA
NA,6466.860000000452,survey-likert,141,395288,0.0-33.0,SS1619113880904,similarity_question,NA,NA,NA,NA,NA,NA,NA,NA,NA,NA,NA,"{""Q0"":4}",[0],NA,images/stimuli/spore_stims/simple_09_A_a.gif,images/stimuli/spore_stims/simple_18_A_b.gif
NA,5438.340000007884,survey-likert,142,400734,0.0-34.0,SS1619113880904,similarity_question,NA,NA,NA,NA,NA,NA,NA,NA,NA,NA,NA,"{""Q0"":5}",[0],NA,images/stimuli/spore_stims/complex_16_A_b.gif,images/stimuli/spore_stims/complex_07_A_a.gif
NA,5151.949999999488,survey-likert,143,405890,0.0-35.0,SS1619113880904,similarity_question,NA,NA,NA,NA,NA,NA,NA,NA,NA,NA,NA,"{""Q0"":2}",[0],NA,images/stimuli/spore_stims/complex_17_A_a.gif,images/stimuli/spore_stims/complex_10_A_b.gif
NA,3574.884999994538,survey-likert,144,409468,0.0-36.0,SS1619113880904,similarity_question,NA,NA,NA,NA,NA,NA,NA,NA,NA,NA,NA,"{""Q0"":5}",[0],NA,images/stimuli/spore_stims/complex_09_A_b.gif,images/stimuli/spore_stims/complex_18_A_a.gif
NA,6488.865000006626,survey-likert,145,415961,0.0-37.0,SS1619113880904,similarity_question,NA,NA,NA,NA,NA,NA,NA,NA,NA,NA,NA,"{""Q0"":3}",[0],NA,images/stimuli/spore_stims/complex_02_A_a.gif,images/stimuli/spore_stims/complex_14_A_b.gif
NA,3227.215000006254,survey-likert,146,419192,0.0-38.0,SS1619113880904,similarity_question,NA,NA,NA,NA,NA,NA,NA,NA,NA,NA,NA,"{""Q0"":6}",[0],NA,images/stimuli/spore_stims/simple_08_A_a.gif,images/stimuli/spore_stims/simple_02_A_b.gif
NA,3466.3949999958277,survey-likert,147,422662,0.0-39.0,SS1619113880904,similarity_question,NA,NA,NA,NA,NA,NA,NA,NA,NA,NA,NA,"{""Q0"":5}",[0],NA,images/stimuli/spore_stims/simple_17_A_b.gif,images/stimuli/spore_stims/simple_04_A_a.gif
NA,2705.649999988964,survey-likert,148,425372,0.0-40.0,SS1619113880904,similarity_question,NA,NA,NA,NA,NA,NA,NA,NA,NA,NA,NA,"{""Q0"":5}",[0],NA,images/stimuli/spore_stims/simple_15_A_a.gif,images/stimuli/spore_stims/simple_05_A_b.gif
NA,3439.939999996568,survey-likert,149,428815,0.0-41.0,SS1619113880904,similarity_question,NA,NA,NA,NA,NA,NA,NA,NA,NA,NA,NA,"{""Q0"":5}",[0],NA,images/stimuli/spore_stims/simple_15_A_b.gif,images/stimuli/spore_stims/simple_14_A_a.gif
NA,6185.039999996661,survey-likert,150,435004,0.0-42.0,SS1619113880904,similarity_question,NA,NA,NA,NA,NA,NA,NA,NA,NA,NA,NA,"{""Q0"":2}",[0],NA,images/stimuli/spore_stims/complex_17_A_b.gif,images/stimuli/spore_stims/complex_08_A_a.gif
NA,3533.100000000559,survey-likert,151,438541,0.0-43.0,SS1619113880904,similarity_question,NA,NA,NA,NA,NA,NA,NA,NA,NA,NA,NA,"{""Q0"":3}",[0],NA,images/stimuli/spore_stims/simple_18_A_a.gif,images/stimuli/spore_stims/simple_19_A_b.gif
NA,4953.045000002021,survey-likert,152,443497,0.0-44.0,SS1619113880904,similarity_question,NA,NA,NA,NA,NA,NA,NA,NA,NA,NA,NA,"{""Q0"":4}",[0],NA,images/stimuli/spore_stims/complex_13_A_a.gif,images/stimuli/spore_stims/complex_06_A_b.gif
"[{""page_index"":0,""viewing_time"":2394.975000002887}]",2395.235000003595,instructions,153,445903,0.0-45.0,SS1619113880904,instructions,NA,NA,NA,NA,NA,NA,NA,NA,NA,NA,NA,NA,NA,NA,NA,NA
NA,3460.9899999923073,survey-likert,154,449367,0.0-46.0,SS1619113880904,NA,NA,NA,NA,NA,NA,NA,NA,images/stimuli/spore_stims/simple_18_A_b.gif,NA,NA,NA,"{""Q0"":1}",[0],NA,NA,NA
NA,3215.9800000081304,survey-likert,155,452588,0.0-47.0,SS1619113880904,NA,NA,NA,NA,NA,NA,NA,NA,images/stimuli/spore_stims/complex_02_A_a.gif,NA,NA,NA,"{""Q0"":5}",[0],NA,NA,NA
NA,3619.5450000086566,survey-likert,156,456211,0.0-48.0,SS1619113880904,NA,NA,NA,NA,NA,NA,NA,NA,images/stimuli/spore_stims/complex_09_A_b.gif,NA,NA,NA,"{""Q0"":6}",[0],NA,NA,NA
NA,4181.410000004689,survey-likert,157,460397,0.0-49.0,SS1619113880904,NA,NA,NA,NA,NA,NA,NA,NA,images/stimuli/spore_stims/complex_13_A_a.gif,NA,NA,NA,"{""Q0"":6}",[0],NA,NA,NA
NA,2267.619999998715,survey-likert,158,462668,0.0-50.0,SS1619113880904,NA,NA,NA,NA,NA,NA,NA,NA,images/stimuli/spore_stims/simple_19_A_b.gif,NA,NA,NA,"{""Q0"":3}",[0],NA,NA,NA
NA,4800.344999996014,survey-likert,159,467472,0.0-51.0,SS1619113880904,NA,NA,NA,NA,NA,NA,NA,NA,images/stimuli/spore_stims/complex_08_A_a.gif,NA,NA,NA,"{""Q0"":4}",[0],NA,NA,NA
NA,3109.1400000004796,survey-likert,160,470590,0.0-52.0,SS1619113880904,NA,NA,NA,NA,NA,NA,NA,NA,images/stimuli/spore_stims/simple_17_A_b.gif,NA,NA,NA,"{""Q0"":1}",[0],NA,NA,NA
NA,2346.5199999918696,survey-likert,161,472940,0.0-53.0,SS1619113880904,NA,NA,NA,NA,NA,NA,NA,NA,images/stimuli/spore_stims/simple_08_A_a.gif,NA,NA,NA,"{""Q0"":0}",[0],NA,NA,NA
NA,3656.635000006645,survey-likert,162,476601,0.0-54.0,SS1619113880904,NA,NA,NA,NA,NA,NA,NA,NA,images/stimuli/spore_stims/complex_17_A_a.gif,NA,NA,NA,"{""Q0"":6}",[0],NA,NA,NA
NA,3432.1950000012293,survey-likert,163,480038,0.0-55.0,SS1619113880904,NA,NA,NA,NA,NA,NA,NA,NA,images/stimuli/spore_stims/simple_05_A_b.gif,NA,NA,NA,"{""Q0"":1}",[0],NA,NA,NA
NA,2370.230000000447,survey-likert,164,482412,0.0-56.0,SS1619113880904,NA,NA,NA,NA,NA,NA,NA,NA,images/stimuli/spore_stims/complex_16_A_b.gif,NA,NA,NA,"{""Q0"":6}",[0],NA,NA,NA
NA,3725.8749999891734,survey-likert,165,486142,0.0-57.0,SS1619113880904,NA,NA,NA,NA,NA,NA,NA,NA,images/stimuli/spore_stims/simple_15_A_b.gif,NA,NA,NA,"{""Q0"":1}",[0],NA,NA,NA
"[{""page_index"":0,""viewing_time"":1658.7900000013178}]",1659.0649999998277,instructions,166,487804,0.0-58.0,SS1619113880904,instructions,NA,NA,NA,NA,NA,NA,NA,NA,NA,NA,NA,NA,NA,NA,NA,NA
NA,4133.099999991828,demog-age,167,491942,0.0-59.0,SS1619113880904,NA,NA,NA,NA,NA,NA,NA,NA,NA,NA,NA,NA,"{""age"":""45""}",NA,NA,NA,NA
NA,2950.1000000018394,demog-ethnic-US,168,494899,0.0-60.0,SS1619113880904,NA,NA,NA,NA,NA,NA,NA,NA,NA,NA,NA,NA,"{""ethnicity"":[""White""]}",[0],NA,NA,NA
NA,6483.684999999241,demog-gender-and-education,169,501387,0.0-61.0,SS1619113880904,NA,NA,NA,NA,NA,NA,NA,NA,NA,NA,NA,NA,"{""gender"":""Male"",""education"":""Bachelor's Degree""}","[0,1]",NA,NA,NA
NA,27760.989999995218,survey-text,170,529154,0.0-62.0,SS1619113880904,feedback,NA,NA,NA,NA,NA,NA,NA,NA,NA,NA,NA,"{""Q0"":""It wasn't laggy but it was pixely.""}",NA,NA,NA,NA
"[{""page_index"":0,""viewing_time"":1927.49499999627}]",1927.7250000013737,instructions,171,531085,0.0-63.0,SS1619113880904,instructions,NA,NA,NA,NA,NA,NA,NA,NA,NA,NA,NA,NA,NA,NA,NA,NA
"[{""page_index"":0,""viewing_time"":3899.7200000449084}]",3899.9100000364706,instructions,0,3902,0.0-0.0,SS1619113907158,NA,NA,NA,NA,NA,NA,NA,NA,NA,NA,NA,NA,NA,NA,NA,NA,NA
"[{""page_index"":0,""viewing_time"":2027.5499999988824},{""page_index"":1,""viewing_time"":5272.909999999683}]",7300.68000004394,instructions,1,13216,0.0-1.0,SS1619113907158,instructions,NA,NA,NA,NA,NA,NA,NA,NA,NA,NA,NA,NA,NA,NA,NA,NA
NA,3555.27000001166,sequential-stimulus-presentation-old,2,17276,0.0-2.0,SS1619113907158,NA,NA,40,500,4055.27000001166,null,null,self_paced,NA,NA,NA,NA,NA,NA,NA,NA,NA
NA,1009.84499999322,sequential-stimulus-presentation-old,3,18789,0.0-3.0,SS1619113907158,NA,NA,40,500,1509.84499999322,null,null,self_paced,NA,NA,NA,NA,NA,NA,NA,NA,NA
"[{""page_index"":0,""viewing_time"":15350.625000020955}]",15350.969999970403,instructions,4,34141,0.0-4.0,SS1619113907158,instructions,NA,NA,NA,NA,NA,NA,NA,NA,NA,NA,NA,NA,NA,NA,NA,NA
NA,1327.4450000026263,sequential-stimulus-presentation-old,5,45472,0.0-5.0,SS1619113907158,NA,NA,40,500,1827.4450000026263,null,null,forced_long,NA,NA,NA,NA,NA,NA,NA,NA,NA
NA,3120.684999972582,sequential-stimulus-presentation-old,6,48695,0.0-6.0,SS1619113907158,NA,NA,40,500,3620.684999972582,null,null,forced_long,NA,NA,NA,NA,NA,NA,NA,NA,NA
"[{""page_index"":0,""viewing_time"":4881.724999984726}]",4882.069999992382,instructions,7,53579,0.0-7.0,SS1619113907158,instructions,NA,NA,NA,NA,NA,NA,NA,NA,NA,NA,NA,NA,NA,NA,NA,NA
"[{""page_index"":0,""viewing_time"":6033.435000048485},{""page_index"":1,""viewing_time"":9896.565000002738},{""page_index"":2,""viewing_time"":2818.574999982957},{""page_index"":3,""viewing_time"":1477.6849999907427},{""page_index"":4,""viewing_time"":1122.4100000108592}]",21349.0050000255,instructions,8,74929,0.0-8.0,SS1619113907158,instructions,NA,NA,NA,NA,NA,NA,NA,NA,NA,NA,NA,NA,NA,NA,NA,NA
NA,null,html-keyboard-response,9,76012,0.0-9.0-0.0,SS1619113907158,NA,NA,null,NA,NA,NA,NA,NA,"<p><img src= images/blank.png width =""600"" height = ""600"" style=""position:fixed;top:50%; left:50%; transform: translate(-50%, -50%); border:5px solid black"">",NA,NA,NA,NA,NA,NA,NA,NA
NA,682.8300000051968,sequential-stimulus-presentation-old,10,77200,0.0-9.0-1.0,SS1619113907158,trial,NA,40,500,1182.8300000051968,images/stimuli/spore_stims/complex_07_A_b.gif,images/stimuli/spore_stims/complex_19_A_a.gif,self_paced,NA,0,complex_dissimilar,images/stimuli/spore_stims/complex_19_A_a.gif,NA,NA,NA,NA,NA
NA,null,html-keyboard-response,11,78145,0.0-9.0-0.1,SS1619113907158,NA,NA,null,NA,NA,NA,NA,NA,"<p><img src= images/blank.png width =""600"" height = ""600"" style=""position:fixed;top:50%; left:50%; transform: translate(-50%, -50%); border:5px solid black"">",NA,NA,NA,NA,NA,NA,NA,NA
NA,1248.1849999749102,sequential-stimulus-presentation-old,12,79897,0.0-9.0-1.1,SS1619113907158,trial,NA,40,500,1748.1849999749102,images/stimuli/spore_stims/complex_07_A_b.gif,images/stimuli/spore_stims/complex_19_A_a.gif,self_paced,NA,0,complex_dissimilar,images/stimuli/spore_stims/complex_19_A_a.gif,NA,NA,NA,NA,NA
NA,null,html-keyboard-response,13,80907,0.0-9.0-0.2,SS1619113907158,NA,NA,null,NA,NA,NA,NA,NA,"<p><img src= images/blank.png width =""600"" height = ""600"" style=""position:fixed;top:50%; left:50%; transform: translate(-50%, -50%); border:5px solid black"">",NA,NA,NA,NA,NA,NA,NA,NA
NA,353.33499999251217,sequential-stimulus-presentation-old,14,81763,0.0-9.0-1.2,SS1619113907158,trial,NA,40,500,853.3349999925122,images/stimuli/spore_stims/complex_07_A_b.gif,images/stimuli/spore_stims/complex_19_A_a.gif,self_paced,NA,0,complex_dissimilar,images/stimuli/spore_stims/complex_19_A_a.gif,NA,NA,NA,NA,NA
NA,null,html-keyboard-response,15,82789,0.0-9.0-0.3,SS1619113907158,NA,NA,null,NA,NA,NA,NA,NA,"<p><img src= images/blank.png width =""600"" height = ""600"" style=""position:fixed;top:50%; left:50%; transform: translate(-50%, -50%); border:5px solid black"">",NA,NA,NA,NA,NA,NA,NA,NA
NA,66.97499996516854,sequential-stimulus-presentation-old,16,83359,0.0-9.0-1.3,SS1619113907158,trial,NA,40,500,566.9749999651685,images/stimuli/spore_stims/complex_07_A_b.gif,images/stimuli/spore_stims/complex_19_A_a.gif,self_paced,NA,0,complex_dissimilar,images/stimuli/spore_stims/complex_19_A_a.gif,NA,NA,NA,NA,NA
NA,4871.900000027381,survey-multi-choice,17,88234,0.0-10.0,SS1619113907158,math_question,NA,NA,NA,NA,NA,NA,NA,NA,NA,NA,NA,"{""Q0"":""13""}",[0],13,NA,NA
NA,null,html-keyboard-response,18,89061,0.0-11.0-0.0,SS1619113907158,NA,NA,null,NA,NA,NA,NA,NA,"<p><img src= images/blank.png width =""600"" height = ""600"" style=""position:fixed;top:50%; left:50%; transform: translate(-50%, -50%); border:5px solid black"">",NA,NA,NA,NA,NA,NA,NA,NA
NA,498.50500002503395,sequential-stimulus-presentation-old,19,99564,0.0-11.0-1.0,SS1619113907158,trial,NA,40,500,998.505000025034,images/stimuli/spore_stims/simple_07_A_a.gif,images/stimuli/spore_stims/simple_14_A_b.gif,forced_long,NA,1,simple_dissimilar,images/stimuli/spore_stims/simple_14_A_b.gif,NA,NA,NA,NA,NA
NA,null,html-keyboard-response,20,100773,0.0-11.0-0.1,SS1619113907158,NA,NA,null,NA,NA,NA,NA,NA,"<p><img src= images/blank.png width =""600"" height = ""600"" style=""position:fixed;top:50%; left:50%; transform: translate(-50%, -50%); border:5px solid black"">",NA,NA,NA,NA,NA,NA,NA,NA
NA,381.3750000554137,sequential-stimulus-presentation-old,21,101660,0.0-11.0-1.1,SS1619113907158,trial,NA,40,500,881.3750000554137,images/stimuli/spore_stims/simple_07_A_a.gif,images/stimuli/spore_stims/simple_14_A_b.gif,forced_long,NA,1,simple_dissimilar,images/stimuli/spore_stims/simple_14_A_b.gif,NA,NA,NA,NA,NA
NA,null,html-keyboard-response,22,102876,0.0-11.0-0.2,SS1619113907158,NA,NA,null,NA,NA,NA,NA,NA,"<p><img src= images/blank.png width =""600"" height = ""600"" style=""position:fixed;top:50%; left:50%; transform: translate(-50%, -50%); border:5px solid black"">",NA,NA,NA,NA,NA,NA,NA,NA
NA,9471.535000018775,sequential-stimulus-presentation-old,23,112850,0.0-11.0-1.2,SS1619113907158,trial,NA,40,500,9971.535000018775,images/stimuli/spore_stims/simple_07_A_a.gif,images/stimuli/spore_stims/simple_14_A_b.gif,forced_long,NA,1,simple_dissimilar,images/stimuli/spore_stims/simple_14_A_b.gif,NA,NA,NA,NA,NA
NA,null,html-keyboard-response,24,113806,0.0-11.0-0.3,SS1619113907158,NA,NA,null,NA,NA,NA,NA,NA,"<p><img src= images/blank.png width =""600"" height = ""600"" style=""position:fixed;top:50%; left:50%; transform: translate(-50%, -50%); border:5px solid black"">",NA,NA,NA,NA,NA,NA,NA,NA
NA,520.7400000072084,sequential-stimulus-presentation-old,25,114831,0.0-11.0-1.3,SS1619113907158,trial,NA,40,500,1020.7400000072084,images/stimuli/spore_stims/simple_07_A_a.gif,images/stimuli/spore_stims/simple_14_A_b.gif,forced_long,NA,1,simple_dissimilar,images/stimuli/spore_stims/simple_14_A_b.gif,NA,NA,NA,NA,NA
NA,null,html-keyboard-response,26,115694,0.0-11.0-0.4,SS1619113907158,NA,NA,null,NA,NA,NA,NA,NA,"<p><img src= images/blank.png width =""600"" height = ""600"" style=""position:fixed;top:50%; left:50%; transform: translate(-50%, -50%); border:5px solid black"">",NA,NA,NA,NA,NA,NA,NA,NA
NA,89.80499999597669,sequential-stimulus-presentation-old,27,116288,0.0-11.0-1.4,SS1619113907158,trial,NA,40,500,589.8049999959767,images/stimuli/spore_stims/simple_07_A_a.gif,images/stimuli/spore_stims/simple_14_A_b.gif,forced_long,NA,1,simple_dissimilar,images/stimuli/spore_stims/simple_14_A_b.gif,NA,NA,NA,NA,NA
NA,null,html-keyboard-response,28,117324,0.0-11.0-0.5,SS1619113907158,NA,NA,null,NA,NA,NA,NA,NA,"<p><img src= images/blank.png width =""600"" height = ""600"" style=""position:fixed;top:50%; left:50%; transform: translate(-50%, -50%); border:5px solid black"">",NA,NA,NA,NA,NA,NA,NA,NA
NA,8.245000033639371,sequential-stimulus-presentation-old,29,117835,0.0-11.0-1.5,SS1619113907158,trial,NA,40,500,508.24500003363937,images/stimuli/spore_stims/simple_07_A_a.gif,images/stimuli/spore_stims/simple_14_A_b.gif,forced_long,NA,1,simple_dissimilar,images/stimuli/spore_stims/simple_14_A_b.gif,NA,NA,NA,NA,NA
NA,3491.860000009183,survey-multi-choice,30,121329,0.0-12.0,SS1619113907158,math_question,NA,NA,NA,NA,NA,NA,NA,NA,NA,NA,NA,"{""Q0"":""6""}",[0],6,NA,NA
NA,null,html-keyboard-response,31,122582,0.0-13.0-0.0,SS1619113907158,NA,NA,null,NA,NA,NA,NA,NA,"<p><img src= images/blank.png width =""600"" height = ""600"" style=""position:fixed;top:50%; left:50%; transform: translate(-50%, -50%); border:5px solid black"">",NA,NA,NA,NA,NA,NA,NA,NA
NA,2764.499999990221,sequential-stimulus-presentation-old,32,125850,0.0-13.0-1.0,SS1619113907158,trial,NA,40,500,3264.499999990221,images/stimuli/spore_stims/simple_18_A_a.gif,images/stimuli/spore_stims/simple_11_A_b.gif,self_paced,NA,2,simple_dissimilar,images/stimuli/spore_stims/simple_11_A_b.gif,NA,NA,NA,NA,NA
NA,null,html-keyboard-response,33,126656,0.0-13.0-0.1,SS1619113907158,NA,NA,null,NA,NA,NA,NA,NA,"<p><img src= images/blank.png width =""600"" height = ""600"" style=""position:fixed;top:50%; left:50%; transform: translate(-50%, -50%); border:5px solid black"">",NA,NA,NA,NA,NA,NA,NA,NA
NA,398.31000001868233,sequential-stimulus-presentation-old,34,127558,0.0-13.0-1.1,SS1619113907158,trial,NA,40,500,898.3100000186823,images/stimuli/spore_stims/simple_18_A_a.gif,images/stimuli/spore_stims/simple_11_A_b.gif,self_paced,NA,2,simple_dissimilar,images/stimuli/spore_stims/simple_18_A_a.gif,NA,NA,NA,NA,NA
NA,null,html-keyboard-response,35,128723,0.0-13.0-0.2,SS1619113907158,NA,NA,null,NA,NA,NA,NA,NA,"<p><img src= images/blank.png width =""600"" height = ""600"" style=""position:fixed;top:50%; left:50%; transform: translate(-50%, -50%); border:5px solid black"">",NA,NA,NA,NA,NA,NA,NA,NA
NA,1216.7550000012852,sequential-stimulus-presentation-old,36,130444,0.0-13.0-1.2,SS1619113907158,trial,NA,40,500,1716.7550000012852,images/stimuli/spore_stims/simple_18_A_a.gif,images/stimuli/spore_stims/simple_11_A_b.gif,self_paced,NA,2,simple_dissimilar,images/stimuli/spore_stims/simple_18_A_a.gif,NA,NA,NA,NA,NA
NA,null,html-keyboard-response,37,131724,0.0-13.0-0.3,SS1619113907158,NA,NA,null,NA,NA,NA,NA,NA,"<p><img src= images/blank.png width =""600"" height = ""600"" style=""position:fixed;top:50%; left:50%; transform: translate(-50%, -50%); border:5px solid black"">",NA,NA,NA,NA,NA,NA,NA,NA
NA,4045.3550000092946,sequential-stimulus-presentation-old,38,136273,0.0-13.0-1.3,SS1619113907158,trial,NA,40,500,4545.355000009295,images/stimuli/spore_stims/simple_18_A_a.gif,images/stimuli/spore_stims/simple_11_A_b.gif,self_paced,NA,2,simple_dissimilar,images/stimuli/spore_stims/simple_11_A_b.gif,NA,NA,NA,NA,NA
NA,7891.204999992624,survey-multi-choice,39,144167,0.0-14.0,SS1619113907158,math_question,NA,NA,NA,NA,NA,NA,NA,NA,NA,NA,NA,"{""Q0"":""13""}",[0],13,NA,NA
NA,null,html-keyboard-response,40,145389,0.0-15.0-0.0,SS1619113907158,NA,NA,null,NA,NA,NA,NA,NA,"<p><img src= images/blank.png width =""600"" height = ""600"" style=""position:fixed;top:50%; left:50%; transform: translate(-50%, -50%); border:5px solid black"">",NA,NA,NA,NA,NA,NA,NA,NA
NA,1162.015000008978,sequential-stimulus-presentation-old,41,156557,0.0-15.0-1.0,SS1619113907158,trial,NA,40,500,1662.015000008978,images/stimuli/spore_stims/complex_01_A_a.gif,images/stimuli/spore_stims/complex_12_A_b.gif,forced_long,NA,3,complex_dissimilar,images/stimuli/spore_stims/complex_12_A_b.gif,NA,NA,NA,NA,NA
NA,null,html-keyboard-response,42,157788,0.0-15.0-0.1,SS1619113907158,NA,NA,null,NA,NA,NA,NA,NA,"<p><img src= images/blank.png width =""600"" height = ""600"" style=""position:fixed;top:50%; left:50%; transform: translate(-50%, -50%); border:5px solid black"">",NA,NA,NA,NA,NA,NA,NA,NA
NA,2150.6050000316463,sequential-stimulus-presentation-old,43,160443,0.0-15.0-1.1,SS1619113907158,trial,NA,40,500,2650.6050000316463,images/stimuli/spore_stims/complex_01_A_a.gif,images/stimuli/spore_stims/complex_12_A_b.gif,forced_long,NA,3,complex_dissimilar,images/stimuli/spore_stims/complex_12_A_b.gif,NA,NA,NA,NA,NA
NA,null,html-keyboard-response,44,161730,0.0-15.0-0.2,SS1619113907158,NA,NA,null,NA,NA,NA,NA,NA,"<p><img src= images/blank.png width =""600"" height = ""600"" style=""position:fixed;top:50%; left:50%; transform: translate(-50%, -50%); border:5px solid black"">",NA,NA,NA,NA,NA,NA,NA,NA
NA,567.7150000119582,sequential-stimulus-presentation-old,45,162802,0.0-15.0-1.2,SS1619113907158,trial,NA,40,500,1067.7150000119582,images/stimuli/spore_stims/complex_01_A_a.gif,images/stimuli/spore_stims/complex_12_A_b.gif,forced_long,NA,3,complex_dissimilar,images/stimuli/spore_stims/complex_12_A_b.gif,NA,NA,NA,NA,NA
NA,null,html-keyboard-response,46,163690,0.0-15.0-0.3,SS1619113907158,NA,NA,null,NA,NA,NA,NA,NA,"<p><img src= images/blank.png width =""600"" height = ""600"" style=""position:fixed;top:50%; left:50%; transform: translate(-50%, -50%); border:5px solid black"">",NA,NA,NA,NA,NA,NA,NA,NA
NA,307.3500000173226,sequential-stimulus-presentation-old,47,164501,0.0-15.0-1.3,SS1619113907158,trial,NA,40,500,807.3500000173226,images/stimuli/spore_stims/complex_01_A_a.gif,images/stimuli/spore_stims/complex_12_A_b.gif,forced_long,NA,3,complex_dissimilar,images/stimuli/spore_stims/complex_12_A_b.gif,NA,NA,NA,NA,NA
NA,null,html-keyboard-response,48,165418,0.0-15.0-0.4,SS1619113907158,NA,NA,null,NA,NA,NA,NA,NA,"<p><img src= images/blank.png width =""600"" height = ""600"" style=""position:fixed;top:50%; left:50%; transform: translate(-50%, -50%); border:5px solid black"">",NA,NA,NA,NA,NA,NA,NA,NA
NA,802.765000029467,sequential-stimulus-presentation-old,49,166725,0.0-15.0-1.4,SS1619113907158,trial,NA,40,500,1302.765000029467,images/stimuli/spore_stims/complex_01_A_a.gif,images/stimuli/spore_stims/complex_12_A_b.gif,forced_long,NA,3,complex_dissimilar,images/stimuli/spore_stims/complex_12_A_b.gif,NA,NA,NA,NA,NA
NA,3720.035000005737,survey-multi-choice,50,170447,0.0-16.0,SS1619113907158,math_question,NA,NA,NA,NA,NA,NA,NA,NA,NA,NA,NA,"{""Q0"":""10""}",[0],10,NA,NA
NA,null,html-keyboard-response,51,171410,0.0-17.0-0.0,SS1619113907158,NA,NA,null,NA,NA,NA,NA,NA,"<p><img src= images/blank.png width =""600"" height = ""600"" style=""position:fixed;top:50%; left:50%; transform: translate(-50%, -50%); border:5px solid black"">",NA,NA,NA,NA,NA,NA,NA,NA
NA,318.0300000240095,sequential-stimulus-presentation-old,52,181732,0.0-17.0-1.0,SS1619113907158,trial,NA,40,500,818.0300000240095,images/stimuli/spore_stims/simple_12_A_a.gif,images/stimuli/spore_stims/simple_05_A_b.gif,forced_long,NA,4,simple_dissimilar,images/stimuli/spore_stims/simple_05_A_b.gif,NA,NA,NA,NA,NA
NA,null,html-keyboard-response,53,182750,0.0-17.0-0.1,SS1619113907158,NA,NA,null,NA,NA,NA,NA,NA,"<p><img src= images/blank.png width =""600"" height = ""600"" style=""position:fixed;top:50%; left:50%; transform: translate(-50%, -50%); border:5px solid black"">",NA,NA,NA,NA,NA,NA,NA,NA
NA,155.399999988731,sequential-stimulus-presentation-old,54,183410,0.0-17.0-1.1,SS1619113907158,trial,NA,40,500,655.399999988731,images/stimuli/spore_stims/simple_12_A_a.gif,images/stimuli/spore_stims/simple_05_A_b.gif,forced_long,NA,4,simple_dissimilar,images/stimuli/spore_stims/simple_05_A_b.gif,NA,NA,NA,NA,NA
NA,null,html-keyboard-response,55,184220,0.0-17.0-0.2,SS1619113907158,NA,NA,null,NA,NA,NA,NA,NA,"<p><img src= images/blank.png width =""600"" height = ""600"" style=""position:fixed;top:50%; left:50%; transform: translate(-50%, -50%); border:5px solid black"">",NA,NA,NA,NA,NA,NA,NA,NA
NA,25.305000017397106,sequential-stimulus-presentation-old,56,184749,0.0-17.0-1.2,SS1619113907158,trial,NA,40,500,525.3050000173971,images/stimuli/spore_stims/simple_12_A_a.gif,images/stimuli/spore_stims/simple_05_A_b.gif,forced_long,NA,4,simple_dissimilar,images/stimuli/spore_stims/simple_12_A_a.gif,NA,NA,NA,NA,NA
NA,null,html-keyboard-response,57,185920,0.0-17.0-0.3,SS1619113907158,NA,NA,null,NA,NA,NA,NA,NA,"<p><img src= images/blank.png width =""600"" height = ""600"" style=""position:fixed;top:50%; left:50%; transform: translate(-50%, -50%); border:5px solid black"">",NA,NA,NA,NA,NA,NA,NA,NA
NA,1729.8449999652803,sequential-stimulus-presentation-old,58,188155,0.0-17.0-1.3,SS1619113907158,trial,NA,40,500,2229.8449999652803,images/stimuli/spore_stims/simple_12_A_a.gif,images/stimuli/spore_stims/simple_05_A_b.gif,forced_long,NA,4,simple_dissimilar,images/stimuli/spore_stims/simple_05_A_b.gif,NA,NA,NA,NA,NA
NA,null,html-keyboard-response,59,189059,0.0-17.0-0.4,SS1619113907158,NA,NA,null,NA,NA,NA,NA,NA,"<p><img src= images/blank.png width =""600"" height = ""600"" style=""position:fixed;top:50%; left:50%; transform: translate(-50%, -50%); border:5px solid black"">",NA,NA,NA,NA,NA,NA,NA,NA
NA,99.69000000273809,sequential-stimulus-presentation-old,60,189662,0.0-17.0-1.4,SS1619113907158,trial,NA,40,500,599.6900000027381,images/stimuli/spore_stims/simple_12_A_a.gif,images/stimuli/spore_stims/simple_05_A_b.gif,forced_long,NA,4,simple_dissimilar,images/stimuli/spore_stims/simple_12_A_a.gif,NA,NA,NA,NA,NA
NA,3905.9249999700114,survey-multi-choice,61,193571,0.0-18.0,SS1619113907158,math_question,NA,NA,NA,NA,NA,NA,NA,NA,NA,NA,NA,"{""Q0"":""9""}",[0],9,NA,NA
NA,null,html-keyboard-response,62,194636,0.0-19.0-0.0,SS1619113907158,NA,NA,null,NA,NA,NA,NA,NA,"<p><img src= images/blank.png width =""600"" height = ""600"" style=""position:fixed;top:50%; left:50%; transform: translate(-50%, -50%); border:5px solid black"">",NA,NA,NA,NA,NA,NA,NA,NA
NA,330.1600000122562,sequential-stimulus-presentation-old,63,195470,0.0-19.0-1.0,SS1619113907158,trial,NA,40,500,830.1600000122562,images/stimuli/spore_stims/simple_16_A_b.gif,images/stimuli/spore_stims/simple_15_A_a.gif,self_paced,NA,5,simple_dissimilar,images/stimuli/spore_stims/simple_15_A_a.gif,NA,NA,NA,NA,NA
NA,null,html-keyboard-response,64,196277,0.0-19.0-0.1,SS1619113907158,NA,NA,null,NA,NA,NA,NA,NA,"<p><img src= images/blank.png width =""600"" height = ""600"" style=""position:fixed;top:50%; left:50%; transform: translate(-50%, -50%); border:5px solid black"">",NA,NA,NA,NA,NA,NA,NA,NA
NA,387.9399999859743,sequential-stimulus-presentation-old,65,197169,0.0-19.0-1.1,SS1619113907158,trial,NA,40,500,887.9399999859743,images/stimuli/spore_stims/simple_16_A_b.gif,images/stimuli/spore_stims/simple_15_A_a.gif,self_paced,NA,5,simple_dissimilar,images/stimuli/spore_stims/simple_15_A_a.gif,NA,NA,NA,NA,NA
NA,null,html-keyboard-response,66,198012,0.0-19.0-0.2,SS1619113907158,NA,NA,null,NA,NA,NA,NA,NA,"<p><img src= images/blank.png width =""600"" height = ""600"" style=""position:fixed;top:50%; left:50%; transform: translate(-50%, -50%); border:5px solid black"">",NA,NA,NA,NA,NA,NA,NA,NA
NA,972.345000016503,sequential-stimulus-presentation-old,67,199489,0.0-19.0-1.2,SS1619113907158,trial,NA,40,500,1472.345000016503,images/stimuli/spore_stims/simple_16_A_b.gif,images/stimuli/spore_stims/simple_15_A_a.gif,self_paced,NA,5,simple_dissimilar,images/stimuli/spore_stims/simple_15_A_a.gif,NA,NA,NA,NA,NA
NA,null,html-keyboard-response,68,200340,0.0-19.0-0.3,SS1619113907158,NA,NA,null,NA,NA,NA,NA,NA,"<p><img src= images/blank.png width =""600"" height = ""600"" style=""position:fixed;top:50%; left:50%; transform: translate(-50%, -50%); border:5px solid black"">",NA,NA,NA,NA,NA,NA,NA,NA
NA,4081.164999981411,sequential-stimulus-presentation-old,69,204926,0.0-19.0-1.3,SS1619113907158,trial,NA,40,500,4581.164999981411,images/stimuli/spore_stims/simple_16_A_b.gif,images/stimuli/spore_stims/simple_15_A_a.gif,self_paced,NA,5,simple_dissimilar,images/stimuli/spore_stims/simple_15_A_a.gif,NA,NA,NA,NA,NA
NA,null,html-keyboard-response,70,205987,0.0-19.0-0.4,SS1619113907158,NA,NA,null,NA,NA,NA,NA,NA,"<p><img src= images/blank.png width =""600"" height = ""600"" style=""position:fixed;top:50%; left:50%; transform: translate(-50%, -50%); border:5px solid black"">",NA,NA,NA,NA,NA,NA,NA,NA
NA,1669.2599999951199,sequential-stimulus-presentation-old,71,208161,0.0-19.0-1.4,SS1619113907158,trial,NA,40,500,2169.25999999512,images/stimuli/spore_stims/simple_16_A_b.gif,images/stimuli/spore_stims/simple_15_A_a.gif,self_paced,NA,5,simple_dissimilar,images/stimuli/spore_stims/simple_15_A_a.gif,NA,NA,NA,NA,NA
NA,4515.79999999376,survey-multi-choice,72,212680,0.0-20.0,SS1619113907158,math_question,NA,NA,NA,NA,NA,NA,NA,NA,NA,NA,NA,"{""Q0"":""11""}",[0],11,NA,NA
NA,null,html-keyboard-response,73,213569,0.0-21.0-0.0,SS1619113907158,NA,NA,null,NA,NA,NA,NA,NA,"<p><img src= images/blank.png width =""600"" height = ""600"" style=""position:fixed;top:50%; left:50%; transform: translate(-50%, -50%); border:5px solid black"">",NA,NA,NA,NA,NA,NA,NA,NA
NA,349.38999998848885,sequential-stimulus-presentation-old,74,214022,0.0-21.0-1.0,SS1619113907158,trial,NA,40,500,849.3899999884889,images/stimuli/spore_stims/simple_13_A_b.gif,images/stimuli/spore_stims/simple_03_A_a.gif,forced_short,NA,6,simple_dissimilar,images/stimuli/spore_stims/simple_03_A_a.gif,NA,NA,NA,NA,NA
NA,null,html-keyboard-response,75,215208,0.0-21.0-0.1,SS1619113907158,NA,NA,null,NA,NA,NA,NA,NA,"<p><img src= images/blank.png width =""600"" height = ""600"" style=""position:fixed;top:50%; left:50%; transform: translate(-50%, -50%); border:5px solid black"">",NA,NA,NA,NA,NA,NA,NA,NA
NA,682.0000000298023,sequential-stimulus-presentation-old,76,216395,0.0-21.0-1.1,SS1619113907158,trial,NA,40,500,1182.0000000298023,images/stimuli/spore_stims/simple_13_A_b.gif,images/stimuli/spore_stims/simple_03_A_a.gif,forced_short,NA,6,simple_dissimilar,images/stimuli/spore_stims/simple_03_A_a.gif,NA,NA,NA,NA,NA
NA,null,html-keyboard-response,77,217497,0.0-21.0-0.2,SS1619113907158,NA,NA,null,NA,NA,NA,NA,NA,"<p><img src= images/blank.png width =""600"" height = ""600"" style=""position:fixed;top:50%; left:50%; transform: translate(-50%, -50%); border:5px solid black"">",NA,NA,NA,NA,NA,NA,NA,NA
NA,1371.3149999966845,sequential-stimulus-presentation-old,78,219372,0.0-21.0-1.2,SS1619113907158,trial,NA,40,500,1871.3149999966845,images/stimuli/spore_stims/simple_13_A_b.gif,images/stimuli/spore_stims/simple_03_A_a.gif,forced_short,NA,6,simple_dissimilar,images/stimuli/spore_stims/simple_13_A_b.gif,NA,NA,NA,NA,NA
NA,null,html-keyboard-response,79,220243,0.0-21.0-0.3,SS1619113907158,NA,NA,null,NA,NA,NA,NA,NA,"<p><img src= images/blank.png width =""600"" height = ""600"" style=""position:fixed;top:50%; left:50%; transform: translate(-50%, -50%); border:5px solid black"">",NA,NA,NA,NA,NA,NA,NA,NA
NA,2430.355000018608,sequential-stimulus-presentation-old,80,223177,0.0-21.0-1.3,SS1619113907158,trial,NA,40,500,2930.355000018608,images/stimuli/spore_stims/simple_13_A_b.gif,images/stimuli/spore_stims/simple_03_A_a.gif,forced_short,NA,6,simple_dissimilar,images/stimuli/spore_stims/simple_13_A_b.gif,NA,NA,NA,NA,NA
NA,2727.8100000112318,survey-multi-choice,81,225909,0.0-22.0,SS1619113907158,math_question,NA,NA,NA,NA,NA,NA,NA,NA,NA,NA,NA,"{""Q0"":""10""}",[0],10,NA,NA
NA,null,html-keyboard-response,82,227109,0.0-23.0-0.0,SS1619113907158,NA,NA,null,NA,NA,NA,NA,NA,"<p><img src= images/blank.png width =""600"" height = ""600"" style=""position:fixed;top:50%; left:50%; transform: translate(-50%, -50%); border:5px solid black"">",NA,NA,NA,NA,NA,NA,NA,NA
NA,3690.520000003744,sequential-stimulus-presentation-old,83,230904,0.0-23.0-1.0,SS1619113907158,trial,NA,40,500,4190.520000003744,images/stimuli/spore_stims/simple_02_A_b.gif,images/stimuli/spore_stims/simple_01_A_a.gif,forced_short,NA,7,simple_dissimilar,images/stimuli/spore_stims/simple_01_A_a.gif,NA,NA,NA,NA,NA
NA,null,html-keyboard-response,84,232179,0.0-23.0-0.1,SS1619113907158,NA,NA,null,NA,NA,NA,NA,NA,"<p><img src= images/blank.png width =""600"" height = ""600"" style=""position:fixed;top:50%; left:50%; transform: translate(-50%, -50%); border:5px solid black"">",NA,NA,NA,NA,NA,NA,NA,NA
NA,5.550000001676381,sequential-stimulus-presentation-old,85,232689,0.0-23.0-1.1,SS1619113907158,trial,NA,40,500,505.5500000016764,images/stimuli/spore_stims/simple_02_A_b.gif,images/stimuli/spore_stims/simple_01_A_a.gif,forced_short,NA,7,simple_dissimilar,images/stimuli/spore_stims/simple_01_A_a.gif,NA,NA,NA,NA,NA
NA,null,html-keyboard-response,86,233925,0.0-23.0-0.2,SS1619113907158,NA,NA,null,NA,NA,NA,NA,NA,"<p><img src= images/blank.png width =""600"" height = ""600"" style=""position:fixed;top:50%; left:50%; transform: translate(-50%, -50%); border:5px solid black"">",NA,NA,NA,NA,NA,NA,NA,NA
NA,3631.984999985434,sequential-stimulus-presentation-old,87,238062,0.0-23.0-1.2,SS1619113907158,trial,NA,40,500,4131.984999985434,images/stimuli/spore_stims/simple_02_A_b.gif,images/stimuli/spore_stims/simple_01_A_a.gif,forced_short,NA,7,simple_dissimilar,images/stimuli/spore_stims/simple_02_A_b.gif,NA,NA,NA,NA,NA
NA,null,html-keyboard-response,88,238902,0.0-23.0-0.3,SS1619113907158,NA,NA,null,NA,NA,NA,NA,NA,"<p><img src= images/blank.png width =""600"" height = ""600"" style=""position:fixed;top:50%; left:50%; transform: translate(-50%, -50%); border:5px solid black"">",NA,NA,NA,NA,NA,NA,NA,NA
NA,1587.5249999808148,sequential-stimulus-presentation-old,89,240994,0.0-23.0-1.3,SS1619113907158,trial,NA,40,500,2087.5249999808148,images/stimuli/spore_stims/simple_02_A_b.gif,images/stimuli/spore_stims/simple_01_A_a.gif,forced_short,NA,7,simple_dissimilar,images/stimuli/spore_stims/simple_01_A_a.gif,NA,NA,NA,NA,NA
NA,null,html-keyboard-response,90,241801,0.0-23.0-0.4,SS1619113907158,NA,NA,null,NA,NA,NA,NA,NA,"<p><img src= images/blank.png width =""600"" height = ""600"" style=""position:fixed;top:50%; left:50%; transform: translate(-50%, -50%); border:5px solid black"">",NA,NA,NA,NA,NA,NA,NA,NA
NA,1767.6600000122562,sequential-stimulus-presentation-old,91,244072,0.0-23.0-1.4,SS1619113907158,trial,NA,40,500,2267.660000012256,images/stimuli/spore_stims/simple_02_A_b.gif,images/stimuli/spore_stims/simple_01_A_a.gif,forced_short,NA,7,simple_dissimilar,images/stimuli/spore_stims/simple_01_A_a.gif,NA,NA,NA,NA,NA
NA,5848.150000034366,survey-multi-choice,92,249924,0.0-24.0,SS1619113907158,math_question,NA,NA,NA,NA,NA,NA,NA,NA,NA,NA,NA,"{""Q0"":""13""}",[0],13,NA,NA
NA,null,html-keyboard-response,93,250972,0.0-25.0-0.0,SS1619113907158,NA,NA,null,NA,NA,NA,NA,NA,"<p><img src= images/blank.png width =""600"" height = ""600"" style=""position:fixed;top:50%; left:50%; transform: translate(-50%, -50%); border:5px solid black"">",NA,NA,NA,NA,NA,NA,NA,NA
NA,445.37999999010935,sequential-stimulus-presentation-old,94,261422,0.0-25.0-1.0,SS1619113907158,trial,NA,40,500,945.3799999901094,images/stimuli/spore_stims/complex_17_A_a.gif,images/stimuli/spore_stims/complex_18_A_b.gif,forced_long,NA,8,complex_dissimilar,images/stimuli/spore_stims/complex_18_A_b.gif,NA,NA,NA,NA,NA
NA,null,html-keyboard-response,95,262306,0.0-25.0-0.1,SS1619113907158,NA,NA,null,NA,NA,NA,NA,NA,"<p><img src= images/blank.png width =""600"" height = ""600"" style=""position:fixed;top:50%; left:50%; transform: translate(-50%, -50%); border:5px solid black"">",NA,NA,NA,NA,NA,NA,NA,NA
NA,325.9599999873899,sequential-stimulus-presentation-old,96,263137,0.0-25.0-1.1,SS1619113907158,trial,NA,40,500,825.9599999873899,images/stimuli/spore_stims/complex_17_A_a.gif,images/stimuli/spore_stims/complex_18_A_b.gif,forced_long,NA,8,complex_dissimilar,images/stimuli/spore_stims/complex_18_A_b.gif,NA,NA,NA,NA,NA
NA,null,html-keyboard-response,97,264199,0.0-25.0-0.2,SS1619113907158,NA,NA,null,NA,NA,NA,NA,NA,"<p><img src= images/blank.png width =""600"" height = ""600"" style=""position:fixed;top:50%; left:50%; transform: translate(-50%, -50%); border:5px solid black"">",NA,NA,NA,NA,NA,NA,NA,NA
NA,833.760000008624,sequential-stimulus-presentation-old,98,265538,0.0-25.0-1.2,SS1619113907158,trial,NA,40,500,1333.760000008624,images/stimuli/spore_stims/complex_17_A_a.gif,images/stimuli/spore_stims/complex_18_A_b.gif,forced_long,NA,8,complex_dissimilar,images/stimuli/spore_stims/complex_18_A_b.gif,NA,NA,NA,NA,NA
NA,null,html-keyboard-response,99,266619,0.0-25.0-0.3,SS1619113907158,NA,NA,null,NA,NA,NA,NA,NA,"<p><img src= images/blank.png width =""600"" height = ""600"" style=""position:fixed;top:50%; left:50%; transform: translate(-50%, -50%); border:5px solid black"">",NA,NA,NA,NA,NA,NA,NA,NA
NA,1.4400000218302011,sequential-stimulus-presentation-old,100,267125,0.0-25.0-1.3,SS1619113907158,trial,NA,40,500,501.4400000218302,images/stimuli/spore_stims/complex_17_A_a.gif,images/stimuli/spore_stims/complex_18_A_b.gif,forced_long,NA,8,complex_dissimilar,images/stimuli/spore_stims/complex_18_A_b.gif,NA,NA,NA,NA,NA
NA,null,html-keyboard-response,101,268159,0.0-25.0-0.4,SS1619113907158,NA,NA,null,NA,NA,NA,NA,NA,"<p><img src= images/blank.png width =""600"" height = ""600"" style=""position:fixed;top:50%; left:50%; transform: translate(-50%, -50%); border:5px solid black"">",NA,NA,NA,NA,NA,NA,NA,NA
NA,676.6499999794178,sequential-stimulus-presentation-old,102,269340,0.0-25.0-1.4,SS1619113907158,trial,NA,40,500,1176.6499999794178,images/stimuli/spore_stims/complex_17_A_a.gif,images/stimuli/spore_stims/complex_18_A_b.gif,forced_long,NA,8,complex_dissimilar,images/stimuli/spore_stims/complex_17_A_a.gif,NA,NA,NA,NA,NA
NA,3072.2899999818765,survey-multi-choice,103,272417,0.0-26.0,SS1619113907158,math_question,NA,NA,NA,NA,NA,NA,NA,NA,NA,NA,NA,"{""Q0"":""11""}",[0],11,NA,NA
NA,null,html-keyboard-response,104,273631,0.0-27.0-0.0,SS1619113907158,NA,NA,null,NA,NA,NA,NA,NA,"<p><img src= images/blank.png width =""600"" height = ""600"" style=""position:fixed;top:50%; left:50%; transform: translate(-50%, -50%); border:5px solid black"">",NA,NA,NA,NA,NA,NA,NA,NA
NA,2002.5949999690056,sequential-stimulus-presentation-old,105,276137,0.0-27.0-1.0,SS1619113907158,trial,NA,40,500,2502.5949999690056,images/stimuli/spore_stims/complex_05_A_a.gif,images/stimuli/spore_stims/complex_09_A_b.gif,self_paced,NA,9,complex_dissimilar,images/stimuli/spore_stims/complex_09_A_b.gif,NA,NA,NA,NA,NA
NA,null,html-keyboard-response,106,277081,0.0-27.0-0.1,SS1619113907158,NA,NA,null,NA,NA,NA,NA,NA,"<p><img src= images/blank.png width =""600"" height = ""600"" style=""position:fixed;top:50%; left:50%; transform: translate(-50%, -50%); border:5px solid black"">",NA,NA,NA,NA,NA,NA,NA,NA
NA,843.0550000048243,sequential-stimulus-presentation-old,107,278428,0.0-27.0-1.1,SS1619113907158,trial,NA,40,500,1343.0550000048243,images/stimuli/spore_stims/complex_05_A_a.gif,images/stimuli/spore_stims/complex_09_A_b.gif,self_paced,NA,9,complex_dissimilar,images/stimuli/spore_stims/complex_09_A_b.gif,NA,NA,NA,NA,NA
NA,null,html-keyboard-response,108,279392,0.0-27.0-0.2,SS1619113907158,NA,NA,null,NA,NA,NA,NA,NA,"<p><img src= images/blank.png width =""600"" height = ""600"" style=""position:fixed;top:50%; left:50%; transform: translate(-50%, -50%); border:5px solid black"">",NA,NA,NA,NA,NA,NA,NA,NA
NA,798.6649999511428,sequential-stimulus-presentation-old,109,280695,0.0-27.0-1.2,SS1619113907158,trial,NA,40,500,1298.6649999511428,images/stimuli/spore_stims/complex_05_A_a.gif,images/stimuli/spore_stims/complex_09_A_b.gif,self_paced,NA,9,complex_dissimilar,images/stimuli/spore_stims/complex_09_A_b.gif,NA,NA,NA,NA,NA
NA,null,html-keyboard-response,110,281639,0.0-27.0-0.3,SS1619113907158,NA,NA,null,NA,NA,NA,NA,NA,"<p><img src= images/blank.png width =""600"" height = ""600"" style=""position:fixed;top:50%; left:50%; transform: translate(-50%, -50%); border:5px solid black"">",NA,NA,NA,NA,NA,NA,NA,NA
NA,1983.2300000125542,sequential-stimulus-presentation-old,111,284127,0.0-27.0-1.3,SS1619113907158,trial,NA,40,500,2483.2300000125542,images/stimuli/spore_stims/complex_05_A_a.gif,images/stimuli/spore_stims/complex_09_A_b.gif,self_paced,NA,9,complex_dissimilar,images/stimuli/spore_stims/complex_09_A_b.gif,NA,NA,NA,NA,NA
NA,4482.865000027232,survey-multi-choice,112,288613,0.0-28.0,SS1619113907158,math_question,NA,NA,NA,NA,NA,NA,NA,NA,NA,NA,NA,"{""Q0"":""16""}",[0],16,NA,NA
NA,null,html-keyboard-response,113,289661,0.0-29.0-0.0,SS1619113907158,NA,NA,null,NA,NA,NA,NA,NA,"<p><img src= images/blank.png width =""600"" height = ""600"" style=""position:fixed;top:50%; left:50%; transform: translate(-50%, -50%); border:5px solid black"">",NA,NA,NA,NA,NA,NA,NA,NA
NA,972.8799999575131,sequential-stimulus-presentation-old,114,290740,0.0-29.0-1.0,SS1619113907158,trial,NA,40,500,1472.879999957513,images/stimuli/spore_stims/complex_08_A_b.gif,images/stimuli/spore_stims/complex_03_A_a.gif,forced_short,NA,10,complex_dissimilar,images/stimuli/spore_stims/complex_03_A_a.gif,NA,NA,NA,NA,NA
NA,null,html-keyboard-response,115,291580,0.0-29.0-0.1,SS1619113907158,NA,NA,null,NA,NA,NA,NA,NA,"<p><img src= images/blank.png width =""600"" height = ""600"" style=""position:fixed;top:50%; left:50%; transform: translate(-50%, -50%); border:5px solid black"">",NA,NA,NA,NA,NA,NA,NA,NA
NA,271.40999998664483,sequential-stimulus-presentation-old,116,292356,0.0-29.0-1.1,SS1619113907158,trial,NA,40,500,771.4099999866448,images/stimuli/spore_stims/complex_08_A_b.gif,images/stimuli/spore_stims/complex_03_A_a.gif,forced_short,NA,10,complex_dissimilar,images/stimuli/spore_stims/complex_03_A_a.gif,NA,NA,NA,NA,NA
NA,null,html-keyboard-response,117,293476,0.0-29.0-0.2,SS1619113907158,NA,NA,null,NA,NA,NA,NA,NA,"<p><img src= images/blank.png width =""600"" height = ""600"" style=""position:fixed;top:50%; left:50%; transform: translate(-50%, -50%); border:5px solid black"">",NA,NA,NA,NA,NA,NA,NA,NA
NA,146.78000001003966,sequential-stimulus-presentation-old,118,294128,0.0-29.0-1.2,SS1619113907158,trial,NA,40,500,646.7800000100397,images/stimuli/spore_stims/complex_08_A_b.gif,images/stimuli/spore_stims/complex_03_A_a.gif,forced_short,NA,10,complex_dissimilar,images/stimuli/spore_stims/complex_08_A_b.gif,NA,NA,NA,NA,NA
NA,null,html-keyboard-response,119,295019,0.0-29.0-0.3,SS1619113907158,NA,NA,null,NA,NA,NA,NA,NA,"<p><img src= images/blank.png width =""600"" height = ""600"" style=""position:fixed;top:50%; left:50%; transform: translate(-50%, -50%); border:5px solid black"">",NA,NA,NA,NA,NA,NA,NA,NA
NA,82.05999998608604,sequential-stimulus-presentation-old,120,295606,0.0-29.0-1.3,SS1619113907158,trial,NA,40,500,582.059999986086,images/stimuli/spore_stims/complex_08_A_b.gif,images/stimuli/spore_stims/complex_03_A_a.gif,forced_short,NA,10,complex_dissimilar,images/stimuli/spore_stims/complex_03_A_a.gif,NA,NA,NA,NA,NA
NA,null,html-keyboard-response,121,296892,0.0-29.0-0.4,SS1619113907158,NA,NA,null,NA,NA,NA,NA,NA,"<p><img src= images/blank.png width =""600"" height = ""600"" style=""position:fixed;top:50%; left:50%; transform: translate(-50%, -50%); border:5px solid black"">",NA,NA,NA,NA,NA,NA,NA,NA
NA,316.4200000464916,sequential-stimulus-presentation-old,122,297712,0.0-29.0-1.4,SS1619113907158,trial,NA,40,500,816.4200000464916,images/stimuli/spore_stims/complex_08_A_b.gif,images/stimuli/spore_stims/complex_03_A_a.gif,forced_short,NA,10,complex_dissimilar,images/stimuli/spore_stims/complex_08_A_b.gif,NA,NA,NA,NA,NA
NA,4011.4900000044145,survey-multi-choice,123,301728,0.0-30.0,SS1619113907158,math_question,NA,NA,NA,NA,NA,NA,NA,NA,NA,NA,NA,"{""Q0"":""10""}",[0],10,NA,NA
NA,null,html-keyboard-response,124,302850,0.0-31.0-0.0,SS1619113907158,NA,NA,null,NA,NA,NA,NA,NA,"<p><img src= images/blank.png width =""600"" height = ""600"" style=""position:fixed;top:50%; left:50%; transform: translate(-50%, -50%); border:5px solid black"">",NA,NA,NA,NA,NA,NA,NA,NA
NA,2750.285000016447,sequential-stimulus-presentation-old,125,305706,0.0-31.0-1.0,SS1619113907158,trial,NA,40,500,3250.285000016447,images/stimuli/spore_stims/complex_07_A_a.gif,images/stimuli/spore_stims/complex_16_A_b.gif,forced_short,NA,11,complex_dissimilar,images/stimuli/spore_stims/complex_16_A_b.gif,NA,NA,NA,NA,NA
NA,null,html-keyboard-response,126,306866,0.0-31.0-0.1,SS1619113907158,NA,NA,null,NA,NA,NA,NA,NA,"<p><img src= images/blank.png width =""600"" height = ""600"" style=""position:fixed;top:50%; left:50%; transform: translate(-50%, -50%); border:5px solid black"">",NA,NA,NA,NA,NA,NA,NA,NA
NA,1085.2200000081211,sequential-stimulus-presentation-old,127,308455,0.0-31.0-1.1,SS1619113907158,trial,NA,40,500,1585.2200000081211,images/stimuli/spore_stims/complex_07_A_a.gif,images/stimuli/spore_stims/complex_16_A_b.gif,forced_short,NA,11,complex_dissimilar,images/stimuli/spore_stims/complex_16_A_b.gif,NA,NA,NA,NA,NA
NA,null,html-keyboard-response,128,309639,0.0-31.0-0.2,SS1619113907158,NA,NA,null,NA,NA,NA,NA,NA,"<p><img src= images/blank.png width =""600"" height = ""600"" style=""position:fixed;top:50%; left:50%; transform: translate(-50%, -50%); border:5px solid black"">",NA,NA,NA,NA,NA,NA,NA,NA
NA,139.89499997114763,sequential-stimulus-presentation-old,129,310284,0.0-31.0-1.2,SS1619113907158,trial,NA,40,500,639.8949999711476,images/stimuli/spore_stims/complex_07_A_a.gif,images/stimuli/spore_stims/complex_16_A_b.gif,forced_short,NA,11,complex_dissimilar,images/stimuli/spore_stims/complex_16_A_b.gif,NA,NA,NA,NA,NA
NA,null,html-keyboard-response,130,311243,0.0-31.0-0.3,SS1619113907158,NA,NA,null,NA,NA,NA,NA,NA,"<p><img src= images/blank.png width =""600"" height = ""600"" style=""position:fixed;top:50%; left:50%; transform: translate(-50%, -50%); border:5px solid black"">",NA,NA,NA,NA,NA,NA,NA,NA
NA,276.01999999023974,sequential-stimulus-presentation-old,131,312024,0.0-31.0-1.3,SS1619113907158,trial,NA,40,500,776.0199999902397,images/stimuli/spore_stims/complex_07_A_a.gif,images/stimuli/spore_stims/complex_16_A_b.gif,forced_short,NA,11,complex_dissimilar,images/stimuli/spore_stims/complex_07_A_a.gif,NA,NA,NA,NA,NA
NA,null,html-keyboard-response,132,312876,0.0-31.0-0.4,SS1619113907158,NA,NA,null,NA,NA,NA,NA,NA,"<p><img src= images/blank.png width =""600"" height = ""600"" style=""position:fixed;top:50%; left:50%; transform: translate(-50%, -50%); border:5px solid black"">",NA,NA,NA,NA,NA,NA,NA,NA
NA,379.7649999614805,sequential-stimulus-presentation-old,133,313760,0.0-31.0-1.4,SS1619113907158,trial,NA,40,500,879.7649999614805,images/stimuli/spore_stims/complex_07_A_a.gif,images/stimuli/spore_stims/complex_16_A_b.gif,forced_short,NA,11,complex_dissimilar,images/stimuli/spore_stims/complex_16_A_b.gif,NA,NA,NA,NA,NA
NA,null,html-keyboard-response,134,314779,0.0-31.0-0.5,SS1619113907158,NA,NA,null,NA,NA,NA,NA,NA,"<p><img src= images/blank.png width =""600"" height = ""600"" style=""position:fixed;top:50%; left:50%; transform: translate(-50%, -50%); border:5px solid black"">",NA,NA,NA,NA,NA,NA,NA,NA
NA,1115.0150000466965,sequential-stimulus-presentation-old,135,316399,0.0-31.0-1.5,SS1619113907158,trial,NA,40,500,1615.0150000466965,images/stimuli/spore_stims/complex_07_A_a.gif,images/stimuli/spore_stims/complex_16_A_b.gif,forced_short,NA,11,complex_dissimilar,images/stimuli/spore_stims/complex_07_A_a.gif,NA,NA,NA,NA,NA
"[{""page_index"":0,""viewing_time"":3186.2749999854714}]",3186.6099999751896,instructions,136,319589,0.0-32.0,SS1619113907158,instructions,NA,NA,NA,NA,NA,NA,NA,NA,NA,NA,NA,NA,NA,NA,NA,NA
NA,9301.719999988563,survey-likert,137,328896,0.0-33.0,SS1619113907158,similarity_question,NA,NA,NA,NA,NA,NA,NA,NA,NA,NA,NA,"{""Q0"":2}",[0],NA,images/stimuli/spore_stims/simple_11_A_b.gif,images/stimuli/spore_stims/simple_18_A_a.gif
NA,4265.305000008084,survey-likert,138,333166,0.0-34.0,SS1619113907158,similarity_question,NA,NA,NA,NA,NA,NA,NA,NA,NA,NA,NA,"{""Q0"":5}",[0],NA,images/stimuli/spore_stims/simple_01_A_a.gif,images/stimuli/spore_stims/simple_02_A_b.gif
NA,2778.0499999644235,survey-likert,139,335949,0.0-35.0,SS1619113907158,similarity_question,NA,NA,NA,NA,NA,NA,NA,NA,NA,NA,NA,"{""Q0"":4}",[0],NA,images/stimuli/spore_stims/simple_05_A_b.gif,images/stimuli/spore_stims/simple_12_A_a.gif
NA,3397.209999966435,survey-likert,140,339352,0.0-36.0,SS1619113907158,similarity_question,NA,NA,NA,NA,NA,NA,NA,NA,NA,NA,NA,"{""Q0"":3}",[0],NA,images/stimuli/spore_stims/complex_17_A_a.gif,images/stimuli/spore_stims/complex_18_A_b.gif
NA,2922.6849999977276,survey-likert,141,342279,0.0-37.0,SS1619113907158,similarity_question,NA,NA,NA,NA,NA,NA,NA,NA,NA,NA,NA,"{""Q0"":4}",[0],NA,images/stimuli/spore_stims/complex_07_A_a.gif,images/stimuli/spore_stims/complex_16_A_b.gif
NA,3164.7599999560043,survey-likert,142,345449,0.0-38.0,SS1619113907158,similarity_question,NA,NA,NA,NA,NA,NA,NA,NA,NA,NA,NA,"{""Q0"":5}",[0],NA,images/stimuli/spore_stims/simple_16_A_b.gif,images/stimuli/spore_stims/simple_15_A_a.gif
NA,4272.0899999840185,survey-likert,143,349726,0.0-39.0,SS1619113907158,similarity_question,NA,NA,NA,NA,NA,NA,NA,NA,NA,NA,NA,"{""Q0"":1}",[0],NA,images/stimuli/spore_stims/simple_13_A_b.gif,images/stimuli/spore_stims/simple_03_A_a.gif
NA,5170.054999995045,survey-likert,144,354899,0.0-40.0,SS1619113907158,similarity_question,NA,NA,NA,NA,NA,NA,NA,NA,NA,NA,NA,"{""Q0"":4}",[0],NA,images/stimuli/spore_stims/complex_05_A_a.gif,images/stimuli/spore_stims/complex_09_A_b.gif
NA,2991.1149999825284,survey-likert,145,357895,0.0-41.0,SS1619113907158,similarity_question,NA,NA,NA,NA,NA,NA,NA,NA,NA,NA,NA,"{""Q0"":2}",[0],NA,images/stimuli/spore_stims/complex_12_A_b.gif,images/stimuli/spore_stims/complex_01_A_a.gif
NA,4740.579999983311,survey-likert,146,362639,0.0-42.0,SS1619113907158,similarity_question,NA,NA,NA,NA,NA,NA,NA,NA,NA,NA,NA,"{""Q0"":4}",[0],NA,images/stimuli/spore_stims/complex_08_A_b.gif,images/stimuli/spore_stims/complex_03_A_a.gif
NA,4195.2649999875575,survey-likert,147,366840,0.0-43.0,SS1619113907158,similarity_question,NA,NA,NA,NA,NA,NA,NA,NA,NA,NA,NA,"{""Q0"":4}",[0],NA,images/stimuli/spore_stims/complex_19_A_a.gif,images/stimuli/spore_stims/complex_07_A_b.gif
NA,3645.925000018906,survey-likert,148,370491,0.0-44.0,SS1619113907158,similarity_question,NA,NA,NA,NA,NA,NA,NA,NA,NA,NA,NA,"{""Q0"":2}",[0],NA,images/stimuli/spore_stims/simple_14_A_b.gif,images/stimuli/spore_stims/simple_07_A_a.gif
"[{""page_index"":0,""viewing_time"":3819.149999995716}]",3819.5200000191107,instructions,149,374313,0.0-45.0,SS1619113907158,instructions,NA,NA,NA,NA,NA,NA,NA,NA,NA,NA,NA,NA,NA,NA,NA,NA
NA,4933.130000019446,survey-likert,150,379250,0.0-46.0,SS1619113907158,NA,NA,NA,NA,NA,NA,NA,NA,images/stimuli/spore_stims/complex_09_A_b.gif,NA,NA,NA,"{""Q0"":6}",[0],NA,NA,NA
NA,3766.120000043884,survey-likert,151,383022,0.0-47.0,SS1619113907158,NA,NA,NA,NA,NA,NA,NA,NA,images/stimuli/spore_stims/complex_07_A_a.gif,NA,NA,NA,"{""Q0"":5}",[0],NA,NA,NA
NA,2670.8050000015646,survey-likert,152,385699,0.0-48.0,SS1619113907158,NA,NA,NA,NA,NA,NA,NA,NA,images/stimuli/spore_stims/complex_12_A_b.gif,NA,NA,NA,"{""Q0"":5}",[0],NA,NA,NA
NA,4316.035000025295,survey-likert,153,390020,0.0-49.0,SS1619113907158,NA,NA,NA,NA,NA,NA,NA,NA,images/stimuli/spore_stims/simple_03_A_a.gif,NA,NA,NA,"{""Q0"":2}",[0],NA,NA,NA
NA,3014.8749999934807,survey-likert,154,393040,0.0-50.0,SS1619113907158,NA,NA,NA,NA,NA,NA,NA,NA,images/stimuli/spore_stims/complex_07_A_b.gif,NA,NA,NA,"{""Q0"":5}",[0],NA,NA,NA
NA,3080.885000003036,survey-likert,155,396126,0.0-51.0,SS1619113907158,NA,NA,NA,NA,NA,NA,NA,NA,images/stimuli/spore_stims/simple_07_A_a.gif,NA,NA,NA,"{""Q0"":1}",[0],NA,NA,NA
NA,2903.279999969527,survey-likert,156,399034,0.0-52.0,SS1619113907158,NA,NA,NA,NA,NA,NA,NA,NA,images/stimuli/spore_stims/complex_17_A_a.gif,NA,NA,NA,"{""Q0"":4}",[0],NA,NA,NA
NA,4871.759999950882,survey-likert,157,403911,0.0-53.0,SS1619113907158,NA,NA,NA,NA,NA,NA,NA,NA,images/stimuli/spore_stims/simple_18_A_a.gif,NA,NA,NA,"{""Q0"":2}",[0],NA,NA,NA
NA,5100.140000053216,survey-likert,158,409017,0.0-54.0,SS1619113907158,NA,NA,NA,NA,NA,NA,NA,NA,images/stimuli/spore_stims/complex_08_A_b.gif,NA,NA,NA,"{""Q0"":6}",[0],NA,NA,NA
NA,2495.3099999693222,survey-likert,159,411517,0.0-55.0,SS1619113907158,NA,NA,NA,NA,NA,NA,NA,NA,images/stimuli/spore_stims/simple_15_A_a.gif,NA,NA,NA,"{""Q0"":3}",[0],NA,NA,NA
NA,6264.810000022408,survey-likert,160,417788,0.0-56.0,SS1619113907158,NA,NA,NA,NA,NA,NA,NA,NA,images/stimuli/spore_stims/simple_02_A_b.gif,NA,NA,NA,"{""Q0"":2}",[0],NA,NA,NA
NA,2721.354999986943,survey-likert,161,420514,0.0-57.0,SS1619113907158,NA,NA,NA,NA,NA,NA,NA,NA,images/stimuli/spore_stims/simple_12_A_a.gif,NA,NA,NA,"{""Q0"":4}",[0],NA,NA,NA
"[{""page_index"":0,""viewing_time"":1481.3500000163913}]",1481.7049999837764,instructions,162,421999,0.0-58.0,SS1619113907158,instructions,NA,NA,NA,NA,NA,NA,NA,NA,NA,NA,NA,NA,NA,NA,NA,NA
NA,3573.6350000370294,demog-age,163,425578,0.0-59.0,SS1619113907158,NA,NA,NA,NA,NA,NA,NA,NA,NA,NA,NA,NA,"{""age"":""27""}",NA,NA,NA,NA
NA,3360.1900000358,demog-ethnic-US,164,428948,0.0-60.0,SS1619113907158,NA,NA,NA,NA,NA,NA,NA,NA,NA,NA,NA,NA,"{""ethnicity"":[""White""]}",[0],NA,NA,NA
NA,6035.009999992326,demog-gender-and-education,165,434989,0.0-61.0,SS1619113907158,NA,NA,NA,NA,NA,NA,NA,NA,NA,NA,NA,NA,"{""gender"":""Female"",""education"":""Associate Degree/Technical certification""}","[0,1]",NA,NA,NA
NA,7072.200000053272,survey-text,166,442068,0.0-62.0,SS1619113907158,feedback,NA,NA,NA,NA,NA,NA,NA,NA,NA,NA,NA,"{""Q0"":""none""}",NA,NA,NA,NA
"[{""page_index"":0,""viewing_time"":1505.9049999690615}]",1506.2250000191852,instructions,167,443579,0.0-63.0,SS1619113907158,instructions,NA,NA,NA,NA,NA,NA,NA,NA,NA,NA,NA,NA,NA,NA,NA,NA
"[{""page_index"":0,""viewing_time"":3261.5099996328354}]",3262.4899987131357,instructions,0,3265,0.0-0.0,SS1619113915776,NA,NA,NA,NA,NA,NA,NA,NA,NA,NA,NA,NA,NA,NA,NA,NA,NA
"[{""page_index"":0,""viewing_time"":2166.330000385642},{""page_index"":1,""viewing_time"":5669.6799993515015}]",7836.479999125004,instructions,1,13104,0.0-1.0,SS1619113915776,instructions,NA,NA,NA,NA,NA,NA,NA,NA,NA,NA,NA,NA,NA,NA,NA,NA
NA,7750.855000689626,sequential-stimulus-presentation-old,2,21362,0.0-2.0,SS1619113915776,NA,NA,40,500,8250.855000689626,null,null,self_paced,NA,NA,NA,NA,NA,NA,NA,NA,NA
NA,5637.925000861287,sequential-stimulus-presentation-old,3,27504,0.0-3.0,SS1619113915776,NA,NA,40,500,6137.925000861287,null,null,self_paced,NA,NA,NA,NA,NA,NA,NA,NA,NA
"[{""page_index"":0,""viewing_time"":3788.509998470545}]",3789.009999483824,instructions,4,31295,0.0-4.0,SS1619113915776,instructions,NA,NA,NA,NA,NA,NA,NA,NA,NA,NA,NA,NA,NA,NA,NA,NA
NA,183.01500007510185,sequential-stimulus-presentation-old,5,41481,0.0-5.0,SS1619113915776,NA,NA,40,500,683.0150000751019,null,null,forced_long,NA,NA,NA,NA,NA,NA,NA,NA,NA
NA,236.64999939501286,sequential-stimulus-presentation-old,6,41823,0.0-6.0,SS1619113915776,NA,NA,40,500,736.6499993950129,null,null,forced_long,NA,NA,NA,NA,NA,NA,NA,NA,NA
"[{""page_index"":0,""viewing_time"":2668.6599999666214}]",2669.0849997103214,instructions,7,44494,0.0-7.0,SS1619113915776,instructions,NA,NA,NA,NA,NA,NA,NA,NA,NA,NA,NA,NA,NA,NA,NA,NA
"[{""page_index"":0,""viewing_time"":1209.6100002527237},{""page_index"":1,""viewing_time"":2588.424999266863},{""page_index"":2,""viewing_time"":1432.1400001645088},{""page_index"":3,""viewing_time"":1988.8550005853176},{""page_index"":4,""viewing_time"":1791.1399994045496}]",9010.545000433922,instructions,8,53506,0.0-8.0,SS1619113915776,instructions,NA,NA,NA,NA,NA,NA,NA,NA,NA,NA,NA,NA,NA,NA,NA,NA
NA,null,html-keyboard-response,9,54392,0.0-9.0-0.0,SS1619113915776,NA,NA,null,NA,NA,NA,NA,NA,"<p><img src= images/blank.png width =""600"" height = ""600"" style=""position:fixed;top:50%; left:50%; transform: translate(-50%, -50%); border:5px solid black"">",NA,NA,NA,NA,NA,NA,NA,NA
NA,8608.06000046432,sequential-stimulus-presentation-old,10,63107,0.0-9.0-1.0,SS1619113915776,trial,NA,40,500,9108.06000046432,images/stimuli/spore_stims/complex_05_A_b.gif,images/stimuli/spore_stims/complex_07_A_a.gif,forced_short,NA,0,complex_dissimilar,images/stimuli/spore_stims/complex_07_A_a.gif,NA,NA,NA,NA,NA
NA,null,html-keyboard-response,11,64215,0.0-9.0-0.1,SS1619113915776,NA,NA,null,NA,NA,NA,NA,NA,"<p><img src= images/blank.png width =""600"" height = ""600"" style=""position:fixed;top:50%; left:50%; transform: translate(-50%, -50%); border:5px solid black"">",NA,NA,NA,NA,NA,NA,NA,NA
NA,1143.3300003409386,sequential-stimulus-presentation-old,12,65864,0.0-9.0-1.1,SS1619113915776,trial,NA,40,500,1643.3300003409386,images/stimuli/spore_stims/complex_05_A_b.gif,images/stimuli/spore_stims/complex_07_A_a.gif,forced_short,NA,0,complex_dissimilar,images/stimuli/spore_stims/complex_05_A_b.gif,NA,NA,NA,NA,NA
NA,null,html-keyboard-response,13,66858,0.0-9.0-0.2,SS1619113915776,NA,NA,null,NA,NA,NA,NA,NA,"<p><img src= images/blank.png width =""600"" height = ""600"" style=""position:fixed;top:50%; left:50%; transform: translate(-50%, -50%); border:5px solid black"">",NA,NA,NA,NA,NA,NA,NA,NA
NA,826.2400012463331,sequential-stimulus-presentation-old,14,68190,0.0-9.0-1.2,SS1619113915776,trial,NA,40,500,1326.2400012463331,images/stimuli/spore_stims/complex_05_A_b.gif,images/stimuli/spore_stims/complex_07_A_a.gif,forced_short,NA,0,complex_dissimilar,images/stimuli/spore_stims/complex_07_A_a.gif,NA,NA,NA,NA,NA
NA,null,html-keyboard-response,15,69078,0.0-9.0-0.3,SS1619113915776,NA,NA,null,NA,NA,NA,NA,NA,"<p><img src= images/blank.png width =""600"" height = ""600"" style=""position:fixed;top:50%; left:50%; transform: translate(-50%, -50%); border:5px solid black"">",NA,NA,NA,NA,NA,NA,NA,NA
NA,868.2850003242493,sequential-stimulus-presentation-old,16,70453,0.0-9.0-1.3,SS1619113915776,trial,NA,40,500,1368.2850003242493,images/stimuli/spore_stims/complex_05_A_b.gif,images/stimuli/spore_stims/complex_07_A_a.gif,forced_short,NA,0,complex_dissimilar,images/stimuli/spore_stims/complex_07_A_a.gif,NA,NA,NA,NA,NA
NA,5719.295000657439,survey-multi-choice,17,76177,0.0-10.0,SS1619113915776,math_question,NA,NA,NA,NA,NA,NA,NA,NA,NA,NA,NA,"{""Q0"":""12""}",[0],12,NA,NA
NA,null,html-keyboard-response,18,77065,0.0-11.0-0.0,SS1619113915776,NA,NA,null,NA,NA,NA,NA,NA,"<p><img src= images/blank.png width =""600"" height = ""600"" style=""position:fixed;top:50%; left:50%; transform: translate(-50%, -50%); border:5px solid black"">",NA,NA,NA,NA,NA,NA,NA,NA
NA,2374.075001105666,sequential-stimulus-presentation-old,19,89445,0.0-11.0-1.0,SS1619113915776,trial,NA,40,500,2874.075001105666,images/stimuli/spore_stims/complex_12_A_a.gif,images/stimuli/spore_stims/complex_04_A_b.gif,forced_long,NA,1,complex_dissimilar,images/stimuli/spore_stims/complex_04_A_b.gif,NA,NA,NA,NA,NA
NA,null,html-keyboard-response,20,90348,0.0-11.0-0.1,SS1619113915776,NA,NA,null,NA,NA,NA,NA,NA,"<p><img src= images/blank.png width =""600"" height = ""600"" style=""position:fixed;top:50%; left:50%; transform: translate(-50%, -50%); border:5px solid black"">",NA,NA,NA,NA,NA,NA,NA,NA
NA,2186.1099991947412,sequential-stimulus-presentation-old,21,93049,0.0-11.0-1.1,SS1619113915776,trial,NA,40,500,2686.1099991947412,images/stimuli/spore_stims/complex_12_A_a.gif,images/stimuli/spore_stims/complex_04_A_b.gif,forced_long,NA,1,complex_dissimilar,images/stimuli/spore_stims/complex_04_A_b.gif,NA,NA,NA,NA,NA
NA,null,html-keyboard-response,22,93930,0.0-11.0-0.2,SS1619113915776,NA,NA,null,NA,NA,NA,NA,NA,"<p><img src= images/blank.png width =""600"" height = ""600"" style=""position:fixed;top:50%; left:50%; transform: translate(-50%, -50%); border:5px solid black"">",NA,NA,NA,NA,NA,NA,NA,NA
NA,1696.5349987149239,sequential-stimulus-presentation-old,23,96134,0.0-11.0-1.2,SS1619113915776,trial,NA,40,500,2196.534998714924,images/stimuli/spore_stims/complex_12_A_a.gif,images/stimuli/spore_stims/complex_04_A_b.gif,forced_long,NA,1,complex_dissimilar,images/stimuli/spore_stims/complex_04_A_b.gif,NA,NA,NA,NA,NA
NA,null,html-keyboard-response,24,97425,0.0-11.0-0.3,SS1619113915776,NA,NA,null,NA,NA,NA,NA,NA,"<p><img src= images/blank.png width =""600"" height = ""600"" style=""position:fixed;top:50%; left:50%; transform: translate(-50%, -50%); border:5px solid black"">",NA,NA,NA,NA,NA,NA,NA,NA
NA,1069.1500008106232,sequential-stimulus-presentation-old,25,98998,0.0-11.0-1.3,SS1619113915776,trial,NA,40,500,1569.1500008106232,images/stimuli/spore_stims/complex_12_A_a.gif,images/stimuli/spore_stims/complex_04_A_b.gif,forced_long,NA,1,complex_dissimilar,images/stimuli/spore_stims/complex_04_A_b.gif,NA,NA,NA,NA,NA
NA,null,html-keyboard-response,26,99892,0.0-11.0-0.4,SS1619113915776,NA,NA,null,NA,NA,NA,NA,NA,"<p><img src= images/blank.png width =""600"" height = ""600"" style=""position:fixed;top:50%; left:50%; transform: translate(-50%, -50%); border:5px solid black"">",NA,NA,NA,NA,NA,NA,NA,NA
NA,1091.7849987745285,sequential-stimulus-presentation-old,27,101491,0.0-11.0-1.4,SS1619113915776,trial,NA,40,500,1591.7849987745285,images/stimuli/spore_stims/complex_12_A_a.gif,images/stimuli/spore_stims/complex_04_A_b.gif,forced_long,NA,1,complex_dissimilar,images/stimuli/spore_stims/complex_04_A_b.gif,NA,NA,NA,NA,NA
NA,null,html-keyboard-response,28,102329,0.0-11.0-0.5,SS1619113915776,NA,NA,null,NA,NA,NA,NA,NA,"<p><img src= images/blank.png width =""600"" height = ""600"" style=""position:fixed;top:50%; left:50%; transform: translate(-50%, -50%); border:5px solid black"">",NA,NA,NA,NA,NA,NA,NA,NA
NA,2725.58500058949,sequential-stimulus-presentation-old,29,105561,0.0-11.0-1.5,SS1619113915776,trial,NA,40,500,3225.58500058949,images/stimuli/spore_stims/complex_12_A_a.gif,images/stimuli/spore_stims/complex_04_A_b.gif,forced_long,NA,1,complex_dissimilar,images/stimuli/spore_stims/complex_12_A_a.gif,NA,NA,NA,NA,NA
NA,8199.069999158382,survey-multi-choice,30,113764,0.0-12.0,SS1619113915776,math_question,NA,NA,NA,NA,NA,NA,NA,NA,NA,NA,NA,"{""Q0"":""8""}",[0],8,NA,NA
NA,null,html-keyboard-response,31,114948,0.0-13.0-0.0,SS1619113915776,NA,NA,null,NA,NA,NA,NA,NA,"<p><img src= images/blank.png width =""600"" height = ""600"" style=""position:fixed;top:50%; left:50%; transform: translate(-50%, -50%); border:5px solid black"">",NA,NA,NA,NA,NA,NA,NA,NA
