"view_history","rt","trial_type","trial_index","time_elapsed","internal_node_id","subject","stimulus_type","trial_stimulus","key_press","minimum_viewing_duration","trial_looking_time","stimulus","wall_pref","location","location_percent","block_number","block_type","stimulus_displayed","position_displayed","stim_type_selected","responses","question_order","stimulus_left","stimulus_right"
"[{""page_index"":0,""viewing_time"":7098.160000000011}]","7099.990000000165","instructions","0","7105","0.0-0.0","SS1612925923226","","","","","","","","","","","","","","","","","",""
"[{""page_index"":0,""viewing_time"":7935.809999999947},{""page_index"":1,""viewing_time"":10855.52499999995}]","18791.839999999873","instructions","1","27902","0.0-1.0","SS1612925923226","instructions","","","","","","","","","","","","","","","","",""
"","11787.495000000039","sequential-stimulus-presentation","2","40501","0.0-2.0","SS1612925923226","","","40","800","12587.495000000039","","","","","","","","","","","","",""
"","5958.439999999886","sequential-stimulus-presentation","3","47266","0.0-3.0","SS1612925923226","","","40","800","6758.439999999886","","","","","","","","","","","","",""
"[{""page_index"":0,""viewing_time"":6504.689999999973}]","6505.194999999949","instructions","4","53773","0.0-4.0","SS1612925923226","instructions","","","","","","","","","","","","","","","","",""
"","16934.2999999999","html-keyboard-response","5","70715","0.0-5.0","SS1612925923226","instructions","","51","","","<video width ='960' height = '540' autoplay muted><source src='images/stimuli/wall_pref.mp4' type='video/mp4'></video>","3","right","66%","","","","","","","","",""
"","3733.874999999898","sequential-stimulus-presentation","6","75259","0.0-6.0","SS1612925923226","pref_reveal","","40","800","4533.874999999898","","","","","","","","","","","","",""
"[{""page_index"":0,""viewing_time"":7681.375000000116},{""page_index"":1,""viewing_time"":6830.199999999866},{""page_index"":2,""viewing_time"":3415.8750000001455},{""page_index"":3,""viewing_time"":1399.9249999999302}]","19327.885000000126","instructions","7","94589","0.0-7.0","SS1612925923226","instructions","","","","","","","","","","","","","","","","",""
"","null","html-keyboard-response","8","95623","0.0-8.0-0.0","SS1612925923226","","","null","","","<p><img src= images/blank.png width =""200"" height = ""200"" style = ""float:right""></p><p><img src=images/blank.png width =""800"" height = ""200""></p>","","","","","","","","","","","",""
"","2969.6650000000955","sequential-stimulus-presentation","9","99406","0.0-8.0-1.0","SS1612925923226","trial","","40","800","3769.6650000000955","","","","","0","complex_similar","images/stimuli/spore_stims/complex_15_A_b.gif","middle","","","","",""
"","null","html-keyboard-response","10","100340","0.0-8.0-0.1","SS1612925923226","","","null","","","<p><img src= images/blank.png width =""200"" height = ""200"" style = ""float:right""></p><p><img src=images/blank.png width =""800"" height = ""200""></p>","","","","","","","","","","","",""
"","5244.514999999868","sequential-stimulus-presentation","11","106393","0.0-8.0-1.1","SS1612925923226","trial","","40","800","6044.514999999868","","","","","0","complex_similar","images/stimuli/spore_stims/complex_15_A_b.gif","middle","","","","",""
"","null","html-keyboard-response","12","107219","0.0-8.0-0.2","SS1612925923226","","","null","","","<p><img src= images/blank.png width =""200"" height = ""200"" style = ""float:right""></p><p><img src=images/blank.png width =""800"" height = ""200""></p>","","","","","","","","","","","",""
"","779.7000000000407","sequential-stimulus-presentation","13","108809","0.0-8.0-1.2","SS1612925923226","trial","","40","800","1579.7000000000407","","","","","0","complex_similar","images/stimuli/spore_stims/complex_15_A_b.gif","middle","","","","",""
"","null","html-keyboard-response","14","109869","0.0-8.0-0.3","SS1612925923226","","","null","","","<p><img src= images/blank.png width =""200"" height = ""200"" style = ""float:right""></p><p><img src=images/blank.png width =""800"" height = ""200""></p>","","","","","","","","","","","",""
"","1306.224999999802","sequential-stimulus-presentation","15","112041","0.0-8.0-1.3","SS1612925923226","trial","","40","800","2106.224999999802","","","","","0","complex_similar","images/stimuli/spore_stims/complex_15_A_b.gif","middle","","","","",""
"","null","html-keyboard-response","16","113075","0.0-8.0-0.4","SS1612925923226","","","null","","","<p><img src= images/blank.png width =""200"" height = ""200"" style = ""float:right""></p><p><img src=images/blank.png width =""800"" height = ""200""></p>","","","","","","","","","","","",""
"","1492.0850000001083","sequential-stimulus-presentation","17","115377","0.0-8.0-1.4","SS1612925923226","trial","","40","800","2292.0850000001083","","","","","0","complex_similar","images/stimuli/spore_stims/complex_15_A_b.gif","middle","","","","",""
"","null","html-keyboard-response","18","116427","0.0-8.0-0.5","SS1612925923226","","","null","","","<p><img src= images/blank.png width =""200"" height = ""200"" style = ""float:right""></p><p><img src=images/blank.png width =""800"" height = ""200""></p>","","","","","","","","","","","",""
"","3063.9550000000745","sequential-stimulus-presentation","19","120305","0.0-8.0-1.5","SS1612925923226","trial","","40","800","3863.9550000000745","","","","","0","complex_similar","images/stimuli/spore_stims/complex_15_B_b.gif","left","","","","",""
"","null","html-keyboard-response","20","121289","0.0-8.0-0.6","SS1612925923226","","","null","","","<p><img src= images/blank.png width =""200"" height = ""200"" style = ""float:right""></p><p><img src=images/blank.png width =""800"" height = ""200""></p>","","","","","","","","","","","",""
"","1926.8650000001362","sequential-stimulus-presentation","21","124027","0.0-8.0-1.6","SS1612925923226","trial","","40","800","2726.865000000136","","","","","0","complex_similar","images/stimuli/spore_stims/complex_15_A_b.gif","middle","","","","",""
"","null","html-keyboard-response","22","124901","0.0-8.0-0.7","SS1612925923226","","","null","","","<p><img src= images/blank.png width =""200"" height = ""200"" style = ""float:right""></p><p><img src=images/blank.png width =""800"" height = ""200""></p>","","","","","","","","","","","",""
"","1079.1149999999907","sequential-stimulus-presentation","23","126790","0.0-8.0-1.7","SS1612925923226","trial","","40","800","1879.1149999999907","","","","","0","complex_similar","images/stimuli/spore_stims/complex_15_A_b.gif","middle","","","","",""
"","8369.864999999903","html-keyboard-response","24","135227","0.0-9.0","SS1612925923226","pref_question","","50","","","<video width ='960' height = '540' style='padding-top:8%' autoplay muted><source src='images/stimuli/wall_pref.mp4' type='video/mp4'></video>","2","middle","45%","0","","","","","","","",""
"","2814.5349999999744","sequential-stimulus-presentation","25","138850","0.0-10.0","SS1612925923226","pref_reveal","","40","800","3614.5349999999744","","","","","0","","","","background","","","",""
"","null","html-keyboard-response","26","139656","0.0-11.0-0.0","SS1612925923226","","","null","","","<p><img src= images/blank.png width =""200"" height = ""200"" style = ""float:right""></p><p><img src=images/blank.png width =""800"" height = ""200""></p>","","","","","","","","","","","",""
"","1721.2449999999662","sequential-stimulus-presentation","27","142186","0.0-11.0-1.0","SS1612925923226","trial","","40","800","2521.2449999999662","","","","","1","simple_similar","images/stimuli/spore_stims/simple_10_A_d.gif","left","","","","",""
"","null","html-keyboard-response","28","143437","0.0-11.0-0.1","SS1612925923226","","","null","","","<p><img src= images/blank.png width =""200"" height = ""200"" style = ""float:right""></p><p><img src=images/blank.png width =""800"" height = ""200""></p>","","","","","","","","","","","",""
"","1251.615000000107","sequential-stimulus-presentation","29","145499","0.0-11.0-1.1","SS1612925923226","trial","","40","800","2051.615000000107","","","","","1","simple_similar","images/stimuli/spore_stims/simple_10_A_d.gif","left","","","","",""
"","null","html-keyboard-response","30","146790","0.0-11.0-0.2","SS1612925923226","","","null","","","<p><img src= images/blank.png width =""200"" height = ""200"" style = ""float:right""></p><p><img src=images/blank.png width =""800"" height = ""200""></p>","","","","","","","","","","","",""
"","787.3549999999232","sequential-stimulus-presentation","31","148386","0.0-11.0-1.2","SS1612925923226","trial","","40","800","1587.3549999999232","","","","","1","simple_similar","images/stimuli/spore_stims/simple_10_A_d.gif","left","","","","",""
"","null","html-keyboard-response","32","149561","0.0-11.0-0.3","SS1612925923226","","","null","","","<p><img src= images/blank.png width =""200"" height = ""200"" style = ""float:right""></p><p><img src=images/blank.png width =""800"" height = ""200""></p>","","","","","","","","","","","",""
"","1163.0399999999208","sequential-stimulus-presentation","33","151538","0.0-11.0-1.3","SS1612925923226","trial","","40","800","1963.0399999999208","","","","","1","simple_similar","images/stimuli/spore_stims/simple_10_A_d.gif","left","","","","",""
"","null","html-keyboard-response","34","152520","0.0-11.0-0.4","SS1612925923226","","","null","","","<p><img src= images/blank.png width =""200"" height = ""200"" style = ""float:right""></p><p><img src=images/blank.png width =""800"" height = ""200""></p>","","","","","","","","","","","",""
"","953.4100000000617","sequential-stimulus-presentation","35","154282","0.0-11.0-1.4","SS1612925923226","trial","","40","800","1753.4100000000617","","","","","1","simple_similar","images/stimuli/spore_stims/simple_10_A_d.gif","left","","","","",""
"","null","html-keyboard-response","36","155215","0.0-11.0-0.5","SS1612925923226","","","null","","","<p><img src= images/blank.png width =""200"" height = ""200"" style = ""float:right""></p><p><img src=images/blank.png width =""800"" height = ""200""></p>","","","","","","","","","","","",""
"","1169.2800000000861","sequential-stimulus-presentation","37","157194","0.0-11.0-1.5","SS1612925923226","trial","","40","800","1969.2800000000861","","","","","1","simple_similar","images/stimuli/spore_stims/simple_10_A_d.gif","left","","","","",""
"","null","html-keyboard-response","38","158232","0.0-11.0-0.6","SS1612925923226","","","null","","","<p><img src= images/blank.png width =""200"" height = ""200"" style = ""float:right""></p><p><img src=images/blank.png width =""800"" height = ""200""></p>","","","","","","","","","","","",""
"","2026.3899999999849","sequential-stimulus-presentation","39","161066","0.0-11.0-1.6","SS1612925923226","trial","","40","800","2826.389999999985","","","","","1","simple_similar","images/stimuli/spore_stims/simple_10_B_d.gif","right","","","","",""
"","null","html-keyboard-response","40","161916","0.0-11.0-0.7","SS1612925923226","","","null","","","<p><img src= images/blank.png width =""200"" height = ""200"" style = ""float:right""></p><p><img src=images/blank.png width =""800"" height = ""200""></p>","","","","","","","","","","","",""
"","867.8199999999197","sequential-stimulus-presentation","41","163593","0.0-11.0-1.7","SS1612925923226","trial","","40","800","1667.8199999999197","","","","","1","simple_similar","images/stimuli/spore_stims/simple_10_A_d.gif","left","","","","",""
"","1417.8249999999825","html-keyboard-response","42","165017","0.0-12.0","SS1612925923226","pref_question","","49","","","<video width ='960' height = '540' style='padding-top:8%' autoplay muted><source src='images/stimuli/wall_pref.mp4' type='video/mp4'></video>","1","left","25%","1","","","","","","","",""
"","990.5999999998603","sequential-stimulus-presentation","43","166817","0.0-13.0","SS1612925923226","pref_reveal","","40","800","1790.5999999998603","","","","","1","","","","background","","","",""
"","null","html-keyboard-response","44","167769","0.0-14.0-0.0","SS1612925923226","","","null","","","<p><img src= images/blank.png width =""200"" height = ""200"" style = ""float:right""></p><p><img src=images/blank.png width =""800"" height = ""200""></p>","","","","","","","","","","","",""
"","1318.420000000071","sequential-stimulus-presentation","45","169897","0.0-14.0-1.0","SS1612925923226","trial","","40","800","2118.420000000071","","","","","2","simple_dissimilar","images/stimuli/spore_stims/simple_08_A_c.gif","left","","","","",""
"","null","html-keyboard-response","46","171164","0.0-14.0-0.1","SS1612925923226","","","null","","","<p><img src= images/blank.png width =""200"" height = ""200"" style = ""float:right""></p><p><img src=images/blank.png width =""800"" height = ""200""></p>","","","","","","","","","","","",""
"","1035.2900000000373","sequential-stimulus-presentation","47","173009","0.0-14.0-1.1","SS1612925923226","trial","","40","800","1835.2900000000373","","","","","2","simple_dissimilar","images/stimuli/spore_stims/simple_08_A_c.gif","left","","","","",""
"","null","html-keyboard-response","48","174303","0.0-14.0-0.2","SS1612925923226","","","null","","","<p><img src= images/blank.png width =""200"" height = ""200"" style = ""float:right""></p><p><img src=images/blank.png width =""800"" height = ""200""></p>","","","","","","","","","","","",""
"","737.0699999998906","sequential-stimulus-presentation","49","175849","0.0-14.0-1.2","SS1612925923226","trial","","40","800","1537.0699999998906","","","","","2","simple_dissimilar","images/stimuli/spore_stims/simple_08_A_c.gif","left","","","","",""
"","null","html-keyboard-response","50","176818","0.0-14.0-0.3","SS1612925923226","","","null","","","<p><img src= images/blank.png width =""200"" height = ""200"" style = ""float:right""></p><p><img src=images/blank.png width =""800"" height = ""200""></p>","","","","","","","","","","","",""
"","1412.8949999999313","sequential-stimulus-presentation","51","179040","0.0-14.0-1.3","SS1612925923226","trial","","40","800","2212.8949999999313","","","","","2","simple_dissimilar","images/stimuli/spore_stims/simple_08_B_b.gif","middle","","","","",""
"","null","html-keyboard-response","52","179955","0.0-14.0-0.4","SS1612925923226","","","null","","","<p><img src= images/blank.png width =""200"" height = ""200"" style = ""float:right""></p><p><img src=images/blank.png width =""800"" height = ""200""></p>","","","","","","","","","","","",""
"","1480.6250000001164","sequential-stimulus-presentation","53","182273","0.0-14.0-1.4","SS1612925923226","trial","","40","800","2280.6250000001164","","","","","2","simple_dissimilar","images/stimuli/spore_stims/simple_08_A_c.gif","left","","","","",""
"","null","html-keyboard-response","54","183157","0.0-14.0-0.5","SS1612925923226","","","null","","","<p><img src= images/blank.png width =""200"" height = ""200"" style = ""float:right""></p><p><img src=images/blank.png width =""800"" height = ""200""></p>","","","","","","","","","","","",""
"","1399.2799999998533","sequential-stimulus-presentation","55","185370","0.0-14.0-1.5","SS1612925923226","trial","","40","800","2199.2799999998533","","","","","2","simple_dissimilar","images/stimuli/spore_stims/simple_08_A_c.gif","left","","","","",""
"","null","html-keyboard-response","56","186222","0.0-14.0-0.6","SS1612925923226","","","null","","","<p><img src= images/blank.png width =""200"" height = ""200"" style = ""float:right""></p><p><img src=images/blank.png width =""800"" height = ""200""></p>","","","","","","","","","","","",""
"","1643.175000000163","sequential-stimulus-presentation","57","188674","0.0-14.0-1.6","SS1612925923226","trial","","40","800","2443.175000000163","","","","","2","simple_dissimilar","images/stimuli/spore_stims/simple_08_A_c.gif","left","","","","",""
"","null","html-keyboard-response","58","189840","0.0-14.0-0.7","SS1612925923226","","","null","","","<p><img src= images/blank.png width =""200"" height = ""200"" style = ""float:right""></p><p><img src=images/blank.png width =""800"" height = ""200""></p>","","","","","","","","","","","",""
"","760.0949999998847","sequential-stimulus-presentation","59","191411","0.0-14.0-1.7","SS1612925923226","trial","","40","800","1560.0949999998847","","","","","2","simple_dissimilar","images/stimuli/spore_stims/simple_08_A_c.gif","left","","","","",""
"","1320.3599999999278","html-keyboard-response","60","192738","0.0-15.0","SS1612925923226","pref_question","","49","","","<video width ='960' height = '540' style='padding-top:8%' autoplay muted><source src='images/stimuli/wall_pref.mp4' type='video/mp4'></video>","1","left","25%","2","","","","","","","",""
"","1373.9800000000687","sequential-stimulus-presentation","61","194922","0.0-16.0","SS1612925923226","pref_reveal","","40","800","2173.9800000000687","","","","","2","","","","background","","","",""
"","null","html-keyboard-response","62","196214","0.0-17.0-0.0","SS1612925923226","","","null","","","<p><img src= images/blank.png width =""200"" height = ""200"" style = ""float:right""></p><p><img src=images/blank.png width =""800"" height = ""200""></p>","","","","","","","","","","","",""
"","1129.4849999999278","sequential-stimulus-presentation","63","198153","0.0-17.0-1.0","SS1612925923226","trial","","40","800","1929.4849999999278","","","","","3","complex_dissimilar","images/stimuli/spore_stims/complex_13_B_a.gif","left","","","","",""
"","null","html-keyboard-response","64","199343","0.0-17.0-0.1","SS1612925923226","","","null","","","<p><img src= images/blank.png width =""200"" height = ""200"" style = ""float:right""></p><p><img src=images/blank.png width =""800"" height = ""200""></p>","","","","","","","","","","","",""
"","872.5600000000268","sequential-stimulus-presentation","65","201025","0.0-17.0-1.1","SS1612925923226","trial","","40","800","1672.5600000000268","","","","","3","complex_dissimilar","images/stimuli/spore_stims/complex_13_B_a.gif","left","","","","",""
"","null","html-keyboard-response","66","202118","0.0-17.0-0.2","SS1612925923226","","","null","","","<p><img src= images/blank.png width =""200"" height = ""200"" style = ""float:right""></p><p><img src=images/blank.png width =""800"" height = ""200""></p>","","","","","","","","","","","",""
"","1153.8450000000594","sequential-stimulus-presentation","67","204082","0.0-17.0-1.2","SS1612925923226","trial","","40","800","1953.8450000000594","","","","","3","complex_dissimilar","images/stimuli/spore_stims/complex_06_B_b.gif","middle","","","","",""
"","null","html-keyboard-response","68","205140","0.0-17.0-0.3","SS1612925923226","","","null","","","<p><img src= images/blank.png width =""200"" height = ""200"" style = ""float:right""></p><p><img src=images/blank.png width =""800"" height = ""200""></p>","","","","","","","","","","","",""
"","1721.5699999999197","sequential-stimulus-presentation","69","207689","0.0-17.0-1.3","SS1612925923226","trial","","40","800","2521.5699999999197","","","","","3","complex_dissimilar","images/stimuli/spore_stims/complex_13_B_a.gif","left","","","","",""
"","null","html-keyboard-response","70","208596","0.0-17.0-0.4","SS1612925923226","","","null","","","<p><img src= images/blank.png width =""200"" height = ""200"" style = ""float:right""></p><p><img src=images/blank.png width =""800"" height = ""200""></p>","","","","","","","","","","","",""
"","1451.8499999999185","sequential-stimulus-presentation","71","210857","0.0-17.0-1.4","SS1612925923226","trial","","40","800","2251.8499999999185","","","","","3","complex_dissimilar","images/stimuli/spore_stims/complex_13_B_a.gif","left","","","","",""
"","null","html-keyboard-response","72","212149","0.0-17.0-0.5","SS1612925923226","","","null","","","<p><img src= images/blank.png width =""200"" height = ""200"" style = ""float:right""></p><p><img src=images/blank.png width =""800"" height = ""200""></p>","","","","","","","","","","","",""
"","1004.320000000007","sequential-stimulus-presentation","73","213969","0.0-17.0-1.5","SS1612925923226","trial","","40","800","1804.320000000007","","","","","3","complex_dissimilar","images/stimuli/spore_stims/complex_13_B_a.gif","left","","","","",""
"","null","html-keyboard-response","74","214866","0.0-17.0-0.6","SS1612925923226","","","null","","","<p><img src= images/blank.png width =""200"" height = ""200"" style = ""float:right""></p><p><img src=images/blank.png width =""800"" height = ""200""></p>","","","","","","","","","","","",""
"","1195.9750000000931","sequential-stimulus-presentation","75","216873","0.0-17.0-1.6","SS1612925923226","trial","","40","800","1995.9750000000931","","","","","3","complex_dissimilar","images/stimuli/spore_stims/complex_13_B_a.gif","left","","","","",""
"","null","html-keyboard-response","76","217724","0.0-17.0-0.7","SS1612925923226","","","null","","","<p><img src= images/blank.png width =""200"" height = ""200"" style = ""float:right""></p><p><img src=images/blank.png width =""800"" height = ""200""></p>","","","","","","","","","","","",""
"","828.2150000000256","sequential-stimulus-presentation","77","219361","0.0-17.0-1.7","SS1612925923226","trial","","40","800","1628.2150000000256","","","","","3","complex_dissimilar","images/stimuli/spore_stims/complex_13_B_a.gif","left","","","","",""
"","2150.3700000000536","html-keyboard-response","78","221521","0.0-18.0","SS1612925923226","pref_question","","49","","","<video width ='960' height = '540' style='padding-top:8%' autoplay muted><source src='images/stimuli/wall_pref.mp4' type='video/mp4'></video>","1","left","25%","3","","","","","","","",""
"","1078.9649999999092","sequential-stimulus-presentation","79","223408","0.0-19.0","SS1612925923226","pref_reveal","","40","800","1878.9649999999092","","","","","3","","","","background","","","",""
"","null","html-keyboard-response","80","224245","0.0-20.0-0.0","SS1612925923226","","","null","","","<p><img src= images/blank.png width =""200"" height = ""200"" style = ""float:right""></p><p><img src=images/blank.png width =""800"" height = ""200""></p>","","","","","","","","","","","",""
"","128.894999999844","sequential-stimulus-presentation","81","225184","0.0-20.0-1.0","SS1612925923226","trial","","40","800","928.894999999844","","","","","4","complex_dissimilar","images/stimuli/spore_stims/complex_20_B_a.gif","middle","","","","",""
"","null","html-keyboard-response","82","226198","0.0-20.0-0.1","SS1612925923226","","","null","","","<p><img src= images/blank.png width =""200"" height = ""200"" style = ""float:right""></p><p><img src=images/blank.png width =""800"" height = ""200""></p>","","","","","","","","","","","",""
"","897.554999999993","sequential-stimulus-presentation","83","227905","0.0-20.0-1.1","SS1612925923226","trial","","40","800","1697.554999999993","","","","","4","complex_dissimilar","images/stimuli/spore_stims/complex_20_B_a.gif","middle","","","","",""
"","null","html-keyboard-response","84","228848","0.0-20.0-0.2","SS1612925923226","","","null","","","<p><img src= images/blank.png width =""200"" height = ""200"" style = ""float:right""></p><p><img src=images/blank.png width =""800"" height = ""200""></p>","","","","","","","","","","","",""
"","300.59499999991385","sequential-stimulus-presentation","85","229992","0.0-20.0-1.2","SS1612925923226","trial","","40","800","1100.5949999999139","","","","","4","complex_dissimilar","images/stimuli/spore_stims/complex_20_B_a.gif","middle","","","","",""
"","null","html-keyboard-response","86","231138","0.0-20.0-0.3","SS1612925923226","","","null","","","<p><img src= images/blank.png width =""200"" height = ""200"" style = ""float:right""></p><p><img src=images/blank.png width =""800"" height = ""200""></p>","","","","","","","","","","","",""
"","498.28000000002794","sequential-stimulus-presentation","87","232448","0.0-20.0-1.3","SS1612925923226","trial","","40","800","1298.280000000028","","","","","4","complex_dissimilar","images/stimuli/spore_stims/complex_20_B_a.gif","middle","","","","",""
"","null","html-keyboard-response","88","233461","0.0-20.0-0.4","SS1612925923226","","","null","","","<p><img src= images/blank.png width =""200"" height = ""200"" style = ""float:right""></p><p><img src=images/blank.png width =""800"" height = ""200""></p>","","","","","","","","","","","",""
"","600.2950000002165","sequential-stimulus-presentation","89","234872","0.0-20.0-1.4","SS1612925923226","trial","","40","800","1400.2950000002165","","","","","4","complex_dissimilar","images/stimuli/spore_stims/complex_03_A_c.gif","left","","","","",""
"","null","html-keyboard-response","90","235801","0.0-20.0-0.5","SS1612925923226","","","null","","","<p><img src= images/blank.png width =""200"" height = ""200"" style = ""float:right""></p><p><img src=images/blank.png width =""800"" height = ""200""></p>","","","","","","","","","","","",""
"","156.8849999998929","sequential-stimulus-presentation","91","236769","0.0-20.0-1.5","SS1612925923226","trial","","40","800","956.8849999998929","","","","","4","complex_dissimilar","images/stimuli/spore_stims/complex_20_B_a.gif","middle","","","","",""
"","null","html-keyboard-response","92","237879","0.0-20.0-0.6","SS1612925923226","","","null","","","<p><img src= images/blank.png width =""200"" height = ""200"" style = ""float:right""></p><p><img src=images/blank.png width =""800"" height = ""200""></p>","","","","","","","","","","","",""
"","643.9599999998463","sequential-stimulus-presentation","93","239349","0.0-20.0-1.6","SS1612925923226","trial","","40","800","1443.9599999998463","","","","","4","complex_dissimilar","images/stimuli/spore_stims/complex_20_B_a.gif","middle","","","","",""
"","null","html-keyboard-response","94","240328","0.0-20.0-0.7","SS1612925923226","","","null","","","<p><img src= images/blank.png width =""200"" height = ""200"" style = ""float:right""></p><p><img src=images/blank.png width =""800"" height = ""200""></p>","","","","","","","","","","","",""
"","1038.9099999999744","sequential-stimulus-presentation","95","242179","0.0-20.0-1.7","SS1612925923226","trial","","40","800","1838.9099999999744","","","","","4","complex_dissimilar","images/stimuli/spore_stims/complex_20_B_a.gif","middle","","","","",""
"","914.7600000001257","html-keyboard-response","96","243104","0.0-21.0","SS1612925923226","pref_question","","50","","","<video width ='960' height = '540' style='padding-top:8%' autoplay muted><source src='images/stimuli/wall_pref.mp4' type='video/mp4'></video>","2","middle","45%","4","","","","","","","",""
"","2883.3049999998184","sequential-stimulus-presentation","97","246803","0.0-22.0","SS1612925923226","pref_reveal","","40","800","3683.3049999998184","","","","","4","","","","background","","","",""
"","null","html-keyboard-response","98","247677","0.0-23.0-0.0","SS1612925923226","","","null","","","<p><img src= images/blank.png width =""200"" height = ""200"" style = ""float:right""></p><p><img src=images/blank.png width =""800"" height = ""200""></p>","","","","","","","","","","","",""
"","1268.3250000000116","sequential-stimulus-presentation","99","249778","0.0-23.0-1.0","SS1612925923226","trial","","40","800","2068.3250000000116","","","","","5","simple_similar","images/stimuli/spore_stims/simple_07_B_d.gif","left","","","","",""
"","null","html-keyboard-response","100","250979","0.0-23.0-0.1","SS1612925923226","","","null","","","<p><img src= images/blank.png width =""200"" height = ""200"" style = ""float:right""></p><p><img src=images/blank.png width =""800"" height = ""200""></p>","","","","","","","","","","","",""
"","1752.7849999999162","sequential-stimulus-presentation","101","253546","0.0-23.0-1.1","SS1612925923226","trial","","40","800","2552.784999999916","","","","","5","simple_similar","images/stimuli/spore_stims/simple_07_B_d.gif","left","","","","",""
"","null","html-keyboard-response","102","254757","0.0-23.0-0.2","SS1612925923226","","","null","","","<p><img src= images/blank.png width =""200"" height = ""200"" style = ""float:right""></p><p><img src=images/blank.png width =""800"" height = ""200""></p>","","","","","","","","","","","",""
"","993.8700000000536","sequential-stimulus-presentation","103","256561","0.0-23.0-1.2","SS1612925923226","trial","","40","800","1793.8700000000536","","","","","5","simple_similar","images/stimuli/spore_stims/simple_07_B_d.gif","left","","","","",""
"","null","html-keyboard-response","104","257646","0.0-23.0-0.3","SS1612925923226","","","null","","","<p><img src= images/blank.png width =""200"" height = ""200"" style = ""float:right""></p><p><img src=images/blank.png width =""800"" height = ""200""></p>","","","","","","","","","","","",""
"","1118.7599999998347","sequential-stimulus-presentation","105","259578","0.0-23.0-1.3","SS1612925923226","trial","","40","800","1918.7599999998347","","","","","5","simple_similar","images/stimuli/spore_stims/simple_07_B_d.gif","left","","","","",""
"","null","html-keyboard-response","106","260400","0.0-23.0-0.4","SS1612925923226","","","null","","","<p><img src= images/blank.png width =""200"" height = ""200"" style = ""float:right""></p><p><img src=images/blank.png width =""800"" height = ""200""></p>","","","","","","","","","","","",""
"","1249.580000000191","sequential-stimulus-presentation","107","262459","0.0-23.0-1.4","SS1612925923226","trial","","40","800","2049.580000000191","","","","","5","simple_similar","images/stimuli/spore_stims/simple_07_A_d.gif","middle","","","","",""
"","null","html-keyboard-response","108","263292","0.0-23.0-0.5","SS1612925923226","","","null","","","<p><img src= images/blank.png width =""200"" height = ""200"" style = ""float:right""></p><p><img src=images/blank.png width =""800"" height = ""200""></p>","","","","","","","","","","","",""
"","1530.5150000001304","sequential-stimulus-presentation","109","265633","0.0-23.0-1.5","SS1612925923226","trial","","40","800","2330.5150000001304","","","","","5","simple_similar","images/stimuli/spore_stims/simple_07_B_d.gif","left","","","","",""
"","null","html-keyboard-response","110","266676","0.0-23.0-0.6","SS1612925923226","","","null","","","<p><img src= images/blank.png width =""200"" height = ""200"" style = ""float:right""></p><p><img src=images/blank.png width =""800"" height = ""200""></p>","","","","","","","","","","","",""
"","842.1550000002608","sequential-stimulus-presentation","111","268329","0.0-23.0-1.6","SS1612925923226","trial","","40","800","1642.1550000002608","","","","","5","simple_similar","images/stimuli/spore_stims/simple_07_B_d.gif","left","","","","",""
"","null","html-keyboard-response","112","269163","0.0-23.0-0.7","SS1612925923226","","","null","","","<p><img src= images/blank.png width =""200"" height = ""200"" style = ""float:right""></p><p><img src=images/blank.png width =""800"" height = ""200""></p>","","","","","","","","","","","",""
"","1251.0299999999115","sequential-stimulus-presentation","113","271225","0.0-23.0-1.7","SS1612925923226","trial","","40","800","2051.0299999999115","","","","","5","simple_similar","images/stimuli/spore_stims/simple_07_B_d.gif","left","","","","",""
"","887.4900000001071","html-keyboard-response","114","272121","0.0-24.0","SS1612925923226","pref_question","","49","","","<video width ='960' height = '540' style='padding-top:8%' autoplay muted><source src='images/stimuli/wall_pref.mp4' type='video/mp4'></video>","1","left","25%","5","","","","","","","",""
"","1061.384999999951","sequential-stimulus-presentation","115","274025","0.0-25.0","SS1612925923226","pref_reveal","","40","800","1861.384999999951","","","","","5","","","","background","","","",""
"","null","html-keyboard-response","116","275297","0.0-26.0-0.0","SS1612925923226","","","null","","","<p><img src= images/blank.png width =""200"" height = ""200"" style = ""float:right""></p><p><img src=images/blank.png width =""800"" height = ""200""></p>","","","","","","","","","","","",""
"","1145.7800000002608","sequential-stimulus-presentation","117","277256","0.0-26.0-1.0","SS1612925923226","trial","","40","800","1945.7800000002608","","","","","6","simple_dissimilar","images/stimuli/spore_stims/simple_20_A_a.gif","middle","","","","",""
"","null","html-keyboard-response","118","278184","0.0-26.0-0.1","SS1612925923226","","","null","","","<p><img src= images/blank.png width =""200"" height = ""200"" style = ""float:right""></p><p><img src=images/blank.png width =""800"" height = ""200""></p>","","","","","","","","","","","",""
"","597.3199999998906","sequential-stimulus-presentation","119","279593","0.0-26.0-1.1","SS1612925923226","trial","","40","800","1397.3199999998906","","","","","6","simple_dissimilar","images/stimuli/spore_stims/simple_20_A_a.gif","middle","","","","",""
"","null","html-keyboard-response","120","280704","0.0-26.0-0.2","SS1612925923226","","","null","","","<p><img src= images/blank.png width =""200"" height = ""200"" style = ""float:right""></p><p><img src=images/blank.png width =""800"" height = ""200""></p>","","","","","","","","","","","",""
"","575.8249999998952","sequential-stimulus-presentation","121","282096","0.0-26.0-1.2","SS1612925923226","trial","","40","800","1375.8249999998952","","","","","6","simple_dissimilar","images/stimuli/spore_stims/simple_20_A_a.gif","middle","","","","",""
"","null","html-keyboard-response","122","283367","0.0-26.0-0.3","SS1612925923226","","","null","","","<p><img src= images/blank.png width =""200"" height = ""200"" style = ""float:right""></p><p><img src=images/blank.png width =""800"" height = ""200""></p>","","","","","","","","","","","",""
"","781.9549999999581","sequential-stimulus-presentation","123","284961","0.0-26.0-1.3","SS1612925923226","trial","","40","800","1581.954999999958","","","","","6","simple_dissimilar","images/stimuli/spore_stims/simple_20_A_a.gif","middle","","","","",""
"","null","html-keyboard-response","124","286248","0.0-26.0-0.4","SS1612925923226","","","null","","","<p><img src= images/blank.png width =""200"" height = ""200"" style = ""float:right""></p><p><img src=images/blank.png width =""800"" height = ""200""></p>","","","","","","","","","","","",""
"","596.9450000002398","sequential-stimulus-presentation","125","287656","0.0-26.0-1.4","SS1612925923226","trial","","40","800","1396.9450000002398","","","","","6","simple_dissimilar","images/stimuli/spore_stims/simple_20_A_a.gif","middle","","","","",""
"","null","html-keyboard-response","126","288628","0.0-26.0-0.5","SS1612925923226","","","null","","","<p><img src= images/blank.png width =""200"" height = ""200"" style = ""float:right""></p><p><img src=images/blank.png width =""800"" height = ""200""></p>","","","","","","","","","","","",""
"","1105.0250000002561","sequential-stimulus-presentation","127","290544","0.0-26.0-1.5","SS1612925923226","trial","","40","800","1905.0250000002561","","","","","6","simple_dissimilar","images/stimuli/spore_stims/simple_20_A_a.gif","middle","","","","",""
"","null","html-keyboard-response","128","291785","0.0-26.0-0.6","SS1612925923226","","","null","","","<p><img src= images/blank.png width =""200"" height = ""200"" style = ""float:right""></p><p><img src=images/blank.png width =""800"" height = ""200""></p>","","","","","","","","","","","",""
"","1523.5449999999837","sequential-stimulus-presentation","129","294120","0.0-26.0-1.6","SS1612925923226","trial","","40","800","2323.5449999999837","","","","","6","simple_dissimilar","images/stimuli/spore_stims/simple_20_A_a.gif","middle","","","","",""
"","null","html-keyboard-response","130","295016","0.0-26.0-0.7","SS1612925923226","","","null","","","<p><img src= images/blank.png width =""200"" height = ""200"" style = ""float:right""></p><p><img src=images/blank.png width =""800"" height = ""200""></p>","","","","","","","","","","","",""
"","1907.6949999998906","sequential-stimulus-presentation","131","297736","0.0-26.0-1.7","SS1612925923226","trial","","40","800","2707.6949999998906","","","","","6","simple_dissimilar","images/stimuli/spore_stims/simple_17_B_d.gif","right","","","","",""
"","1719.1999999999534","html-keyboard-response","132","299464","0.0-27.0","SS1612925923226","pref_question","","50","","","<video width ='960' height = '540' style='padding-top:8%' autoplay muted><source src='images/stimuli/wall_pref.mp4' type='video/mp4'></video>","2","middle","45%","6","","","","","","","",""
"","2389.0000000001164","sequential-stimulus-presentation","133","302663","0.0-28.0","SS1612925923226","pref_reveal","","40","800","3189.0000000001164","","","","","6","","","","background","","","",""
"","null","html-keyboard-response","134","303768","0.0-29.0-0.0","SS1612925923226","","","null","","","<p><img src= images/blank.png width =""200"" height = ""200"" style = ""float:right""></p><p><img src=images/blank.png width =""800"" height = ""200""></p>","","","","","","","","","","","",""
"","267.83500000013737","sequential-stimulus-presentation","135","304848","0.0-29.0-1.0","SS1612925923226","trial","","40","800","1067.8350000001374","","","","","7","complex_dissimilar","images/stimuli/spore_stims/complex_08_B_b.gif","left","","","","",""
"","null","html-keyboard-response","136","306082","0.0-29.0-0.1","SS1612925923226","","","null","","","<p><img src= images/blank.png width =""200"" height = ""200"" style = ""float:right""></p><p><img src=images/blank.png width =""800"" height = ""200""></p>","","","","","","","","","","","",""
"","392.3049999998766","sequential-stimulus-presentation","137","307305","0.0-29.0-1.1","SS1612925923226","trial","","40","800","1192.3049999998766","","","","","7","complex_dissimilar","images/stimuli/spore_stims/complex_08_B_b.gif","left","","","","",""
"","null","html-keyboard-response","138","308497","0.0-29.0-0.2","SS1612925923226","","","null","","","<p><img src= images/blank.png width =""200"" height = ""200"" style = ""float:right""></p><p><img src=images/blank.png width =""800"" height = ""200""></p>","","","","","","","","","","","",""
"","1210.8899999997811","sequential-stimulus-presentation","139","310522","0.0-29.0-1.2","SS1612925923226","trial","","40","800","2010.8899999997811","","","","","7","complex_dissimilar","images/stimuli/spore_stims/complex_07_A_d.gif","right","","","","",""
"","null","html-keyboard-response","140","311660","0.0-29.0-0.3","SS1612925923226","","","null","","","<p><img src= images/blank.png width =""200"" height = ""200"" style = ""float:right""></p><p><img src=images/blank.png width =""800"" height = ""200""></p>","","","","","","","","","","","",""
"","768.4850000000442","sequential-stimulus-presentation","141","313241","0.0-29.0-1.3","SS1612925923226","trial","","40","800","1568.4850000000442","","","","","7","complex_dissimilar","images/stimuli/spore_stims/complex_08_B_b.gif","left","","","","",""
"","null","html-keyboard-response","142","314391","0.0-29.0-0.4","SS1612925923226","","","null","","","<p><img src= images/blank.png width =""200"" height = ""200"" style = ""float:right""></p><p><img src=images/blank.png width =""800"" height = ""200""></p>","","","","","","","","","","","",""
"","806.6250000001746","sequential-stimulus-presentation","143","316010","0.0-29.0-1.4","SS1612925923226","trial","","40","800","1606.6250000001746","","","","","7","complex_dissimilar","images/stimuli/spore_stims/complex_08_B_b.gif","left","","","","",""
"","null","html-keyboard-response","144","317134","0.0-29.0-0.5","SS1612925923226","","","null","","","<p><img src= images/blank.png width =""200"" height = ""200"" style = ""float:right""></p><p><img src=images/blank.png width =""800"" height = ""200""></p>","","","","","","","","","","","",""
"","995.5949999998556","sequential-stimulus-presentation","145","318945","0.0-29.0-1.5","SS1612925923226","trial","","40","800","1795.5949999998556","","","","","7","complex_dissimilar","images/stimuli/spore_stims/complex_08_B_b.gif","left","","","","",""
"","null","html-keyboard-response","146","320214","0.0-29.0-0.6","SS1612925923226","","","null","","","<p><img src= images/blank.png width =""200"" height = ""200"" style = ""float:right""></p><p><img src=images/blank.png width =""800"" height = ""200""></p>","","","","","","","","","","","",""
"","633.2449999999953","sequential-stimulus-presentation","147","321657","0.0-29.0-1.6","SS1612925923226","trial","","40","800","1433.2449999999953","","","","","7","complex_dissimilar","images/stimuli/spore_stims/complex_08_B_b.gif","left","","","","",""
"","null","html-keyboard-response","148","322616","0.0-29.0-0.7","SS1612925923226","","","null","","","<p><img src= images/blank.png width =""200"" height = ""200"" style = ""float:right""></p><p><img src=images/blank.png width =""800"" height = ""200""></p>","","","","","","","","","","","",""
"","662.50499999983","sequential-stimulus-presentation","149","324089","0.0-29.0-1.7","SS1612925923226","trial","","40","800","1462.50499999983","","","","","7","complex_dissimilar","images/stimuli/spore_stims/complex_08_B_b.gif","left","","","","",""
"","830.8400000000838","html-keyboard-response","150","324929","0.0-30.0","SS1612925923226","pref_question","","49","","","<video width ='960' height = '540' style='padding-top:8%' autoplay muted><source src='images/stimuli/wall_pref.mp4' type='video/mp4'></video>","1","left","25%","7","","","","","","","",""
"","1019.2900000002119","sequential-stimulus-presentation","151","326761","0.0-31.0","SS1612925923226","pref_reveal","","40","800","1819.2900000002119","","","","","7","","","","background","","","",""
"","null","html-keyboard-response","152","327635","0.0-32.0-0.0","SS1612925923226","","","null","","","<p><img src= images/blank.png width =""200"" height = ""200"" style = ""float:right""></p><p><img src=images/blank.png width =""800"" height = ""200""></p>","","","","","","","","","","","",""
"","608.2300000003306","sequential-stimulus-presentation","153","329057","0.0-32.0-1.0","SS1612925923226","trial","","40","800","1408.2300000003306","","","","","8","complex_similar","images/stimuli/spore_stims/complex_09_B_a.gif","left","","","","",""
"","null","html-keyboard-response","154","329871","0.0-32.0-0.1","SS1612925923226","","","null","","","<p><img src= images/blank.png width =""200"" height = ""200"" style = ""float:right""></p><p><img src=images/blank.png width =""800"" height = ""200""></p>","","","","","","","","","","","",""
"","679.0049999999464","sequential-stimulus-presentation","155","331361","0.0-32.0-1.1","SS1612925923226","trial","","40","800","1479.0049999999464","","","","","8","complex_similar","images/stimuli/spore_stims/complex_09_B_a.gif","left","","","","",""
"","null","html-keyboard-response","156","332530","0.0-32.0-0.2","SS1612925923226","","","null","","","<p><img src= images/blank.png width =""200"" height = ""200"" style = ""float:right""></p><p><img src=images/blank.png width =""800"" height = ""200""></p>","","","","","","","","","","","",""
"","478.4349999999977","sequential-stimulus-presentation","157","333857","0.0-32.0-1.2","SS1612925923226","trial","","40","800","1278.4349999999977","","","","","8","complex_similar","images/stimuli/spore_stims/complex_09_A_a.gif","middle","","","","",""
"","null","html-keyboard-response","158","335085","0.0-32.0-0.3","SS1612925923226","","","null","","","<p><img src= images/blank.png width =""200"" height = ""200"" style = ""float:right""></p><p><img src=images/blank.png width =""800"" height = ""200""></p>","","","","","","","","","","","",""
"","951.7449999998207","sequential-stimulus-presentation","159","336848","0.0-32.0-1.3","SS1612925923226","trial","","40","800","1751.7449999998207","","","","","8","complex_similar","images/stimuli/spore_stims/complex_09_B_a.gif","left","","","","",""
"","null","html-keyboard-response","160","337889","0.0-32.0-0.4","SS1612925923226","","","null","","","<p><img src= images/blank.png width =""200"" height = ""200"" style = ""float:right""></p><p><img src=images/blank.png width =""800"" height = ""200""></p>","","","","","","","","","","","",""
"","1859.5349999996251","sequential-stimulus-presentation","161","340560","0.0-32.0-1.4","SS1612925923226","trial","","40","800","2659.534999999625","","","","","8","complex_similar","images/stimuli/spore_stims/complex_09_B_a.gif","left","","","","",""
"","null","html-keyboard-response","162","341750","0.0-32.0-0.5","SS1612925923226","","","null","","","<p><img src= images/blank.png width =""200"" height = ""200"" style = ""float:right""></p><p><img src=images/blank.png width =""800"" height = ""200""></p>","","","","","","","","","","","",""
"","446.31500000017695","sequential-stimulus-presentation","163","343008","0.0-32.0-1.5","SS1612925923226","trial","","40","800","1246.315000000177","","","","","8","complex_similar","images/stimuli/spore_stims/complex_09_B_a.gif","left","","","","",""
"","null","html-keyboard-response","164","344244","0.0-32.0-0.6","SS1612925923226","","","null","","","<p><img src= images/blank.png width =""200"" height = ""200"" style = ""float:right""></p><p><img src=images/blank.png width =""800"" height = ""200""></p>","","","","","","","","","","","",""
"","368.70000000001164","sequential-stimulus-presentation","165","345424","0.0-32.0-1.6","SS1612925923226","trial","","40","800","1168.7000000000116","","","","","8","complex_similar","images/stimuli/spore_stims/complex_09_B_a.gif","left","","","","",""
"","null","html-keyboard-response","166","346394","0.0-32.0-0.7","SS1612925923226","","","null","","","<p><img src= images/blank.png width =""200"" height = ""200"" style = ""float:right""></p><p><img src=images/blank.png width =""800"" height = ""200""></p>","","","","","","","","","","","",""
"","425.1750000003376","sequential-stimulus-presentation","167","347632","0.0-32.0-1.7","SS1612925923226","trial","","40","800","1225.1750000003376","","","","","8","complex_similar","images/stimuli/spore_stims/complex_09_B_a.gif","left","","","","",""
"","814.6750000001048","html-keyboard-response","168","348456","0.0-33.0","SS1612925923226","pref_question","","49","","","<video width ='960' height = '540' style='padding-top:8%' autoplay muted><source src='images/stimuli/wall_pref.mp4' type='video/mp4'></video>","1","left","25%","8","","","","","","","",""
"","1056.5500000002794","sequential-stimulus-presentation","169","350328","0.0-34.0","SS1612925923226","pref_reveal","","40","800","1856.5500000002794","","","","","8","","","","background","","","",""
"","null","html-keyboard-response","170","351233","0.0-35.0-0.0","SS1612925923226","","","null","","","<p><img src= images/blank.png width =""200"" height = ""200"" style = ""float:right""></p><p><img src=images/blank.png width =""800"" height = ""200""></p>","","","","","","","","","","","",""
"","456.44499999983236","sequential-stimulus-presentation","171","352512","0.0-35.0-1.0","SS1612925923226","trial","","40","800","1256.4449999998324","","","","","9","complex_similar","images/stimuli/spore_stims/complex_18_B_c.gif","left","","","","",""
"","null","html-keyboard-response","172","353587","0.0-35.0-0.1","SS1612925923226","","","null","","","<p><img src= images/blank.png width =""200"" height = ""200"" style = ""float:right""></p><p><img src=images/blank.png width =""800"" height = ""200""></p>","","","","","","","","","","","",""
"","794.5450000001583","sequential-stimulus-presentation","173","355223","0.0-35.0-1.1","SS1612925923226","trial","","40","800","1594.5450000001583","","","","","9","complex_similar","images/stimuli/spore_stims/complex_18_B_c.gif","left","","","","",""
"","null","html-keyboard-response","174","356425","0.0-35.0-0.2","SS1612925923226","","","null","","","<p><img src= images/blank.png width =""200"" height = ""200"" style = ""float:right""></p><p><img src=images/blank.png width =""800"" height = ""200""></p>","","","","","","","","","","","",""
"","778.8100000002305","sequential-stimulus-presentation","175","358016","0.0-35.0-1.2","SS1612925923226","trial","","40","800","1578.8100000002305","","","","","9","complex_similar","images/stimuli/spore_stims/complex_18_B_c.gif","left","","","","",""
"","null","html-keyboard-response","176","359050","0.0-35.0-0.3","SS1612925923226","","","null","","","<p><img src= images/blank.png width =""200"" height = ""200"" style = ""float:right""></p><p><img src=images/blank.png width =""800"" height = ""200""></p>","","","","","","","","","","","",""
"","895.9949999998789","sequential-stimulus-presentation","177","360759","0.0-35.0-1.3","SS1612925923226","trial","","40","800","1695.994999999879","","","","","9","complex_similar","images/stimuli/spore_stims/complex_18_A_c.gif","right","","","","",""
"","null","html-keyboard-response","178","361785","0.0-35.0-0.4","SS1612925923226","","","null","","","<p><img src= images/blank.png width =""200"" height = ""200"" style = ""float:right""></p><p><img src=images/blank.png width =""800"" height = ""200""></p>","","","","","","","","","","","",""
"","1595.0149999998976","sequential-stimulus-presentation","179","364191","0.0-35.0-1.4","SS1612925923226","trial","","40","800","2395.0149999998976","","","","","9","complex_similar","images/stimuli/spore_stims/complex_18_B_c.gif","left","","","","",""
"","null","html-keyboard-response","180","365310","0.0-35.0-0.5","SS1612925923226","","","null","","","<p><img src= images/blank.png width =""200"" height = ""200"" style = ""float:right""></p><p><img src=images/blank.png width =""800"" height = ""200""></p>","","","","","","","","","","","",""
"","876.824999999837","sequential-stimulus-presentation","181","367001","0.0-35.0-1.5","SS1612925923226","trial","","40","800","1676.824999999837","","","","","9","complex_similar","images/stimuli/spore_stims/complex_18_B_c.gif","left","","","","",""
"","null","html-keyboard-response","182","367828","0.0-35.0-0.6","SS1612925923226","","","null","","","<p><img src= images/blank.png width =""200"" height = ""200"" style = ""float:right""></p><p><img src=images/blank.png width =""800"" height = ""200""></p>","","","","","","","","","","","",""
"","473.88500000035856","sequential-stimulus-presentation","183","369114","0.0-35.0-1.6","SS1612925923226","trial","","40","800","1273.8850000003586","","","","","9","complex_similar","images/stimuli/spore_stims/complex_18_B_c.gif","left","","","","",""
"","null","html-keyboard-response","184","370161","0.0-35.0-0.7","SS1612925923226","","","null","","","<p><img src= images/blank.png width =""200"" height = ""200"" style = ""float:right""></p><p><img src=images/blank.png width =""800"" height = ""200""></p>","","","","","","","","","","","",""
"","532.4949999999371","sequential-stimulus-presentation","185","371505","0.0-35.0-1.7","SS1612925923226","trial","","40","800","1332.4949999999371","","","","","9","complex_similar","images/stimuli/spore_stims/complex_18_B_c.gif","left","","","","",""
"","1201.6199999998207","html-keyboard-response","186","372721","0.0-36.0","SS1612925923226","pref_question","","49","","","<video width ='960' height = '540' style='padding-top:8%' autoplay muted><source src='images/stimuli/wall_pref.mp4' type='video/mp4'></video>","1","left","25%","9","","","","","","","",""
"","714.9899999999325","sequential-stimulus-presentation","187","374249","0.0-37.0","SS1612925923226","pref_reveal","","40","800","1514.9899999999325","","","","","9","","","","background","","","",""
"","null","html-keyboard-response","188","375551","0.0-38.0-0.0","SS1612925923226","","","null","","","<p><img src= images/blank.png width =""200"" height = ""200"" style = ""float:right""></p><p><img src=images/blank.png width =""800"" height = ""200""></p>","","","","","","","","","","","",""
"","525.4400000003516","sequential-stimulus-presentation","189","376889","0.0-38.0-1.0","SS1612925923226","trial","","40","800","1325.4400000003516","","","","","10","complex_dissimilar","images/stimuli/spore_stims/complex_01_A_d.gif","left","","","","",""
"","null","html-keyboard-response","190","377975","0.0-38.0-0.1","SS1612925923226","","","null","","","<p><img src= images/blank.png width =""200"" height = ""200"" style = ""float:right""></p><p><img src=images/blank.png width =""800"" height = ""200""></p>","","","","","","","","","","","",""
"","478.4400000003516","sequential-stimulus-presentation","191","379265","0.0-38.0-1.1","SS1612925923226","trial","","40","800","1278.4400000003516","","","","","10","complex_dissimilar","images/stimuli/spore_stims/complex_01_A_d.gif","left","","","","",""
"","null","html-keyboard-response","192","380457","0.0-38.0-0.2","SS1612925923226","","","null","","","<p><img src= images/blank.png width =""200"" height = ""200"" style = ""float:right""></p><p><img src=images/blank.png width =""800"" height = ""200""></p>","","","","","","","","","","","",""
"","619.7149999997928","sequential-stimulus-presentation","193","381889","0.0-38.0-1.2","SS1612925923226","trial","","40","800","1419.7149999997928","","","","","10","complex_dissimilar","images/stimuli/spore_stims/complex_01_A_d.gif","left","","","","",""
"","null","html-keyboard-response","194","383019","0.0-38.0-0.3","SS1612925923226","","","null","","","<p><img src= images/blank.png width =""200"" height = ""200"" style = ""float:right""></p><p><img src=images/blank.png width =""800"" height = ""200""></p>","","","","","","","","","","","",""
"","648.6850000001141","sequential-stimulus-presentation","195","384481","0.0-38.0-1.3","SS1612925923226","trial","","40","800","1448.685000000114","","","","","10","complex_dissimilar","images/stimuli/spore_stims/complex_10_A_d.gif","middle","","","","",""
"","null","html-keyboard-response","196","385651","0.0-38.0-0.4","SS1612925923226","","","null","","","<p><img src= images/blank.png width =""200"" height = ""200"" style = ""float:right""></p><p><img src=images/blank.png width =""800"" height = ""200""></p>","","","","","","","","","","","",""
"","992.8899999999558","sequential-stimulus-presentation","197","387457","0.0-38.0-1.4","SS1612925923226","trial","","40","800","1792.8899999999558","","","","","10","complex_dissimilar","images/stimuli/spore_stims/complex_01_A_d.gif","left","","","","",""
"","null","html-keyboard-response","198","388717","0.0-38.0-0.5","SS1612925923226","","","null","","","<p><img src= images/blank.png width =""200"" height = ""200"" style = ""float:right""></p><p><img src=images/blank.png width =""800"" height = ""200""></p>","","","","","","","","","","","",""
"","855.8299999999581","sequential-stimulus-presentation","199","390385","0.0-38.0-1.5","SS1612925923226","trial","","40","800","1655.829999999958","","","","","10","complex_dissimilar","images/stimuli/spore_stims/complex_01_A_d.gif","left","","","","",""
"","null","html-keyboard-response","200","391438","0.0-38.0-0.6","SS1612925923226","","","null","","","<p><img src= images/blank.png width =""200"" height = ""200"" style = ""float:right""></p><p><img src=images/blank.png width =""800"" height = ""200""></p>","","","","","","","","","","","",""
"","1270.0300000001444","sequential-stimulus-presentation","201","393560","0.0-38.0-1.6","SS1612925923226","trial","","40","800","2070.0300000001444","","","","","10","complex_dissimilar","images/stimuli/spore_stims/complex_01_A_d.gif","left","","","","",""
"","null","html-keyboard-response","202","394608","0.0-38.0-0.7","SS1612925923226","","","null","","","<p><img src= images/blank.png width =""200"" height = ""200"" style = ""float:right""></p><p><img src=images/blank.png width =""800"" height = ""200""></p>","","","","","","","","","","","",""
"","841.9250000002212","sequential-stimulus-presentation","203","396264","0.0-38.0-1.7","SS1612925923226","trial","","40","800","1641.9250000002212","","","","","10","complex_dissimilar","images/stimuli/spore_stims/complex_01_A_d.gif","left","","","","",""
"","898.1699999999255","html-keyboard-response","204","397177","0.0-39.0","SS1612925923226","pref_question","","49","","","<video width ='960' height = '540' style='padding-top:8%' autoplay muted><source src='images/stimuli/wall_pref.mp4' type='video/mp4'></video>","1","left","25%","10","","","","","","","",""
"","1192.2600000002421","sequential-stimulus-presentation","205","399184","0.0-40.0","SS1612925923226","pref_reveal","","40","800","1992.2600000002421","","","","","10","","","","background","","","",""
"","null","html-keyboard-response","206","400129","0.0-41.0-0.0","SS1612925923226","","","null","","","<p><img src= images/blank.png width =""200"" height = ""200"" style = ""float:right""></p><p><img src=images/blank.png width =""800"" height = ""200""></p>","","","","","","","","","","","",""
"","1112.7900000001537","sequential-stimulus-presentation","207","402056","0.0-41.0-1.0","SS1612925923226","trial","","40","800","1912.7900000001537","","","","","11","complex_similar","images/stimuli/spore_stims/complex_17_B_a.gif","middle","","","","",""
"","null","html-keyboard-response","208","403257","0.0-41.0-0.1","SS1612925923226","","","null","","","<p><img src= images/blank.png width =""200"" height = ""200"" style = ""float:right""></p><p><img src=images/blank.png width =""800"" height = ""200""></p>","","","","","","","","","","","",""
"","902.3449999999139","sequential-stimulus-presentation","209","405008","0.0-41.0-1.1","SS1612925923226","trial","","40","800","1702.3449999999139","","","","","11","complex_similar","images/stimuli/spore_stims/complex_17_B_a.gif","middle","","","","",""
"","null","html-keyboard-response","210","405966","0.0-41.0-0.2","SS1612925923226","","","null","","","<p><img src= images/blank.png width =""200"" height = ""200"" style = ""float:right""></p><p><img src=images/blank.png width =""800"" height = ""200""></p>","","","","","","","","","","","",""
"","973.1999999999534","sequential-stimulus-presentation","211","407752","0.0-41.0-1.2","SS1612925923226","trial","","40","800","1773.1999999999534","","","","","11","complex_similar","images/stimuli/spore_stims/complex_17_B_a.gif","middle","","","","",""
"","null","html-keyboard-response","212","408684","0.0-41.0-0.3","SS1612925923226","","","null","","","<p><img src= images/blank.png width =""200"" height = ""200"" style = ""float:right""></p><p><img src=images/blank.png width =""800"" height = ""200""></p>","","","","","","","","","","","",""
"","482.43499999993946","sequential-stimulus-presentation","213","409981","0.0-41.0-1.3","SS1612925923226","trial","","40","800","1282.4349999999395","","","","","11","complex_similar","images/stimuli/spore_stims/complex_17_B_a.gif","middle","","","","",""
"","null","html-keyboard-response","214","411011","0.0-41.0-0.4","SS1612925923226","","","null","","","<p><img src= images/blank.png width =""200"" height = ""200"" style = ""float:right""></p><p><img src=images/blank.png width =""800"" height = ""200""></p>","","","","","","","","","","","",""
"","454.83500000002095","sequential-stimulus-presentation","215","412281","0.0-41.0-1.4","SS1612925923226","trial","","40","800","1254.835000000021","","","","","11","complex_similar","images/stimuli/spore_stims/complex_17_B_a.gif","middle","","","","",""
"","null","html-keyboard-response","216","413589","0.0-41.0-0.5","SS1612925923226","","","null","","","<p><img src= images/blank.png width =""200"" height = ""200"" style = ""float:right""></p><p><img src=images/blank.png width =""800"" height = ""200""></p>","","","","","","","","","","","",""
"","1053.6649999998626","sequential-stimulus-presentation","217","415455","0.0-41.0-1.5","SS1612925923226","trial","","40","800","1853.6649999998626","","","","","11","complex_similar","images/stimuli/spore_stims/complex_17_A_a.gif","left","","","","",""
"","null","html-keyboard-response","218","416371","0.0-41.0-0.6","SS1612925923226","","","null","","","<p><img src= images/blank.png width =""200"" height = ""200"" style = ""float:right""></p><p><img src=images/blank.png width =""800"" height = ""200""></p>","","","","","","","","","","","",""
"","671.4999999998836","sequential-stimulus-presentation","219","417855","0.0-41.0-1.6","SS1612925923226","trial","","40","800","1471.4999999998836","","","","","11","complex_similar","images/stimuli/spore_stims/complex_17_B_a.gif","middle","","","","",""
"","null","html-keyboard-response","220","418779","0.0-41.0-0.7","SS1612925923226","","","null","","","<p><img src= images/blank.png width =""200"" height = ""200"" style = ""float:right""></p><p><img src=images/blank.png width =""800"" height = ""200""></p>","","","","","","","","","","","",""
"","726.4500000001281","sequential-stimulus-presentation","221","420319","0.0-41.0-1.7","SS1612925923226","trial","","40","800","1526.450000000128","","","","","11","complex_similar","images/stimuli/spore_stims/complex_17_B_a.gif","middle","","","","",""
"","900.2599999998929","html-keyboard-response","222","421255","0.0-42.0","SS1612925923226","pref_question","","50","","","<video width ='960' height = '540' style='padding-top:8%' autoplay muted><source src='images/stimuli/wall_pref.mp4' type='video/mp4'></video>","2","middle","45%","11","","","","","","","",""
"","1034.450000000128","sequential-stimulus-presentation","223","423105","0.0-43.0","SS1612925923226","pref_reveal","","40","800","1834.450000000128","","","","","11","","","","background","","","",""
"","null","html-keyboard-response","224","423970","0.0-44.0-0.0","SS1612925923226","","","null","","","<p><img src= images/blank.png width =""200"" height = ""200"" style = ""float:right""></p><p><img src=images/blank.png width =""800"" height = ""200""></p>","","","","","","","","","","","",""
"","711.1199999999371","sequential-stimulus-presentation","225","425496","0.0-44.0-1.0","SS1612925923226","trial","","40","800","1511.1199999999371","","","","","12","simple_dissimilar","images/stimuli/spore_stims/simple_12_B_b.gif","middle","","","","",""
"","null","html-keyboard-response","226","426659","0.0-44.0-0.1","SS1612925923226","","","null","","","<p><img src= images/blank.png width =""200"" height = ""200"" style = ""float:right""></p><p><img src=images/blank.png width =""800"" height = ""200""></p>","","","","","","","","","","","",""
"","209.20999999996275","sequential-stimulus-presentation","227","427697","0.0-44.0-1.1","SS1612925923226","trial","","40","800","1009.2099999999627","","","","","12","simple_dissimilar","images/stimuli/spore_stims/simple_12_B_b.gif","middle","","","","",""
"","null","html-keyboard-response","228","428678","0.0-44.0-0.2","SS1612925923226","","","null","","","<p><img src= images/blank.png width =""200"" height = ""200"" style = ""float:right""></p><p><img src=images/blank.png width =""800"" height = ""200""></p>","","","","","","","","","","","",""
"","64.3399999999092","sequential-stimulus-presentation","229","429557","0.0-44.0-1.2","SS1612925923226","trial","","40","800","864.3399999999092","","","","","12","simple_dissimilar","images/stimuli/spore_stims/simple_12_B_b.gif","middle","","","","",""
"","null","html-keyboard-response","230","430667","0.0-44.0-0.3","SS1612925923226","","","null","","","<p><img src= images/blank.png width =""200"" height = ""200"" style = ""float:right""></p><p><img src=images/blank.png width =""800"" height = ""200""></p>","","","","","","","","","","","",""
"","565.1149999998743","sequential-stimulus-presentation","231","432049","0.0-44.0-1.3","SS1612925923226","trial","","40","800","1365.1149999998743","","","","","12","simple_dissimilar","images/stimuli/spore_stims/simple_12_B_b.gif","middle","","","","",""
"","null","html-keyboard-response","232","433018","0.0-44.0-0.4","SS1612925923226","","","null","","","<p><img src= images/blank.png width =""200"" height = ""200"" style = ""float:right""></p><p><img src=images/blank.png width =""800"" height = ""200""></p>","","","","","","","","","","","",""
"","13.175000000046566","sequential-stimulus-presentation","233","433861","0.0-44.0-1.4","SS1612925923226","trial","","40","800","813.1750000000466","","","","","12","simple_dissimilar","images/stimuli/spore_stims/simple_12_B_b.gif","middle","","","","",""
"","null","html-keyboard-response","234","434909","0.0-44.0-0.5","SS1612925923226","","","null","","","<p><img src= images/blank.png width =""200"" height = ""200"" style = ""float:right""></p><p><img src=images/blank.png width =""800"" height = ""200""></p>","","","","","","","","","","","",""
"","283.6399999996647","sequential-stimulus-presentation","235","436009","0.0-44.0-1.5","SS1612925923226","trial","","40","800","1083.6399999996647","","","","","12","simple_dissimilar","images/stimuli/spore_stims/simple_03_B_d.gif","right","","","","",""
"","null","html-keyboard-response","236","437028","0.0-44.0-0.6","SS1612925923226","","","null","","","<p><img src= images/blank.png width =""200"" height = ""200"" style = ""float:right""></p><p><img src=images/blank.png width =""800"" height = ""200""></p>","","","","","","","","","","","",""
"","241.26500000013039","sequential-stimulus-presentation","237","438088","0.0-44.0-1.6","SS1612925923226","trial","","40","800","1041.2650000001304","","","","","12","simple_dissimilar","images/stimuli/spore_stims/simple_12_B_b.gif","middle","","","","",""
"","null","html-keyboard-response","238","439097","0.0-44.0-0.7","SS1612925923226","","","null","","","<p><img src= images/blank.png width =""200"" height = ""200"" style = ""float:right""></p><p><img src=images/blank.png width =""800"" height = ""200""></p>","","","","","","","","","","","",""
"","649.5350000000326","sequential-stimulus-presentation","239","440561","0.0-44.0-1.7","SS1612925923226","trial","","40","800","1449.5350000000326","","","","","12","simple_dissimilar","images/stimuli/spore_stims/simple_12_B_b.gif","middle","","","","",""
"","868.5949999999139","html-keyboard-response","240","441465","0.0-45.0","SS1612925923226","pref_question","","50","","","<video width ='960' height = '540' style='padding-top:8%' autoplay muted><source src='images/stimuli/wall_pref.mp4' type='video/mp4'></video>","2","middle","45%","12","","","","","","","",""
"","805.8449999998556","sequential-stimulus-presentation","241","443089","0.0-46.0","SS1612925923226","pref_reveal","","40","800","1605.8449999998556","","","","","12","","","","background","","","",""
"","null","html-keyboard-response","242","444229","0.0-47.0-0.0","SS1612925923226","","","null","","","<p><img src= images/blank.png width =""200"" height = ""200"" style = ""float:right""></p><p><img src=images/blank.png width =""800"" height = ""200""></p>","","","","","","","","","","","",""
"","2013.2199999997974","sequential-stimulus-presentation","243","447057","0.0-47.0-1.0","SS1612925923226","trial","","40","800","2813.2199999997974","","","","","13","simple_similar","images/stimuli/spore_stims/simple_04_B_c.gif","right","","","","",""
"","null","html-keyboard-response","244","448255","0.0-47.0-0.1","SS1612925923226","","","null","","","<p><img src= images/blank.png width =""200"" height = ""200"" style = ""float:right""></p><p><img src=images/blank.png width =""800"" height = ""200""></p>","","","","","","","","","","","",""
"","586.9800000000396","sequential-stimulus-presentation","245","449672","0.0-47.0-1.1","SS1612925923226","trial","","40","800","1386.9800000000396","","","","","13","simple_similar","images/stimuli/spore_stims/simple_04_B_c.gif","right","","","","",""
"","null","html-keyboard-response","246","450837","0.0-47.0-0.2","SS1612925923226","","","null","","","<p><img src= images/blank.png width =""200"" height = ""200"" style = ""float:right""></p><p><img src=images/blank.png width =""800"" height = ""200""></p>","","","","","","","","","","","",""
"","717.3549999997485","sequential-stimulus-presentation","247","452368","0.0-47.0-1.2","SS1612925923226","trial","","40","800","1517.3549999997485","","","","","13","simple_similar","images/stimuli/spore_stims/simple_04_B_c.gif","right","","","","",""
"","null","html-keyboard-response","248","453345","0.0-47.0-0.3","SS1612925923226","","","null","","","<p><img src= images/blank.png width =""200"" height = ""200"" style = ""float:right""></p><p><img src=images/blank.png width =""800"" height = ""200""></p>","","","","","","","","","","","",""
"","607.6199999997625","sequential-stimulus-presentation","249","454768","0.0-47.0-1.3","SS1612925923226","trial","","40","800","1407.6199999997625","","","","","13","simple_similar","images/stimuli/spore_stims/simple_04_B_c.gif","right","","","","",""
"","null","html-keyboard-response","250","456016","0.0-47.0-0.4","SS1612925923226","","","null","","","<p><img src= images/blank.png width =""200"" height = ""200"" style = ""float:right""></p><p><img src=images/blank.png width =""800"" height = ""200""></p>","","","","","","","","","","","",""
"","186.02500000002328","sequential-stimulus-presentation","251","457016","0.0-47.0-1.4","SS1612925923226","trial","","40","800","986.0250000000233","","","","","13","simple_similar","images/stimuli/spore_stims/simple_04_A_c.gif","middle","","","","",""
"","null","html-keyboard-response","252","457865","0.0-47.0-0.5","SS1612925923226","","","null","","","<p><img src= images/blank.png width =""200"" height = ""200"" style = ""float:right""></p><p><img src=images/blank.png width =""800"" height = ""200""></p>","","","","","","","","","","","",""
"","910.1749999999884","sequential-stimulus-presentation","253","459592","0.0-47.0-1.5","SS1612925923226","trial","","40","800","1710.1749999999884","","","","","13","simple_similar","images/stimuli/spore_stims/simple_04_B_c.gif","right","","","","",""
"","null","html-keyboard-response","254","460663","0.0-47.0-0.6","SS1612925923226","","","null","","","<p><img src= images/blank.png width =""200"" height = ""200"" style = ""float:right""></p><p><img src=images/blank.png width =""800"" height = ""200""></p>","","","","","","","","","","","",""
"","687.6400000001304","sequential-stimulus-presentation","255","462167","0.0-47.0-1.6","SS1612925923226","trial","","40","800","1487.6400000001304","","","","","13","simple_similar","images/stimuli/spore_stims/simple_04_B_c.gif","right","","","","",""
"","null","html-keyboard-response","256","463462","0.0-47.0-0.7","SS1612925923226","","","null","","","<p><img src= images/blank.png width =""200"" height = ""200"" style = ""float:right""></p><p><img src=images/blank.png width =""800"" height = ""200""></p>","","","","","","","","","","","",""
"","3031.0799999997835","sequential-stimulus-presentation","257","467311","0.0-47.0-1.7","SS1612925923226","trial","","40","800","3831.0799999997835","","","","","13","simple_similar","images/stimuli/spore_stims/simple_04_B_c.gif","right","","","","",""
"","1187.2349999998114","html-keyboard-response","258","468511","0.0-48.0","SS1612925923226","pref_question","","51","","","<video width ='960' height = '540' style='padding-top:8%' autoplay muted><source src='images/stimuli/wall_pref.mp4' type='video/mp4'></video>","3","right","66%","13","","","","","","","",""
"","2770.5300000001444","sequential-stimulus-presentation","259","472096","0.0-49.0","SS1612925923226","pref_reveal","","40","800","3570.5300000001444","","","","","13","","","","background","","","",""
"","null","html-keyboard-response","260","472946","0.0-50.0-0.0","SS1612925923226","","","null","","","<p><img src= images/blank.png width =""200"" height = ""200"" style = ""float:right""></p><p><img src=images/blank.png width =""800"" height = ""200""></p>","","","","","","","","","","","",""
"","738.8350000000792","sequential-stimulus-presentation","261","474503","0.0-50.0-1.0","SS1612925923226","trial","","40","800","1538.8350000000792","","","","","14","simple_dissimilar","images/stimuli/spore_stims/simple_20_B_d.gif","middle","","","","",""
"","null","html-keyboard-response","262","475380","0.0-50.0-0.1","SS1612925923226","","","null","","","<p><img src= images/blank.png width =""200"" height = ""200"" style = ""float:right""></p><p><img src=images/blank.png width =""800"" height = ""200""></p>","","","","","","","","","","","",""
"","813.3449999999721","sequential-stimulus-presentation","263","477025","0.0-50.0-1.1","SS1612925923226","trial","","40","800","1613.344999999972","","","","","14","simple_dissimilar","images/stimuli/spore_stims/simple_20_B_d.gif","middle","","","","",""
"","null","html-keyboard-response","264","477939","0.0-50.0-0.2","SS1612925923226","","","null","","","<p><img src= images/blank.png width =""200"" height = ""200"" style = ""float:right""></p><p><img src=images/blank.png width =""800"" height = ""200""></p>","","","","","","","","","","","",""
"","556.5799999999581","sequential-stimulus-presentation","265","479311","0.0-50.0-1.2","SS1612925923226","trial","","40","800","1356.579999999958","","","","","14","simple_dissimilar","images/stimuli/spore_stims/simple_20_B_d.gif","middle","","","","",""
"","null","html-keyboard-response","266","480252","0.0-50.0-0.3","SS1612925923226","","","null","","","<p><img src= images/blank.png width =""200"" height = ""200"" style = ""float:right""></p><p><img src=images/blank.png width =""800"" height = ""200""></p>","","","","","","","","","","","",""
"","324.4899999999907","sequential-stimulus-presentation","267","481390","0.0-50.0-1.3","SS1612925923226","trial","","40","800","1124.4899999999907","","","","","14","simple_dissimilar","images/stimuli/spore_stims/simple_20_B_d.gif","middle","","","","",""
"","null","html-keyboard-response","268","482573","0.0-50.0-0.4","SS1612925923226","","","null","","","<p><img src= images/blank.png width =""200"" height = ""200"" style = ""float:right""></p><p><img src=images/blank.png width =""800"" height = ""200""></p>","","","","","","","","","","","",""
"","459.07000000041444","sequential-stimulus-presentation","269","483863","0.0-50.0-1.4","SS1612925923226","trial","","40","800","1259.0700000004144","","","","","14","simple_dissimilar","images/stimuli/spore_stims/simple_20_B_d.gif","middle","","","","",""
"","null","html-keyboard-response","270","485164","0.0-50.0-0.5","SS1612925923226","","","null","","","<p><img src= images/blank.png width =""200"" height = ""200"" style = ""float:right""></p><p><img src=images/blank.png width =""800"" height = ""200""></p>","","","","","","","","","","","",""
"","395.2150000000838","sequential-stimulus-presentation","271","486376","0.0-50.0-1.5","SS1612925923226","trial","","40","800","1195.2150000000838","","","","","14","simple_dissimilar","images/stimuli/spore_stims/simple_20_B_d.gif","middle","","","","",""
"","null","html-keyboard-response","272","487582","0.0-50.0-0.6","SS1612925923226","","","null","","","<p><img src= images/blank.png width =""200"" height = ""200"" style = ""float:right""></p><p><img src=images/blank.png width =""800"" height = ""200""></p>","","","","","","","","","","","",""
"","379.1850000001723","sequential-stimulus-presentation","273","488777","0.0-50.0-1.6","SS1612925923226","trial","","40","800","1179.1850000001723","","","","","14","simple_dissimilar","images/stimuli/spore_stims/simple_20_B_d.gif","middle","","","","",""
"","null","html-keyboard-response","274","489975","0.0-50.0-0.7","SS1612925923226","","","null","","","<p><img src= images/blank.png width =""200"" height = ""200"" style = ""float:right""></p><p><img src=images/blank.png width =""800"" height = ""200""></p>","","","","","","","","","","","",""
"","1513.7500000001164","sequential-stimulus-presentation","275","492304","0.0-50.0-1.7","SS1612925923226","trial","","40","800","2313.7500000001164","","","","","14","simple_dissimilar","images/stimuli/spore_stims/simple_05_A_c.gif","left","","","","",""
"","1603.710000000312","html-keyboard-response","276","493937","0.0-51.0","SS1612925923226","pref_question","","50","","","<video width ='960' height = '540' style='padding-top:8%' autoplay muted><source src='images/stimuli/wall_pref.mp4' type='video/mp4'></video>","2","middle","45%","14","","","","","","","",""
"","1409.5299999999115","sequential-stimulus-presentation","277","496176","0.0-52.0","SS1612925923226","pref_reveal","","40","800","2209.5299999999115","","","","","14","","","","background","","","",""
"","null","html-keyboard-response","278","497083","0.0-53.0-0.0","SS1612925923226","","","null","","","<p><img src= images/blank.png width =""200"" height = ""200"" style = ""float:right""></p><p><img src=images/blank.png width =""800"" height = ""200""></p>","","","","","","","","","","","",""
"","1109.324999999837","sequential-stimulus-presentation","279","499007","0.0-53.0-1.0","SS1612925923226","trial","","40","800","1909.324999999837","","","","","15","complex_dissimilar","images/stimuli/spore_stims/complex_02_A_b.gif","left","","","","",""
"","null","html-keyboard-response","280","500264","0.0-53.0-0.1","SS1612925923226","","","null","","","<p><img src= images/blank.png width =""200"" height = ""200"" style = ""float:right""></p><p><img src=images/blank.png width =""800"" height = ""200""></p>","","","","","","","","","","","",""
"","550.1499999995576","sequential-stimulus-presentation","281","501631","0.0-53.0-1.1","SS1612925923226","trial","","40","800","1350.1499999995576","","","","","15","complex_dissimilar","images/stimuli/spore_stims/complex_02_A_b.gif","left","","","","",""
"","null","html-keyboard-response","282","502840","0.0-53.0-0.2","SS1612925923226","","","null","","","<p><img src= images/blank.png width =""200"" height = ""200"" style = ""float:right""></p><p><img src=images/blank.png width =""800"" height = ""200""></p>","","","","","","","","","","","",""
"","543.3899999997811","sequential-stimulus-presentation","283","504200","0.0-53.0-1.2","SS1612925923226","trial","","40","800","1343.3899999997811","","","","","15","complex_dissimilar","images/stimuli/spore_stims/complex_02_A_b.gif","left","","","","",""
"","null","html-keyboard-response","284","505186","0.0-53.0-0.3","SS1612925923226","","","null","","","<p><img src= images/blank.png width =""200"" height = ""200"" style = ""float:right""></p><p><img src=images/blank.png width =""800"" height = ""200""></p>","","","","","","","","","","","",""
"","470.7549999997718","sequential-stimulus-presentation","285","506471","0.0-53.0-1.3","SS1612925923226","trial","","40","800","1270.7549999997718","","","","","15","complex_dissimilar","images/stimuli/spore_stims/complex_02_A_b.gif","left","","","","",""
"","null","html-keyboard-response","286","507468","0.0-53.0-0.4","SS1612925923226","","","null","","","<p><img src= images/blank.png width =""200"" height = ""200"" style = ""float:right""></p><p><img src=images/blank.png width =""800"" height = ""200""></p>","","","","","","","","","","","",""
"","452.6100000003353","sequential-stimulus-presentation","287","508735","0.0-53.0-1.4","SS1612925923226","trial","","40","800","1252.6100000003353","","","","","15","complex_dissimilar","images/stimuli/spore_stims/complex_02_A_b.gif","left","","","","",""
"","null","html-keyboard-response","288","509608","0.0-53.0-0.5","SS1612925923226","","","null","","","<p><img src= images/blank.png width =""200"" height = ""200"" style = ""float:right""></p><p><img src=images/blank.png width =""800"" height = ""200""></p>","","","","","","","","","","","",""
"","440.52000000013504","sequential-stimulus-presentation","289","510863","0.0-53.0-1.5","SS1612925923226","trial","","40","800","1240.520000000135","","","","","15","complex_dissimilar","images/stimuli/spore_stims/complex_02_A_b.gif","left","","","","",""
"","null","html-keyboard-response","290","511692","0.0-53.0-0.6","SS1612925923226","","","null","","","<p><img src= images/blank.png width =""200"" height = ""200"" style = ""float:right""></p><p><img src=images/blank.png width =""800"" height = ""200""></p>","","","","","","","","","","","",""
"","324.7950000000419","sequential-stimulus-presentation","291","512831","0.0-53.0-1.6","SS1612925923226","trial","","40","800","1124.795000000042","","","","","15","complex_dissimilar","images/stimuli/spore_stims/complex_02_A_b.gif","left","","","","",""
"","null","html-keyboard-response","292","513867","0.0-53.0-0.7","SS1612925923226","","","null","","","<p><img src= images/blank.png width =""200"" height = ""200"" style = ""float:right""></p><p><img src=images/blank.png width =""800"" height = ""200""></p>","","","","","","","","","","","",""
"","620.6800000000512","sequential-stimulus-presentation","293","515303","0.0-53.0-1.7","SS1612925923226","trial","","40","800","1420.6800000000512","","","","","15","complex_dissimilar","images/stimuli/spore_stims/complex_03_B_a.gif","right","","","","",""
"","1314.8699999997625","html-keyboard-response","294","516631","0.0-54.0","SS1612925923226","pref_question","","49","","","<video width ='960' height = '540' style='padding-top:8%' autoplay muted><source src='images/stimuli/wall_pref.mp4' type='video/mp4'></video>","1","left","25%","15","","","","","","","",""
"","680.1450000002515","sequential-stimulus-presentation","295","518127","0.0-55.0","SS1612925923226","pref_reveal","","40","800","1480.1450000002515","","","","","15","","","","background","","","",""
"","null","html-keyboard-response","296","519291","0.0-56.0-0.0","SS1612925923226","","","null","","","<p><img src= images/blank.png width =""200"" height = ""200"" style = ""float:right""></p><p><img src=images/blank.png width =""800"" height = ""200""></p>","","","","","","","","","","","",""
"","322.9200000000419","sequential-stimulus-presentation","297","520431","0.0-56.0-1.0","SS1612925923226","trial","","40","800","1122.920000000042","","","","","16","complex_similar","images/stimuli/spore_stims/complex_05_B_d.gif","right","","","","",""
"","null","html-keyboard-response","298","521480","0.0-56.0-0.1","SS1612925923226","","","null","","","<p><img src= images/blank.png width =""200"" height = ""200"" style = ""float:right""></p><p><img src=images/blank.png width =""800"" height = ""200""></p>","","","","","","","","","","","",""
"","228.90499999991152","sequential-stimulus-presentation","299","522527","0.0-56.0-1.1","SS1612925923226","trial","","40","800","1028.9049999999115","","","","","16","complex_similar","images/stimuli/spore_stims/complex_05_B_d.gif","right","","","","",""
"","null","html-keyboard-response","300","523523","0.0-56.0-0.2","SS1612925923226","","","null","","","<p><img src= images/blank.png width =""200"" height = ""200"" style = ""float:right""></p><p><img src=images/blank.png width =""800"" height = ""200""></p>","","","","","","","","","","","",""
"","355.70999999984633","sequential-stimulus-presentation","301","524735","0.0-56.0-1.2","SS1612925923226","trial","","40","800","1155.7099999998463","","","","","16","complex_similar","images/stimuli/spore_stims/complex_05_A_d.gif","middle","","","","",""
"","null","html-keyboard-response","302","525758","0.0-56.0-0.3","SS1612925923226","","","null","","","<p><img src= images/blank.png width =""200"" height = ""200"" style = ""float:right""></p><p><img src=images/blank.png width =""800"" height = ""200""></p>","","","","","","","","","","","",""
"","658.0399999998044","sequential-stimulus-presentation","303","527231","0.0-56.0-1.3","SS1612925923226","trial","","40","800","1458.0399999998044","","","","","16","complex_similar","images/stimuli/spore_stims/complex_05_B_d.gif","right","","","","",""
"","null","html-keyboard-response","304","528481","0.0-56.0-0.4","SS1612925923226","","","null","","","<p><img src= images/blank.png width =""200"" height = ""200"" style = ""float:right""></p><p><img src=images/blank.png width =""800"" height = ""200""></p>","","","","","","","","","","","",""
"","244.8300000000745","sequential-stimulus-presentation","305","529543","0.0-56.0-1.4","SS1612925923226","trial","","40","800","1044.8300000000745","","","","","16","complex_similar","images/stimuli/spore_stims/complex_05_B_d.gif","right","","","","",""
"","null","html-keyboard-response","306","530768","0.0-56.0-0.5","SS1612925923226","","","null","","","<p><img src= images/blank.png width =""200"" height = ""200"" style = ""float:right""></p><p><img src=images/blank.png width =""800"" height = ""200""></p>","","","","","","","","","","","",""
"","606.1449999996694","sequential-stimulus-presentation","307","532190","0.0-56.0-1.5","SS1612925923226","trial","","40","800","1406.1449999996694","","","","","16","complex_similar","images/stimuli/spore_stims/complex_05_B_d.gif","right","","","","",""
"","null","html-keyboard-response","308","533151","0.0-56.0-0.6","SS1612925923226","","","null","","","<p><img src= images/blank.png width =""200"" height = ""200"" style = ""float:right""></p><p><img src=images/blank.png width =""800"" height = ""200""></p>","","","","","","","","","","","",""
"","238.30999999970663","sequential-stimulus-presentation","309","534206","0.0-56.0-1.6","SS1612925923226","trial","","40","800","1038.3099999997066","","","","","16","complex_similar","images/stimuli/spore_stims/complex_05_B_d.gif","right","","","","",""
"","null","html-keyboard-response","310","535082","0.0-56.0-0.7","SS1612925923226","","","null","","","<p><img src= images/blank.png width =""200"" height = ""200"" style = ""float:right""></p><p><img src=images/blank.png width =""800"" height = ""200""></p>","","","","","","","","","","","",""
"","473.89999999990687","sequential-stimulus-presentation","311","536390","0.0-56.0-1.7","SS1612925923226","trial","","40","800","1273.8999999999069","","","","","16","complex_similar","images/stimuli/spore_stims/complex_05_B_d.gif","right","","","","",""
"","1393.710000000312","html-keyboard-response","312","537799","0.0-57.0","SS1612925923226","pref_question","","51","","","<video width ='960' height = '540' style='padding-top:8%' autoplay muted><source src='images/stimuli/wall_pref.mp4' type='video/mp4'></video>","3","right","66%","16","","","","","","","",""
"","823.684999999823","sequential-stimulus-presentation","313","539438","0.0-58.0","SS1612925923226","pref_reveal","","40","800","1623.684999999823","","","","","16","","","","background","","","",""
"","null","html-keyboard-response","314","540673","0.0-59.0-0.0","SS1612925923226","","","null","","","<p><img src= images/blank.png width =""200"" height = ""200"" style = ""float:right""></p><p><img src=images/blank.png width =""800"" height = ""200""></p>","","","","","","","","","","","",""
"","611.5049999998882","sequential-stimulus-presentation","315","542102","0.0-59.0-1.0","SS1612925923226","trial","","40","800","1411.5049999998882","","","","","17","simple_similar","images/stimuli/spore_stims/simple_11_B_c.gif","middle","","","","",""
"","null","html-keyboard-response","316","543383","0.0-59.0-0.1","SS1612925923226","","","null","","","<p><img src= images/blank.png width =""200"" height = ""200"" style = ""float:right""></p><p><img src=images/blank.png width =""800"" height = ""200""></p>","","","","","","","","","","","",""
"","182.3949999997858","sequential-stimulus-presentation","317","544383","0.0-59.0-1.1","SS1612925923226","trial","","40","800","982.3949999997858","","","","","17","simple_similar","images/stimuli/spore_stims/simple_11_B_c.gif","middle","","","","",""
"","null","html-keyboard-response","318","545460","0.0-59.0-0.2","SS1612925923226","","","null","","","<p><img src= images/blank.png width =""200"" height = ""200"" style = ""float:right""></p><p><img src=images/blank.png width =""800"" height = ""200""></p>","","","","","","","","","","","",""
"","737.8500000000931","sequential-stimulus-presentation","319","547029","0.0-59.0-1.2","SS1612925923226","trial","","40","800","1537.8500000000931","","","","","17","simple_similar","images/stimuli/spore_stims/simple_11_B_c.gif","middle","","","","",""
"","null","html-keyboard-response","320","548120","0.0-59.0-0.3","SS1612925923226","","","null","","","<p><img src= images/blank.png width =""200"" height = ""200"" style = ""float:right""></p><p><img src=images/blank.png width =""800"" height = ""200""></p>","","","","","","","","","","","",""
"","753.6199999998789","sequential-stimulus-presentation","321","549688","0.0-59.0-1.3","SS1612925923226","trial","","40","800","1553.619999999879","","","","","17","simple_similar","images/stimuli/spore_stims/simple_11_B_c.gif","middle","","","","",""
"","null","html-keyboard-response","322","550819","0.0-59.0-0.4","SS1612925923226","","","null","","","<p><img src= images/blank.png width =""200"" height = ""200"" style = ""float:right""></p><p><img src=images/blank.png width =""800"" height = ""200""></p>","","","","","","","","","","","",""
"","789.0550000001676","sequential-stimulus-presentation","323","552432","0.0-59.0-1.4","SS1612925923226","trial","","40","800","1589.0550000001676","","","","","17","simple_similar","images/stimuli/spore_stims/simple_11_B_c.gif","middle","","","","",""
"","null","html-keyboard-response","324","553715","0.0-59.0-0.5","SS1612925923226","","","null","","","<p><img src= images/blank.png width =""200"" height = ""200"" style = ""float:right""></p><p><img src=images/blank.png width =""800"" height = ""200""></p>","","","","","","","","","","","",""
"","356.699999999837","sequential-stimulus-presentation","325","554887","0.0-59.0-1.5","SS1612925923226","trial","","40","800","1156.699999999837","","","","","17","simple_similar","images/stimuli/spore_stims/simple_11_A_c.gif","left","","","","",""
"","null","html-keyboard-response","326","555761","0.0-59.0-0.6","SS1612925923226","","","null","","","<p><img src= images/blank.png width =""200"" height = ""200"" style = ""float:right""></p><p><img src=images/blank.png width =""800"" height = ""200""></p>","","","","","","","","","","","",""
"","1030.7400000002235","sequential-stimulus-presentation","327","557608","0.0-59.0-1.6","SS1612925923226","trial","","40","800","1830.7400000002235","","","","","17","simple_similar","images/stimuli/spore_stims/simple_11_B_c.gif","middle","","","","",""
"","null","html-keyboard-response","328","558802","0.0-59.0-0.7","SS1612925923226","","","null","","","<p><img src= images/blank.png width =""200"" height = ""200"" style = ""float:right""></p><p><img src=images/blank.png width =""800"" height = ""200""></p>","","","","","","","","","","","",""
"","552.2900000001537","sequential-stimulus-presentation","329","560172","0.0-59.0-1.7","SS1612925923226","trial","","40","800","1352.2900000001537","","","","","17","simple_similar","images/stimuli/spore_stims/simple_11_B_c.gif","middle","","","","",""
"","746.929999999702","html-keyboard-response","330","560936","0.0-60.0","SS1612925923226","pref_question","","50","","","<video width ='960' height = '540' style='padding-top:8%' autoplay muted><source src='images/stimuli/wall_pref.mp4' type='video/mp4'></video>","2","middle","45%","17","","","","","","","",""
"","1120.8049999999348","sequential-stimulus-presentation","331","562912","0.0-61.0","SS1612925923226","pref_reveal","","40","800","1920.8049999999348","","","","","17","","","","background","","","",""
"","null","html-keyboard-response","332","563788","0.0-62.0-0.0","SS1612925923226","","","null","","","<p><img src= images/blank.png width =""200"" height = ""200"" style = ""float:right""></p><p><img src=images/blank.png width =""800"" height = ""200""></p>","","","","","","","","","","","",""
"","1626.0699999998324","sequential-stimulus-presentation","333","566232","0.0-62.0-1.0","SS1612925923226","trial","","40","800","2426.0699999998324","","","","","18","simple_similar","images/stimuli/spore_stims/simple_15_B_d.gif","middle","","","","",""
"","null","html-keyboard-response","334","567319","0.0-62.0-0.1","SS1612925923226","","","null","","","<p><img src= images/blank.png width =""200"" height = ""200"" style = ""float:right""></p><p><img src=images/blank.png width =""800"" height = ""200""></p>","","","","","","","","","","","",""
"","361.1949999999488","sequential-stimulus-presentation","335","568498","0.0-62.0-1.1","SS1612925923226","trial","","40","800","1161.1949999999488","","","","","18","simple_similar","images/stimuli/spore_stims/simple_15_B_d.gif","middle","","","","",""
"","null","html-keyboard-response","336","569708","0.0-62.0-0.2","SS1612925923226","","","null","","","<p><img src= images/blank.png width =""200"" height = ""200"" style = ""float:right""></p><p><img src=images/blank.png width =""800"" height = ""200""></p>","","","","","","","","","","","",""
"","517.6449999999022","sequential-stimulus-presentation","337","571058","0.0-62.0-1.2","SS1612925923226","trial","","40","800","1317.6449999999022","","","","","18","simple_similar","images/stimuli/spore_stims/simple_15_B_d.gif","middle","","","","",""
"","null","html-keyboard-response","338","572218","0.0-62.0-0.3","SS1612925923226","","","null","","","<p><img src= images/blank.png width =""200"" height = ""200"" style = ""float:right""></p><p><img src=images/blank.png width =""800"" height = ""200""></p>","","","","","","","","","","","",""
"","757.5300000003772","sequential-stimulus-presentation","339","573791","0.0-62.0-1.3","SS1612925923226","trial","","40","800","1557.5300000003772","","","","","18","simple_similar","images/stimuli/spore_stims/simple_15_B_d.gif","middle","","","","",""
"","null","html-keyboard-response","340","574952","0.0-62.0-0.4","SS1612925923226","","","null","","","<p><img src= images/blank.png width =""200"" height = ""200"" style = ""float:right""></p><p><img src=images/blank.png width =""800"" height = ""200""></p>","","","","","","","","","","","",""
"","272.96500000020023","sequential-stimulus-presentation","341","576049","0.0-62.0-1.4","SS1612925923226","trial","","40","800","1072.9650000002002","","","","","18","simple_similar","images/stimuli/spore_stims/simple_15_B_d.gif","middle","","","","",""
"","null","html-keyboard-response","342","576904","0.0-62.0-0.5","SS1612925923226","","","null","","","<p><img src= images/blank.png width =""200"" height = ""200"" style = ""float:right""></p><p><img src=images/blank.png width =""800"" height = ""200""></p>","","","","","","","","","","","",""
"","774.7300000000978","sequential-stimulus-presentation","343","578495","0.0-62.0-1.5","SS1612925923226","trial","","40","800","1574.7300000000978","","","","","18","simple_similar","images/stimuli/spore_stims/simple_15_B_d.gif","middle","","","","",""
"","null","html-keyboard-response","344","579621","0.0-62.0-0.6","SS1612925923226","","","null","","","<p><img src= images/blank.png width =""200"" height = ""200"" style = ""float:right""></p><p><img src=images/blank.png width =""800"" height = ""200""></p>","","","","","","","","","","","",""
"","275.4700000000885","sequential-stimulus-presentation","345","580711","0.0-62.0-1.6","SS1612925923226","trial","","40","800","1075.4700000000885","","","","","18","simple_similar","images/stimuli/spore_stims/simple_15_B_d.gif","middle","","","","",""
"","null","html-keyboard-response","346","581610","0.0-62.0-0.7","SS1612925923226","","","null","","","<p><img src= images/blank.png width =""200"" height = ""200"" style = ""float:right""></p><p><img src=images/blank.png width =""800"" height = ""200""></p>","","","","","","","","","","","",""
"","548.9949999996461","sequential-stimulus-presentation","347","582974","0.0-62.0-1.7","SS1612925923226","trial","","40","800","1348.994999999646","","","","","18","simple_similar","images/stimuli/spore_stims/simple_15_A_d.gif","left","","","","",""
"","1561.319999999716","html-keyboard-response","348","584551","0.0-63.0","SS1612925923226","pref_question","","50","","","<video width ='960' height = '540' style='padding-top:8%' autoplay muted><source src='images/stimuli/wall_pref.mp4' type='video/mp4'></video>","2","middle","45%","18","","","","","","","",""
"","921.4249999999302","sequential-stimulus-presentation","349","586295","0.0-64.0","SS1612925923226","pref_reveal","","40","800","1721.4249999999302","","","","","18","","","","background","","","",""
"","null","html-keyboard-response","350","587597","0.0-65.0-0.0","SS1612925923226","","","null","","","<p><img src= images/blank.png width =""200"" height = ""200"" style = ""float:right""></p><p><img src=images/blank.png width =""800"" height = ""200""></p>","","","","","","","","","","","",""
"","735.5000000002328","sequential-stimulus-presentation","351","589166","0.0-65.0-1.0","SS1612925923226","trial","","40","800","1535.5000000002328","","","","","19","simple_dissimilar","images/stimuli/spore_stims/simple_02_B_b.gif","left","","","","",""
"","null","html-keyboard-response","352","590359","0.0-65.0-0.1","SS1612925923226","","","null","","","<p><img src= images/blank.png width =""200"" height = ""200"" style = ""float:right""></p><p><img src=images/blank.png width =""800"" height = ""200""></p>","","","","","","","","","","","",""
"","447.0150000001304","sequential-stimulus-presentation","353","591623","0.0-65.0-1.1","SS1612925923226","trial","","40","800","1247.0150000001304","","","","","19","simple_dissimilar","images/stimuli/spore_stims/simple_02_B_b.gif","left","","","","",""
"","null","html-keyboard-response","354","592719","0.0-65.0-0.2","SS1612925923226","","","null","","","<p><img src= images/blank.png width =""200"" height = ""200"" style = ""float:right""></p><p><img src=images/blank.png width =""800"" height = ""200""></p>","","","","","","","","","","","",""
"","279.52499999990687","sequential-stimulus-presentation","355","593815","0.0-65.0-1.2","SS1612925923226","trial","","40","800","1079.5249999999069","","","","","19","simple_dissimilar","images/stimuli/spore_stims/simple_02_B_b.gif","left","","","","",""
"","null","html-keyboard-response","356","594876","0.0-65.0-0.3","SS1612925923226","","","null","","","<p><img src= images/blank.png width =""200"" height = ""200"" style = ""float:right""></p><p><img src=images/blank.png width =""800"" height = ""200""></p>","","","","","","","","","","","",""
"","337.0299999996787","sequential-stimulus-presentation","357","596030","0.0-65.0-1.3","SS1612925923226","trial","","40","800","1137.0299999996787","","","","","19","simple_dissimilar","images/stimuli/spore_stims/simple_03_A_c.gif","middle","","","","",""
"","null","html-keyboard-response","358","596896","0.0-65.0-0.4","SS1612925923226","","","null","","","<p><img src= images/blank.png width =""200"" height = ""200"" style = ""float:right""></p><p><img src=images/blank.png width =""800"" height = ""200""></p>","","","","","","","","","","","",""
"","1462.884999999893","sequential-stimulus-presentation","359","599174","0.0-65.0-1.4","SS1612925923226","trial","","40","800","2262.884999999893","","","","","19","simple_dissimilar","images/stimuli/spore_stims/simple_02_B_b.gif","left","","","","",""
"","null","html-keyboard-response","360","600328","0.0-65.0-0.5","SS1612925923226","","","null","","","<p><img src= images/blank.png width =""200"" height = ""200"" style = ""float:right""></p><p><img src=images/blank.png width =""800"" height = ""200""></p>","","","","","","","","","","","",""
"","452.7000000003027","sequential-stimulus-presentation","361","601598","0.0-65.0-1.5","SS1612925923226","trial","","40","800","1252.7000000003027","","","","","19","simple_dissimilar","images/stimuli/spore_stims/simple_02_B_b.gif","left","","","","",""
"","null","html-keyboard-response","362","602719","0.0-65.0-0.6","SS1612925923226","","","null","","","<p><img src= images/blank.png width =""200"" height = ""200"" style = ""float:right""></p><p><img src=images/blank.png width =""800"" height = ""200""></p>","","","","","","","","","","","",""
"","854.5049999997718","sequential-stimulus-presentation","363","604389","0.0-65.0-1.6","SS1612925923226","trial","","40","800","1654.5049999997718","","","","","19","simple_dissimilar","images/stimuli/spore_stims/simple_02_B_b.gif","left","","","","",""
