"view_history","rt","trial_type","trial_index","time_elapsed","internal_node_id","subject","stimulus_type","trial_stimulus","key_press","minimum_viewing_duration","trial_looking_time","stimulus","wall_pref","location","location_percent","block_number","block_type","stimulus_displayed","position_displayed","stim_type_selected"
"[{""page_index"":0,""viewing_time"":9391}]","9393","instructions","0","9438","0.0-0.0","SS1612928718866","","","","","","","","","","","","","",""
"[{""page_index"":0,""viewing_time"":6722},{""page_index"":1,""viewing_time"":8247}]","14969","instructions","1","26423","0.0-1.0","SS1612928718866","instructions","","","","","","","","","","","","",""
"","12099","sequential-stimulus-presentation","2","39562","0.0-2.0","SS1612928718866","","","40","800","12899","","","","","","","","",""
"","4852","sequential-stimulus-presentation","3","45232","0.0-3.0","SS1612928718866","","","40","800","5652","","","","","","","","",""
"[{""page_index"":0,""viewing_time"":4333}]","4333","instructions","4","49571","0.0-4.0","SS1612928718866","instructions","","","","","","","","","","","","",""
"","8336","html-keyboard-response","5","57922","0.0-5.0","SS1612928718866","instructions","","49","","","<video width ='960' height = '540' autoplay muted><source src='images/stimuli/wall_pref.mp4' type='video/mp4'></video>","1","left","25%","","","","",""
"","3326","sequential-stimulus-presentation","6","62074","0.0-6.0","SS1612928718866","pref_reveal","","40","800","4126","","","","","","","","",""
"[{""page_index"":0,""viewing_time"":9800},{""page_index"":1,""viewing_time"":18029},{""page_index"":2,""viewing_time"":1046},{""page_index"":3,""viewing_time"":1154}]","30030","instructions","7","92109","0.0-7.0","SS1612928718866","instructions","","","","","","","","","","","","",""
"","null","html-keyboard-response","8","93089","0.0-8.0-0.0","SS1612928718866","","","null","","","<p><img src= images/blank.png width =""200"" height = ""200"" style = ""float:right""></p><p><img src=images/blank.png width =""800"" height = ""200""></p>","","","","","","","",""
"","3949","sequential-stimulus-presentation","9","97911","0.0-8.0-1.0","SS1612928718866","trial","","40","800","4749","","","","","0","simple_dissimilar","images/stimuli/spore_stims/simple_03_B_c.gif","middle",""
"","null","html-keyboard-response","10","98939","0.0-8.0-0.1","SS1612928718866","","","null","","","<p><img src= images/blank.png width =""200"" height = ""200"" style = ""float:right""></p><p><img src=images/blank.png width =""800"" height = ""200""></p>","","","","","","","",""
"","3362","sequential-stimulus-presentation","11","103123","0.0-8.0-1.1","SS1612928718866","trial","","40","800","4162","","","","","0","simple_dissimilar","images/stimuli/spore_stims/simple_03_B_c.gif","middle",""
"","null","html-keyboard-response","12","104069","0.0-8.0-0.2","SS1612928718866","","","null","","","<p><img src= images/blank.png width =""200"" height = ""200"" style = ""float:right""></p><p><img src=images/blank.png width =""800"" height = ""200""></p>","","","","","","","",""
"","1226","sequential-stimulus-presentation","13","106118","0.0-8.0-1.2","SS1612928718866","trial","","40","800","2026","","","","","0","simple_dissimilar","images/stimuli/spore_stims/simple_03_B_c.gif","middle",""
"","null","html-keyboard-response","14","107239","0.0-8.0-0.3","SS1612928718866","","","null","","","<p><img src= images/blank.png width =""200"" height = ""200"" style = ""float:right""></p><p><img src=images/blank.png width =""800"" height = ""200""></p>","","","","","","","",""
"","1041","sequential-stimulus-presentation","15","109101","0.0-8.0-1.3","SS1612928718866","trial","","40","800","1841","","","","","0","simple_dissimilar","images/stimuli/spore_stims/simple_03_B_c.gif","middle",""
"","null","html-keyboard-response","16","110330","0.0-8.0-0.4","SS1612928718866","","","null","","","<p><img src= images/blank.png width =""200"" height = ""200"" style = ""float:right""></p><p><img src=images/blank.png width =""800"" height = ""200""></p>","","","","","","","",""
"","754","sequential-stimulus-presentation","17","111895","0.0-8.0-1.4","SS1612928718866","trial","","40","800","1554","","","","","0","simple_dissimilar","images/stimuli/spore_stims/simple_03_B_c.gif","middle",""
"","null","html-keyboard-response","18","113100","0.0-8.0-0.5","SS1612928718866","","","null","","","<p><img src= images/blank.png width =""200"" height = ""200"" style = ""float:right""></p><p><img src=images/blank.png width =""800"" height = ""200""></p>","","","","","","","",""
"","4347","sequential-stimulus-presentation","19","118308","0.0-8.0-1.5","SS1612928718866","trial","","40","800","5147","","","","","0","simple_dissimilar","images/stimuli/spore_stims/simple_10_A_a.gif","left",""
"","null","html-keyboard-response","20","119379","0.0-8.0-0.6","SS1612928718866","","","null","","","<p><img src= images/blank.png width =""200"" height = ""200"" style = ""float:right""></p><p><img src=images/blank.png width =""800"" height = ""200""></p>","","","","","","","",""
"","461","sequential-stimulus-presentation","21","120651","0.0-8.0-1.6","SS1612928718866","trial","","40","800","1261","","","","","0","simple_dissimilar","images/stimuli/spore_stims/simple_03_B_c.gif","middle",""
"","null","html-keyboard-response","22","121580","0.0-8.0-0.7","SS1612928718866","","","null","","","<p><img src= images/blank.png width =""200"" height = ""200"" style = ""float:right""></p><p><img src=images/blank.png width =""800"" height = ""200""></p>","","","","","","","",""
"","556","sequential-stimulus-presentation","23","122957","0.0-8.0-1.7","SS1612928718866","trial","","40","800","1356","","","","","0","simple_dissimilar","images/stimuli/spore_stims/simple_03_B_c.gif","middle",""
"","4487","html-keyboard-response","24","127453","0.0-9.0","SS1612928718866","pref_question","","51","","","<video width ='960' height = '540' style='padding-top:8%' autoplay muted><source src='images/stimuli/wall_pref.mp4' type='video/mp4'></video>","3","right","66%","0","","","",""
"","4532","sequential-stimulus-presentation","25","132803","0.0-10.0","SS1612928718866","pref_reveal","","40","800","5332","","","","","0","","","","novel"
"","null","html-keyboard-response","26","133929","0.0-11.0-0.0","SS1612928718866","","","null","","","<p><img src= images/blank.png width =""200"" height = ""200"" style = ""float:right""></p><p><img src=images/blank.png width =""800"" height = ""200""></p>","","","","","","","",""
"","1807","sequential-stimulus-presentation","27","136548","0.0-11.0-1.0","SS1612928718866","trial","","40","800","2607","","","","","1","complex_dissimilar","images/stimuli/spore_stims/complex_09_A_a.gif","middle",""
"","null","html-keyboard-response","28","137789","0.0-11.0-0.1","SS1612928718866","","","null","","","<p><img src= images/blank.png width =""200"" height = ""200"" style = ""float:right""></p><p><img src=images/blank.png width =""800"" height = ""200""></p>","","","","","","","",""
"","1622","sequential-stimulus-presentation","29","140222","0.0-11.0-1.1","SS1612928718866","trial","","40","800","2422","","","","","1","complex_dissimilar","images/stimuli/spore_stims/complex_09_A_a.gif","middle",""
"","null","html-keyboard-response","30","141109","0.0-11.0-0.2","SS1612928718866","","","null","","","<p><img src= images/blank.png width =""200"" height = ""200"" style = ""float:right""></p><p><img src=images/blank.png width =""800"" height = ""200""></p>","","","","","","","",""
"","1255","sequential-stimulus-presentation","31","143185","0.0-11.0-1.2","SS1612928718866","trial","","40","800","2055","","","","","1","complex_dissimilar","images/stimuli/spore_stims/complex_09_A_a.gif","middle",""
"","null","html-keyboard-response","32","144399","0.0-11.0-0.3","SS1612928718866","","","null","","","<p><img src= images/blank.png width =""200"" height = ""200"" style = ""float:right""></p><p><img src=images/blank.png width =""800"" height = ""200""></p>","","","","","","","",""
"","2383","sequential-stimulus-presentation","33","147602","0.0-11.0-1.3","SS1612928718866","trial","","40","800","3183","","","","","1","complex_dissimilar","images/stimuli/spore_stims/complex_09_A_a.gif","middle",""
"","null","html-keyboard-response","34","148648","0.0-11.0-0.4","SS1612928718866","","","null","","","<p><img src= images/blank.png width =""200"" height = ""200"" style = ""float:right""></p><p><img src=images/blank.png width =""800"" height = ""200""></p>","","","","","","","",""
"","3000","sequential-stimulus-presentation","35","152471","0.0-11.0-1.4","SS1612928718866","trial","","40","800","3800","","","","","1","complex_dissimilar","images/stimuli/spore_stims/complex_11_A_c.gif","left",""
"","null","html-keyboard-response","36","153408","0.0-11.0-0.5","SS1612928718866","","","null","","","<p><img src= images/blank.png width =""200"" height = ""200"" style = ""float:right""></p><p><img src=images/blank.png width =""800"" height = ""200""></p>","","","","","","","",""
"","956","sequential-stimulus-presentation","37","155176","0.0-11.0-1.5","SS1612928718866","trial","","40","800","1756","","","","","1","complex_dissimilar","images/stimuli/spore_stims/complex_09_A_a.gif","middle",""
"","null","html-keyboard-response","38","156138","0.0-11.0-0.6","SS1612928718866","","","null","","","<p><img src= images/blank.png width =""200"" height = ""200"" style = ""float:right""></p><p><img src=images/blank.png width =""800"" height = ""200""></p>","","","","","","","",""
"","1166","sequential-stimulus-presentation","39","158126","0.0-11.0-1.6","SS1612928718866","trial","","40","800","1966","","","","","1","complex_dissimilar","images/stimuli/spore_stims/complex_09_A_a.gif","middle",""
"","null","html-keyboard-response","40","159188","0.0-11.0-0.7","SS1612928718866","","","null","","","<p><img src= images/blank.png width =""200"" height = ""200"" style = ""float:right""></p><p><img src=images/blank.png width =""800"" height = ""200""></p>","","","","","","","",""
"","2451","sequential-stimulus-presentation","41","162450","0.0-11.0-1.7","SS1612928718866","trial","","40","800","3251","","","","","1","complex_dissimilar","images/stimuli/spore_stims/complex_09_A_a.gif","middle",""
"","2621","html-keyboard-response","42","165085","0.0-12.0","SS1612928718866","pref_question","","49","","","<video width ='960' height = '540' style='padding-top:8%' autoplay muted><source src='images/stimuli/wall_pref.mp4' type='video/mp4'></video>","1","left","25%","1","","","",""
"","2616","sequential-stimulus-presentation","43","168525","0.0-13.0","SS1612928718866","pref_reveal","","40","800","3416","","","","","1","","","","deviant"
"","null","html-keyboard-response","44","169537","0.0-14.0-0.0","SS1612928718866","","","null","","","<p><img src= images/blank.png width =""200"" height = ""200"" style = ""float:right""></p><p><img src=images/blank.png width =""800"" height = ""200""></p>","","","","","","","",""
"","2470","sequential-stimulus-presentation","45","172819","0.0-14.0-1.0","SS1612928718866","trial","","40","800","3270","","","","","2","complex_similar","images/stimuli/spore_stims/complex_02_A_a.gif","right",""
"","null","html-keyboard-response","46","174128","0.0-14.0-0.1","SS1612928718866","","","null","","","<p><img src= images/blank.png width =""200"" height = ""200"" style = ""float:right""></p><p><img src=images/blank.png width =""800"" height = ""200""></p>","","","","","","","",""
"","1202","sequential-stimulus-presentation","47","176150","0.0-14.0-1.1","SS1612928718866","trial","","40","800","2002","","","","","2","complex_similar","images/stimuli/spore_stims/complex_02_A_a.gif","right",""
"","null","html-keyboard-response","48","177297","0.0-14.0-0.2","SS1612928718866","","","null","","","<p><img src= images/blank.png width =""200"" height = ""200"" style = ""float:right""></p><p><img src=images/blank.png width =""800"" height = ""200""></p>","","","","","","","",""
"","2079","sequential-stimulus-presentation","49","180187","0.0-14.0-1.2","SS1612928718866","trial","","40","800","2879","","","","","2","complex_similar","images/stimuli/spore_stims/complex_02_B_a.gif","left",""
"","null","html-keyboard-response","50","181038","0.0-14.0-0.3","SS1612928718866","","","null","","","<p><img src= images/blank.png width =""200"" height = ""200"" style = ""float:right""></p><p><img src=images/blank.png width =""800"" height = ""200""></p>","","","","","","","",""
"","1585","sequential-stimulus-presentation","51","183444","0.0-14.0-1.3","SS1612928718866","trial","","40","800","2385","","","","","2","complex_similar","images/stimuli/spore_stims/complex_02_A_a.gif","right",""
"","null","html-keyboard-response","52","184417","0.0-14.0-0.4","SS1612928718866","","","null","","","<p><img src= images/blank.png width =""200"" height = ""200"" style = ""float:right""></p><p><img src=images/blank.png width =""800"" height = ""200""></p>","","","","","","","",""
"","1464","sequential-stimulus-presentation","53","186692","0.0-14.0-1.4","SS1612928718866","trial","","40","800","2264","","","","","2","complex_similar","images/stimuli/spore_stims/complex_02_A_a.gif","right",""
"","null","html-keyboard-response","54","187748","0.0-14.0-0.5","SS1612928718866","","","null","","","<p><img src= images/blank.png width =""200"" height = ""200"" style = ""float:right""></p><p><img src=images/blank.png width =""800"" height = ""200""></p>","","","","","","","",""
"","1787","sequential-stimulus-presentation","55","190356","0.0-14.0-1.5","SS1612928718866","trial","","40","800","2587","","","","","2","complex_similar","images/stimuli/spore_stims/complex_02_A_a.gif","right",""
"","null","html-keyboard-response","56","191468","0.0-14.0-0.6","SS1612928718866","","","null","","","<p><img src= images/blank.png width =""200"" height = ""200"" style = ""float:right""></p><p><img src=images/blank.png width =""800"" height = ""200""></p>","","","","","","","",""
"","1937","sequential-stimulus-presentation","57","194225","0.0-14.0-1.6","SS1612928718866","trial","","40","800","2737","","","","","2","complex_similar","images/stimuli/spore_stims/complex_02_A_a.gif","right",""
"","null","html-keyboard-response","58","195287","0.0-14.0-0.7","SS1612928718866","","","null","","","<p><img src= images/blank.png width =""200"" height = ""200"" style = ""float:right""></p><p><img src=images/blank.png width =""800"" height = ""200""></p>","","","","","","","",""
"","2089","sequential-stimulus-presentation","59","198198","0.0-14.0-1.7","SS1612928718866","trial","","40","800","2889","","","","","2","complex_similar","images/stimuli/spore_stims/complex_02_A_a.gif","right",""
"","1768","html-keyboard-response","60","199974","0.0-15.0","SS1612928718866","pref_question","","50","","","<video width ='960' height = '540' style='padding-top:8%' autoplay muted><source src='images/stimuli/wall_pref.mp4' type='video/mp4'></video>","2","middle","45%","2","","","",""
"","5453","sequential-stimulus-presentation","61","206290","0.0-16.0","SS1612928718866","pref_reveal","","40","800","6253","","","","","2","","","","novel"
"","null","html-keyboard-response","62","207417","0.0-17.0-0.0","SS1612928718866","","","null","","","<p><img src= images/blank.png width =""200"" height = ""200"" style = ""float:right""></p><p><img src=images/blank.png width =""800"" height = ""200""></p>","","","","","","","",""
"","3079","sequential-stimulus-presentation","63","211318","0.0-17.0-1.0","SS1612928718866","trial","","40","800","3879","","","","","3","complex_dissimilar","images/stimuli/spore_stims/complex_05_A_c.gif","right",""
"","null","html-keyboard-response","64","212207","0.0-17.0-0.1","SS1612928718866","","","null","","","<p><img src= images/blank.png width =""200"" height = ""200"" style = ""float:right""></p><p><img src=images/blank.png width =""800"" height = ""200""></p>","","","","","","","",""
"","1458","sequential-stimulus-presentation","65","214475","0.0-17.0-1.1","SS1612928718866","trial","","40","800","2258","","","","","3","complex_dissimilar","images/stimuli/spore_stims/complex_05_A_c.gif","right",""
"","null","html-keyboard-response","66","215667","0.0-17.0-0.2","SS1612928718866","","","null","","","<p><img src= images/blank.png width =""200"" height = ""200"" style = ""float:right""></p><p><img src=images/blank.png width =""800"" height = ""200""></p>","","","","","","","",""
"","2315","sequential-stimulus-presentation","67","218803","0.0-17.0-1.2","SS1612928718866","trial","","40","800","3115","","","","","3","complex_dissimilar","images/stimuli/spore_stims/complex_05_A_c.gif","right",""
"","null","html-keyboard-response","68","220027","0.0-17.0-0.3","SS1612928718866","","","null","","","<p><img src= images/blank.png width =""200"" height = ""200"" style = ""float:right""></p><p><img src=images/blank.png width =""800"" height = ""200""></p>","","","","","","","",""
"","1718","sequential-stimulus-presentation","69","222566","0.0-17.0-1.3","SS1612928718866","trial","","40","800","2518","","","","","3","complex_dissimilar","images/stimuli/spore_stims/complex_05_A_c.gif","right",""
"","null","html-keyboard-response","70","223507","0.0-17.0-0.4","SS1612928718866","","","null","","","<p><img src= images/blank.png width =""200"" height = ""200"" style = ""float:right""></p><p><img src=images/blank.png width =""800"" height = ""200""></p>","","","","","","","",""
"","2444","sequential-stimulus-presentation","71","226771","0.0-17.0-1.4","SS1612928718866","trial","","40","800","3244","","","","","3","complex_dissimilar","images/stimuli/spore_stims/complex_05_A_c.gif","right",""
"","null","html-keyboard-response","72","227839","0.0-17.0-0.5","SS1612928718866","","","null","","","<p><img src= images/blank.png width =""200"" height = ""200"" style = ""float:right""></p><p><img src=images/blank.png width =""800"" height = ""200""></p>","","","","","","","",""
"","3749","sequential-stimulus-presentation","73","232418","0.0-17.0-1.5","SS1612928718866","trial","","40","800","4549","","","","","3","complex_dissimilar","images/stimuli/spore_stims/complex_11_B_b.gif","middle",""
"","null","html-keyboard-response","74","233309","0.0-17.0-0.6","SS1612928718866","","","null","","","<p><img src= images/blank.png width =""200"" height = ""200"" style = ""float:right""></p><p><img src=images/blank.png width =""800"" height = ""200""></p>","","","","","","","",""
"","2621","sequential-stimulus-presentation","75","236750","0.0-17.0-1.6","SS1612928718866","trial","","40","800","3421","","","","","3","complex_dissimilar","images/stimuli/spore_stims/complex_05_A_c.gif","right",""
"","null","html-keyboard-response","76","237638","0.0-17.0-0.7","SS1612928718866","","","null","","","<p><img src= images/blank.png width =""200"" height = ""200"" style = ""float:right""></p><p><img src=images/blank.png width =""800"" height = ""200""></p>","","","","","","","",""
"","2276","sequential-stimulus-presentation","77","240736","0.0-17.0-1.7","SS1612928718866","trial","","40","800","3076","","","","","3","complex_dissimilar","images/stimuli/spore_stims/complex_05_A_c.gif","right",""
"","6186","html-keyboard-response","78","246936","0.0-18.0","SS1612928718866","pref_question","","49","","","<video width ='960' height = '540' style='padding-top:8%' autoplay muted><source src='images/stimuli/wall_pref.mp4' type='video/mp4'></video>","1","left","25%","3","","","",""
"","3997","sequential-stimulus-presentation","79","251746","0.0-19.0","SS1612928718866","pref_reveal","","40","800","4797","","","","","3","","","","novel"
"","null","html-keyboard-response","80","253019","0.0-20.0-0.0","SS1612928718866","","","null","","","<p><img src= images/blank.png width =""200"" height = ""200"" style = ""float:right""></p><p><img src=images/blank.png width =""800"" height = ""200""></p>","","","","","","","",""
"","3104","sequential-stimulus-presentation","81","256945","0.0-20.0-1.0","SS1612928718866","trial","","40","800","3904","","","","","4","simple_similar","images/stimuli/spore_stims/simple_18_A_a.gif","middle",""
"","null","html-keyboard-response","82","258179","0.0-20.0-0.1","SS1612928718866","","","null","","","<p><img src= images/blank.png width =""200"" height = ""200"" style = ""float:right""></p><p><img src=images/blank.png width =""800"" height = ""200""></p>","","","","","","","",""
"","2514","sequential-stimulus-presentation","83","261515","0.0-20.0-1.1","SS1612928718866","trial","","40","800","3314","","","","","4","simple_similar","images/stimuli/spore_stims/simple_18_A_a.gif","middle",""
"","null","html-keyboard-response","84","262373","0.0-20.0-0.2","SS1612928718866","","","null","","","<p><img src= images/blank.png width =""200"" height = ""200"" style = ""float:right""></p><p><img src=images/blank.png width =""800"" height = ""200""></p>","","","","","","","",""
"","1564","sequential-stimulus-presentation","85","264759","0.0-20.0-1.2","SS1612928718866","trial","","40","800","2364","","","","","4","simple_similar","images/stimuli/spore_stims/simple_18_A_a.gif","middle",""
"","null","html-keyboard-response","86","266064","0.0-20.0-0.3","SS1612928718866","","","null","","","<p><img src= images/blank.png width =""200"" height = ""200"" style = ""float:right""></p><p><img src=images/blank.png width =""800"" height = ""200""></p>","","","","","","","",""
"","1274","sequential-stimulus-presentation","87","268158","0.0-20.0-1.3","SS1612928718866","trial","","40","800","2074","","","","","4","simple_similar","images/stimuli/spore_stims/simple_18_A_a.gif","middle",""
"","null","html-keyboard-response","88","269086","0.0-20.0-0.4","SS1612928718866","","","null","","","<p><img src= images/blank.png width =""200"" height = ""200"" style = ""float:right""></p><p><img src=images/blank.png width =""800"" height = ""200""></p>","","","","","","","",""
"","2326","sequential-stimulus-presentation","89","272243","0.0-20.0-1.4","SS1612928718866","trial","","40","800","3126","","","","","4","simple_similar","images/stimuli/spore_stims/simple_18_A_a.gif","middle",""
"","null","html-keyboard-response","90","273505","0.0-20.0-0.5","SS1612928718866","","","null","","","<p><img src= images/blank.png width =""200"" height = ""200"" style = ""float:right""></p><p><img src=images/blank.png width =""800"" height = ""200""></p>","","","","","","","",""
"","4968","sequential-stimulus-presentation","91","279344","0.0-20.0-1.5","SS1612928718866","trial","","40","800","5768","","","","","4","simple_similar","images/stimuli/spore_stims/simple_18_A_a.gif","middle",""
"","null","html-keyboard-response","92","280265","0.0-20.0-0.6","SS1612928718866","","","null","","","<p><img src= images/blank.png width =""200"" height = ""200"" style = ""float:right""></p><p><img src=images/blank.png width =""800"" height = ""200""></p>","","","","","","","",""
"","4441","sequential-stimulus-presentation","93","285597","0.0-20.0-1.6","SS1612928718866","trial","","40","800","5241","","","","","4","simple_similar","images/stimuli/spore_stims/simple_18_B_a.gif","right",""
"","null","html-keyboard-response","94","286474","0.0-20.0-0.7","SS1612928718866","","","null","","","<p><img src= images/blank.png width =""200"" height = ""200"" style = ""float:right""></p><p><img src=images/blank.png width =""800"" height = ""200""></p>","","","","","","","",""
"","4242","sequential-stimulus-presentation","95","291578","0.0-20.0-1.7","SS1612928718866","trial","","40","800","5042","","","","","4","simple_similar","images/stimuli/spore_stims/simple_18_A_a.gif","middle",""
"","9659","html-keyboard-response","96","301297","0.0-21.0","SS1612928718866","pref_question","","49","","","<video width ='960' height = '540' style='padding-top:8%' autoplay muted><source src='images/stimuli/wall_pref.mp4' type='video/mp4'></video>","1","left","25%","4","","","",""
"","4055","sequential-stimulus-presentation","97","306260","0.0-22.0","SS1612928718866","pref_reveal","","40","800","4855","","","","","4","","","","novel"
"","null","html-keyboard-response","98","307074","0.0-23.0-0.0","SS1612928718866","","","null","","","<p><img src= images/blank.png width =""200"" height = ""200"" style = ""float:right""></p><p><img src=images/blank.png width =""800"" height = ""200""></p>","","","","","","","",""
"","4385","sequential-stimulus-presentation","99","312392","0.0-23.0-1.0","SS1612928718866","trial","","40","800","5185","","","","","5","complex_similar","images/stimuli/spore_stims/complex_06_B_d.gif","middle",""
"","null","html-keyboard-response","100","313634","0.0-23.0-0.1","SS1612928718866","","","null","","","<p><img src= images/blank.png width =""200"" height = ""200"" style = ""float:right""></p><p><img src=images/blank.png width =""800"" height = ""200""></p>","","","","","","","",""
"","4485","sequential-stimulus-presentation","101","319016","0.0-23.0-1.1","SS1612928718866","trial","","40","800","5285","","","","","5","complex_similar","images/stimuli/spore_stims/complex_06_B_d.gif","middle",""
"","null","html-keyboard-response","102","319924","0.0-23.0-0.2","SS1612928718866","","","null","","","<p><img src= images/blank.png width =""200"" height = ""200"" style = ""float:right""></p><p><img src=images/blank.png width =""800"" height = ""200""></p>","","","","","","","",""
"","4523","sequential-stimulus-presentation","103","325346","0.0-23.0-1.2","SS1612928718866","trial","","40","800","5323","","","","","5","complex_similar","images/stimuli/spore_stims/complex_06_B_d.gif","middle",""
"","null","html-keyboard-response","104","326353","0.0-23.0-0.3","SS1612928718866","","","null","","","<p><img src= images/blank.png width =""200"" height = ""200"" style = ""float:right""></p><p><img src=images/blank.png width =""800"" height = ""200""></p>","","","","","","","",""
"","30868","sequential-stimulus-presentation","105","358053","0.0-23.0-1.3","SS1612928718866","trial","","40","800","31668","","","","","5","complex_similar","images/stimuli/spore_stims/complex_06_B_d.gif","middle",""
"","null","html-keyboard-response","106","361189","0.0-23.0-0.4","SS1612928718866","","","null","","","<p><img src= images/blank.png width =""200"" height = ""200"" style = ""float:right""></p><p><img src=images/blank.png width =""800"" height = ""200""></p>","","","","","","","",""
"","2124","sequential-stimulus-presentation","107","364237","0.0-23.0-1.4","SS1612928718866","trial","","40","800","2924","","","","","5","complex_similar","images/stimuli/spore_stims/complex_06_A_d.gif","right",""
"","null","html-keyboard-response","108","365332","0.0-23.0-0.5","SS1612928718866","","","null","","","<p><img src= images/blank.png width =""200"" height = ""200"" style = ""float:right""></p><p><img src=images/blank.png width =""800"" height = ""200""></p>","","","","","","","",""
"","2572","sequential-stimulus-presentation","109","368715","0.0-23.0-1.5","SS1612928718866","trial","","40","800","3372","","","","","5","complex_similar","images/stimuli/spore_stims/complex_06_B_d.gif","middle",""
"","null","html-keyboard-response","110","369712","0.0-23.0-0.6","SS1612928718866","","","null","","","<p><img src= images/blank.png width =""200"" height = ""200"" style = ""float:right""></p><p><img src=images/blank.png width =""800"" height = ""200""></p>","","","","","","","",""
"","1372","sequential-stimulus-presentation","111","371905","0.0-23.0-1.6","SS1612928718866","trial","","40","800","2172","","","","","5","complex_similar","images/stimuli/spore_stims/complex_06_B_d.gif","middle",""
"","null","html-keyboard-response","112","373182","0.0-23.0-0.7","SS1612928718866","","","null","","","<p><img src= images/blank.png width =""200"" height = ""200"" style = ""float:right""></p><p><img src=images/blank.png width =""800"" height = ""200""></p>","","","","","","","",""
"","961","sequential-stimulus-presentation","113","375155","0.0-23.0-1.7","SS1612928718866","trial","","40","800","1761","","","","","5","complex_similar","images/stimuli/spore_stims/complex_06_B_d.gif","middle",""
"","8044","html-keyboard-response","114","383683","0.0-24.0","SS1612928718866","pref_question","","49","","","<video width ='960' height = '540' style='padding-top:8%' autoplay muted><source src='images/stimuli/wall_pref.mp4' type='video/mp4'></video>","1","left","25%","5","","","",""
"","2850","sequential-stimulus-presentation","115","387502","0.0-25.0","SS1612928718866","pref_reveal","","40","800","3650","","","","","5","","","","novel"
"","null","html-keyboard-response","116","388541","0.0-26.0-0.0","SS1612928718866","","","null","","","<p><img src= images/blank.png width =""200"" height = ""200"" style = ""float:right""></p><p><img src=images/blank.png width =""800"" height = ""200""></p>","","","","","","","",""
"","4269","sequential-stimulus-presentation","117","393681","0.0-26.0-1.0","SS1612928718866","trial","","40","800","5069","","","","","6","simple_similar","images/stimuli/spore_stims/simple_17_A_c.gif","middle",""
"","null","html-keyboard-response","118","394761","0.0-26.0-0.1","SS1612928718866","","","null","","","<p><img src= images/blank.png width =""200"" height = ""200"" style = ""float:right""></p><p><img src=images/blank.png width =""800"" height = ""200""></p>","","","","","","","",""
"","2087","sequential-stimulus-presentation","119","397679","0.0-26.0-1.1","SS1612928718866","trial","","40","800","2887","","","","","6","simple_similar","images/stimuli/spore_stims/simple_17_A_c.gif","middle",""
"","null","html-keyboard-response","120","398921","0.0-26.0-0.2","SS1612928718866","","","null","","","<p><img src= images/blank.png width =""200"" height = ""200"" style = ""float:right""></p><p><img src=images/blank.png width =""800"" height = ""200""></p>","","","","","","","",""
"","637","sequential-stimulus-presentation","121","400379","0.0-26.0-1.2","SS1612928718866","trial","","40","800","1437","","","","","6","simple_similar","images/stimuli/spore_stims/simple_17_A_c.gif","middle",""
"","null","html-keyboard-response","122","401621","0.0-26.0-0.3","SS1612928718866","","","null","","","<p><img src= images/blank.png width =""200"" height = ""200"" style = ""float:right""></p><p><img src=images/blank.png width =""800"" height = ""200""></p>","","","","","","","",""
"","2982","sequential-stimulus-presentation","123","405474","0.0-26.0-1.3","SS1612928718866","trial","","40","800","3782","","","","","6","simple_similar","images/stimuli/spore_stims/simple_17_A_c.gif","middle",""
"","null","html-keyboard-response","124","406631","0.0-26.0-0.4","SS1612928718866","","","null","","","<p><img src= images/blank.png width =""200"" height = ""200"" style = ""float:right""></p><p><img src=images/blank.png width =""800"" height = ""200""></p>","","","","","","","",""
"","941","sequential-stimulus-presentation","125","408454","0.0-26.0-1.4","SS1612928718866","trial","","40","800","1741","","","","","6","simple_similar","images/stimuli/spore_stims/simple_17_A_c.gif","middle",""
"","null","html-keyboard-response","126","409420","0.0-26.0-0.5","SS1612928718866","","","null","","","<p><img src= images/blank.png width =""200"" height = ""200"" style = ""float:right""></p><p><img src=images/blank.png width =""800"" height = ""200""></p>","","","","","","","",""
"","6815","sequential-stimulus-presentation","127","417076","0.0-26.0-1.5","SS1612928718866","trial","","40","800","7615","","","","","6","simple_similar","images/stimuli/spore_stims/simple_17_B_c.gif","left",""
"","null","html-keyboard-response","128","418300","0.0-26.0-0.6","SS1612928718866","","","null","","","<p><img src= images/blank.png width =""200"" height = ""200"" style = ""float:right""></p><p><img src=images/blank.png width =""800"" height = ""200""></p>","","","","","","","",""
"","824","sequential-stimulus-presentation","129","419935","0.0-26.0-1.6","SS1612928718866","trial","","40","800","1624","","","","","6","simple_similar","images/stimuli/spore_stims/simple_17_A_c.gif","middle",""
"","null","html-keyboard-response","130","421061","0.0-26.0-0.7","SS1612928718866","","","null","","","<p><img src= images/blank.png width =""200"" height = ""200"" style = ""float:right""></p><p><img src=images/blank.png width =""800"" height = ""200""></p>","","","","","","","",""
"","1409","sequential-stimulus-presentation","131","423394","0.0-26.0-1.7","SS1612928718866","trial","","40","800","2209","","","","","6","simple_similar","images/stimuli/spore_stims/simple_17_A_c.gif","middle",""
"","6282","html-keyboard-response","132","429705","0.0-27.0","SS1612928718866","pref_question","","51","","","<video width ='960' height = '540' style='padding-top:8%' autoplay muted><source src='images/stimuli/wall_pref.mp4' type='video/mp4'></video>","3","right","66%","6","","","",""
"","3282","sequential-stimulus-presentation","133","433893","0.0-28.0","SS1612928718866","pref_reveal","","40","800","4082","","","","","6","","","","novel"
"","null","html-keyboard-response","134","434810","0.0-29.0-0.0","SS1612928718866","","","null","","","<p><img src= images/blank.png width =""200"" height = ""200"" style = ""float:right""></p><p><img src=images/blank.png width =""800"" height = ""200""></p>","","","","","","","",""
"","3581","sequential-stimulus-presentation","135","439271","0.0-29.0-1.0","SS1612928718866","trial","","40","800","4381","","","","","7","simple_similar","images/stimuli/spore_stims/simple_15_B_d.gif","right",""
"","null","html-keyboard-response","136","440399","0.0-29.0-0.1","SS1612928718866","","","null","","","<p><img src= images/blank.png width =""200"" height = ""200"" style = ""float:right""></p><p><img src=images/blank.png width =""800"" height = ""200""></p>","","","","","","","",""
"","1182","sequential-stimulus-presentation","137","442492","0.0-29.0-1.1","SS1612928718866","trial","","40","800","1982","","","","","7","simple_similar","images/stimuli/spore_stims/simple_15_B_d.gif","right",""
"","null","html-keyboard-response","138","443800","0.0-29.0-0.2","SS1612928718866","","","null","","","<p><img src= images/blank.png width =""200"" height = ""200"" style = ""float:right""></p><p><img src=images/blank.png width =""800"" height = ""200""></p>","","","","","","","",""
"","875","sequential-stimulus-presentation","139","445496","0.0-29.0-1.2","SS1612928718866","trial","","40","800","1675","","","","","7","simple_similar","images/stimuli/spore_stims/simple_15_B_d.gif","right",""
"","null","html-keyboard-response","140","446789","0.0-29.0-0.3","SS1612928718866","","","null","","","<p><img src= images/blank.png width =""200"" height = ""200"" style = ""float:right""></p><p><img src=images/blank.png width =""800"" height = ""200""></p>","","","","","","","",""
"","1709","sequential-stimulus-presentation","141","449309","0.0-29.0-1.3","SS1612928718866","trial","","40","800","2509","","","","","7","simple_similar","images/stimuli/spore_stims/simple_15_B_d.gif","right",""
"","null","html-keyboard-response","142","450479","0.0-29.0-0.4","SS1612928718866","","","null","","","<p><img src= images/blank.png width =""200"" height = ""200"" style = ""float:right""></p><p><img src=images/blank.png width =""800"" height = ""200""></p>","","","","","","","",""
"","1320","sequential-stimulus-presentation","143","452621","0.0-29.0-1.4","SS1612928718866","trial","","40","800","2120","","","","","7","simple_similar","images/stimuli/spore_stims/simple_15_B_d.gif","right",""
"","null","html-keyboard-response","144","453549","0.0-29.0-0.5","SS1612928718866","","","null","","","<p><img src= images/blank.png width =""200"" height = ""200"" style = ""float:right""></p><p><img src=images/blank.png width =""800"" height = ""200""></p>","","","","","","","",""
"","1355","sequential-stimulus-presentation","145","455725","0.0-29.0-1.5","SS1612928718866","trial","","40","800","2155","","","","","7","simple_similar","images/stimuli/spore_stims/simple_15_B_d.gif","right",""
"","null","html-keyboard-response","146","456609","0.0-29.0-0.6","SS1612928718866","","","null","","","<p><img src= images/blank.png width =""200"" height = ""200"" style = ""float:right""></p><p><img src=images/blank.png width =""800"" height = ""200""></p>","","","","","","","",""
"","3613","sequential-stimulus-presentation","147","461104","0.0-29.0-1.6","SS1612928718866","trial","","40","800","4413","","","","","7","simple_similar","images/stimuli/spore_stims/simple_15_A_d.gif","left",""
"","null","html-keyboard-response","148","462179","0.0-29.0-0.7","SS1612928718866","","","null","","","<p><img src= images/blank.png width =""200"" height = ""200"" style = ""float:right""></p><p><img src=images/blank.png width =""800"" height = ""200""></p>","","","","","","","",""
"","1437","sequential-stimulus-presentation","149","464437","0.0-29.0-1.7","SS1612928718866","trial","","40","800","2237","","","","","7","simple_similar","images/stimuli/spore_stims/simple_15_B_d.gif","right",""
"","9203","html-keyboard-response","150","473678","0.0-30.0","SS1612928718866","pref_question","","50","","","<video width ='960' height = '540' style='padding-top:8%' autoplay muted><source src='images/stimuli/wall_pref.mp4' type='video/mp4'></video>","2","middle","45%","7","","","",""
"","4708","sequential-stimulus-presentation","151","479237","0.0-31.0","SS1612928718866","pref_reveal","","40","800","5508","","","","","7","","","","novel"
"","null","html-keyboard-response","152","480408","0.0-32.0-0.0","SS1612928718866","","","null","","","<p><img src= images/blank.png width =""200"" height = ""200"" style = ""float:right""></p><p><img src=images/blank.png width =""800"" height = ""200""></p>","","","","","","","",""
"","2755","sequential-stimulus-presentation","153","486190","0.0-32.0-1.0","SS1612928718866","trial","","40","800","3555","","","","","8","complex_similar","images/stimuli/spore_stims/complex_16_A_c.gif","left",""
"","null","html-keyboard-response","154","487309","0.0-32.0-0.1","SS1612928718866","","","null","","","<p><img src= images/blank.png width =""200"" height = ""200"" style = ""float:right""></p><p><img src=images/blank.png width =""800"" height = ""200""></p>","","","","","","","",""
"","3824","sequential-stimulus-presentation","155","492044","0.0-32.0-1.1","SS1612928718866","trial","","40","800","4624","","","","","8","complex_similar","images/stimuli/spore_stims/complex_16_A_c.gif","left",""
"","null","html-keyboard-response","156","493297","0.0-32.0-0.2","SS1612928718866","","","null","","","<p><img src= images/blank.png width =""200"" height = ""200"" style = ""float:right""></p><p><img src=images/blank.png width =""800"" height = ""200""></p>","","","","","","","",""
"","918","sequential-stimulus-presentation","157","495079","0.0-32.0-1.2","SS1612928718866","trial","","40","800","1718","","","","","8","complex_similar","images/stimuli/spore_stims/complex_16_B_c.gif","right",""
"","null","html-keyboard-response","158","496337","0.0-32.0-0.3","SS1612928718866","","","null","","","<p><img src= images/blank.png width =""200"" height = ""200"" style = ""float:right""></p><p><img src=images/blank.png width =""800"" height = ""200""></p>","","","","","","","",""
"","772","sequential-stimulus-presentation","159","497922","0.0-32.0-1.3","SS1612928718866","trial","","40","800","1572","","","","","8","complex_similar","images/stimuli/spore_stims/complex_16_A_c.gif","left",""
"","null","html-keyboard-response","160","499188","0.0-32.0-0.4","SS1612928718866","","","null","","","<p><img src= images/blank.png width =""200"" height = ""200"" style = ""float:right""></p><p><img src=images/blank.png width =""800"" height = ""200""></p>","","","","","","","",""
"","835","sequential-stimulus-presentation","161","500845","0.0-32.0-1.4","SS1612928718866","trial","","40","800","1635","","","","","8","complex_similar","images/stimuli/spore_stims/complex_16_A_c.gif","left",""
"","null","html-keyboard-response","162","501798","0.0-32.0-0.5","SS1612928718866","","","null","","","<p><img src= images/blank.png width =""200"" height = ""200"" style = ""float:right""></p><p><img src=images/blank.png width =""800"" height = ""200""></p>","","","","","","","",""
"","1325","sequential-stimulus-presentation","163","503947","0.0-32.0-1.5","SS1612928718866","trial","","40","800","2125","","","","","8","complex_similar","images/stimuli/spore_stims/complex_16_A_c.gif","left",""
"","null","html-keyboard-response","164","504778","0.0-32.0-0.6","SS1612928718866","","","null","","","<p><img src= images/blank.png width =""200"" height = ""200"" style = ""float:right""></p><p><img src=images/blank.png width =""800"" height = ""200""></p>","","","","","","","",""
"","2545","sequential-stimulus-presentation","165","508206","0.0-32.0-1.6","SS1612928718866","trial","","40","800","3345","","","","","8","complex_similar","images/stimuli/spore_stims/complex_16_A_c.gif","left",""
"","null","html-keyboard-response","166","509257","0.0-32.0-0.7","SS1612928718866","","","null","","","<p><img src= images/blank.png width =""200"" height = ""200"" style = ""float:right""></p><p><img src=images/blank.png width =""800"" height = ""200""></p>","","","","","","","",""
"","533","sequential-stimulus-presentation","167","510702","0.0-32.0-1.7","SS1612928718866","trial","","40","800","1333","","","","","8","complex_similar","images/stimuli/spore_stims/complex_16_A_c.gif","left",""
"","7371","html-keyboard-response","168","518237","0.0-33.0","SS1612928718866","pref_question","","50","","","<video width ='960' height = '540' style='padding-top:8%' autoplay muted><source src='images/stimuli/wall_pref.mp4' type='video/mp4'></video>","2","middle","45%","8","","","",""
"","3186","sequential-stimulus-presentation","169","522604","0.0-34.0","SS1612928718866","pref_reveal","","40","800","3986","","","","","8","","","","novel"
"","null","html-keyboard-response","170","523878","0.0-35.0-0.0","SS1612928718866","","","null","","","<p><img src= images/blank.png width =""200"" height = ""200"" style = ""float:right""></p><p><img src=images/blank.png width =""800"" height = ""200""></p>","","","","","","","",""
"","25479","sequential-stimulus-presentation","171","550298","0.0-35.0-1.0","SS1612928718866","trial","","40","800","26279","","","","","9","simple_similar","images/stimuli/spore_stims/simple_11_A_d.gif","left",""
"","null","html-keyboard-response","172","551129","0.0-35.0-0.1","SS1612928718866","","","null","","","<p><img src= images/blank.png width =""200"" height = ""200"" style = ""float:right""></p><p><img src=images/blank.png width =""800"" height = ""200""></p>","","","","","","","",""
"","1909","sequential-stimulus-presentation","173","554620","0.0-35.0-1.1","SS1612928718866","trial","","40","800","2709","","","","","9","simple_similar","images/stimuli/spore_stims/simple_11_A_d.gif","left",""
"","null","html-keyboard-response","174","555549","0.0-35.0-0.2","SS1612928718866","","","null","","","<p><img src= images/blank.png width =""200"" height = ""200"" style = ""float:right""></p><p><img src=images/blank.png width =""800"" height = ""200""></p>","","","","","","","",""
"","850","sequential-stimulus-presentation","175","557240","0.0-35.0-1.2","SS1612928718866","trial","","40","800","1650","","","","","9","simple_similar","images/stimuli/spore_stims/simple_11_A_d.gif","left",""
"","null","html-keyboard-response","176","558519","0.0-35.0-0.3","SS1612928718866","","","null","","","<p><img src= images/blank.png width =""200"" height = ""200"" style = ""float:right""></p><p><img src=images/blank.png width =""800"" height = ""200""></p>","","","","","","","",""
"","3542","sequential-stimulus-presentation","177","563123","0.0-35.0-1.3","SS1612928718866","trial","","40","800","4342","","","","","9","simple_similar","images/stimuli/spore_stims/simple_11_A_d.gif","left",""
"","null","html-keyboard-response","178","564439","0.0-35.0-0.4","SS1612928718866","","","null","","","<p><img src= images/blank.png width =""200"" height = ""200"" style = ""float:right""></p><p><img src=images/blank.png width =""800"" height = ""200""></p>","","","","","","","",""
"","1500","sequential-stimulus-presentation","179","566771","0.0-35.0-1.4","SS1612928718866","trial","","40","800","2300","","","","","9","simple_similar","images/stimuli/spore_stims/simple_11_A_d.gif","left",""
"","null","html-keyboard-response","180","567759","0.0-35.0-0.5","SS1612928718866","","","null","","","<p><img src= images/blank.png width =""200"" height = ""200"" style = ""float:right""></p><p><img src=images/blank.png width =""800"" height = ""200""></p>","","","","","","","",""
"","7895","sequential-stimulus-presentation","181","576646","0.0-35.0-1.5","SS1612928718866","trial","","40","800","8695","","","","","9","simple_similar","images/stimuli/spore_stims/simple_11_A_d.gif","left",""
"","null","html-keyboard-response","182","577858","0.0-35.0-0.6","SS1612928718866","","","null","","","<p><img src= images/blank.png width =""200"" height = ""200"" style = ""float:right""></p><p><img src=images/blank.png width =""800"" height = ""200""></p>","","","","","","","",""
"","3374","sequential-stimulus-presentation","183","582154","0.0-35.0-1.6","SS1612928718866","trial","","40","800","4174","","","","","9","simple_similar","images/stimuli/spore_stims/simple_11_B_d.gif","right",""
"","null","html-keyboard-response","184","583218","0.0-35.0-0.7","SS1612928718866","","","null","","","<p><img src= images/blank.png width =""200"" height = ""200"" style = ""float:right""></p><p><img src=images/blank.png width =""800"" height = ""200""></p>","","","","","","","",""
"","7094","sequential-stimulus-presentation","185","591154","0.0-35.0-1.7","SS1612928718866","trial","","40","800","7894","","","","","9","simple_similar","images/stimuli/spore_stims/simple_11_A_d.gif","left",""
"","14222","html-keyboard-response","186","605634","0.0-36.0","SS1612928718866","pref_question","","50","","","<video width ='960' height = '540' style='padding-top:8%' autoplay muted><source src='images/stimuli/wall_pref.mp4' type='video/mp4'></video>","2","middle","45%","9","","","",""
"","55870","sequential-stimulus-presentation","187","662652","0.0-37.0","SS1612928718866","pref_reveal","","40","800","56670","","","","","9","","","","novel"
"","null","html-keyboard-response","188","663606","0.0-38.0-0.0","SS1612928718866","","","null","","","<p><img src= images/blank.png width =""200"" height = ""200"" style = ""float:right""></p><p><img src=images/blank.png width =""800"" height = ""200""></p>","","","","","","","",""
"","31378","sequential-stimulus-presentation","189","695914","0.0-38.0-1.0","SS1612928718866","trial","","40","800","32178","","","","","10","complex_dissimilar","images/stimuli/spore_stims/complex_10_B_b.gif","middle",""
"","null","html-keyboard-response","190","697175","0.0-38.0-0.1","SS1612928718866","","","null","","","<p><img src= images/blank.png width =""200"" height = ""200"" style = ""float:right""></p><p><img src=images/blank.png width =""800"" height = ""200""></p>","","","","","","","",""
"","617","sequential-stimulus-presentation","191","698633","0.0-38.0-1.1","SS1612928718866","trial","","40","800","1417","","","","","10","complex_dissimilar","images/stimuli/spore_stims/complex_10_B_b.gif","middle",""
"","null","html-keyboard-response","192","705205","0.0-38.0-0.2","SS1612928718866","","","null","","","<p><img src= images/blank.png width =""200"" height = ""200"" style = ""float:right""></p><p><img src=images/blank.png width =""800"" height = ""200""></p>","","","","","","","",""
"","431","sequential-stimulus-presentation","193","706497","0.0-38.0-1.2","SS1612928718866","trial","","40","800","1231","","","","","10","complex_dissimilar","images/stimuli/spore_stims/complex_15_B_b.gif","right",""
"","null","html-keyboard-response","194","707595","0.0-38.0-0.3","SS1612928718866","","","null","","","<p><img src= images/blank.png width =""200"" height = ""200"" style = ""float:right""></p><p><img src=images/blank.png width =""800"" height = ""200""></p>","","","","","","","",""
"","1175","sequential-stimulus-presentation","195","709878","0.0-38.0-1.3","SS1612928718866","trial","","40","800","1975","","","","","10","complex_dissimilar","images/stimuli/spore_stims/complex_10_B_b.gif","middle",""
"","null","html-keyboard-response","196","711074","0.0-38.0-0.4","SS1612928718866","","","null","","","<p><img src= images/blank.png width =""200"" height = ""200"" style = ""float:right""></p><p><img src=images/blank.png width =""800"" height = ""200""></p>","","","","","","","",""
"","2702","sequential-stimulus-presentation","197","714677","0.0-38.0-1.4","SS1612928718866","trial","","40","800","3502","","","","","10","complex_dissimilar","images/stimuli/spore_stims/complex_10_B_b.gif","middle",""
"","null","html-keyboard-response","198","715734","0.0-38.0-0.5","SS1612928718866","","","null","","","<p><img src= images/blank.png width =""200"" height = ""200"" style = ""float:right""></p><p><img src=images/blank.png width =""800"" height = ""200""></p>","","","","","","","",""
"","1273","sequential-stimulus-presentation","199","718608","0.0-38.0-1.5","SS1612928718866","trial","","40","800","2073","","","","","10","complex_dissimilar","images/stimuli/spore_stims/complex_10_B_b.gif","middle",""
"","null","html-keyboard-response","200","719474","0.0-38.0-0.6","SS1612928718866","","","null","","","<p><img src= images/blank.png width =""200"" height = ""200"" style = ""float:right""></p><p><img src=images/blank.png width =""800"" height = ""200""></p>","","","","","","","",""
"","6092","sequential-stimulus-presentation","201","727877","0.0-38.0-1.6","SS1612928718866","trial","","40","800","6892","","","","","10","complex_dissimilar","images/stimuli/spore_stims/complex_10_B_b.gif","middle",""
"","null","html-keyboard-response","202","729094","0.0-38.0-0.7","SS1612928718866","","","null","","","<p><img src= images/blank.png width =""200"" height = ""200"" style = ""float:right""></p><p><img src=images/blank.png width =""800"" height = ""200""></p>","","","","","","","",""
"","1348","sequential-stimulus-presentation","203","731342","0.0-38.0-1.7","SS1612928718866","trial","","40","800","2148","","","","","10","complex_dissimilar","images/stimuli/spore_stims/complex_10_B_b.gif","middle",""
"","37966","html-keyboard-response","204","769494","0.0-39.0","SS1612928718866","pref_question","","49","","","<video width ='960' height = '540' style='padding-top:8%' autoplay muted><source src='images/stimuli/wall_pref.mp4' type='video/mp4'></video>","1","left","25%","10","","","",""
"","93194","sequential-stimulus-presentation","205","864882","0.0-40.0","SS1612928718866","pref_reveal","","40","800","93994","","","","","10","","","","novel"
