"view_history","rt","trial_type","trial_index","time_elapsed","internal_node_id","subject","stimulus_type","trial_stimulus","key_press","minimum_viewing_duration","trial_looking_time","stimulus","wall_pref","location","location_percent","block_number","block_type","stimulus_displayed","position_displayed","stim_type_selected","responses","question_order","stimulus_left","stimulus_right"
"[{""page_index"":0,""viewing_time"":1881.4300000085495}]","1881.9800000055693","instructions","0","1883","0.0-0.0","SS1612915431309","","","","","","","","","","","","","","","","","",""
"[{""page_index"":0,""viewing_time"":1709.5350000308827},{""page_index"":1,""viewing_time"":36128.22499999311}]","37838.190000038594","instructions","1","41730","0.0-1.0","SS1612915431309","instructions","","","","","","","","","","","","","","","","",""
"","1681.8399999756366","sequential-stimulus-presentation","2","44220","0.0-2.0","SS1612915431309","","","40","800","2481.8399999756366","","","","","","","","","","","","",""
"","592.4449999583885","sequential-stimulus-presentation","3","45617","0.0-3.0","SS1612915431309","","","40","800","1392.4449999583885","","","","","","","","","","","","",""
"[{""page_index"":0,""viewing_time"":1742.9700000211596}]","1743.4350000112318","instructions","4","47361","0.0-4.0","SS1612915431309","instructions","","","","","","","","","","","","","","","","",""
"","2438.76500002807","html-keyboard-response","5","49804","0.0-5.0","SS1612915431309","instructions","","50","","","<video width ='960' height = '540' autoplay muted><source src='images/stimuli/wall_pref.mp4' type='video/mp4'></video>","2","middle","45%","","","","","","","","",""
"","591.2549999775365","sequential-stimulus-presentation","6","51205","0.0-6.0","SS1612915431309","pref_reveal","","40","800","1391.2549999775365","","","","","","","","","","","","",""
"[{""page_index"":0,""viewing_time"":1650.2300000283867},{""page_index"":1,""viewing_time"":543.4449999593198},{""page_index"":2,""viewing_time"":881.3050000462681},{""page_index"":3,""viewing_time"":911.5299999830313}]","3986.910000036005","instructions","7","55193","0.0-7.0","SS1612915431309","instructions","","","","","","","","","","","","","","","","",""
"","null","html-keyboard-response","8","56340","0.0-8.0-0.0","SS1612915431309","","","null","","","<p><img src= images/blank.png width =""200"" height = ""200"" style = ""float:right""></p><p><img src=images/blank.png width =""800"" height = ""200""></p>","","","","","","","","","","","",""
"","512.0650000171736","sequential-stimulus-presentation","9","57660","0.0-8.0-1.0","SS1612915431309","trial","","40","800","1312.0650000171736","","","","","0","complex_similar","images/stimuli/spore_stims/complex_01_B_c.gif","middle","","","","",""
"","null","html-keyboard-response","10","58671","0.0-8.0-0.1","SS1612915431309","","","null","","","<p><img src= images/blank.png width =""200"" height = ""200"" style = ""float:right""></p><p><img src=images/blank.png width =""800"" height = ""200""></p>","","","","","","","","","","","",""
"","789.8649999988265","sequential-stimulus-presentation","11","60267","0.0-8.0-1.1","SS1612915431309","trial","","40","800","1589.8649999988265","","","","","0","complex_similar","images/stimuli/spore_stims/complex_01_B_c.gif","middle","","","","",""
"","null","html-keyboard-response","12","61459","0.0-8.0-0.2","SS1612915431309","","","null","","","<p><img src= images/blank.png width =""200"" height = ""200"" style = ""float:right""></p><p><img src=images/blank.png width =""800"" height = ""200""></p>","","","","","","","","","","","",""
"","14159.924999985378","sequential-stimulus-presentation","13","76428","0.0-8.0-1.2","SS1612915431309","trial","","40","800","14959.924999985378","","","","","0","complex_similar","images/stimuli/spore_stims/complex_01_B_c.gif","middle","","","","",""
"","null","html-keyboard-response","14","77373","0.0-8.0-0.3","SS1612915431309","","","null","","","<p><img src= images/blank.png width =""200"" height = ""200"" style = ""float:right""></p><p><img src=images/blank.png width =""800"" height = ""200""></p>","","","","","","","","","","","",""
"","562.3100000084378","sequential-stimulus-presentation","15","78746","0.0-8.0-1.3","SS1612915431309","trial","","40","800","1362.3100000084378","","","","","0","complex_similar","images/stimuli/spore_stims/complex_01_A_c.gif","right","","","","",""
"","null","html-keyboard-response","16","79819","0.0-8.0-0.4","SS1612915431309","","","null","","","<p><img src= images/blank.png width =""200"" height = ""200"" style = ""float:right""></p><p><img src=images/blank.png width =""800"" height = ""200""></p>","","","","","","","","","","","",""
"","791.2149999756366","sequential-stimulus-presentation","17","81418","0.0-8.0-1.4","SS1612915431309","trial","","40","800","1591.2149999756366","","","","","0","complex_similar","images/stimuli/spore_stims/complex_01_B_c.gif","middle","","","","",""
"","null","html-keyboard-response","18","82635","0.0-8.0-0.5","SS1612915431309","","","null","","","<p><img src= images/blank.png width =""200"" height = ""200"" style = ""float:right""></p><p><img src=images/blank.png width =""800"" height = ""200""></p>","","","","","","","","","","","",""
"","1424.1000000038184","sequential-stimulus-presentation","19","84868","0.0-8.0-1.5","SS1612915431309","trial","","40","800","2224.1000000038184","","","","","0","complex_similar","images/stimuli/spore_stims/complex_01_B_c.gif","middle","","","","",""
"","null","html-keyboard-response","20","86166","0.0-8.0-0.6","SS1612915431309","","","null","","","<p><img src= images/blank.png width =""200"" height = ""200"" style = ""float:right""></p><p><img src=images/blank.png width =""800"" height = ""200""></p>","","","","","","","","","","","",""
"","22.300000011455268","sequential-stimulus-presentation","21","86994","0.0-8.0-1.6","SS1612915431309","trial","","40","800","822.3000000114553","","","","","0","complex_similar","images/stimuli/spore_stims/complex_01_B_c.gif","middle","","","","",""
"","null","html-keyboard-response","22","87798","0.0-8.0-0.7","SS1612915431309","","","null","","","<p><img src= images/blank.png width =""200"" height = ""200"" style = ""float:right""></p><p><img src=images/blank.png width =""800"" height = ""200""></p>","","","","","","","","","","","",""
"","475.96000001067296","sequential-stimulus-presentation","23","89092","0.0-8.0-1.7","SS1612915431309","trial","","40","800","1275.960000010673","","","","","0","complex_similar","images/stimuli/spore_stims/complex_01_B_c.gif","middle","","","","",""
"","1418.854999996256","html-keyboard-response","24","90515","0.0-9.0","SS1612915431309","pref_question","","49","","","<video width ='960' height = '540' style='padding-top:8%' autoplay muted><source src='images/stimuli/wall_pref.mp4' type='video/mp4'></video>","1","left","25%","0","","","","","","","",""
"","890.7600000384264","sequential-stimulus-presentation","25","92210","0.0-10.0","SS1612915431309","pref_reveal","","40","800","1690.7600000384264","","","","","0","","","","novel","","","",""
"","null","html-keyboard-response","26","93378","0.0-11.0-0.0","SS1612915431309","","","null","","","<p><img src= images/blank.png width =""200"" height = ""200"" style = ""float:right""></p><p><img src=images/blank.png width =""800"" height = ""200""></p>","","","","","","","","","","","",""
"","372.3500000196509","sequential-stimulus-presentation","27","94557","0.0-11.0-1.0","SS1612915431309","trial","","40","800","1172.350000019651","","","","","1","complex_similar","images/stimuli/spore_stims/complex_16_A_c.gif","right","","","","",""
"","null","html-keyboard-response","28","95834","0.0-11.0-0.1","SS1612915431309","","","null","","","<p><img src= images/blank.png width =""200"" height = ""200"" style = ""float:right""></p><p><img src=images/blank.png width =""800"" height = ""200""></p>","","","","","","","","","","","",""
"","1796.4499999652617","sequential-stimulus-presentation","29","98437","0.0-11.0-1.1","SS1612915431309","trial","","40","800","2596.4499999652617","","","","","1","complex_similar","images/stimuli/spore_stims/complex_16_A_c.gif","right","","","","",""
"","null","html-keyboard-response","30","99302","0.0-11.0-0.2","SS1612915431309","","","null","","","<p><img src= images/blank.png width =""200"" height = ""200"" style = ""float:right""></p><p><img src=images/blank.png width =""800"" height = ""200""></p>","","","","","","","","","","","",""
"","1146.9400000059977","sequential-stimulus-presentation","31","101256","0.0-11.0-1.2","SS1612915431309","trial","","40","800","1946.9400000059977","","","","","1","complex_similar","images/stimuli/spore_stims/complex_16_A_c.gif","right","","","","",""
"","null","html-keyboard-response","32","102234","0.0-11.0-0.3","SS1612915431309","","","null","","","<p><img src= images/blank.png width =""200"" height = ""200"" style = ""float:right""></p><p><img src=images/blank.png width =""800"" height = ""200""></p>","","","","","","","","","","","",""
"","891.2999999593012","sequential-stimulus-presentation","33","103932","0.0-11.0-1.3","SS1612915431309","trial","","40","800","1691.2999999593012","","","","","1","complex_similar","images/stimuli/spore_stims/complex_16_B_c.gif","middle","","","","",""
"","null","html-keyboard-response","34","104856","0.0-11.0-0.4","SS1612915431309","","","null","","","<p><img src= images/blank.png width =""200"" height = ""200"" style = ""float:right""></p><p><img src=images/blank.png width =""800"" height = ""200""></p>","","","","","","","","","","","",""
"","2348.4649999882095","sequential-stimulus-presentation","35","108027","0.0-11.0-1.4","SS1612915431309","trial","","40","800","3148.4649999882095","","","","","1","complex_similar","images/stimuli/spore_stims/complex_16_A_c.gif","right","","","","",""
"","null","html-keyboard-response","36","108933","0.0-11.0-0.5","SS1612915431309","","","null","","","<p><img src= images/blank.png width =""200"" height = ""200"" style = ""float:right""></p><p><img src=images/blank.png width =""800"" height = ""200""></p>","","","","","","","","","","","",""
"","465.009999985341","sequential-stimulus-presentation","37","110205","0.0-11.0-1.5","SS1612915431309","trial","","40","800","1265.009999985341","","","","","1","complex_similar","images/stimuli/spore_stims/complex_16_A_c.gif","right","","","","",""
"","null","html-keyboard-response","38","111284","0.0-11.0-0.6","SS1612915431309","","","null","","","<p><img src= images/blank.png width =""200"" height = ""200"" style = ""float:right""></p><p><img src=images/blank.png width =""800"" height = ""200""></p>","","","","","","","","","","","",""
"","494.4699999759905","sequential-stimulus-presentation","39","112588","0.0-11.0-1.6","SS1612915431309","trial","","40","800","1294.4699999759905","","","","","1","complex_similar","images/stimuli/spore_stims/complex_16_A_c.gif","right","","","","",""
"","null","html-keyboard-response","40","113715","0.0-11.0-0.7","SS1612915431309","","","null","","","<p><img src= images/blank.png width =""200"" height = ""200"" style = ""float:right""></p><p><img src=images/blank.png width =""800"" height = ""200""></p>","","","","","","","","","","","",""
"","1649.5199999772012","sequential-stimulus-presentation","41","116172","0.0-11.0-1.7","SS1612915431309","trial","","40","800","2449.519999977201","","","","","1","complex_similar","images/stimuli/spore_stims/complex_16_A_c.gif","right","","","","",""
"","996.0050000227056","html-keyboard-response","42","117172","0.0-12.0","SS1612915431309","pref_question","","49","","","<video width ='960' height = '540' style='padding-top:8%' autoplay muted><source src='images/stimuli/wall_pref.mp4' type='video/mp4'></video>","1","left","25%","1","","","","","","","",""
"","1019.7449999977835","sequential-stimulus-presentation","43","119005","0.0-13.0","SS1612915431309","pref_reveal","","40","800","1819.7449999977835","","","","","1","","","","novel","","","",""
"","null","html-keyboard-response","44","119991","0.0-14.0-0.0","SS1612915431309","","","null","","","<p><img src= images/blank.png width =""200"" height = ""200"" style = ""float:right""></p><p><img src=images/blank.png width =""800"" height = ""200""></p>","","","","","","","","","","","",""
"","746.2049999739975","sequential-stimulus-presentation","45","121549","0.0-14.0-1.0","SS1612915431309","trial","","40","800","1546.2049999739975","","","","","2","simple_similar","images/stimuli/spore_stims/simple_18_A_d.gif","left","","","","",""
"","null","html-keyboard-response","46","122465","0.0-14.0-0.1","SS1612915431309","","","null","","","<p><img src= images/blank.png width =""200"" height = ""200"" style = ""float:right""></p><p><img src=images/blank.png width =""800"" height = ""200""></p>","","","","","","","","","","","",""
"","540.355000004638","sequential-stimulus-presentation","47","123811","0.0-14.0-1.1","SS1612915431309","trial","","40","800","1340.355000004638","","","","","2","simple_similar","images/stimuli/spore_stims/simple_18_A_d.gif","left","","","","",""
"","null","html-keyboard-response","48","125084","0.0-14.0-0.2","SS1612915431309","","","null","","","<p><img src= images/blank.png width =""200"" height = ""200"" style = ""float:right""></p><p><img src=images/blank.png width =""800"" height = ""200""></p>","","","","","","","","","","","",""
"","702.6799999875948","sequential-stimulus-presentation","49","126595","0.0-14.0-1.2","SS1612915431309","trial","","40","800","1502.6799999875948","","","","","2","simple_similar","images/stimuli/spore_stims/simple_18_A_d.gif","left","","","","",""
"","null","html-keyboard-response","50","127586","0.0-14.0-0.3","SS1612915431309","","","null","","","<p><img src= images/blank.png width =""200"" height = ""200"" style = ""float:right""></p><p><img src=images/blank.png width =""800"" height = ""200""></p>","","","","","","","","","","","",""
"","946.4799999841489","sequential-stimulus-presentation","51","129340","0.0-14.0-1.3","SS1612915431309","trial","","40","800","1746.479999984149","","","","","2","simple_similar","images/stimuli/spore_stims/simple_18_A_d.gif","left","","","","",""
"","null","html-keyboard-response","52","130183","0.0-14.0-0.4","SS1612915431309","","","null","","","<p><img src= images/blank.png width =""200"" height = ""200"" style = ""float:right""></p><p><img src=images/blank.png width =""800"" height = ""200""></p>","","","","","","","","","","","",""
"","430.27499999152496","sequential-stimulus-presentation","53","131419","0.0-14.0-1.4","SS1612915431309","trial","","40","800","1230.274999991525","","","","","2","simple_similar","images/stimuli/spore_stims/simple_18_A_d.gif","left","","","","",""
"","null","html-keyboard-response","54","132642","0.0-14.0-0.5","SS1612915431309","","","null","","","<p><img src= images/blank.png width =""200"" height = ""200"" style = ""float:right""></p><p><img src=images/blank.png width =""800"" height = ""200""></p>","","","","","","","","","","","",""
"","704.2450000299141","sequential-stimulus-presentation","55","134157","0.0-14.0-1.5","SS1612915431309","trial","","40","800","1504.245000029914","","","","","2","simple_similar","images/stimuli/spore_stims/simple_18_B_d.gif","right","","","","",""
"","null","html-keyboard-response","56","135400","0.0-14.0-0.6","SS1612915431309","","","null","","","<p><img src= images/blank.png width =""200"" height = ""200"" style = ""float:right""></p><p><img src=images/blank.png width =""800"" height = ""200""></p>","","","","","","","","","","","",""
"","470.0249999877997","sequential-stimulus-presentation","57","136676","0.0-14.0-1.6","SS1612915431309","trial","","40","800","1270.0249999877997","","","","","2","simple_similar","images/stimuli/spore_stims/simple_18_A_d.gif","left","","","","",""
"","null","html-keyboard-response","58","137510","0.0-14.0-0.7","SS1612915431309","","","null","","","<p><img src= images/blank.png width =""200"" height = ""200"" style = ""float:right""></p><p><img src=images/blank.png width =""800"" height = ""200""></p>","","","","","","","","","","","",""
"","523.4499999787658","sequential-stimulus-presentation","59","138844","0.0-14.0-1.7","SS1612915431309","trial","","40","800","1323.4499999787658","","","","","2","simple_similar","images/stimuli/spore_stims/simple_18_A_d.gif","left","","","","",""
"","1093.4499999857508","html-keyboard-response","60","139942","0.0-15.0","SS1612915431309","pref_question","","49","","","<video width ='960' height = '540' style='padding-top:8%' autoplay muted><source src='images/stimuli/wall_pref.mp4' type='video/mp4'></video>","1","left","25%","2","","","","","","","",""
"","485.5950000346638","sequential-stimulus-presentation","61","141235","0.0-16.0","SS1612915431309","pref_reveal","","40","800","1285.5950000346638","","","","","2","","","","background","","","",""
"","null","html-keyboard-response","62","142146","0.0-17.0-0.0","SS1612915431309","","","null","","","<p><img src= images/blank.png width =""200"" height = ""200"" style = ""float:right""></p><p><img src=images/blank.png width =""800"" height = ""200""></p>","","","","","","","","","","","",""
"","463.69500004220754","sequential-stimulus-presentation","63","143421","0.0-17.0-1.0","SS1612915431309","trial","","40","800","1263.6950000422075","","","","","3","complex_dissimilar","images/stimuli/spore_stims/complex_03_A_a.gif","middle","","","","",""
"","null","html-keyboard-response","64","144317","0.0-17.0-0.1","SS1612915431309","","","null","","","<p><img src= images/blank.png width =""200"" height = ""200"" style = ""float:right""></p><p><img src=images/blank.png width =""800"" height = ""200""></p>","","","","","","","","","","","",""
"","460.8599999919534","sequential-stimulus-presentation","65","145589","0.0-17.0-1.1","SS1612915431309","trial","","40","800","1260.8599999919534","","","","","3","complex_dissimilar","images/stimuli/spore_stims/complex_03_A_a.gif","middle","","","","",""
"","null","html-keyboard-response","66","146487","0.0-17.0-0.2","SS1612915431309","","","null","","","<p><img src= images/blank.png width =""200"" height = ""200"" style = ""float:right""></p><p><img src=images/blank.png width =""800"" height = ""200""></p>","","","","","","","","","","","",""
"","386.5349999978207","sequential-stimulus-presentation","67","147685","0.0-17.0-1.2","SS1612915431309","trial","","40","800","1186.5349999978207","","","","","3","complex_dissimilar","images/stimuli/spore_stims/complex_02_A_a.gif","left","","","","",""
"","null","html-keyboard-response","68","148653","0.0-17.0-0.3","SS1612915431309","","","null","","","<p><img src= images/blank.png width =""200"" height = ""200"" style = ""float:right""></p><p><img src=images/blank.png width =""800"" height = ""200""></p>","","","","","","","","","","","",""
"","547.7700000046752","sequential-stimulus-presentation","69","150011","0.0-17.0-1.3","SS1612915431309","trial","","40","800","1347.7700000046752","","","","","3","complex_dissimilar","images/stimuli/spore_stims/complex_03_A_a.gif","middle","","","","",""
"","null","html-keyboard-response","70","150978","0.0-17.0-0.4","SS1612915431309","","","null","","","<p><img src= images/blank.png width =""200"" height = ""200"" style = ""float:right""></p><p><img src=images/blank.png width =""800"" height = ""200""></p>","","","","","","","","","","","",""
"","565.6350000062957","sequential-stimulus-presentation","71","152352","0.0-17.0-1.4","SS1612915431309","trial","","40","800","1365.6350000062957","","","","","3","complex_dissimilar","images/stimuli/spore_stims/complex_03_A_a.gif","middle","","","","",""
"","null","html-keyboard-response","72","153453","0.0-17.0-0.5","SS1612915431309","","","null","","","<p><img src= images/blank.png width =""200"" height = ""200"" style = ""float:right""></p><p><img src=images/blank.png width =""800"" height = ""200""></p>","","","","","","","","","","","",""
"","196.9299999764189","sequential-stimulus-presentation","73","154456","0.0-17.0-1.5","SS1612915431309","trial","","40","800","996.9299999764189","","","","","3","complex_dissimilar","images/stimuli/spore_stims/complex_03_A_a.gif","middle","","","","",""
"","null","html-keyboard-response","74","155589","0.0-17.0-0.6","SS1612915431309","","","null","","","<p><img src= images/blank.png width =""200"" height = ""200"" style = ""float:right""></p><p><img src=images/blank.png width =""800"" height = ""200""></p>","","","","","","","","","","","",""
"","569.0550000290386","sequential-stimulus-presentation","75","156966","0.0-17.0-1.6","SS1612915431309","trial","","40","800","1369.0550000290386","","","","","3","complex_dissimilar","images/stimuli/spore_stims/complex_03_A_a.gif","middle","","","","",""
"","null","html-keyboard-response","76","158234","0.0-17.0-0.7","SS1612915431309","","","null","","","<p><img src= images/blank.png width =""200"" height = ""200"" style = ""float:right""></p><p><img src=images/blank.png width =""800"" height = ""200""></p>","","","","","","","","","","","",""
"","806.9500000565313","sequential-stimulus-presentation","77","159850","0.0-17.0-1.7","SS1612915431309","trial","","40","800","1606.9500000565313","","","","","3","complex_dissimilar","images/stimuli/spore_stims/complex_03_A_a.gif","middle","","","","",""
"","1303.6600000341423","html-keyboard-response","78","161158","0.0-18.0","SS1612915431309","pref_question","","51","","","<video width ='960' height = '540' style='padding-top:8%' autoplay muted><source src='images/stimuli/wall_pref.mp4' type='video/mp4'></video>","3","right","66%","3","","","","","","","",""
"","587.3349999892525","sequential-stimulus-presentation","79","162552","0.0-19.0","SS1612915431309","pref_reveal","","40","800","1387.3349999892525","","","","","3","","","","novel","","","",""
"","null","html-keyboard-response","80","163554","0.0-20.0-0.0","SS1612915431309","","","null","","","<p><img src= images/blank.png width =""200"" height = ""200"" style = ""float:right""></p><p><img src=images/blank.png width =""800"" height = ""200""></p>","","","","","","","","","","","",""
"","1645.6800000160001","sequential-stimulus-presentation","81","166003","0.0-20.0-1.0","SS1612915431309","trial","","40","800","2445.680000016","","","","","4","complex_dissimilar","images/stimuli/spore_stims/complex_19_A_a.gif","middle","","","","",""
"","null","html-keyboard-response","82","166904","0.0-20.0-0.1","SS1612915431309","","","null","","","<p><img src= images/blank.png width =""200"" height = ""200"" style = ""float:right""></p><p><img src=images/blank.png width =""800"" height = ""200""></p>","","","","","","","","","","","",""
"","702.3049999843352","sequential-stimulus-presentation","83","168429","0.0-20.0-1.1","SS1612915431309","trial","","40","800","1502.3049999843352","","","","","4","complex_dissimilar","images/stimuli/spore_stims/complex_19_A_a.gif","middle","","","","",""
"","null","html-keyboard-response","84","169333","0.0-20.0-0.2","SS1612915431309","","","null","","","<p><img src= images/blank.png width =""200"" height = ""200"" style = ""float:right""></p><p><img src=images/blank.png width =""800"" height = ""200""></p>","","","","","","","","","","","",""
"","1135.4799999971874","sequential-stimulus-presentation","85","171279","0.0-20.0-1.2","SS1612915431309","trial","","40","800","1935.4799999971874","","","","","4","complex_dissimilar","images/stimuli/spore_stims/complex_19_A_a.gif","middle","","","","",""
"","null","html-keyboard-response","86","172468","0.0-20.0-0.3","SS1612915431309","","","null","","","<p><img src= images/blank.png width =""200"" height = ""200"" style = ""float:right""></p><p><img src=images/blank.png width =""800"" height = ""200""></p>","","","","","","","","","","","",""
"","408.7450000224635","sequential-stimulus-presentation","87","173683","0.0-20.0-1.3","SS1612915431309","trial","","40","800","1208.7450000224635","","","","","4","complex_dissimilar","images/stimuli/spore_stims/complex_19_A_a.gif","middle","","","","",""
"","null","html-keyboard-response","88","174934","0.0-20.0-0.4","SS1612915431309","","","null","","","<p><img src= images/blank.png width =""200"" height = ""200"" style = ""float:right""></p><p><img src=images/blank.png width =""800"" height = ""200""></p>","","","","","","","","","","","",""
"","472.7049999637529","sequential-stimulus-presentation","89","176216","0.0-20.0-1.4","SS1612915431309","trial","","40","800","1272.704999963753","","","","","4","complex_dissimilar","images/stimuli/spore_stims/complex_19_A_a.gif","middle","","","","",""
"","null","html-keyboard-response","90","177187","0.0-20.0-0.5","SS1612915431309","","","null","","","<p><img src= images/blank.png width =""200"" height = ""200"" style = ""float:right""></p><p><img src=images/blank.png width =""800"" height = ""200""></p>","","","","","","","","","","","",""
"","373.1600000173785","sequential-stimulus-presentation","91","178370","0.0-20.0-1.5","SS1612915431309","trial","","40","800","1173.1600000173785","","","","","4","complex_dissimilar","images/stimuli/spore_stims/complex_19_A_a.gif","middle","","","","",""
"","null","html-keyboard-response","92","179294","0.0-20.0-0.6","SS1612915431309","","","null","","","<p><img src= images/blank.png width =""200"" height = ""200"" style = ""float:right""></p><p><img src=images/blank.png width =""800"" height = ""200""></p>","","","","","","","","","","","",""
"","100.68999999202788","sequential-stimulus-presentation","93","180205","0.0-20.0-1.6","SS1612915431309","trial","","40","800","900.6899999920279","","","","","4","complex_dissimilar","images/stimuli/spore_stims/complex_19_A_a.gif","middle","","","","",""
"","null","html-keyboard-response","94","181347","0.0-20.0-0.7","SS1612915431309","","","null","","","<p><img src= images/blank.png width =""200"" height = ""200"" style = ""float:right""></p><p><img src=images/blank.png width =""800"" height = ""200""></p>","","","","","","","","","","","",""
"","924.1550000151619","sequential-stimulus-presentation","95","183082","0.0-20.0-1.7","SS1612915431309","trial","","40","800","1724.155000015162","","","","","4","complex_dissimilar","images/stimuli/spore_stims/complex_20_B_a.gif","left","","","","",""
"","1238.3799999952316","html-keyboard-response","96","184325","0.0-21.0","SS1612915431309","pref_question","","50","","","<video width ='960' height = '540' style='padding-top:8%' autoplay muted><source src='images/stimuli/wall_pref.mp4' type='video/mp4'></video>","2","middle","45%","4","","","","","","","",""
"","634.7700000042096","sequential-stimulus-presentation","97","185769","0.0-22.0","SS1612915431309","pref_reveal","","40","800","1434.7700000042096","","","","","4","","","","background","","","",""
"","null","html-keyboard-response","98","187043","0.0-23.0-0.0","SS1612915431309","","","null","","","<p><img src= images/blank.png width =""200"" height = ""200"" style = ""float:right""></p><p><img src=images/blank.png width =""800"" height = ""200""></p>","","","","","","","","","","","",""
"","415.8299999544397","sequential-stimulus-presentation","99","188267","0.0-23.0-1.0","SS1612915431309","trial","","40","800","1215.8299999544397","","","","","5","simple_similar","images/stimuli/spore_stims/simple_05_A_d.gif","left","","","","",""
"","null","html-keyboard-response","100","189516","0.0-23.0-0.1","SS1612915431309","","","null","","","<p><img src= images/blank.png width =""200"" height = ""200"" style = ""float:right""></p><p><img src=images/blank.png width =""800"" height = ""200""></p>","","","","","","","","","","","",""
"","588.5199999902397","sequential-stimulus-presentation","101","190911","0.0-23.0-1.1","SS1612915431309","trial","","40","800","1388.5199999902397","","","","","5","simple_similar","images/stimuli/spore_stims/simple_05_A_d.gif","left","","","","",""
"","null","html-keyboard-response","102","191835","0.0-23.0-0.2","SS1612915431309","","","null","","","<p><img src= images/blank.png width =""200"" height = ""200"" style = ""float:right""></p><p><img src=images/blank.png width =""800"" height = ""200""></p>","","","","","","","","","","","",""
"","627.6200000429526","sequential-stimulus-presentation","103","193274","0.0-23.0-1.2","SS1612915431309","trial","","40","800","1427.6200000429526","","","","","5","simple_similar","images/stimuli/spore_stims/simple_05_A_d.gif","left","","","","",""
"","null","html-keyboard-response","104","194231","0.0-23.0-0.3","SS1612915431309","","","null","","","<p><img src= images/blank.png width =""200"" height = ""200"" style = ""float:right""></p><p><img src=images/blank.png width =""800"" height = ""200""></p>","","","","","","","","","","","",""
"","527.0799999707378","sequential-stimulus-presentation","105","195566","0.0-23.0-1.3","SS1612915431309","trial","","40","800","1327.0799999707378","","","","","5","simple_similar","images/stimuli/spore_stims/simple_05_A_d.gif","left","","","","",""
"","null","html-keyboard-response","106","196515","0.0-23.0-0.4","SS1612915431309","","","null","","","<p><img src= images/blank.png width =""200"" height = ""200"" style = ""float:right""></p><p><img src=images/blank.png width =""800"" height = ""200""></p>","","","","","","","","","","","",""
"","530.7299999985844","sequential-stimulus-presentation","107","197857","0.0-23.0-1.4","SS1612915431309","trial","","40","800","1330.7299999985844","","","","","5","simple_similar","images/stimuli/spore_stims/simple_05_A_d.gif","left","","","","",""
"","null","html-keyboard-response","108","199123","0.0-23.0-0.5","SS1612915431309","","","null","","","<p><img src= images/blank.png width =""200"" height = ""200"" style = ""float:right""></p><p><img src=images/blank.png width =""800"" height = ""200""></p>","","","","","","","","","","","",""
"","741.9600000139326","sequential-stimulus-presentation","109","200677","0.0-23.0-1.5","SS1612915431309","trial","","40","800","1541.9600000139326","","","","","5","simple_similar","images/stimuli/spore_stims/simple_05_A_d.gif","left","","","","",""
"","null","html-keyboard-response","110","201806","0.0-23.0-0.6","SS1612915431309","","","null","","","<p><img src= images/blank.png width =""200"" height = ""200"" style = ""float:right""></p><p><img src=images/blank.png width =""800"" height = ""200""></p>","","","","","","","","","","","",""
"","587.8549999906681","sequential-stimulus-presentation","111","203205","0.0-23.0-1.6","SS1612915431309","trial","","40","800","1387.8549999906681","","","","","5","simple_similar","images/stimuli/spore_stims/simple_05_A_d.gif","left","","","","",""
"","null","html-keyboard-response","112","204166","0.0-23.0-0.7","SS1612915431309","","","null","","","<p><img src= images/blank.png width =""200"" height = ""200"" style = ""float:right""></p><p><img src=images/blank.png width =""800"" height = ""200""></p>","","","","","","","","","","","",""
"","674.010000017006","sequential-stimulus-presentation","113","205647","0.0-23.0-1.7","SS1612915431309","trial","","40","800","1474.010000017006","","","","","5","simple_similar","images/stimuli/spore_stims/simple_05_B_d.gif","middle","","","","",""
"","1016.0899999900721","html-keyboard-response","114","206668","0.0-24.0","SS1612915431309","pref_question","","49","","","<video width ='960' height = '540' style='padding-top:8%' autoplay muted><source src='images/stimuli/wall_pref.mp4' type='video/mp4'></video>","1","left","25%","5","","","","","","","",""
"","916.0399999818765","sequential-stimulus-presentation","115","208390","0.0-25.0","SS1612915431309","pref_reveal","","40","800","1716.0399999818765","","","","","5","","","","background","","","",""
"","null","html-keyboard-response","116","209216","0.0-26.0-0.0","SS1612915431309","","","null","","","<p><img src= images/blank.png width =""200"" height = ""200"" style = ""float:right""></p><p><img src=images/blank.png width =""800"" height = ""200""></p>","","","","","","","","","","","",""
"","479.749999998603","sequential-stimulus-presentation","117","210509","0.0-26.0-1.0","SS1612915431309","trial","","40","800","1279.749999998603","","","","","6","complex_similar","images/stimuli/spore_stims/complex_15_A_a.gif","left","","","","",""
"","null","html-keyboard-response","118","211615","0.0-26.0-0.1","SS1612915431309","","","null","","","<p><img src= images/blank.png width =""200"" height = ""200"" style = ""float:right""></p><p><img src=images/blank.png width =""800"" height = ""200""></p>","","","","","","","","","","","",""
"","688.7649999698624","sequential-stimulus-presentation","119","213112","0.0-26.0-1.1","SS1612915431309","trial","","40","800","1488.7649999698624","","","","","6","complex_similar","images/stimuli/spore_stims/complex_15_A_a.gif","left","","","","",""
"","null","html-keyboard-response","120","214247","0.0-26.0-0.2","SS1612915431309","","","null","","","<p><img src= images/blank.png width =""200"" height = ""200"" style = ""float:right""></p><p><img src=images/blank.png width =""800"" height = ""200""></p>","","","","","","","","","","","",""
"","796.2950000073761","sequential-stimulus-presentation","121","215852","0.0-26.0-1.2","SS1612915431309","trial","","40","800","1596.295000007376","","","","","6","complex_similar","images/stimuli/spore_stims/complex_15_B_a.gif","middle","","","","",""
"","null","html-keyboard-response","122","217050","0.0-26.0-0.3","SS1612915431309","","","null","","","<p><img src= images/blank.png width =""200"" height = ""200"" style = ""float:right""></p><p><img src=images/blank.png width =""800"" height = ""200""></p>","","","","","","","","","","","",""
"","360.3400000138208","sequential-stimulus-presentation","123","218221","0.0-26.0-1.3","SS1612915431309","trial","","40","800","1160.3400000138208","","","","","6","complex_similar","images/stimuli/spore_stims/complex_15_A_a.gif","left","","","","",""
"","null","html-keyboard-response","124","219172","0.0-26.0-0.4","SS1612915431309","","","null","","","<p><img src= images/blank.png width =""200"" height = ""200"" style = ""float:right""></p><p><img src=images/blank.png width =""800"" height = ""200""></p>","","","","","","","","","","","",""
"","512.4700000160374","sequential-stimulus-presentation","125","220492","0.0-26.0-1.4","SS1612915431309","trial","","40","800","1312.4700000160374","","","","","6","complex_similar","images/stimuli/spore_stims/complex_15_A_a.gif","left","","","","",""
"","null","html-keyboard-response","126","221303","0.0-26.0-0.5","SS1612915431309","","","null","","","<p><img src= images/blank.png width =""200"" height = ""200"" style = ""float:right""></p><p><img src=images/blank.png width =""800"" height = ""200""></p>","","","","","","","","","","","",""
"","739.2500000423752","sequential-stimulus-presentation","127","222855","0.0-26.0-1.5","SS1612915431309","trial","","40","800","1539.2500000423752","","","","","6","complex_similar","images/stimuli/spore_stims/complex_15_A_a.gif","left","","","","",""
"","null","html-keyboard-response","128","224065","0.0-26.0-0.6","SS1612915431309","","","null","","","<p><img src= images/blank.png width =""200"" height = ""200"" style = ""float:right""></p><p><img src=images/blank.png width =""800"" height = ""200""></p>","","","","","","","","","","","",""
"","416.3750000298023","sequential-stimulus-presentation","129","225290","0.0-26.0-1.6","SS1612915431309","trial","","40","800","1216.3750000298023","","","","","6","complex_similar","images/stimuli/spore_stims/complex_15_A_a.gif","left","","","","",""
"","null","html-keyboard-response","130","226248","0.0-26.0-0.7","SS1612915431309","","","null","","","<p><img src= images/blank.png width =""200"" height = ""200"" style = ""float:right""></p><p><img src=images/blank.png width =""800"" height = ""200""></p>","","","","","","","","","","","",""
"","406.9399999571033","sequential-stimulus-presentation","131","227461","0.0-26.0-1.7","SS1612915431309","trial","","40","800","1206.9399999571033","","","","","6","complex_similar","images/stimuli/spore_stims/complex_15_A_a.gif","left","","","","",""
"","1236.9800000451505","html-keyboard-response","132","228703","0.0-27.0","SS1612915431309","pref_question","","51","","","<video width ='960' height = '540' style='padding-top:8%' autoplay muted><source src='images/stimuli/wall_pref.mp4' type='video/mp4'></video>","3","right","66%","6","","","","","","","",""
"","669.9150000349618","sequential-stimulus-presentation","133","230182","0.0-28.0","SS1612915431309","pref_reveal","","40","800","1469.9150000349618","","","","","6","","","","novel","","","",""
"","null","html-keyboard-response","134","231461","0.0-29.0-0.0","SS1612915431309","","","null","","","<p><img src= images/blank.png width =""200"" height = ""200"" style = ""float:right""></p><p><img src=images/blank.png width =""800"" height = ""200""></p>","","","","","","","","","","","",""
"","302.6749999844469","sequential-stimulus-presentation","135","232574","0.0-29.0-1.0","SS1612915431309","trial","","40","800","1102.674999984447","","","","","7","simple_similar","images/stimuli/spore_stims/simple_14_A_a.gif","middle","","","","",""
"","null","html-keyboard-response","136","233392","0.0-29.0-0.1","SS1612915431309","","","null","","","<p><img src= images/blank.png width =""200"" height = ""200"" style = ""float:right""></p><p><img src=images/blank.png width =""800"" height = ""200""></p>","","","","","","","","","","","",""
"","505.54000004194677","sequential-stimulus-presentation","137","234708","0.0-29.0-1.1","SS1612915431309","trial","","40","800","1305.5400000419468","","","","","7","simple_similar","images/stimuli/spore_stims/simple_14_A_a.gif","middle","","","","",""
"","null","html-keyboard-response","138","235619","0.0-29.0-0.2","SS1612915431309","","","null","","","<p><img src= images/blank.png width =""200"" height = ""200"" style = ""float:right""></p><p><img src=images/blank.png width =""800"" height = ""200""></p>","","","","","","","","","","","",""
"","560.7949999975972","sequential-stimulus-presentation","139","236987","0.0-29.0-1.2","SS1612915431309","trial","","40","800","1360.7949999975972","","","","","7","simple_similar","images/stimuli/spore_stims/simple_14_A_a.gif","middle","","","","",""
"","null","html-keyboard-response","140","238128","0.0-29.0-0.3","SS1612915431309","","","null","","","<p><img src= images/blank.png width =""200"" height = ""200"" style = ""float:right""></p><p><img src=images/blank.png width =""800"" height = ""200""></p>","","","","","","","","","","","",""
"","368.4099999954924","sequential-stimulus-presentation","141","239304","0.0-29.0-1.3","SS1612915431309","trial","","40","800","1168.4099999954924","","","","","7","simple_similar","images/stimuli/spore_stims/simple_14_B_a.gif","left","","","","",""
"","null","html-keyboard-response","142","240254","0.0-29.0-0.4","SS1612915431309","","","null","","","<p><img src= images/blank.png width =""200"" height = ""200"" style = ""float:right""></p><p><img src=images/blank.png width =""800"" height = ""200""></p>","","","","","","","","","","","",""
"","406.53000003658235","sequential-stimulus-presentation","143","241471","0.0-29.0-1.4","SS1612915431309","trial","","40","800","1206.5300000365824","","","","","7","simple_similar","images/stimuli/spore_stims/simple_14_A_a.gif","middle","","","","",""
"","null","html-keyboard-response","144","242533","0.0-29.0-0.5","SS1612915431309","","","null","","","<p><img src= images/blank.png width =""200"" height = ""200"" style = ""float:right""></p><p><img src=images/blank.png width =""800"" height = ""200""></p>","","","","","","","","","","","",""
"","369.9950000154786","sequential-stimulus-presentation","145","243714","0.0-29.0-1.5","SS1612915431309","trial","","40","800","1169.9950000154786","","","","","7","simple_similar","images/stimuli/spore_stims/simple_14_A_a.gif","middle","","","","",""
"","null","html-keyboard-response","146","244842","0.0-29.0-0.6","SS1612915431309","","","null","","","<p><img src= images/blank.png width =""200"" height = ""200"" style = ""float:right""></p><p><img src=images/blank.png width =""800"" height = ""200""></p>","","","","","","","","","","","",""
"","294.3949999753386","sequential-stimulus-presentation","147","245948","0.0-29.0-1.6","SS1612915431309","trial","","40","800","1094.3949999753386","","","","","7","simple_similar","images/stimuli/spore_stims/simple_14_A_a.gif","middle","","","","",""
"","null","html-keyboard-response","148","246810","0.0-29.0-0.7","SS1612915431309","","","null","","","<p><img src= images/blank.png width =""200"" height = ""200"" style = ""float:right""></p><p><img src=images/blank.png width =""800"" height = ""200""></p>","","","","","","","","","","","",""
"","374.6199999586679","sequential-stimulus-presentation","149","247996","0.0-29.0-1.7","SS1612915431309","trial","","40","800","1174.619999958668","","","","","7","simple_similar","images/stimuli/spore_stims/simple_14_A_a.gif","middle","","","","",""
"","917.844999989029","html-keyboard-response","150","248919","0.0-30.0","SS1612915431309","pref_question","","49","","","<video width ='960' height = '540' style='padding-top:8%' autoplay muted><source src='images/stimuli/wall_pref.mp4' type='video/mp4'></video>","1","left","25%","7","","","","","","","",""
"","393.3449999894947","sequential-stimulus-presentation","151","250118","0.0-31.0","SS1612915431309","pref_reveal","","40","800","1193.3449999894947","","","","","7","","","","deviant","","","",""
"","null","html-keyboard-response","152","250971","0.0-32.0-0.0","SS1612915431309","","","null","","","<p><img src= images/blank.png width =""200"" height = ""200"" style = ""float:right""></p><p><img src=images/blank.png width =""800"" height = ""200""></p>","","","","","","","","","","","",""
"","324.52999998349696","sequential-stimulus-presentation","153","252105","0.0-32.0-1.0","SS1612915431309","trial","","40","800","1124.529999983497","","","","","8","simple_dissimilar","images/stimuli/spore_stims/simple_17_A_d.gif","left","","","","",""
"","null","html-keyboard-response","154","253180","0.0-32.0-0.1","SS1612915431309","","","null","","","<p><img src= images/blank.png width =""200"" height = ""200"" style = ""float:right""></p><p><img src=images/blank.png width =""800"" height = ""200""></p>","","","","","","","","","","","",""
"","343.86999998241663","sequential-stimulus-presentation","155","254334","0.0-32.0-1.1","SS1612915431309","trial","","40","800","1143.8699999824166","","","","","8","simple_dissimilar","images/stimuli/spore_stims/simple_17_A_d.gif","left","","","","",""
"","null","html-keyboard-response","156","255415","0.0-32.0-0.2","SS1612915431309","","","null","","","<p><img src= images/blank.png width =""200"" height = ""200"" style = ""float:right""></p><p><img src=images/blank.png width =""800"" height = ""200""></p>","","","","","","","","","","","",""
"","530.2500000107102","sequential-stimulus-presentation","157","256757","0.0-32.0-1.2","SS1612915431309","trial","","40","800","1330.2500000107102","","","","","8","simple_dissimilar","images/stimuli/spore_stims/simple_17_A_d.gif","left","","","","",""
"","null","html-keyboard-response","158","257808","0.0-32.0-0.3","SS1612915431309","","","null","","","<p><img src= images/blank.png width =""200"" height = ""200"" style = ""float:right""></p><p><img src=images/blank.png width =""800"" height = ""200""></p>","","","","","","","","","","","",""
"","4225.380000018049","sequential-stimulus-presentation","159","263285","0.0-32.0-1.3","SS1612915431309","trial","","40","800","5025.380000018049","","","","","8","simple_dissimilar","images/stimuli/spore_stims/simple_07_B_b.gif","right","","","","",""
"","null","html-keyboard-response","160","264172","0.0-32.0-0.4","SS1612915431309","","","null","","","<p><img src= images/blank.png width =""200"" height = ""200"" style = ""float:right""></p><p><img src=images/blank.png width =""800"" height = ""200""></p>","","","","","","","","","","","",""
"","1045.07500003092","sequential-stimulus-presentation","161","266030","0.0-32.0-1.4","SS1612915431309","trial","","40","800","1845.07500003092","","","","","8","simple_dissimilar","images/stimuli/spore_stims/simple_17_A_d.gif","left","","","","",""
"","null","html-keyboard-response","162","267142","0.0-32.0-0.5","SS1612915431309","","","null","","","<p><img src= images/blank.png width =""200"" height = ""200"" style = ""float:right""></p><p><img src=images/blank.png width =""800"" height = ""200""></p>","","","","","","","","","","","",""
"","390.5549999908544","sequential-stimulus-presentation","163","268345","0.0-32.0-1.5","SS1612915431309","trial","","40","800","1190.5549999908544","","","","","8","simple_dissimilar","images/stimuli/spore_stims/simple_17_A_d.gif","left","","","","",""
"","null","html-keyboard-response","164","269431","0.0-32.0-0.6","SS1612915431309","","","null","","","<p><img src= images/blank.png width =""200"" height = ""200"" style = ""float:right""></p><p><img src=images/blank.png width =""800"" height = ""200""></p>","","","","","","","","","","","",""
"","1102.6399999973364","sequential-stimulus-presentation","165","271341","0.0-32.0-1.6","SS1612915431309","trial","","40","800","1902.6399999973364","","","","","8","simple_dissimilar","images/stimuli/spore_stims/simple_17_A_d.gif","left","","","","",""
"","null","html-keyboard-response","166","272225","0.0-32.0-0.7","SS1612915431309","","","null","","","<p><img src= images/blank.png width =""200"" height = ""200"" style = ""float:right""></p><p><img src=images/blank.png width =""800"" height = ""200""></p>","","","","","","","","","","","",""
"","780.460000038147","sequential-stimulus-presentation","167","273815","0.0-32.0-1.7","SS1612915431309","trial","","40","800","1580.460000038147","","","","","8","simple_dissimilar","images/stimuli/spore_stims/simple_17_A_d.gif","left","","","","",""
"","1110.0350000197068","html-keyboard-response","168","274930","0.0-33.0","SS1612915431309","pref_question","","50","","","<video width ='960' height = '540' style='padding-top:8%' autoplay muted><source src='images/stimuli/wall_pref.mp4' type='video/mp4'></video>","2","middle","45%","8","","","","","","","",""
"","773.1900000362657","sequential-stimulus-presentation","169","276511","0.0-34.0","SS1612915431309","pref_reveal","","40","800","1573.1900000362657","","","","","8","","","","novel","","","",""
"","null","html-keyboard-response","170","277483","0.0-35.0-0.0","SS1612915431309","","","null","","","<p><img src= images/blank.png width =""200"" height = ""200"" style = ""float:right""></p><p><img src=images/blank.png width =""800"" height = ""200""></p>","","","","","","","","","","","",""
"","648.1049999711104","sequential-stimulus-presentation","171","278946","0.0-35.0-1.0","SS1612915431309","trial","","40","800","1448.1049999711104","","","","","9","simple_dissimilar","images/stimuli/spore_stims/simple_01_B_b.gif","middle","","","","",""
"","null","html-keyboard-response","172","279900","0.0-35.0-0.1","SS1612915431309","","","null","","","<p><img src= images/blank.png width =""200"" height = ""200"" style = ""float:right""></p><p><img src=images/blank.png width =""800"" height = ""200""></p>","","","","","","","","","","","",""
"","485.2950000204146","sequential-stimulus-presentation","173","281196","0.0-35.0-1.1","SS1612915431309","trial","","40","800","1285.2950000204146","","","","","9","simple_dissimilar","images/stimuli/spore_stims/simple_01_B_b.gif","middle","","","","",""
"","null","html-keyboard-response","174","282398","0.0-35.0-0.2","SS1612915431309","","","null","","","<p><img src= images/blank.png width =""200"" height = ""200"" style = ""float:right""></p><p><img src=images/blank.png width =""800"" height = ""200""></p>","","","","","","","","","","","",""
"","404.1250000009313","sequential-stimulus-presentation","175","283611","0.0-35.0-1.2","SS1612915431309","trial","","40","800","1204.1250000009313","","","","","9","simple_dissimilar","images/stimuli/spore_stims/simple_01_B_b.gif","middle","","","","",""
"","null","html-keyboard-response","176","284834","0.0-35.0-0.3","SS1612915431309","","","null","","","<p><img src= images/blank.png width =""200"" height = ""200"" style = ""float:right""></p><p><img src=images/blank.png width =""800"" height = ""200""></p>","","","","","","","","","","","",""
"","375.62499998603016","sequential-stimulus-presentation","177","286021","0.0-35.0-1.3","SS1612915431309","trial","","40","800","1175.6249999860302","","","","","9","simple_dissimilar","images/stimuli/spore_stims/simple_04_B_c.gif","left","","","","",""
"","null","html-keyboard-response","178","287270","0.0-35.0-0.4","SS1612915431309","","","null","","","<p><img src= images/blank.png width =""200"" height = ""200"" style = ""float:right""></p><p><img src=images/blank.png width =""800"" height = ""200""></p>","","","","","","","","","","","",""
"","864.7400000481866","sequential-stimulus-presentation","179","288942","0.0-35.0-1.4","SS1612915431309","trial","","40","800","1664.7400000481866","","","","","9","simple_dissimilar","images/stimuli/spore_stims/simple_01_B_b.gif","middle","","","","",""
"","null","html-keyboard-response","180","289946","0.0-35.0-0.5","SS1612915431309","","","null","","","<p><img src= images/blank.png width =""200"" height = ""200"" style = ""float:right""></p><p><img src=images/blank.png width =""800"" height = ""200""></p>","","","","","","","","","","","",""
"","440.2649999829009","sequential-stimulus-presentation","181","291199","0.0-35.0-1.5","SS1612915431309","trial","","40","800","1240.264999982901","","","","","9","simple_dissimilar","images/stimuli/spore_stims/simple_01_B_b.gif","middle","","","","",""
"","null","html-keyboard-response","182","292311","0.0-35.0-0.6","SS1612915431309","","","null","","","<p><img src= images/blank.png width =""200"" height = ""200"" style = ""float:right""></p><p><img src=images/blank.png width =""800"" height = ""200""></p>","","","","","","","","","","","",""
"","462.46000000974163","sequential-stimulus-presentation","183","293580","0.0-35.0-1.6","SS1612915431309","trial","","40","800","1262.4600000097416","","","","","9","simple_dissimilar","images/stimuli/spore_stims/simple_01_B_b.gif","middle","","","","",""
"","null","html-keyboard-response","184","294658","0.0-35.0-0.7","SS1612915431309","","","null","","","<p><img src= images/blank.png width =""200"" height = ""200"" style = ""float:right""></p><p><img src=images/blank.png width =""800"" height = ""200""></p>","","","","","","","","","","","",""
"","1048.2849999680184","sequential-stimulus-presentation","185","296516","0.0-35.0-1.7","SS1612915431309","trial","","40","800","1848.2849999680184","","","","","9","simple_dissimilar","images/stimuli/spore_stims/simple_01_B_b.gif","middle","","","","",""
"","1134.39500000095","html-keyboard-response","186","297655","0.0-36.0","SS1612915431309","pref_question","","51","","","<video width ='960' height = '540' style='padding-top:8%' autoplay muted><source src='images/stimuli/wall_pref.mp4' type='video/mp4'></video>","3","right","66%","9","","","","","","","",""
"","949.7699999483302","sequential-stimulus-presentation","187","299416","0.0-37.0","SS1612915431309","pref_reveal","","40","800","1749.7699999483302","","","","","9","","","","novel","","","",""
"","null","html-keyboard-response","188","300554","0.0-38.0-0.0","SS1612915431309","","","null","","","<p><img src= images/blank.png width =""200"" height = ""200"" style = ""float:right""></p><p><img src=images/blank.png width =""800"" height = ""200""></p>","","","","","","","","","","","",""
"","296.43500002566725","sequential-stimulus-presentation","189","301663","0.0-38.0-1.0","SS1612915431309","trial","","40","800","1096.4350000256673","","","","","10","simple_similar","images/stimuli/spore_stims/simple_13_B_b.gif","right","","","","",""
"","null","html-keyboard-response","190","302898","0.0-38.0-0.1","SS1612915431309","","","null","","","<p><img src= images/blank.png width =""200"" height = ""200"" style = ""float:right""></p><p><img src=images/blank.png width =""800"" height = ""200""></p>","","","","","","","","","","","",""
"","457.8650000039488","sequential-stimulus-presentation","191","304165","0.0-38.0-1.1","SS1612915431309","trial","","40","800","1257.8650000039488","","","","","10","simple_similar","images/stimuli/spore_stims/simple_13_B_b.gif","right","","","","",""
"","null","html-keyboard-response","192","305081","0.0-38.0-0.2","SS1612915431309","","","null","","","<p><img src= images/blank.png width =""200"" height = ""200"" style = ""float:right""></p><p><img src=images/blank.png width =""800"" height = ""200""></p>","","","","","","","","","","","",""
"","601.6899999813177","sequential-stimulus-presentation","193","306495","0.0-38.0-1.2","SS1612915431309","trial","","40","800","1401.6899999813177","","","","","10","simple_similar","images/stimuli/spore_stims/simple_13_B_b.gif","right","","","","",""
"","null","html-keyboard-response","194","307740","0.0-38.0-0.3","SS1612915431309","","","null","","","<p><img src= images/blank.png width =""200"" height = ""200"" style = ""float:right""></p><p><img src=images/blank.png width =""800"" height = ""200""></p>","","","","","","","","","","","",""
"","550.7350000552833","sequential-stimulus-presentation","195","309100","0.0-38.0-1.3","SS1612915431309","trial","","40","800","1350.7350000552833","","","","","10","simple_similar","images/stimuli/spore_stims/simple_13_A_b.gif","middle","","","","",""
"","null","html-keyboard-response","196","310145","0.0-38.0-0.4","SS1612915431309","","","null","","","<p><img src= images/blank.png width =""200"" height = ""200"" style = ""float:right""></p><p><img src=images/blank.png width =""800"" height = ""200""></p>","","","","","","","","","","","",""
"","302.62500001117587","sequential-stimulus-presentation","197","311261","0.0-38.0-1.4","SS1612915431309","trial","","40","800","1102.6250000111759","","","","","10","simple_similar","images/stimuli/spore_stims/simple_13_B_b.gif","right","","","","",""
"","null","html-keyboard-response","198","312366","0.0-38.0-0.5","SS1612915431309","","","null","","","<p><img src= images/blank.png width =""200"" height = ""200"" style = ""float:right""></p><p><img src=images/blank.png width =""800"" height = ""200""></p>","","","","","","","","","","","",""
"","436.22999999206513","sequential-stimulus-presentation","199","313615","0.0-38.0-1.5","SS1612915431309","trial","","40","800","1236.2299999920651","","","","","10","simple_similar","images/stimuli/spore_stims/simple_13_B_b.gif","right","","","","",""
"","null","html-keyboard-response","200","314766","0.0-38.0-0.6","SS1612915431309","","","null","","","<p><img src= images/blank.png width =""200"" height = ""200"" style = ""float:right""></p><p><img src=images/blank.png width =""800"" height = ""200""></p>","","","","","","","","","","","",""
"","441.8149999692105","sequential-stimulus-presentation","201","316019","0.0-38.0-1.6","SS1612915431309","trial","","40","800","1241.8149999692105","","","","","10","simple_similar","images/stimuli/spore_stims/simple_13_B_b.gif","right","","","","",""
"","null","html-keyboard-response","202","317207","0.0-38.0-0.7","SS1612915431309","","","null","","","<p><img src= images/blank.png width =""200"" height = ""200"" style = ""float:right""></p><p><img src=images/blank.png width =""800"" height = ""200""></p>","","","","","","","","","","","",""
"","445.7900000270456","sequential-stimulus-presentation","203","318463","0.0-38.0-1.7","SS1612915431309","trial","","40","800","1245.7900000270456","","","","","10","simple_similar","images/stimuli/spore_stims/simple_13_B_b.gif","right","","","","",""
"","1083.325000014156","html-keyboard-response","204","319553","0.0-39.0","SS1612915431309","pref_question","","49","","","<video width ='960' height = '540' style='padding-top:8%' autoplay muted><source src='images/stimuli/wall_pref.mp4' type='video/mp4'></video>","1","left","25%","10","","","","","","","",""
"","556.71999999322","sequential-stimulus-presentation","205","320917","0.0-40.0","SS1612915431309","pref_reveal","","40","800","1356.71999999322","","","","","10","","","","novel","","","",""
"","null","html-keyboard-response","206","322109","0.0-41.0-0.0","SS1612915431309","","","null","","","<p><img src= images/blank.png width =""200"" height = ""200"" style = ""float:right""></p><p><img src=images/blank.png width =""800"" height = ""200""></p>","","","","","","","","","","","",""
"","356.2450000317767","sequential-stimulus-presentation","207","323276","0.0-41.0-1.0","SS1612915431309","trial","","40","800","1156.2450000317767","","","","","11","complex_similar","images/stimuli/spore_stims/complex_11_A_c.gif","right","","","","",""
"","null","html-keyboard-response","208","324250","0.0-41.0-0.1","SS1612915431309","","","null","","","<p><img src= images/blank.png width =""200"" height = ""200"" style = ""float:right""></p><p><img src=images/blank.png width =""800"" height = ""200""></p>","","","","","","","","","","","",""
"","403.12999999150634","sequential-stimulus-presentation","209","325463","0.0-41.0-1.1","SS1612915431309","trial","","40","800","1203.1299999915063","","","","","11","complex_similar","images/stimuli/spore_stims/complex_11_A_c.gif","right","","","","",""
"","null","html-keyboard-response","210","326272","0.0-41.0-0.2","SS1612915431309","","","null","","","<p><img src= images/blank.png width =""200"" height = ""200"" style = ""float:right""></p><p><img src=images/blank.png width =""800"" height = ""200""></p>","","","","","","","","","","","",""
"","421.0949999978766","sequential-stimulus-presentation","211","327502","0.0-41.0-1.2","SS1612915431309","trial","","40","800","1221.0949999978766","","","","","11","complex_similar","images/stimuli/spore_stims/complex_11_A_c.gif","right","","","","",""
"","null","html-keyboard-response","212","328705","0.0-41.0-0.3","SS1612915431309","","","null","","","<p><img src= images/blank.png width =""200"" height = ""200"" style = ""float:right""></p><p><img src=images/blank.png width =""800"" height = ""200""></p>","","","","","","","","","","","",""
"","331.5149999689311","sequential-stimulus-presentation","213","329848","0.0-41.0-1.3","SS1612915431309","trial","","40","800","1131.514999968931","","","","","11","complex_similar","images/stimuli/spore_stims/complex_11_A_c.gif","right","","","","",""
"","null","html-keyboard-response","214","331141","0.0-41.0-0.4","SS1612915431309","","","null","","","<p><img src= images/blank.png width =""200"" height = ""200"" style = ""float:right""></p><p><img src=images/blank.png width =""800"" height = ""200""></p>","","","","","","","","","","","",""
"","333.16999999806285","sequential-stimulus-presentation","215","332288","0.0-41.0-1.4","SS1612915431309","trial","","40","800","1133.1699999980628","","","","","11","complex_similar","images/stimuli/spore_stims/complex_11_A_c.gif","right","","","","",""
"","null","html-keyboard-response","216","333586","0.0-41.0-0.5","SS1612915431309","","","null","","","<p><img src= images/blank.png width =""200"" height = ""200"" style = ""float:right""></p><p><img src=images/blank.png width =""800"" height = ""200""></p>","","","","","","","","","","","",""
"","414.03000004356727","sequential-stimulus-presentation","217","334811","0.0-41.0-1.5","SS1612915431309","trial","","40","800","1214.0300000435673","","","","","11","complex_similar","images/stimuli/spore_stims/complex_11_A_c.gif","right","","","","",""
"","null","html-keyboard-response","218","335624","0.0-41.0-0.6","SS1612915431309","","","null","","","<p><img src= images/blank.png width =""200"" height = ""200"" style = ""float:right""></p><p><img src=images/blank.png width =""800"" height = ""200""></p>","","","","","","","","","","","",""
"","332.82000001054257","sequential-stimulus-presentation","219","336767","0.0-41.0-1.6","SS1612915431309","trial","","40","800","1132.8200000105426","","","","","11","complex_similar","images/stimuli/spore_stims/complex_11_B_c.gif","middle","","","","",""
"","null","html-keyboard-response","220","337955","0.0-41.0-0.7","SS1612915431309","","","null","","","<p><img src= images/blank.png width =""200"" height = ""200"" style = ""float:right""></p><p><img src=images/blank.png width =""800"" height = ""200""></p>","","","","","","","","","","","",""
"","525.7449999917299","sequential-stimulus-presentation","221","339300","0.0-41.0-1.7","SS1612915431309","trial","","40","800","1325.7449999917299","","","","","11","complex_similar","images/stimuli/spore_stims/complex_11_A_c.gif","right","","","","",""
"","1136.5750000113621","html-keyboard-response","222","340441","0.0-42.0","SS1612915431309","pref_question","","49","","","<video width ='960' height = '540' style='padding-top:8%' autoplay muted><source src='images/stimuli/wall_pref.mp4' type='video/mp4'></video>","1","left","25%","11","","","","","","","",""
"","635.7949999510311","sequential-stimulus-presentation","223","341888","0.0-43.0","SS1612915431309","pref_reveal","","40","800","1435.794999951031","","","","","11","","","","novel","","","",""
"","null","html-keyboard-response","224","343165","0.0-44.0-0.0","SS1612915431309","","","null","","","<p><img src= images/blank.png width =""200"" height = ""200"" style = ""float:right""></p><p><img src=images/blank.png width =""800"" height = ""200""></p>","","","","","","","","","","","",""
"","394.61499999742955","sequential-stimulus-presentation","225","344371","0.0-44.0-1.0","SS1612915431309","trial","","40","800","1194.6149999974295","","","","","12","complex_dissimilar","images/stimuli/spore_stims/complex_07_A_d.gif","middle","","","","",""
"","null","html-keyboard-response","226","345373","0.0-44.0-0.1","SS1612915431309","","","null","","","<p><img src= images/blank.png width =""200"" height = ""200"" style = ""float:right""></p><p><img src=images/blank.png width =""800"" height = ""200""></p>","","","","","","","","","","","",""
"","1088.8850000337698","sequential-stimulus-presentation","227","347275","0.0-44.0-1.1","SS1612915431309","trial","","40","800","1888.8850000337698","","","","","12","complex_dissimilar","images/stimuli/spore_stims/complex_07_A_d.gif","middle","","","","",""
"","null","html-keyboard-response","228","348336","0.0-44.0-0.2","SS1612915431309","","","null","","","<p><img src= images/blank.png width =""200"" height = ""200"" style = ""float:right""></p><p><img src=images/blank.png width =""800"" height = ""200""></p>","","","","","","","","","","","",""
"","350.6550000165589","sequential-stimulus-presentation","229","349495","0.0-44.0-1.2","SS1612915431309","trial","","40","800","1150.655000016559","","","","","12","complex_dissimilar","images/stimuli/spore_stims/complex_07_A_d.gif","middle","","","","",""
"","null","html-keyboard-response","230","350424","0.0-44.0-0.3","SS1612915431309","","","null","","","<p><img src= images/blank.png width =""200"" height = ""200"" style = ""float:right""></p><p><img src=images/blank.png width =""800"" height = ""200""></p>","","","","","","","","","","","",""
"","309.1499999864027","sequential-stimulus-presentation","231","351545","0.0-44.0-1.3","SS1612915431309","trial","","40","800","1109.1499999864027","","","","","12","complex_dissimilar","images/stimuli/spore_stims/complex_07_A_d.gif","middle","","","","",""
"","null","html-keyboard-response","232","352574","0.0-44.0-0.4","SS1612915431309","","","null","","","<p><img src= images/blank.png width =""200"" height = ""200"" style = ""float:right""></p><p><img src=images/blank.png width =""800"" height = ""200""></p>","","","","","","","","","","","",""
"","216.81499999249354","sequential-stimulus-presentation","233","353604","0.0-44.0-1.4","SS1612915431309","trial","","40","800","1016.8149999924935","","","","","12","complex_dissimilar","images/stimuli/spore_stims/complex_07_A_d.gif","middle","","","","",""
"","null","html-keyboard-response","234","354526","0.0-44.0-0.5","SS1612915431309","","","null","","","<p><img src= images/blank.png width =""200"" height = ""200"" style = ""float:right""></p><p><img src=images/blank.png width =""800"" height = ""200""></p>","","","","","","","","","","","",""
"","357.7250000089407","sequential-stimulus-presentation","235","355694","0.0-44.0-1.5","SS1612915431309","trial","","40","800","1157.7250000089407","","","","","12","complex_dissimilar","images/stimuli/spore_stims/complex_07_A_d.gif","middle","","","","",""
"","null","html-keyboard-response","236","356958","0.0-44.0-0.6","SS1612915431309","","","null","","","<p><img src= images/blank.png width =""200"" height = ""200"" style = ""float:right""></p><p><img src=images/blank.png width =""800"" height = ""200""></p>","","","","","","","","","","","",""
"","243.95999999251217","sequential-stimulus-presentation","237","358014","0.0-44.0-1.6","SS1612915431309","trial","","40","800","1043.9599999925122","","","","","12","complex_dissimilar","images/stimuli/spore_stims/complex_06_B_d.gif","right","","","","",""
"","null","html-keyboard-response","238","358995","0.0-44.0-0.7","SS1612915431309","","","null","","","<p><img src= images/blank.png width =""200"" height = ""200"" style = ""float:right""></p><p><img src=images/blank.png width =""800"" height = ""200""></p>","","","","","","","","","","","",""
"","7006.4649999840185","sequential-stimulus-presentation","239","366811","0.0-44.0-1.7","SS1612915431309","trial","","40","800","7806.4649999840185","","","","","12","complex_dissimilar","images/stimuli/spore_stims/complex_07_A_d.gif","middle","","","","",""
"","921.7549999593757","html-keyboard-response","240","367739","0.0-45.0","SS1612915431309","pref_question","","49","","","<video width ='960' height = '540' style='padding-top:8%' autoplay muted><source src='images/stimuli/wall_pref.mp4' type='video/mp4'></video>","1","left","25%","12","","","","","","","",""
"","747.4650000222027","sequential-stimulus-presentation","241","369295","0.0-46.0","SS1612915431309","pref_reveal","","40","800","1547.4650000222027","","","","","12","","","","novel","","","",""
"","null","html-keyboard-response","242","370505","0.0-47.0-0.0","SS1612915431309","","","null","","","<p><img src= images/blank.png width =""200"" height = ""200"" style = ""float:right""></p><p><img src=images/blank.png width =""800"" height = ""200""></p>","","","","","","","","","","","",""
"","808.469999989029","sequential-stimulus-presentation","243","372122","0.0-47.0-1.0","SS1612915431309","trial","","40","800","1608.469999989029","","","","","13","simple_dissimilar","images/stimuli/spore_stims/simple_15_B_b.gif","right","","","","",""
"","null","html-keyboard-response","244","373354","0.0-47.0-0.1","SS1612915431309","","","null","","","<p><img src= images/blank.png width =""200"" height = ""200"" style = ""float:right""></p><p><img src=images/blank.png width =""800"" height = ""200""></p>","","","","","","","","","","","",""
"","378.07499995687976","sequential-stimulus-presentation","245","374544","0.0-47.0-1.1","SS1612915431309","trial","","40","800","1178.0749999568798","","","","","13","simple_dissimilar","images/stimuli/spore_stims/simple_15_B_b.gif","right","","","","",""
"","null","html-keyboard-response","246","375737","0.0-47.0-0.2","SS1612915431309","","","null","","","<p><img src= images/blank.png width =""200"" height = ""200"" style = ""float:right""></p><p><img src=images/blank.png width =""800"" height = ""200""></p>","","","","","","","","","","","",""
"","442.7150000119582","sequential-stimulus-presentation","247","376991","0.0-47.0-1.2","SS1612915431309","trial","","40","800","1242.7150000119582","","","","","13","simple_dissimilar","images/stimuli/spore_stims/simple_15_B_b.gif","right","","","","",""
"","null","html-keyboard-response","248","378271","0.0-47.0-0.3","SS1612915431309","","","null","","","<p><img src= images/blank.png width =""200"" height = ""200"" style = ""float:right""></p><p><img src=images/blank.png width =""800"" height = ""200""></p>","","","","","","","","","","","",""
"","1022.5050000008196","sequential-stimulus-presentation","249","380104","0.0-47.0-1.3","SS1612915431309","trial","","40","800","1822.5050000008196","","","","","13","simple_dissimilar","images/stimuli/spore_stims/simple_07_A_c.gif","middle","","","","",""
"","null","html-keyboard-response","250","381187","0.0-47.0-0.4","SS1612915431309","","","null","","","<p><img src= images/blank.png width =""200"" height = ""200"" style = ""float:right""></p><p><img src=images/blank.png width =""800"" height = ""200""></p>","","","","","","","","","","","",""
"","547.0799999893643","sequential-stimulus-presentation","251","382544","0.0-47.0-1.4","SS1612915431309","trial","","40","800","1347.0799999893643","","","","","13","simple_dissimilar","images/stimuli/spore_stims/simple_15_B_b.gif","right","","","","",""
"","null","html-keyboard-response","252","383605","0.0-47.0-0.5","SS1612915431309","","","null","","","<p><img src= images/blank.png width =""200"" height = ""200"" style = ""float:right""></p><p><img src=images/blank.png width =""800"" height = ""200""></p>","","","","","","","","","","","",""
"","917.7999999956228","sequential-stimulus-presentation","253","385335","0.0-47.0-1.5","SS1612915431309","trial","","40","800","1717.7999999956228","","","","","13","simple_dissimilar","images/stimuli/spore_stims/simple_15_B_b.gif","right","","","","",""
"","null","html-keyboard-response","254","386412","0.0-47.0-0.6","SS1612915431309","","","null","","","<p><img src= images/blank.png width =""200"" height = ""200"" style = ""float:right""></p><p><img src=images/blank.png width =""800"" height = ""200""></p>","","","","","","","","","","","",""
"","5622.114999976475","sequential-stimulus-presentation","255","392842","0.0-47.0-1.6","SS1612915431309","trial","","40","800","6422.114999976475","","","","","13","simple_dissimilar","images/stimuli/spore_stims/simple_15_B_b.gif","right","","","","",""
"","null","html-keyboard-response","256","393679","0.0-47.0-0.7","SS1612915431309","","","null","","","<p><img src= images/blank.png width =""200"" height = ""200"" style = ""float:right""></p><p><img src=images/blank.png width =""800"" height = ""200""></p>","","","","","","","","","","","",""
"","636.5399999776855","sequential-stimulus-presentation","257","395128","0.0-47.0-1.7","SS1612915431309","trial","","40","800","1436.5399999776855","","","","","13","simple_dissimilar","images/stimuli/spore_stims/simple_15_B_b.gif","right","","","","",""
"","3114.019999979064","html-keyboard-response","258","398248","0.0-48.0","SS1612915431309","pref_question","","49","","","<video width ='960' height = '540' style='padding-top:8%' autoplay muted><source src='images/stimuli/wall_pref.mp4' type='video/mp4'></video>","1","left","25%","13","","","","","","","",""
"","1813.8099999632686","sequential-stimulus-presentation","259","400874","0.0-49.0","SS1612915431309","pref_reveal","","40","800","2613.8099999632686","","","","","13","","","","novel","","","",""
"","null","html-keyboard-response","260","401875","0.0-50.0-0.0","SS1612915431309","","","null","","","<p><img src= images/blank.png width =""200"" height = ""200"" style = ""float:right""></p><p><img src=images/blank.png width =""800"" height = ""200""></p>","","","","","","","","","","","",""
"","589.7300000069663","sequential-stimulus-presentation","261","403279","0.0-50.0-1.0","SS1612915431309","trial","","40","800","1389.7300000069663","","","","","14","complex_dissimilar","images/stimuli/spore_stims/complex_12_A_c.gif","right","","","","",""
"","null","html-keyboard-response","262","404337","0.0-50.0-0.1","SS1612915431309","","","null","","","<p><img src= images/blank.png width =""200"" height = ""200"" style = ""float:right""></p><p><img src=images/blank.png width =""800"" height = ""200""></p>","","","","","","","","","","","",""
"","2521.1949999793433","sequential-stimulus-presentation","263","407673","0.0-50.0-1.1","SS1612915431309","trial","","40","800","3321.1949999793433","","","","","14","complex_dissimilar","images/stimuli/spore_stims/complex_12_A_c.gif","right","","","","",""
"","null","html-keyboard-response","264","408837","0.0-50.0-0.2","SS1612915431309","","","null","","","<p><img src= images/blank.png width =""200"" height = ""200"" style = ""float:right""></p><p><img src=images/blank.png width =""800"" height = ""200""></p>","","","","","","","","","","","",""
"","993.030000012368","sequential-stimulus-presentation","265","410645","0.0-50.0-1.2","SS1612915431309","trial","","40","800","1793.030000012368","","","","","14","complex_dissimilar","images/stimuli/spore_stims/complex_12_A_c.gif","right","","","","",""
"","null","html-keyboard-response","266","411601","0.0-50.0-0.3","SS1612915431309","","","null","","","<p><img src= images/blank.png width =""200"" height = ""200"" style = ""float:right""></p><p><img src=images/blank.png width =""800"" height = ""200""></p>","","","","","","","","","","","",""
"","809.8250000039116","sequential-stimulus-presentation","267","413224","0.0-50.0-1.3","SS1612915431309","trial","","40","800","1609.8250000039116","","","","","14","complex_dissimilar","images/stimuli/spore_stims/complex_12_A_c.gif","right","","","","",""
"","null","html-keyboard-response","268","414311","0.0-50.0-0.4","SS1612915431309","","","null","","","<p><img src= images/blank.png width =""200"" height = ""200"" style = ""float:right""></p><p><img src=images/blank.png width =""800"" height = ""200""></p>","","","","","","","","","","","",""
"","1560.0800000247546","sequential-stimulus-presentation","269","416680","0.0-50.0-1.4","SS1612915431309","trial","","40","800","2360.0800000247546","","","","","14","complex_dissimilar","images/stimuli/spore_stims/complex_12_A_c.gif","right","","","","",""
"","null","html-keyboard-response","270","417689","0.0-50.0-0.5","SS1612915431309","","","null","","","<p><img src= images/blank.png width =""200"" height = ""200"" style = ""float:right""></p><p><img src=images/blank.png width =""800"" height = ""200""></p>","","","","","","","","","","","",""
"","306.9050000049174","sequential-stimulus-presentation","271","418809","0.0-50.0-1.5","SS1612915431309","trial","","40","800","1106.9050000049174","","","","","14","complex_dissimilar","images/stimuli/spore_stims/complex_12_A_c.gif","right","","","","",""
"","null","html-keyboard-response","272","419687","0.0-50.0-0.6","SS1612915431309","","","null","","","<p><img src= images/blank.png width =""200"" height = ""200"" style = ""float:right""></p><p><img src=images/blank.png width =""800"" height = ""200""></p>","","","","","","","","","","","",""
"","546.4650000212714","sequential-stimulus-presentation","273","421046","0.0-50.0-1.6","SS1612915431309","trial","","40","800","1346.4650000212714","","","","","14","complex_dissimilar","images/stimuli/spore_stims/complex_12_A_c.gif","right","","","","",""
"","null","html-keyboard-response","274","421941","0.0-50.0-0.7","SS1612915431309","","","null","","","<p><img src= images/blank.png width =""200"" height = ""200"" style = ""float:right""></p><p><img src=images/blank.png width =""800"" height = ""200""></p>","","","","","","","","","","","",""
"","759.3599999672733","sequential-stimulus-presentation","275","423512","0.0-50.0-1.7","SS1612915431309","trial","","40","800","1559.3599999672733","","","","","14","complex_dissimilar","images/stimuli/spore_stims/complex_09_B_a.gif","left","","","","",""
"","960.7449999894015","html-keyboard-response","276","424480","0.0-51.0","SS1612915431309","pref_question","","49","","","<video width ='960' height = '540' style='padding-top:8%' autoplay muted><source src='images/stimuli/wall_pref.mp4' type='video/mp4'></video>","1","left","25%","14","","","","","","","",""
"","779.6349999844097","sequential-stimulus-presentation","277","426072","0.0-52.0","SS1612915431309","pref_reveal","","40","800","1579.6349999844097","","","","","14","","","","deviant","","","",""
"","null","html-keyboard-response","278","426914","0.0-53.0-0.0","SS1612915431309","","","null","","","<p><img src= images/blank.png width =""200"" height = ""200"" style = ""float:right""></p><p><img src=images/blank.png width =""800"" height = ""200""></p>","","","","","","","","","","","",""
"","69.59999998798594","sequential-stimulus-presentation","279","427798","0.0-53.0-1.0","SS1612915431309","trial","","40","800","869.5999999879859","","","","","15","simple_dissimilar","images/stimuli/spore_stims/simple_04_A_c.gif","left","","","","",""
"","null","html-keyboard-response","280","428848","0.0-53.0-0.1","SS1612915431309","","","null","","","<p><img src= images/blank.png width =""200"" height = ""200"" style = ""float:right""></p><p><img src=images/blank.png width =""800"" height = ""200""></p>","","","","","","","","","","","",""
"","1799.3900000001304","sequential-stimulus-presentation","281","431464","0.0-53.0-1.1","SS1612915431309","trial","","40","800","2599.3900000001304","","","","","15","simple_dissimilar","images/stimuli/spore_stims/simple_04_A_c.gif","left","","","","",""
"","null","html-keyboard-response","282","432537","0.0-53.0-0.2","SS1612915431309","","","null","","","<p><img src= images/blank.png width =""200"" height = ""200"" style = ""float:right""></p><p><img src=images/blank.png width =""800"" height = ""200""></p>","","","","","","","","","","","",""
"","377.9450000147335","sequential-stimulus-presentation","283","433728","0.0-53.0-1.2","SS1612915431309","trial","","40","800","1177.9450000147335","","","","","15","simple_dissimilar","images/stimuli/spore_stims/simple_04_A_c.gif","left","","","","",""
"","null","html-keyboard-response","284","435014","0.0-53.0-0.3","SS1612915431309","","","null","","","<p><img src= images/blank.png width =""200"" height = ""200"" style = ""float:right""></p><p><img src=images/blank.png width =""800"" height = ""200""></p>","","","","","","","","","","","",""
"","444.30500001180917","sequential-stimulus-presentation","285","436269","0.0-53.0-1.3","SS1612915431309","trial","","40","800","1244.3050000118092","","","","","15","simple_dissimilar","images/stimuli/spore_stims/simple_04_A_c.gif","left","","","","",""
"","null","html-keyboard-response","286","437329","0.0-53.0-0.4","SS1612915431309","","","null","","","<p><img src= images/blank.png width =""200"" height = ""200"" style = ""float:right""></p><p><img src=images/blank.png width =""800"" height = ""200""></p>","","","","","","","","","","","",""
"","300.14499998651445","sequential-stimulus-presentation","287","438439","0.0-53.0-1.4","SS1612915431309","trial","","40","800","1100.1449999865144","","","","","15","simple_dissimilar","images/stimuli/spore_stims/simple_04_A_c.gif","left","","","","",""
"","null","html-keyboard-response","288","439472","0.0-53.0-0.5","SS1612915431309","","","null","","","<p><img src= images/blank.png width =""200"" height = ""200"" style = ""float:right""></p><p><img src=images/blank.png width =""800"" height = ""200""></p>","","","","","","","","","","","",""
"","280.68500000517815","sequential-stimulus-presentation","289","440562","0.0-53.0-1.5","SS1612915431309","trial","","40","800","1080.6850000051782","","","","","15","simple_dissimilar","images/stimuli/spore_stims/simple_10_A_a.gif","right","","","","",""
"","null","html-keyboard-response","290","441779","0.0-53.0-0.6","SS1612915431309","","","null","","","<p><img src= images/blank.png width =""200"" height = ""200"" style = ""float:right""></p><p><img src=images/blank.png width =""800"" height = ""200""></p>","","","","","","","","","","","",""
"","230.68499995861202","sequential-stimulus-presentation","291","442820","0.0-53.0-1.6","SS1612915431309","trial","","40","800","1030.684999958612","","","","","15","simple_dissimilar","images/stimuli/spore_stims/simple_04_A_c.gif","left","","","","",""
"","null","html-keyboard-response","292","443888","0.0-53.0-0.7","SS1612915431309","","","null","","","<p><img src= images/blank.png width =""200"" height = ""200"" style = ""float:right""></p><p><img src=images/blank.png width =""800"" height = ""200""></p>","","","","","","","","","","","",""
"","39797.17499995604","sequential-stimulus-presentation","293","484495","0.0-53.0-1.7","SS1612915431309","trial","","40","800","40597.17499995604","","","","","15","simple_dissimilar","images/stimuli/spore_stims/simple_04_A_c.gif","left","","","","",""
"","1122.4449999863282","html-keyboard-response","294","485625","0.0-54.0","SS1612915431309","pref_question","","49","","","<video width ='960' height = '540' style='padding-top:8%' autoplay muted><source src='images/stimuli/wall_pref.mp4' type='video/mp4'></video>","1","left","25%","15","","","","","","","",""
"","911.275000020396","sequential-stimulus-presentation","295","487345","0.0-55.0","SS1612915431309","pref_reveal","","40","800","1711.275000020396","","","","","15","","","","background","","","",""
"","null","html-keyboard-response","296","488310","0.0-56.0-0.0","SS1612915431309","","","null","","","<p><img src= images/blank.png width =""200"" height = ""200"" style = ""float:right""></p><p><img src=images/blank.png width =""800"" height = ""200""></p>","","","","","","","","","","","",""
"","360.77500000828877","sequential-stimulus-presentation","297","489480","0.0-56.0-1.0","SS1612915431309","trial","","40","800","1160.7750000082888","","","","","16","complex_similar","images/stimuli/spore_stims/complex_10_A_a.gif","left","","","","",""
"","null","html-keyboard-response","298","490754","0.0-56.0-0.1","SS1612915431309","","","null","","","<p><img src= images/blank.png width =""200"" height = ""200"" style = ""float:right""></p><p><img src=images/blank.png width =""800"" height = ""200""></p>","","","","","","","","","","","",""
"","292.4549999879673","sequential-stimulus-presentation","299","491857","0.0-56.0-1.1","SS1612915431309","trial","","40","800","1092.4549999879673","","","","","16","complex_similar","images/stimuli/spore_stims/complex_10_A_a.gif","left","","","","",""
"","null","html-keyboard-response","300","493134","0.0-56.0-0.2","SS1612915431309","","","null","","","<p><img src= images/blank.png width =""200"" height = ""200"" style = ""float:right""></p><p><img src=images/blank.png width =""800"" height = ""200""></p>","","","","","","","","","","","",""
"","216.00000001490116","sequential-stimulus-presentation","301","494165","0.0-56.0-1.2","SS1612915431309","trial","","40","800","1016.0000000149012","","","","","16","complex_similar","images/stimuli/spore_stims/complex_10_A_a.gif","left","","","","",""
"","null","html-keyboard-response","302","495071","0.0-56.0-0.3","SS1612915431309","","","null","","","<p><img src= images/blank.png width =""200"" height = ""200"" style = ""float:right""></p><p><img src=images/blank.png width =""800"" height = ""200""></p>","","","","","","","","","","","",""
"","373.51499998476356","sequential-stimulus-presentation","303","496257","0.0-56.0-1.3","SS1612915431309","trial","","40","800","1173.5149999847636","","","","","16","complex_similar","images/stimuli/spore_stims/complex_10_A_a.gif","left","","","","",""
"","null","html-keyboard-response","304","497108","0.0-56.0-0.4","SS1612915431309","","","null","","","<p><img src= images/blank.png width =""200"" height = ""200"" style = ""float:right""></p><p><img src=images/blank.png width =""800"" height = ""200""></p>","","","","","","","","","","","",""
"","12039.649999991525","sequential-stimulus-presentation","305","509878","0.0-56.0-1.4","SS1612915431309","trial","","40","800","12839.649999991525","","","","","16","complex_similar","images/stimuli/spore_stims/complex_10_B_a.gif","right","","","","",""
"","null","html-keyboard-response","306","510760","0.0-56.0-0.5","SS1612915431309","","","null","","","<p><img src= images/blank.png width =""200"" height = ""200"" style = ""float:right""></p><p><img src=images/blank.png width =""800"" height = ""200""></p>","","","","","","","","","","","",""
"","1856.3800000119954","sequential-stimulus-presentation","307","513425","0.0-56.0-1.5","SS1612915431309","trial","","40","800","2656.3800000119954","","","","","16","complex_similar","images/stimuli/spore_stims/complex_10_A_a.gif","left","","","","",""
"","null","html-keyboard-response","308","514345","0.0-56.0-0.6","SS1612915431309","","","null","","","<p><img src= images/blank.png width =""200"" height = ""200"" style = ""float:right""></p><p><img src=images/blank.png width =""800"" height = ""200""></p>","","","","","","","","","","","",""
"","729.8249999876134","sequential-stimulus-presentation","309","515884","0.0-56.0-1.6","SS1612915431309","trial","","40","800","1529.8249999876134","","","","","16","complex_similar","images/stimuli/spore_stims/complex_10_A_a.gif","left","","","","",""
"","null","html-keyboard-response","310","516946","0.0-56.0-0.7","SS1612915431309","","","null","","","<p><img src= images/blank.png width =""200"" height = ""200"" style = ""float:right""></p><p><img src=images/blank.png width =""800"" height = ""200""></p>","","","","","","","","","","","",""
"","4759.76000004448","sequential-stimulus-presentation","311","522515","0.0-56.0-1.7","SS1612915431309","trial","","40","800","5559.76000004448","","","","","16","complex_similar","images/stimuli/spore_stims/complex_10_A_a.gif","left","","","","",""
"","954.5449999859557","html-keyboard-response","312","523474","0.0-57.0","SS1612915431309","pref_question","","49","","","<video width ='960' height = '540' style='padding-top:8%' autoplay muted><source src='images/stimuli/wall_pref.mp4' type='video/mp4'></video>","1","left","25%","16","","","","","","","",""
"","600.1749999704771","sequential-stimulus-presentation","313","524889","0.0-58.0","SS1612915431309","pref_reveal","","40","800","1400.174999970477","","","","","16","","","","background","","","",""
"","null","html-keyboard-response","314","525809","0.0-59.0-0.0","SS1612915431309","","","null","","","<p><img src= images/blank.png width =""200"" height = ""200"" style = ""float:right""></p><p><img src=images/blank.png width =""800"" height = ""200""></p>","","","","","","","","","","","",""
"","536.1399999819696","sequential-stimulus-presentation","315","527158","0.0-59.0-1.0","SS1612915431309","trial","","40","800","1336.1399999819696","","","","","17","simple_dissimilar","images/stimuli/spore_stims/simple_10_B_a.gif","middle","","","","",""
"","null","html-keyboard-response","316","528376","0.0-59.0-0.1","SS1612915431309","","","null","","","<p><img src= images/blank.png width =""200"" height = ""200"" style = ""float:right""></p><p><img src=images/blank.png width =""800"" height = ""200""></p>","","","","","","","","","","","",""
"","419.72499998519197","sequential-stimulus-presentation","317","529604","0.0-59.0-1.1","SS1612915431309","trial","","40","800","1219.724999985192","","","","","17","simple_dissimilar","images/stimuli/spore_stims/simple_10_B_a.gif","middle","","","","",""
"","null","html-keyboard-response","318","530462","0.0-59.0-0.2","SS1612915431309","","","null","","","<p><img src= images/blank.png width =""200"" height = ""200"" style = ""float:right""></p><p><img src=images/blank.png width =""800"" height = ""200""></p>","","","","","","","","","","","",""
"","644.6599999908358","sequential-stimulus-presentation","319","531916","0.0-59.0-1.2","SS1612915431309","trial","","40","800","1444.6599999908358","","","","","17","simple_dissimilar","images/stimuli/spore_stims/simple_10_B_a.gif","middle","","","","",""
"","null","html-keyboard-response","320","532946","0.0-59.0-0.3","SS1612915431309","","","null","","","<p><img src= images/blank.png width =""200"" height = ""200"" style = ""float:right""></p><p><img src=images/blank.png width =""800"" height = ""200""></p>","","","","","","","","","","","",""
"","706.5299999667332","sequential-stimulus-presentation","321","534461","0.0-59.0-1.3","SS1612915431309","trial","","40","800","1506.5299999667332","","","","","17","simple_dissimilar","images/stimuli/spore_stims/simple_10_B_a.gif","middle","","","","",""
"","null","html-keyboard-response","322","535421","0.0-59.0-0.4","SS1612915431309","","","null","","","<p><img src= images/blank.png width =""200"" height = ""200"" style = ""float:right""></p><p><img src=images/blank.png width =""800"" height = ""200""></p>","","","","","","","","","","","",""
"","503.4250000026077","sequential-stimulus-presentation","323","536730","0.0-59.0-1.4","SS1612915431309","trial","","40","800","1303.4250000026077","","","","","17","simple_dissimilar","images/stimuli/spore_stims/simple_10_B_a.gif","middle","","","","",""
"","null","html-keyboard-response","324","537573","0.0-59.0-0.5","SS1612915431309","","","null","","","<p><img src= images/blank.png width =""200"" height = ""200"" style = ""float:right""></p><p><img src=images/blank.png width =""800"" height = ""200""></p>","","","","","","","","","","","",""
"","400.8449999964796","sequential-stimulus-presentation","325","538781","0.0-59.0-1.5","SS1612915431309","trial","","40","800","1200.8449999964796","","","","","17","simple_dissimilar","images/stimuli/spore_stims/simple_10_B_a.gif","middle","","","","",""
"","null","html-keyboard-response","326","539971","0.0-59.0-0.6","SS1612915431309","","","null","","","<p><img src= images/blank.png width =""200"" height = ""200"" style = ""float:right""></p><p><img src=images/blank.png width =""800"" height = ""200""></p>","","","","","","","","","","","",""
"","347.25500002969056","sequential-stimulus-presentation","327","541127","0.0-59.0-1.6","SS1612915431309","trial","","40","800","1147.2550000296906","","","","","17","simple_dissimilar","images/stimuli/spore_stims/simple_10_B_a.gif","middle","","","","",""
"","null","html-keyboard-response","328","542100","0.0-59.0-0.7","SS1612915431309","","","null","","","<p><img src= images/blank.png width =""200"" height = ""200"" style = ""float:right""></p><p><img src=images/blank.png width =""800"" height = ""200""></p>","","","","","","","","","","","",""
"","1024.37999995891","sequential-stimulus-presentation","329","543931","0.0-59.0-1.7","SS1612915431309","trial","","40","800","1824.37999995891","","","","","17","simple_dissimilar","images/stimuli/spore_stims/simple_20_B_d.gif","left","","","","",""
"","1764.0450000180863","html-keyboard-response","330","545699","0.0-60.0","SS1612915431309","pref_question","","51","","","<video width ='960' height = '540' style='padding-top:8%' autoplay muted><source src='images/stimuli/wall_pref.mp4' type='video/mp4'></video>","3","right","66%","17","","","","","","","",""
"","543.8299999805167","sequential-stimulus-presentation","331","547049","0.0-61.0","SS1612915431309","pref_reveal","","40","800","1343.8299999805167","","","","","17","","","","novel","","","",""
"","null","html-keyboard-response","332","548245","0.0-62.0-0.0","SS1612915431309","","","null","","","<p><img src= images/blank.png width =""200"" height = ""200"" style = ""float:right""></p><p><img src=images/blank.png width =""800"" height = ""200""></p>","","","","","","","","","","","",""
"","393.54000001912937","sequential-stimulus-presentation","333","549447","0.0-62.0-1.0","SS1612915431309","trial","","40","800","1193.5400000191294","","","","","18","complex_dissimilar","images/stimuli/spore_stims/complex_06_A_b.gif","middle","","","","",""
"","null","html-keyboard-response","334","550707","0.0-62.0-0.1","SS1612915431309","","","null","","","<p><img src= images/blank.png width =""200"" height = ""200"" style = ""float:right""></p><p><img src=images/blank.png width =""800"" height = ""200""></p>","","","","","","","","","","","",""
"","1001.2899999856018","sequential-stimulus-presentation","335","552523","0.0-62.0-1.1","SS1612915431309","trial","","40","800","1801.2899999856018","","","","","18","complex_dissimilar","images/stimuli/spore_stims/complex_06_A_b.gif","middle","","","","",""
"","null","html-keyboard-response","336","553828","0.0-62.0-0.2","SS1612915431309","","","null","","","<p><img src= images/blank.png width =""200"" height = ""200"" style = ""float:right""></p><p><img src=images/blank.png width =""800"" height = ""200""></p>","","","","","","","","","","","",""
"","435.93999999575317","sequential-stimulus-presentation","337","555071","0.0-62.0-1.2","SS1612915431309","trial","","40","800","1235.9399999957532","","","","","18","complex_dissimilar","images/stimuli/spore_stims/complex_12_B_a.gif","right","","","","",""
"","null","html-keyboard-response","338","556190","0.0-62.0-0.3","SS1612915431309","","","null","","","<p><img src= images/blank.png width =""200"" height = ""200"" style = ""float:right""></p><p><img src=images/blank.png width =""800"" height = ""200""></p>","","","","","","","","","","","",""
"","1085.0549999740906","sequential-stimulus-presentation","339","558083","0.0-62.0-1.3","SS1612915431309","trial","","40","800","1885.0549999740906","","","","","18","complex_dissimilar","images/stimuli/spore_stims/complex_06_A_b.gif","middle","","","","",""
"","null","html-keyboard-response","340","559179","0.0-62.0-0.4","SS1612915431309","","","null","","","<p><img src= images/blank.png width =""200"" height = ""200"" style = ""float:right""></p><p><img src=images/blank.png width =""800"" height = ""200""></p>","","","","","","","","","","","",""
"","466.0350000485778","sequential-stimulus-presentation","341","560455","0.0-62.0-1.4","SS1612915431309","trial","","40","800","1266.0350000485778","","","","","18","complex_dissimilar","images/stimuli/spore_stims/complex_06_A_b.gif","middle","","","","",""
"","null","html-keyboard-response","342","561713","0.0-62.0-0.5","SS1612915431309","","","null","","","<p><img src= images/blank.png width =""200"" height = ""200"" style = ""float:right""></p><p><img src=images/blank.png width =""800"" height = ""200""></p>","","","","","","","","","","","",""
"","264.7350000333972","sequential-stimulus-presentation","343","562787","0.0-62.0-1.5","SS1612915431309","trial","","40","800","1064.7350000333972","","","","","18","complex_dissimilar","images/stimuli/spore_stims/complex_06_A_b.gif","middle","","","","",""
"","null","html-keyboard-response","344","563874","0.0-62.0-0.6","SS1612915431309","","","null","","","<p><img src= images/blank.png width =""200"" height = ""200"" style = ""float:right""></p><p><img src=images/blank.png width =""800"" height = ""200""></p>","","","","","","","","","","","",""
"","399.09999998053536","sequential-stimulus-presentation","345","565079","0.0-62.0-1.6","SS1612915431309","trial","","40","800","1199.0999999805354","","","","","18","complex_dissimilar","images/stimuli/spore_stims/complex_06_A_b.gif","middle","","","","",""
"","null","html-keyboard-response","346","565924","0.0-62.0-0.7","SS1612915431309","","","null","","","<p><img src= images/blank.png width =""200"" height = ""200"" style = ""float:right""></p><p><img src=images/blank.png width =""800"" height = ""200""></p>","","","","","","","","","","","",""
"","1558.2200000062585","sequential-stimulus-presentation","347","568290","0.0-62.0-1.7","SS1612915431309","trial","","40","800","2358.2200000062585","","","","","18","complex_dissimilar","images/stimuli/spore_stims/complex_06_A_b.gif","middle","","","","",""
"","1068.3950000093319","html-keyboard-response","348","569364","0.0-63.0","SS1612915431309","pref_question","","49","","","<video width ='960' height = '540' style='padding-top:8%' autoplay muted><source src='images/stimuli/wall_pref.mp4' type='video/mp4'></video>","1","left","25%","18","","","","","","","",""
"","4702.179999963846","sequential-stimulus-presentation","349","574874","0.0-64.0","SS1612915431309","pref_reveal","","40","800","5502.179999963846","","","","","18","","","","novel","","","",""
"","null","html-keyboard-response","350","575770","0.0-65.0-0.0","SS1612915431309","","","null","","","<p><img src= images/blank.png width =""200"" height = ""200"" style = ""float:right""></p><p><img src=images/blank.png width =""800"" height = ""200""></p>","","","","","","","","","","","",""
"","1085.1899999543093","sequential-stimulus-presentation","351","577661","0.0-65.0-1.0","SS1612915431309","trial","","40","800","1885.1899999543093","","","","","19","simple_similar","images/stimuli/spore_stims/simple_19_B_a.gif","left","","","","",""
"","null","html-keyboard-response","352","578759","0.0-65.0-0.1","SS1612915431309","","","null","","","<p><img src= images/blank.png width =""200"" height = ""200"" style = ""float:right""></p><p><img src=images/blank.png width =""800"" height = ""200""></p>","","","","","","","","","","","",""
"","512.6900000032037","sequential-stimulus-presentation","353","580082","0.0-65.0-1.1","SS1612915431309","trial","","40","800","1312.6900000032037","","","","","19","simple_similar","images/stimuli/spore_stims/simple_19_B_a.gif","left","","","","",""
"","null","html-keyboard-response","354","581091","0.0-65.0-0.2","SS1612915431309","","","null","","","<p><img src= images/blank.png width =""200"" height = ""200"" style = ""float:right""></p><p><img src=images/blank.png width =""800"" height = ""200""></p>","","","","","","","","","","","",""
"","357.3200000100769","sequential-stimulus-presentation","355","582258","0.0-65.0-1.2","SS1612915431309","trial","","40","800","1157.320000010077","","","","","19","simple_similar","images/stimuli/spore_stims/simple_19_B_a.gif","left","","","","",""
"","null","html-keyboard-response","356","583352","0.0-65.0-0.3","SS1612915431309","","","null","","","<p><img src= images/blank.png width =""200"" height = ""200"" style = ""float:right""></p><p><img src=images/blank.png width =""800"" height = ""200""></p>","","","","","","","","","","","",""
"","315.9400000004098","sequential-stimulus-presentation","357","584479","0.0-65.0-1.3","SS1612915431309","trial","","40","800","1115.9400000004098","","","","","19","simple_similar","images/stimuli/spore_stims/simple_19_B_a.gif","left","","","","",""
"","null","html-keyboard-response","358","585665","0.0-65.0-0.4","SS1612915431309","","","null","","","<p><img src= images/blank.png width =""200"" height = ""200"" style = ""float:right""></p><p><img src=images/blank.png width =""800"" height = ""200""></p>","","","","","","","","","","","",""
"","269.5850000018254","sequential-stimulus-presentation","359","586742","0.0-65.0-1.4","SS1612915431309","trial","","40","800","1069.5850000018254","","","","","19","simple_similar","images/stimuli/spore_stims/simple_19_B_a.gif","left","","","","",""
"","null","html-keyboard-response","360","588023","0.0-65.0-0.5","SS1612915431309","","","null","","","<p><img src= images/blank.png width =""200"" height = ""200"" style = ""float:right""></p><p><img src=images/blank.png width =""800"" height = ""200""></p>","","","","","","","","","","","",""
"","479.7549999784678","sequential-stimulus-presentation","361","589310","0.0-65.0-1.5","SS1612915431309","trial","","40","800","1279.7549999784678","","","","","19","simple_similar","images/stimuli/spore_stims/simple_19_A_a.gif","middle","","","","",""
"","null","html-keyboard-response","362","590400","0.0-65.0-0.6","SS1612915431309","","","null","","","<p><img src= images/blank.png width =""200"" height = ""200"" style = ""float:right""></p><p><img src=images/blank.png width =""800"" height = ""200""></p>","","","","","","","","","","","",""
"","413.7899999623187","sequential-stimulus-presentation","363","591619","0.0-65.0-1.6","SS1612915431309","trial","","40","800","1213.7899999623187","","","","","19","simple_similar","images/stimuli/spore_stims/simple_19_B_a.gif","left","","","","",""
