"view_history","rt","trial_type","trial_index","time_elapsed","internal_node_id","subject","stimulus_type","trial_stimulus","key_press","minimum_viewing_duration","trial_looking_time","stimulus","wall_pref","location","location_percent","block_number","block_type","stimulus_displayed","position_displayed","stim_type_selected","responses","question_order","stimulus_left","stimulus_right"
"[{""page_index"":0,""viewing_time"":29357.85999998916}]","29358.57500002021","instructions","0","29362","0.0-0.0","SS1612931382224","","","","","","","","","","","","","","","","","",""
"[{""page_index"":0,""viewing_time"":8319.894999964163},{""page_index"":1,""viewing_time"":214093.31000002567}]","222414.28999998607","instructions","1","253780","0.0-1.0","SS1612931382224","instructions","","","","","","","","","","","","","","","","",""
"","3412.6699999906123","sequential-stimulus-presentation","2","257998","0.0-2.0","SS1612931382224","","","40","800","4212.669999990612","","","","","","","","","","","","",""
"","3687.065000005532","sequential-stimulus-presentation","3","262489","0.0-3.0","SS1612931382224","","","40","800","4487.065000005532","","","","","","","","","","","","",""
"[{""page_index"":0,""viewing_time"":616333.3049999783}]","616333.6199999903","instructions","4","878823","0.0-4.0","SS1612931382224","instructions","","","","","","","","","","","","","","","","",""
"","9493.705000029877","html-keyboard-response","5","888324","0.0-5.0","SS1612931382224","instructions","","49","","","<video width ='960' height = '540' autoplay muted><source src='images/stimuli/wall_pref.mp4' type='video/mp4'></video>","1","left","25%","","","","","","","","",""
"","768.4299999964423","sequential-stimulus-presentation","6","889900","0.0-6.0","SS1612931382224","pref_reveal","","40","800","1568.4299999964423","","","","","","","","","","","","",""
"[{""page_index"":0,""viewing_time"":5382.675000000745},{""page_index"":1,""viewing_time"":3662.8799999598414},{""page_index"":2,""viewing_time"":865.2250000159256},{""page_index"":3,""viewing_time"":708.8400000357069}]","10619.86999999499","instructions","7","900521","0.0-7.0","SS1612931382224","instructions","","","","","","","","","","","","","","","","",""
"","null","html-keyboard-response","8","901710","0.0-8.0-0.0","SS1612931382224","","","null","","","<p><img src= images/blank.png width =""200"" height = ""200"" style = ""float:right""></p><p><img src=images/blank.png width =""800"" height = ""200""></p>","","","","","","","","","","","",""
"","2267.5949999829754","sequential-stimulus-presentation","9","904786","0.0-8.0-1.0","SS1612931382224","trial","","40","800","3067.5949999829754","","","","","0","simple_similar","images/stimuli/spore_stims/simple_14_A_d.gif","right","","","","",""
"","null","html-keyboard-response","10","905617","0.0-8.0-0.1","SS1612931382224","","","null","","","<p><img src= images/blank.png width =""200"" height = ""200"" style = ""float:right""></p><p><img src=images/blank.png width =""800"" height = ""200""></p>","","","","","","","","","","","",""
"","1326.0899999877438","sequential-stimulus-presentation","11","907752","0.0-8.0-1.1","SS1612931382224","trial","","40","800","2126.089999987744","","","","","0","simple_similar","images/stimuli/spore_stims/simple_14_A_d.gif","right","","","","",""
"","null","html-keyboard-response","12","908923","0.0-8.0-0.2","SS1612931382224","","","null","","","<p><img src= images/blank.png width =""200"" height = ""200"" style = ""float:right""></p><p><img src=images/blank.png width =""800"" height = ""200""></p>","","","","","","","","","","","",""
"","1663.4099999791943","sequential-stimulus-presentation","13","911391","0.0-8.0-1.2","SS1612931382224","trial","","40","800","2463.4099999791943","","","","","0","simple_similar","images/stimuli/spore_stims/simple_14_B_d.gif","left","","","","",""
"","null","html-keyboard-response","14","912313","0.0-8.0-0.3","SS1612931382224","","","null","","","<p><img src= images/blank.png width =""200"" height = ""200"" style = ""float:right""></p><p><img src=images/blank.png width =""800"" height = ""200""></p>","","","","","","","","","","","",""
"","1092.3550000297837","sequential-stimulus-presentation","15","914212","0.0-8.0-1.3","SS1612931382224","trial","","40","800","1892.3550000297837","","","","","0","simple_similar","images/stimuli/spore_stims/simple_14_A_d.gif","right","","","","",""
"","null","html-keyboard-response","16","915097","0.0-8.0-0.4","SS1612931382224","","","null","","","<p><img src= images/blank.png width =""200"" height = ""200"" style = ""float:right""></p><p><img src=images/blank.png width =""800"" height = ""200""></p>","","","","","","","","","","","",""
"","1358.124999969732","sequential-stimulus-presentation","17","917263","0.0-8.0-1.4","SS1612931382224","trial","","40","800","2158.124999969732","","","","","0","simple_similar","images/stimuli/spore_stims/simple_14_A_d.gif","right","","","","",""
"","null","html-keyboard-response","18","918505","0.0-8.0-0.5","SS1612931382224","","","null","","","<p><img src= images/blank.png width =""200"" height = ""200"" style = ""float:right""></p><p><img src=images/blank.png width =""800"" height = ""200""></p>","","","","","","","","","","","",""
"","1790.4950000229292","sequential-stimulus-presentation","19","921106","0.0-8.0-1.5","SS1612931382224","trial","","40","800","2590.495000022929","","","","","0","simple_similar","images/stimuli/spore_stims/simple_14_A_d.gif","right","","","","",""
"","null","html-keyboard-response","20","922009","0.0-8.0-0.6","SS1612931382224","","","null","","","<p><img src= images/blank.png width =""200"" height = ""200"" style = ""float:right""></p><p><img src=images/blank.png width =""800"" height = ""200""></p>","","","","","","","","","","","",""
"","1591.2749999552034","sequential-stimulus-presentation","21","924423","0.0-8.0-1.6","SS1612931382224","trial","","40","800","2391.2749999552034","","","","","0","simple_similar","images/stimuli/spore_stims/simple_14_A_d.gif","right","","","","",""
"","null","html-keyboard-response","22","925445","0.0-8.0-0.7","SS1612931382224","","","null","","","<p><img src= images/blank.png width =""200"" height = ""200"" style = ""float:right""></p><p><img src=images/blank.png width =""800"" height = ""200""></p>","","","","","","","","","","","",""
"","1031.7399999476038","sequential-stimulus-presentation","23","927290","0.0-8.0-1.7","SS1612931382224","trial","","40","800","1831.7399999476038","","","","","0","simple_similar","images/stimuli/spore_stims/simple_14_A_d.gif","right","","","","",""
"","878.5200000274926","html-keyboard-response","24","928171","0.0-9.0","SS1612931382224","pref_question","","50","","","<video width ='960' height = '540' style='padding-top:8%' autoplay muted><source src='images/stimuli/wall_pref.mp4' type='video/mp4'></video>","2","middle","45%","0","","","","","","","",""
"","2346.6999999945983","sequential-stimulus-presentation","25","931323","0.0-10.0","SS1612931382224","pref_reveal","","40","800","3146.6999999945983","","","","","0","","","","novel","","","",""
"","null","html-keyboard-response","26","932479","0.0-11.0-0.0","SS1612931382224","","","null","","","<p><img src= images/blank.png width =""200"" height = ""200"" style = ""float:right""></p><p><img src=images/blank.png width =""800"" height = ""200""></p>","","","","","","","","","","","",""
"","1307.570000004489","sequential-stimulus-presentation","27","934590","0.0-11.0-1.0","SS1612931382224","trial","","40","800","2107.570000004489","","","","","1","complex_dissimilar","images/stimuli/spore_stims/complex_04_A_b.gif","right","","","","",""
"","null","html-keyboard-response","28","935523","0.0-11.0-0.1","SS1612931382224","","","null","","","<p><img src= images/blank.png width =""200"" height = ""200"" style = ""float:right""></p><p><img src=images/blank.png width =""800"" height = ""200""></p>","","","","","","","","","","","",""
"","1290.4949999647215","sequential-stimulus-presentation","29","937623","0.0-11.0-1.1","SS1612931382224","trial","","40","800","2090.4949999647215","","","","","1","complex_dissimilar","images/stimuli/spore_stims/complex_04_A_b.gif","right","","","","",""
"","null","html-keyboard-response","30","938494","0.0-11.0-0.2","SS1612931382224","","","null","","","<p><img src= images/blank.png width =""200"" height = ""200"" style = ""float:right""></p><p><img src=images/blank.png width =""800"" height = ""200""></p>","","","","","","","","","","","",""
"","1219.4049999816343","sequential-stimulus-presentation","31","940532","0.0-11.0-1.2","SS1612931382224","trial","","40","800","2019.4049999816343","","","","","1","complex_dissimilar","images/stimuli/spore_stims/complex_04_A_b.gif","right","","","","",""
"","null","html-keyboard-response","32","941686","0.0-11.0-0.3","SS1612931382224","","","null","","","<p><img src= images/blank.png width =""200"" height = ""200"" style = ""float:right""></p><p><img src=images/blank.png width =""800"" height = ""200""></p>","","","","","","","","","","","",""
"","1106.6200000350364","sequential-stimulus-presentation","33","943601","0.0-11.0-1.3","SS1612931382224","trial","","40","800","1906.6200000350364","","","","","1","complex_dissimilar","images/stimuli/spore_stims/complex_04_A_b.gif","right","","","","",""
"","null","html-keyboard-response","34","944658","0.0-11.0-0.4","SS1612931382224","","","null","","","<p><img src= images/blank.png width =""200"" height = ""200"" style = ""float:right""></p><p><img src=images/blank.png width =""800"" height = ""200""></p>","","","","","","","","","","","",""
"","2116.4349999744445","sequential-stimulus-presentation","35","947580","0.0-11.0-1.4","SS1612931382224","trial","","40","800","2916.4349999744445","","","","","1","complex_dissimilar","images/stimuli/spore_stims/complex_09_B_d.gif","left","","","","",""
"","null","html-keyboard-response","36","948484","0.0-11.0-0.5","SS1612931382224","","","null","","","<p><img src= images/blank.png width =""200"" height = ""200"" style = ""float:right""></p><p><img src=images/blank.png width =""800"" height = ""200""></p>","","","","","","","","","","","",""
"","1295.5800000345334","sequential-stimulus-presentation","37","950585","0.0-11.0-1.5","SS1612931382224","trial","","40","800","2095.5800000345334","","","","","1","complex_dissimilar","images/stimuli/spore_stims/complex_04_A_b.gif","right","","","","",""
"","null","html-keyboard-response","38","951426","0.0-11.0-0.6","SS1612931382224","","","null","","","<p><img src= images/blank.png width =""200"" height = ""200"" style = ""float:right""></p><p><img src=images/blank.png width =""800"" height = ""200""></p>","","","","","","","","","","","",""
"","1362.879999971483","sequential-stimulus-presentation","39","953595","0.0-11.0-1.6","SS1612931382224","trial","","40","800","2162.879999971483","","","","","1","complex_dissimilar","images/stimuli/spore_stims/complex_04_A_b.gif","right","","","","",""
"","null","html-keyboard-response","40","954781","0.0-11.0-0.7","SS1612931382224","","","null","","","<p><img src= images/blank.png width =""200"" height = ""200"" style = ""float:right""></p><p><img src=images/blank.png width =""800"" height = ""200""></p>","","","","","","","","","","","",""
"","1108.5350000066683","sequential-stimulus-presentation","41","956696","0.0-11.0-1.7","SS1612931382224","trial","","40","800","1908.5350000066683","","","","","1","complex_dissimilar","images/stimuli/spore_stims/complex_04_A_b.gif","right","","","","",""
"","1485.4850000119768","html-keyboard-response","42","958184","0.0-12.0","SS1612931382224","pref_question","","50","","","<video width ='960' height = '540' style='padding-top:8%' autoplay muted><source src='images/stimuli/wall_pref.mp4' type='video/mp4'></video>","2","middle","45%","1","","","","","","","",""
"","2352.6249999995343","sequential-stimulus-presentation","43","961346","0.0-13.0","SS1612931382224","pref_reveal","","40","800","3152.6249999995343","","","","","1","","","","novel","","","",""
"","null","html-keyboard-response","44","962556","0.0-14.0-0.0","SS1612931382224","","","null","","","<p><img src= images/blank.png width =""200"" height = ""200"" style = ""float:right""></p><p><img src=images/blank.png width =""800"" height = ""200""></p>","","","","","","","","","","","",""
"","1529.8799999873154","sequential-stimulus-presentation","45","964892","0.0-14.0-1.0","SS1612931382224","trial","","40","800","2329.8799999873154","","","","","2","simple_dissimilar","images/stimuli/spore_stims/simple_07_A_d.gif","left","","","","",""
"","null","html-keyboard-response","46","966071","0.0-14.0-0.1","SS1612931382224","","","null","","","<p><img src= images/blank.png width =""200"" height = ""200"" style = ""float:right""></p><p><img src=images/blank.png width =""800"" height = ""200""></p>","","","","","","","","","","","",""
"","968.3899999945424","sequential-stimulus-presentation","47","967869","0.0-14.0-1.1","SS1612931382224","trial","","40","800","1768.3899999945424","","","","","2","simple_dissimilar","images/stimuli/spore_stims/simple_07_A_d.gif","left","","","","",""
"","null","html-keyboard-response","48","968779","0.0-14.0-0.2","SS1612931382224","","","null","","","<p><img src= images/blank.png width =""200"" height = ""200"" style = ""float:right""></p><p><img src=images/blank.png width =""800"" height = ""200""></p>","","","","","","","","","","","",""
"","830.7299999869429","sequential-stimulus-presentation","49","970415","0.0-14.0-1.2","SS1612931382224","trial","","40","800","1630.7299999869429","","","","","2","simple_dissimilar","images/stimuli/spore_stims/simple_07_A_d.gif","left","","","","",""
"","null","html-keyboard-response","50","971324","0.0-14.0-0.3","SS1612931382224","","","null","","","<p><img src= images/blank.png width =""200"" height = ""200"" style = ""float:right""></p><p><img src=images/blank.png width =""800"" height = ""200""></p>","","","","","","","","","","","",""
"","385.0949999759905","sequential-stimulus-presentation","51","972514","0.0-14.0-1.3","SS1612931382224","trial","","40","800","1185.0949999759905","","","","","2","simple_dissimilar","images/stimuli/spore_stims/simple_07_A_d.gif","left","","","","",""
"","null","html-keyboard-response","52","973564","0.0-14.0-0.4","SS1612931382224","","","null","","","<p><img src= images/blank.png width =""200"" height = ""200"" style = ""float:right""></p><p><img src=images/blank.png width =""800"" height = ""200""></p>","","","","","","","","","","","",""
"","331.59499999601394","sequential-stimulus-presentation","53","974702","0.0-14.0-1.4","SS1612931382224","trial","","40","800","1131.594999996014","","","","","2","simple_dissimilar","images/stimuli/spore_stims/simple_07_A_d.gif","left","","","","",""
"","null","html-keyboard-response","54","975891","0.0-14.0-0.5","SS1612931382224","","","null","","","<p><img src= images/blank.png width =""200"" height = ""200"" style = ""float:right""></p><p><img src=images/blank.png width =""800"" height = ""200""></p>","","","","","","","","","","","",""
"","1079.4999999925494","sequential-stimulus-presentation","55","977777","0.0-14.0-1.5","SS1612931382224","trial","","40","800","1879.4999999925494","","","","","2","simple_dissimilar","images/stimuli/spore_stims/simple_10_A_c.gif","middle","","","","",""
"","null","html-keyboard-response","56","978815","0.0-14.0-0.6","SS1612931382224","","","null","","","<p><img src= images/blank.png width =""200"" height = ""200"" style = ""float:right""></p><p><img src=images/blank.png width =""800"" height = ""200""></p>","","","","","","","","","","","",""
"","511.83500001206994","sequential-stimulus-presentation","57","980134","0.0-14.0-1.6","SS1612931382224","trial","","40","800","1311.83500001207","","","","","2","simple_dissimilar","images/stimuli/spore_stims/simple_07_A_d.gif","left","","","","",""
"","null","html-keyboard-response","58","980973","0.0-14.0-0.7","SS1612931382224","","","null","","","<p><img src= images/blank.png width =""200"" height = ""200"" style = ""float:right""></p><p><img src=images/blank.png width =""800"" height = ""200""></p>","","","","","","","","","","","",""
"","161.469999991823","sequential-stimulus-presentation","59","981940","0.0-14.0-1.7","SS1612931382224","trial","","40","800","961.469999991823","","","","","2","simple_dissimilar","images/stimuli/spore_stims/simple_07_A_d.gif","left","","","","",""
"","2615.1299999910407","html-keyboard-response","60","984585","0.0-15.0","SS1612931382224","pref_question","","51","","","<video width ='960' height = '540' style='padding-top:8%' autoplay muted><source src='images/stimuli/wall_pref.mp4' type='video/mp4'></video>","3","right","66%","2","","","","","","","",""
"","2484.6900000120513","sequential-stimulus-presentation","61","987882","0.0-16.0","SS1612931382224","pref_reveal","","40","800","3284.6900000120513","","","","","2","","","","novel","","","",""
"","null","html-keyboard-response","62","989156","0.0-17.0-0.0","SS1612931382224","","","null","","","<p><img src= images/blank.png width =""200"" height = ""200"" style = ""float:right""></p><p><img src=images/blank.png width =""800"" height = ""200""></p>","","","","","","","","","","","",""
"","1101.7199999769218","sequential-stimulus-presentation","63","991063","0.0-17.0-1.0","SS1612931382224","trial","","40","800","1901.7199999769218","","","","","3","simple_similar","images/stimuli/spore_stims/simple_19_A_d.gif","middle","","","","",""
"","null","html-keyboard-response","64","991885","0.0-17.0-0.1","SS1612931382224","","","null","","","<p><img src= images/blank.png width =""200"" height = ""200"" style = ""float:right""></p><p><img src=images/blank.png width =""800"" height = ""200""></p>","","","","","","","","","","","",""
"","1207.5199999962933","sequential-stimulus-presentation","65","993901","0.0-17.0-1.1","SS1612931382224","trial","","40","800","2007.5199999962933","","","","","3","simple_similar","images/stimuli/spore_stims/simple_19_A_d.gif","middle","","","","",""
"","null","html-keyboard-response","66","994749","0.0-17.0-0.2","SS1612931382224","","","null","","","<p><img src= images/blank.png width =""200"" height = ""200"" style = ""float:right""></p><p><img src=images/blank.png width =""800"" height = ""200""></p>","","","","","","","","","","","",""
"","426.66999995708466","sequential-stimulus-presentation","67","995999","0.0-17.0-1.2","SS1612931382224","trial","","40","800","1226.6699999570847","","","","","3","simple_similar","images/stimuli/spore_stims/simple_19_A_d.gif","middle","","","","",""
"","null","html-keyboard-response","68","997025","0.0-17.0-0.3","SS1612931382224","","","null","","","<p><img src= images/blank.png width =""200"" height = ""200"" style = ""float:right""></p><p><img src=images/blank.png width =""800"" height = ""200""></p>","","","","","","","","","","","",""
"","1461.4999999757856","sequential-stimulus-presentation","69","999291","0.0-17.0-1.3","SS1612931382224","trial","","40","800","2261.4999999757856","","","","","3","simple_similar","images/stimuli/spore_stims/simple_19_B_d.gif","right","","","","",""
"","null","html-keyboard-response","70","1000314","0.0-17.0-0.4","SS1612931382224","","","null","","","<p><img src= images/blank.png width =""200"" height = ""200"" style = ""float:right""></p><p><img src=images/blank.png width =""800"" height = ""200""></p>","","","","","","","","","","","",""
"","859.5050000003539","sequential-stimulus-presentation","71","1001982","0.0-17.0-1.4","SS1612931382224","trial","","40","800","1659.505000000354","","","","","3","simple_similar","images/stimuli/spore_stims/simple_19_A_d.gif","middle","","","","",""
"","null","html-keyboard-response","72","1003282","0.0-17.0-0.5","SS1612931382224","","","null","","","<p><img src= images/blank.png width =""200"" height = ""200"" style = ""float:right""></p><p><img src=images/blank.png width =""800"" height = ""200""></p>","","","","","","","","","","","",""
"","961.8699999991804","sequential-stimulus-presentation","73","1005050","0.0-17.0-1.5","SS1612931382224","trial","","40","800","1761.8699999991804","","","","","3","simple_similar","images/stimuli/spore_stims/simple_19_A_d.gif","middle","","","","",""
"","null","html-keyboard-response","74","1005934","0.0-17.0-0.6","SS1612931382224","","","null","","","<p><img src= images/blank.png width =""200"" height = ""200"" style = ""float:right""></p><p><img src=images/blank.png width =""800"" height = ""200""></p>","","","","","","","","","","","",""
"","978.0799999716692","sequential-stimulus-presentation","75","1007736","0.0-17.0-1.6","SS1612931382224","trial","","40","800","1778.0799999716692","","","","","3","simple_similar","images/stimuli/spore_stims/simple_19_A_d.gif","middle","","","","",""
"","null","html-keyboard-response","76","1008740","0.0-17.0-0.7","SS1612931382224","","","null","","","<p><img src= images/blank.png width =""200"" height = ""200"" style = ""float:right""></p><p><img src=images/blank.png width =""800"" height = ""200""></p>","","","","","","","","","","","",""
"","1124.2399999755435","sequential-stimulus-presentation","77","1010670","0.0-17.0-1.7","SS1612931382224","trial","","40","800","1924.2399999755435","","","","","3","simple_similar","images/stimuli/spore_stims/simple_19_A_d.gif","middle","","","","",""
"","663.2100000279024","html-keyboard-response","78","1011337","0.0-18.0","SS1612931382224","pref_question","","97","","","<video width ='960' height = '540' style='padding-top:8%' autoplay muted><source src='images/stimuli/wall_pref.mp4' type='video/mp4'></video>","1","left","25%","3","","","","","","","",""
"","2373.600000049919","sequential-stimulus-presentation","79","1014546","0.0-19.0","SS1612931382224","pref_reveal","","40","800","3173.600000049919","","","","","3","","","","novel","","","",""
"","null","html-keyboard-response","80","1015570","0.0-20.0-0.0","SS1612931382224","","","null","","","<p><img src= images/blank.png width =""200"" height = ""200"" style = ""float:right""></p><p><img src=images/blank.png width =""800"" height = ""200""></p>","","","","","","","","","","","",""
"","515.5800000065938","sequential-stimulus-presentation","81","1016893","0.0-20.0-1.0","SS1612931382224","trial","","40","800","1315.5800000065938","","","","","4","simple_dissimilar","images/stimuli/spore_stims/simple_03_B_d.gif","right","","","","",""
"","null","html-keyboard-response","82","1017867","0.0-20.0-0.1","SS1612931382224","","","null","","","<p><img src= images/blank.png width =""200"" height = ""200"" style = ""float:right""></p><p><img src=images/blank.png width =""800"" height = ""200""></p>","","","","","","","","","","","",""
"","1530.5150000494905","sequential-stimulus-presentation","83","1020203","0.0-20.0-1.1","SS1612931382224","trial","","40","800","2330.5150000494905","","","","","4","simple_dissimilar","images/stimuli/spore_stims/simple_03_B_d.gif","right","","","","",""
"","null","html-keyboard-response","84","1021485","0.0-20.0-0.2","SS1612931382224","","","null","","","<p><img src= images/blank.png width =""200"" height = ""200"" style = ""float:right""></p><p><img src=images/blank.png width =""800"" height = ""200""></p>","","","","","","","","","","","",""
"","1044.724999985192","sequential-stimulus-presentation","85","1023335","0.0-20.0-1.2","SS1612931382224","trial","","40","800","1844.724999985192","","","","","4","simple_dissimilar","images/stimuli/spore_stims/simple_03_B_d.gif","right","","","","",""
"","null","html-keyboard-response","86","1024179","0.0-20.0-0.3","SS1612931382224","","","null","","","<p><img src= images/blank.png width =""200"" height = ""200"" style = ""float:right""></p><p><img src=images/blank.png width =""800"" height = ""200""></p>","","","","","","","","","","","",""
"","1162.7250000019558","sequential-stimulus-presentation","87","1026150","0.0-20.0-1.3","SS1612931382224","trial","","40","800","1962.7250000019558","","","","","4","simple_dissimilar","images/stimuli/spore_stims/simple_05_A_b.gif","left","","","","",""
"","null","html-keyboard-response","88","1027192","0.0-20.0-0.4","SS1612931382224","","","null","","","<p><img src= images/blank.png width =""200"" height = ""200"" style = ""float:right""></p><p><img src=images/blank.png width =""800"" height = ""200""></p>","","","","","","","","","","","",""
"","859.4000000157394","sequential-stimulus-presentation","89","1028860","0.0-20.0-1.4","SS1612931382224","trial","","40","800","1659.4000000157394","","","","","4","simple_dissimilar","images/stimuli/spore_stims/simple_03_B_d.gif","right","","","","",""
"","null","html-keyboard-response","90","1030097","0.0-20.0-0.5","SS1612931382224","","","null","","","<p><img src= images/blank.png width =""200"" height = ""200"" style = ""float:right""></p><p><img src=images/blank.png width =""800"" height = ""200""></p>","","","","","","","","","","","",""
"","682.98500002129","sequential-stimulus-presentation","91","1031586","0.0-20.0-1.5","SS1612931382224","trial","","40","800","1482.98500002129","","","","","4","simple_dissimilar","images/stimuli/spore_stims/simple_03_B_d.gif","right","","","","",""
"","null","html-keyboard-response","92","1032731","0.0-20.0-0.6","SS1612931382224","","","null","","","<p><img src= images/blank.png width =""200"" height = ""200"" style = ""float:right""></p><p><img src=images/blank.png width =""800"" height = ""200""></p>","","","","","","","","","","","",""
"","741.8650000472553","sequential-stimulus-presentation","93","1034279","0.0-20.0-1.6","SS1612931382224","trial","","40","800","1541.8650000472553","","","","","4","simple_dissimilar","images/stimuli/spore_stims/simple_03_B_d.gif","right","","","","",""
"","null","html-keyboard-response","94","1035099","0.0-20.0-0.7","SS1612931382224","","","null","","","<p><img src= images/blank.png width =""200"" height = ""200"" style = ""float:right""></p><p><img src=images/blank.png width =""800"" height = ""200""></p>","","","","","","","","","","","",""
"","918.9999999944121","sequential-stimulus-presentation","95","1036825","0.0-20.0-1.7","SS1612931382224","trial","","40","800","1718.999999994412","","","","","4","simple_dissimilar","images/stimuli/spore_stims/simple_03_B_d.gif","right","","","","",""
"","1068.4699999983422","html-keyboard-response","96","1037898","0.0-21.0","SS1612931382224","pref_question","","98","","","<video width ='960' height = '540' style='padding-top:8%' autoplay muted><source src='images/stimuli/wall_pref.mp4' type='video/mp4'></video>","2","middle","45%","4","","","","","","","",""
"","1578.6849999567494","sequential-stimulus-presentation","97","1040286","0.0-22.0","SS1612931382224","pref_reveal","","40","800","2378.6849999567494","","","","","4","","","","novel","","","",""
"","null","html-keyboard-response","98","1041474","0.0-23.0-0.0","SS1612931382224","","","null","","","<p><img src= images/blank.png width =""200"" height = ""200"" style = ""float:right""></p><p><img src=images/blank.png width =""800"" height = ""200""></p>","","","","","","","","","","","",""
"","1439.2799999914132","sequential-stimulus-presentation","99","1043719","0.0-23.0-1.0","SS1612931382224","trial","","40","800","2239.279999991413","","","","","5","complex_similar","images/stimuli/spore_stims/complex_15_B_d.gif","left","","","","",""
"","null","html-keyboard-response","100","1044858","0.0-23.0-0.1","SS1612931382224","","","null","","","<p><img src= images/blank.png width =""200"" height = ""200"" style = ""float:right""></p><p><img src=images/blank.png width =""800"" height = ""200""></p>","","","","","","","","","","","",""
"","1491.8949999846518","sequential-stimulus-presentation","101","1047158","0.0-23.0-1.1","SS1612931382224","trial","","40","800","2291.894999984652","","","","","5","complex_similar","images/stimuli/spore_stims/complex_15_B_d.gif","left","","","","",""
"","null","html-keyboard-response","102","1047980","0.0-23.0-0.2","SS1612931382224","","","null","","","<p><img src= images/blank.png width =""200"" height = ""200"" style = ""float:right""></p><p><img src=images/blank.png width =""800"" height = ""200""></p>","","","","","","","","","","","",""
"","4648.65499996813","sequential-stimulus-presentation","103","1053442","0.0-23.0-1.2","SS1612931382224","trial","","40","800","5448.65499996813","","","","","5","complex_similar","images/stimuli/spore_stims/complex_15_B_d.gif","left","","","","",""
"","null","html-keyboard-response","104","1054575","0.0-23.0-0.3","SS1612931382224","","","null","","","<p><img src= images/blank.png width =""200"" height = ""200"" style = ""float:right""></p><p><img src=images/blank.png width =""800"" height = ""200""></p>","","","","","","","","","","","",""
"","878.0499999993481","sequential-stimulus-presentation","105","1056263","0.0-23.0-1.3","SS1612931382224","trial","","40","800","1678.049999999348","","","","","5","complex_similar","images/stimuli/spore_stims/complex_15_A_d.gif","right","","","","",""
"","null","html-keyboard-response","106","1057164","0.0-23.0-0.4","SS1612931382224","","","null","","","<p><img src= images/blank.png width =""200"" height = ""200"" style = ""float:right""></p><p><img src=images/blank.png width =""800"" height = ""200""></p>","","","","","","","","","","","",""
"","744.9699999997392","sequential-stimulus-presentation","107","1058714","0.0-23.0-1.4","SS1612931382224","trial","","40","800","1544.9699999997392","","","","","5","complex_similar","images/stimuli/spore_stims/complex_15_B_d.gif","left","","","","",""
"","null","html-keyboard-response","108","1059714","0.0-23.0-0.5","SS1612931382224","","","null","","","<p><img src= images/blank.png width =""200"" height = ""200"" style = ""float:right""></p><p><img src=images/blank.png width =""800"" height = ""200""></p>","","","","","","","","","","","",""
"","547.7500000270084","sequential-stimulus-presentation","109","1061069","0.0-23.0-1.5","SS1612931382224","trial","","40","800","1347.7500000270084","","","","","5","complex_similar","images/stimuli/spore_stims/complex_15_B_d.gif","left","","","","",""
"","null","html-keyboard-response","110","1061937","0.0-23.0-0.6","SS1612931382224","","","null","","","<p><img src= images/blank.png width =""200"" height = ""200"" style = ""float:right""></p><p><img src=images/blank.png width =""800"" height = ""200""></p>","","","","","","","","","","","",""
"","413.5450000176206","sequential-stimulus-presentation","111","1063162","0.0-23.0-1.6","SS1612931382224","trial","","40","800","1213.5450000176206","","","","","5","complex_similar","images/stimuli/spore_stims/complex_15_B_d.gif","left","","","","",""
"","null","html-keyboard-response","112","1064214","0.0-23.0-0.7","SS1612931382224","","","null","","","<p><img src= images/blank.png width =""200"" height = ""200"" style = ""float:right""></p><p><img src=images/blank.png width =""800"" height = ""200""></p>","","","","","","","","","","","",""
"","80.5199999595061","sequential-stimulus-presentation","113","1065102","0.0-23.0-1.7","SS1612931382224","trial","","40","800","880.5199999595061","","","","","5","complex_similar","images/stimuli/spore_stims/complex_15_B_d.gif","left","","","","",""
"","1082.3700000182725","html-keyboard-response","114","1066189","0.0-24.0","SS1612931382224","pref_question","","98","","","<video width ='960' height = '540' style='padding-top:8%' autoplay muted><source src='images/stimuli/wall_pref.mp4' type='video/mp4'></video>","2","middle","45%","5","","","","","","","",""
"","1789.4599999999627","sequential-stimulus-presentation","115","1068786","0.0-25.0","SS1612931382224","pref_reveal","","40","800","2589.4599999999627","","","","","5","","","","novel","","","",""
"","null","html-keyboard-response","116","1069612","0.0-26.0-0.0","SS1612931382224","","","null","","","<p><img src= images/blank.png width =""200"" height = ""200"" style = ""float:right""></p><p><img src=images/blank.png width =""800"" height = ""200""></p>","","","","","","","","","","","",""
"","1064.9049999774434","sequential-stimulus-presentation","117","1071492","0.0-26.0-1.0","SS1612931382224","trial","","40","800","1864.9049999774434","","","","","6","simple_similar","images/stimuli/spore_stims/simple_08_B_a.gif","left","","","","",""
"","null","html-keyboard-response","118","1072626","0.0-26.0-0.1","SS1612931382224","","","null","","","<p><img src= images/blank.png width =""200"" height = ""200"" style = ""float:right""></p><p><img src=images/blank.png width =""800"" height = ""200""></p>","","","","","","","","","","","",""
"","1025.9599999990314","sequential-stimulus-presentation","119","1074458","0.0-26.0-1.1","SS1612931382224","trial","","40","800","1825.9599999990314","","","","","6","simple_similar","images/stimuli/spore_stims/simple_08_B_a.gif","left","","","","",""
"","null","html-keyboard-response","120","1075578","0.0-26.0-0.2","SS1612931382224","","","null","","","<p><img src= images/blank.png width =""200"" height = ""200"" style = ""float:right""></p><p><img src=images/blank.png width =""800"" height = ""200""></p>","","","","","","","","","","","",""
"","937.4599999864586","sequential-stimulus-presentation","121","1077326","0.0-26.0-1.2","SS1612931382224","trial","","40","800","1737.4599999864586","","","","","6","simple_similar","images/stimuli/spore_stims/simple_08_B_a.gif","left","","","","",""
"","null","html-keyboard-response","122","1078405","0.0-26.0-0.3","SS1612931382224","","","null","","","<p><img src= images/blank.png width =""200"" height = ""200"" style = ""float:right""></p><p><img src=images/blank.png width =""800"" height = ""200""></p>","","","","","","","","","","","",""
"","958.4000000031665","sequential-stimulus-presentation","123","1080169","0.0-26.0-1.3","SS1612931382224","trial","","40","800","1758.4000000031665","","","","","6","simple_similar","images/stimuli/spore_stims/simple_08_A_a.gif","middle","","","","",""
"","null","html-keyboard-response","124","1081407","0.0-26.0-0.4","SS1612931382224","","","null","","","<p><img src= images/blank.png width =""200"" height = ""200"" style = ""float:right""></p><p><img src=images/blank.png width =""800"" height = ""200""></p>","","","","","","","","","","","",""
"","354.9500000081025","sequential-stimulus-presentation","125","1082568","0.0-26.0-1.4","SS1612931382224","trial","","40","800","1154.9500000081025","","","","","6","simple_similar","images/stimuli/spore_stims/simple_08_B_a.gif","left","","","","",""
"","null","html-keyboard-response","126","1083651","0.0-26.0-0.5","SS1612931382224","","","null","","","<p><img src= images/blank.png width =""200"" height = ""200"" style = ""float:right""></p><p><img src=images/blank.png width =""800"" height = ""200""></p>","","","","","","","","","","","",""
"","188.32000001566485","sequential-stimulus-presentation","127","1084648","0.0-26.0-1.5","SS1612931382224","trial","","40","800","988.3200000156648","","","","","6","simple_similar","images/stimuli/spore_stims/simple_08_B_a.gif","left","","","","",""
"","null","html-keyboard-response","128","1085497","0.0-26.0-0.6","SS1612931382224","","","null","","","<p><img src= images/blank.png width =""200"" height = ""200"" style = ""float:right""></p><p><img src=images/blank.png width =""800"" height = ""200""></p>","","","","","","","","","","","",""
"","197.50999996904284","sequential-stimulus-presentation","129","1086500","0.0-26.0-1.6","SS1612931382224","trial","","40","800","997.5099999690428","","","","","6","simple_similar","images/stimuli/spore_stims/simple_08_B_a.gif","left","","","","",""
"","null","html-keyboard-response","130","1087738","0.0-26.0-0.7","SS1612931382224","","","null","","","<p><img src= images/blank.png width =""200"" height = ""200"" style = ""float:right""></p><p><img src=images/blank.png width =""800"" height = ""200""></p>","","","","","","","","","","","",""
"","367.14500002563","sequential-stimulus-presentation","131","1088918","0.0-26.0-1.7","SS1612931382224","trial","","40","800","1167.14500002563","","","","","6","simple_similar","images/stimuli/spore_stims/simple_08_B_a.gif","left","","","","",""
"","942.4350000335835","html-keyboard-response","132","1089866","0.0-27.0","SS1612931382224","pref_question","","99","","","<video width ='960' height = '540' style='padding-top:8%' autoplay muted><source src='images/stimuli/wall_pref.mp4' type='video/mp4'></video>","3","right","66%","6","","","","","","","",""
"","2180.9749999665655","sequential-stimulus-presentation","133","1092856","0.0-28.0","SS1612931382224","pref_reveal","","40","800","2980.9749999665655","","","","","6","","","","novel","","","",""
"","null","html-keyboard-response","134","1093781","0.0-29.0-0.0","SS1612931382224","","","null","","","<p><img src= images/blank.png width =""200"" height = ""200"" style = ""float:right""></p><p><img src=images/blank.png width =""800"" height = ""200""></p>","","","","","","","","","","","",""
"","971.6349999653175","sequential-stimulus-presentation","135","1095559","0.0-29.0-1.0","SS1612931382224","trial","","40","800","1771.6349999653175","","","","","7","complex_dissimilar","images/stimuli/spore_stims/complex_04_B_b.gif","right","","","","",""
"","null","html-keyboard-response","136","1096574","0.0-29.0-0.1","SS1612931382224","","","null","","","<p><img src= images/blank.png width =""200"" height = ""200"" style = ""float:right""></p><p><img src=images/blank.png width =""800"" height = ""200""></p>","","","","","","","","","","","",""
"","1063.2999999797903","sequential-stimulus-presentation","137","1098446","0.0-29.0-1.1","SS1612931382224","trial","","40","800","1863.2999999797903","","","","","7","complex_dissimilar","images/stimuli/spore_stims/complex_04_B_b.gif","right","","","","",""
"","null","html-keyboard-response","138","1099587","0.0-29.0-0.2","SS1612931382224","","","null","","","<p><img src= images/blank.png width =""200"" height = ""200"" style = ""float:right""></p><p><img src=images/blank.png width =""800"" height = ""200""></p>","","","","","","","","","","","",""
"","843.6700000311248","sequential-stimulus-presentation","139","1101236","0.0-29.0-1.2","SS1612931382224","trial","","40","800","1643.6700000311248","","","","","7","complex_dissimilar","images/stimuli/spore_stims/complex_04_B_b.gif","right","","","","",""
"","null","html-keyboard-response","140","1102330","0.0-29.0-0.3","SS1612931382224","","","null","","","<p><img src= images/blank.png width =""200"" height = ""200"" style = ""float:right""></p><p><img src=images/blank.png width =""800"" height = ""200""></p>","","","","","","","","","","","",""
"","787.3000000254251","sequential-stimulus-presentation","141","1103931","0.0-29.0-1.3","SS1612931382224","trial","","40","800","1587.300000025425","","","","","7","complex_dissimilar","images/stimuli/spore_stims/complex_04_B_b.gif","right","","","","",""
"","null","html-keyboard-response","142","1105187","0.0-29.0-0.4","SS1612931382224","","","null","","","<p><img src= images/blank.png width =""200"" height = ""200"" style = ""float:right""></p><p><img src=images/blank.png width =""800"" height = ""200""></p>","","","","","","","","","","","",""
"","708.9699999778531","sequential-stimulus-presentation","143","1106705","0.0-29.0-1.4","SS1612931382224","trial","","40","800","1508.9699999778531","","","","","7","complex_dissimilar","images/stimuli/spore_stims/complex_04_B_b.gif","right","","","","",""
"","null","html-keyboard-response","144","1107864","0.0-29.0-0.5","SS1612931382224","","","null","","","<p><img src= images/blank.png width =""200"" height = ""200"" style = ""float:right""></p><p><img src=images/blank.png width =""800"" height = ""200""></p>","","","","","","","","","","","",""
"","1346.2149999686517","sequential-stimulus-presentation","145","1110018","0.0-29.0-1.5","SS1612931382224","trial","","40","800","2146.2149999686517","","","","","7","complex_dissimilar","images/stimuli/spore_stims/complex_10_B_c.gif","left","","","","",""
"","null","html-keyboard-response","146","1110891","0.0-29.0-0.6","SS1612931382224","","","null","","","<p><img src= images/blank.png width =""200"" height = ""200"" style = ""float:right""></p><p><img src=images/blank.png width =""800"" height = ""200""></p>","","","","","","","","","","","",""
"","852.0600000047125","sequential-stimulus-presentation","147","1112552","0.0-29.0-1.6","SS1612931382224","trial","","40","800","1652.0600000047125","","","","","7","complex_dissimilar","images/stimuli/spore_stims/complex_04_B_b.gif","right","","","","",""
"","null","html-keyboard-response","148","1113654","0.0-29.0-0.7","SS1612931382224","","","null","","","<p><img src= images/blank.png width =""200"" height = ""200"" style = ""float:right""></p><p><img src=images/blank.png width =""800"" height = ""200""></p>","","","","","","","","","","","",""
"","389.7949999663979","sequential-stimulus-presentation","149","1114856","0.0-29.0-1.7","SS1612931382224","trial","","40","800","1189.7949999663979","","","","","7","complex_dissimilar","images/stimuli/spore_stims/complex_04_B_b.gif","right","","","","",""
"","1206.2600000062957","html-keyboard-response","150","1116066","0.0-30.0","SS1612931382224","pref_question","","98","","","<video width ='960' height = '540' style='padding-top:8%' autoplay muted><source src='images/stimuli/wall_pref.mp4' type='video/mp4'></video>","2","middle","45%","7","","","","","","","",""
"","1024.0950000006706","sequential-stimulus-presentation","151","1117902","0.0-31.0","SS1612931382224","pref_reveal","","40","800","1824.0950000006706","","","","","7","","","","novel","","","",""
"","null","html-keyboard-response","152","1118763","0.0-32.0-0.0","SS1612931382224","","","null","","","<p><img src= images/blank.png width =""200"" height = ""200"" style = ""float:right""></p><p><img src=images/blank.png width =""800"" height = ""200""></p>","","","","","","","","","","","",""
"","1127.7250000275671","sequential-stimulus-presentation","153","1120698","0.0-32.0-1.0","SS1612931382224","trial","","40","800","1927.7250000275671","","","","","8","simple_similar","images/stimuli/spore_stims/simple_09_B_a.gif","left","","","","",""
"","null","html-keyboard-response","154","1121559","0.0-32.0-0.1","SS1612931382224","","","null","","","<p><img src= images/blank.png width =""200"" height = ""200"" style = ""float:right""></p><p><img src=images/blank.png width =""800"" height = ""200""></p>","","","","","","","","","","","",""
"","883.1600000266917","sequential-stimulus-presentation","155","1123280","0.0-32.0-1.1","SS1612931382224","trial","","40","800","1683.1600000266917","","","","","8","simple_similar","images/stimuli/spore_stims/simple_09_B_a.gif","left","","","","",""
"","null","html-keyboard-response","156","1124109","0.0-32.0-0.2","SS1612931382224","","","null","","","<p><img src= images/blank.png width =""200"" height = ""200"" style = ""float:right""></p><p><img src=images/blank.png width =""800"" height = ""200""></p>","","","","","","","","","","","",""
"","881.5349999931641","sequential-stimulus-presentation","157","1125800","0.0-32.0-1.2","SS1612931382224","trial","","40","800","1681.534999993164","","","","","8","simple_similar","images/stimuli/spore_stims/simple_09_A_a.gif","middle","","","","",""
"","null","html-keyboard-response","158","1126946","0.0-32.0-0.3","SS1612931382224","","","null","","","<p><img src= images/blank.png width =""200"" height = ""200"" style = ""float:right""></p><p><img src=images/blank.png width =""800"" height = ""200""></p>","","","","","","","","","","","",""
"","775.6199999712408","sequential-stimulus-presentation","159","1128540","0.0-32.0-1.3","SS1612931382224","trial","","40","800","1575.6199999712408","","","","","8","simple_similar","images/stimuli/spore_stims/simple_09_B_a.gif","left","","","","",""
"","null","html-keyboard-response","160","1129519","0.0-32.0-0.4","SS1612931382224","","","null","","","<p><img src= images/blank.png width =""200"" height = ""200"" style = ""float:right""></p><p><img src=images/blank.png width =""800"" height = ""200""></p>","","","","","","","","","","","",""
"","265.6499999575317","sequential-stimulus-presentation","161","1130594","0.0-32.0-1.4","SS1612931382224","trial","","40","800","1065.6499999575317","","","","","8","simple_similar","images/stimuli/spore_stims/simple_09_B_a.gif","left","","","","",""
"","null","html-keyboard-response","162","1131575","0.0-32.0-0.5","SS1612931382224","","","null","","","<p><img src= images/blank.png width =""200"" height = ""200"" style = ""float:right""></p><p><img src=images/blank.png width =""800"" height = ""200""></p>","","","","","","","","","","","",""
"","156.26999997766688","sequential-stimulus-presentation","163","1132541","0.0-32.0-1.5","SS1612931382224","trial","","40","800","956.2699999776669","","","","","8","simple_similar","images/stimuli/spore_stims/simple_09_B_a.gif","left","","","","",""
"","null","html-keyboard-response","164","1133508","0.0-32.0-0.6","SS1612931382224","","","null","","","<p><img src= images/blank.png width =""200"" height = ""200"" style = ""float:right""></p><p><img src=images/blank.png width =""800"" height = ""200""></p>","","","","","","","","","","","",""
"","169.74499996285886","sequential-stimulus-presentation","165","1134486","0.0-32.0-1.6","SS1612931382224","trial","","40","800","969.7449999628589","","","","","8","simple_similar","images/stimuli/spore_stims/simple_09_B_a.gif","left","","","","",""
"","null","html-keyboard-response","166","1135588","0.0-32.0-0.7","SS1612931382224","","","null","","","<p><img src= images/blank.png width =""200"" height = ""200"" style = ""float:right""></p><p><img src=images/blank.png width =""800"" height = ""200""></p>","","","","","","","","","","","",""
"","21.84500003932044","sequential-stimulus-presentation","167","1136436","0.0-32.0-1.7","SS1612931382224","trial","","40","800","821.8450000393204","","","","","8","simple_similar","images/stimuli/spore_stims/simple_09_B_a.gif","left","","","","",""
"","693.204999959562","html-keyboard-response","168","1137133","0.0-33.0","SS1612931382224","pref_question","","99","","","<video width ='960' height = '540' style='padding-top:8%' autoplay muted><source src='images/stimuli/wall_pref.mp4' type='video/mp4'></video>","3","right","66%","8","","","","","","","",""
"","2211.905000032857","sequential-stimulus-presentation","169","1140153","0.0-34.0","SS1612931382224","pref_reveal","","40","800","3011.905000032857","","","","","8","","","","novel","","","",""
"","null","html-keyboard-response","170","1141161","0.0-35.0-0.0","SS1612931382224","","","null","","","<p><img src= images/blank.png width =""200"" height = ""200"" style = ""float:right""></p><p><img src=images/blank.png width =""800"" height = ""200""></p>","","","","","","","","","","","",""
"","931.3100000144914","sequential-stimulus-presentation","171","1142900","0.0-35.0-1.0","SS1612931382224","trial","","40","800","1731.3100000144914","","","","","9","complex_dissimilar","images/stimuli/spore_stims/complex_14_B_d.gif","right","","","","",""
"","null","html-keyboard-response","172","1144055","0.0-35.0-0.1","SS1612931382224","","","null","","","<p><img src= images/blank.png width =""200"" height = ""200"" style = ""float:right""></p><p><img src=images/blank.png width =""800"" height = ""200""></p>","","","","","","","","","","","",""
"","629.9749999889173","sequential-stimulus-presentation","173","1145492","0.0-35.0-1.1","SS1612931382224","trial","","40","800","1429.9749999889173","","","","","9","complex_dissimilar","images/stimuli/spore_stims/complex_14_B_d.gif","right","","","","",""
"","null","html-keyboard-response","174","1146461","0.0-35.0-0.2","SS1612931382224","","","null","","","<p><img src= images/blank.png width =""200"" height = ""200"" style = ""float:right""></p><p><img src=images/blank.png width =""800"" height = ""200""></p>","","","","","","","","","","","",""
"","804.355000029318","sequential-stimulus-presentation","175","1148078","0.0-35.0-1.2","SS1612931382224","trial","","40","800","1604.355000029318","","","","","9","complex_dissimilar","images/stimuli/spore_stims/complex_02_A_a.gif","left","","","","",""
"","null","html-keyboard-response","176","1149160","0.0-35.0-0.3","SS1612931382224","","","null","","","<p><img src= images/blank.png width =""200"" height = ""200"" style = ""float:right""></p><p><img src=images/blank.png width =""800"" height = ""200""></p>","","","","","","","","","","","",""
"","239.1349999816157","sequential-stimulus-presentation","177","1150208","0.0-35.0-1.3","SS1612931382224","trial","","40","800","1039.1349999816157","","","","","9","complex_dissimilar","images/stimuli/spore_stims/complex_14_B_d.gif","right","","","","",""
"","null","html-keyboard-response","178","1151514","0.0-35.0-0.4","SS1612931382224","","","null","","","<p><img src= images/blank.png width =""200"" height = ""200"" style = ""float:right""></p><p><img src=images/blank.png width =""800"" height = ""200""></p>","","","","","","","","","","","",""
"","239.9050000240095","sequential-stimulus-presentation","179","1152560","0.0-35.0-1.4","SS1612931382224","trial","","40","800","1039.9050000240095","","","","","9","complex_dissimilar","images/stimuli/spore_stims/complex_14_B_d.gif","right","","","","",""
"","null","html-keyboard-response","180","1153369","0.0-35.0-0.5","SS1612931382224","","","null","","","<p><img src= images/blank.png width =""200"" height = ""200"" style = ""float:right""></p><p><img src=images/blank.png width =""800"" height = ""200""></p>","","","","","","","","","","","",""
"","366.91500002052635","sequential-stimulus-presentation","181","1154541","0.0-35.0-1.5","SS1612931382224","trial","","40","800","1166.9150000205263","","","","","9","complex_dissimilar","images/stimuli/spore_stims/complex_14_B_d.gif","right","","","","",""
"","null","html-keyboard-response","182","1155837","0.0-35.0-0.6","SS1612931382224","","","null","","","<p><img src= images/blank.png width =""200"" height = ""200"" style = ""float:right""></p><p><img src=images/blank.png width =""800"" height = ""200""></p>","","","","","","","","","","","",""
"","148.98499997798353","sequential-stimulus-presentation","183","1156795","0.0-35.0-1.6","SS1612931382224","trial","","40","800","948.9849999779835","","","","","9","complex_dissimilar","images/stimuli/spore_stims/complex_14_B_d.gif","right","","","","",""
"","null","html-keyboard-response","184","1157717","0.0-35.0-0.7","SS1612931382224","","","null","","","<p><img src= images/blank.png width =""200"" height = ""200"" style = ""float:right""></p><p><img src=images/blank.png width =""800"" height = ""200""></p>","","","","","","","","","","","",""
"","212.05000003101304","sequential-stimulus-presentation","185","1158739","0.0-35.0-1.7","SS1612931382224","trial","","40","800","1012.050000031013","","","","","9","complex_dissimilar","images/stimuli/spore_stims/complex_14_B_d.gif","right","","","","",""
"","943.265000008978","html-keyboard-response","186","1159688","0.0-36.0","SS1612931382224","pref_question","","98","","","<video width ='960' height = '540' style='padding-top:8%' autoplay muted><source src='images/stimuli/wall_pref.mp4' type='video/mp4'></video>","2","middle","45%","9","","","","","","","",""
"","1924.3700000224635","sequential-stimulus-presentation","187","1162436","0.0-37.0","SS1612931382224","pref_reveal","","40","800","2724.3700000224635","","","","","9","","","","novel","","","",""
"","null","html-keyboard-response","188","1163380","0.0-38.0-0.0","SS1612931382224","","","null","","","<p><img src= images/blank.png width =""200"" height = ""200"" style = ""float:right""></p><p><img src=images/blank.png width =""800"" height = ""200""></p>","","","","","","","","","","","",""
"","331.815000041388","sequential-stimulus-presentation","189","1164523","0.0-38.0-1.0","SS1612931382224","trial","","40","800","1131.815000041388","","","","","10","complex_dissimilar","images/stimuli/spore_stims/complex_12_B_b.gif","left","","","","",""
"","null","html-keyboard-response","190","1165724","0.0-38.0-0.1","SS1612931382224","","","null","","","<p><img src= images/blank.png width =""200"" height = ""200"" style = ""float:right""></p><p><img src=images/blank.png width =""800"" height = ""200""></p>","","","","","","","","","","","",""
"","1321.6600000159815","sequential-stimulus-presentation","191","1167852","0.0-38.0-1.1","SS1612931382224","trial","","40","800","2121.6600000159815","","","","","10","complex_dissimilar","images/stimuli/spore_stims/complex_12_B_b.gif","left","","","","",""
"","null","html-keyboard-response","192","1168878","0.0-38.0-0.2","SS1612931382224","","","null","","","<p><img src= images/blank.png width =""200"" height = ""200"" style = ""float:right""></p><p><img src=images/blank.png width =""800"" height = ""200""></p>","","","","","","","","","","","",""
"","343.7699999776669","sequential-stimulus-presentation","193","1170029","0.0-38.0-1.2","SS1612931382224","trial","","40","800","1143.7699999776669","","","","","10","complex_dissimilar","images/stimuli/spore_stims/complex_12_B_b.gif","left","","","","",""
"","null","html-keyboard-response","194","1171141","0.0-38.0-0.3","SS1612931382224","","","null","","","<p><img src= images/blank.png width =""200"" height = ""200"" style = ""float:right""></p><p><img src=images/blank.png width =""800"" height = ""200""></p>","","","","","","","","","","","",""
"","36.04999999515712","sequential-stimulus-presentation","195","1171987","0.0-38.0-1.3","SS1612931382224","trial","","40","800","836.0499999951571","","","","","10","complex_dissimilar","images/stimuli/spore_stims/complex_12_B_b.gif","left","","","","",""
"","null","html-keyboard-response","196","1172807","0.0-38.0-0.4","SS1612931382224","","","null","","","<p><img src= images/blank.png width =""200"" height = ""200"" style = ""float:right""></p><p><img src=images/blank.png width =""800"" height = ""200""></p>","","","","","","","","","","","",""
"","426.4750000438653","sequential-stimulus-presentation","197","1174040","0.0-38.0-1.4","SS1612931382224","trial","","40","800","1226.4750000438653","","","","","10","complex_dissimilar","images/stimuli/spore_stims/complex_12_B_b.gif","left","","","","",""
"","null","html-keyboard-response","198","1175307","0.0-38.0-0.5","SS1612931382224","","","null","","","<p><img src= images/blank.png width =""200"" height = ""200"" style = ""float:right""></p><p><img src=images/blank.png width =""800"" height = ""200""></p>","","","","","","","","","","","",""
"","79.72500001778826","sequential-stimulus-presentation","199","1176197","0.0-38.0-1.5","SS1612931382224","trial","","40","800","879.7250000177883","","","","","10","complex_dissimilar","images/stimuli/spore_stims/complex_12_B_b.gif","left","","","","",""
"","null","html-keyboard-response","200","1177294","0.0-38.0-0.6","SS1612931382224","","","null","","","<p><img src= images/blank.png width =""200"" height = ""200"" style = ""float:right""></p><p><img src=images/blank.png width =""800"" height = ""200""></p>","","","","","","","","","","","",""
"","82.25999999558553","sequential-stimulus-presentation","201","1178187","0.0-38.0-1.6","SS1612931382224","trial","","40","800","882.2599999955855","","","","","10","complex_dissimilar","images/stimuli/spore_stims/complex_12_B_b.gif","left","","","","",""
"","null","html-keyboard-response","202","1179140","0.0-38.0-0.7","SS1612931382224","","","null","","","<p><img src= images/blank.png width =""200"" height = ""200"" style = ""float:right""></p><p><img src=images/blank.png width =""800"" height = ""200""></p>","","","","","","","","","","","",""
"","1174.8249999945983","sequential-stimulus-presentation","203","1181154","0.0-38.0-1.7","SS1612931382224","trial","","40","800","1974.8249999945983","","","","","10","complex_dissimilar","images/stimuli/spore_stims/complex_05_B_c.gif","middle","","","","",""
"","884.2949999962002","html-keyboard-response","204","1182044","0.0-39.0","SS1612931382224","pref_question","","99","","","<video width ='960' height = '540' style='padding-top:8%' autoplay muted><source src='images/stimuli/wall_pref.mp4' type='video/mp4'></video>","3","right","66%","10","","","","","","","",""
"","1032.9400000046007","sequential-stimulus-presentation","205","1183888","0.0-40.0","SS1612931382224","pref_reveal","","40","800","1832.9400000046007","","","","","10","","","","novel","","","",""
"","null","html-keyboard-response","206","1185060","0.0-41.0-0.0","SS1612931382224","","","null","","","<p><img src= images/blank.png width =""200"" height = ""200"" style = ""float:right""></p><p><img src=images/blank.png width =""800"" height = ""200""></p>","","","","","","","","","","","",""
"","1324.9650000361726","sequential-stimulus-presentation","207","1187194","0.0-41.0-1.0","SS1612931382224","trial","","40","800","2124.9650000361726","","","","","11","complex_similar","images/stimuli/spore_stims/complex_20_A_a.gif","right","","","","",""
"","null","html-keyboard-response","208","1188085","0.0-41.0-0.1","SS1612931382224","","","null","","","<p><img src= images/blank.png width =""200"" height = ""200"" style = ""float:right""></p><p><img src=images/blank.png width =""800"" height = ""200""></p>","","","","","","","","","","","",""
"","473.9100000006147","sequential-stimulus-presentation","209","1189366","0.0-41.0-1.1","SS1612931382224","trial","","40","800","1273.9100000006147","","","","","11","complex_similar","images/stimuli/spore_stims/complex_20_A_a.gif","right","","","","",""
"","null","html-keyboard-response","210","1190595","0.0-41.0-0.2","SS1612931382224","","","null","","","<p><img src= images/blank.png width =""200"" height = ""200"" style = ""float:right""></p><p><img src=images/blank.png width =""800"" height = ""200""></p>","","","","","","","","","","","",""
"","1045.2100000111386","sequential-stimulus-presentation","211","1192452","0.0-41.0-1.2","SS1612931382224","trial","","40","800","1845.2100000111386","","","","","11","complex_similar","images/stimuli/spore_stims/complex_20_A_a.gif","right","","","","",""
"","null","html-keyboard-response","212","1193621","0.0-41.0-0.3","SS1612931382224","","","null","","","<p><img src= images/blank.png width =""200"" height = ""200"" style = ""float:right""></p><p><img src=images/blank.png width =""800"" height = ""200""></p>","","","","","","","","","","","",""
"","576.9150000414811","sequential-stimulus-presentation","213","1195029","0.0-41.0-1.3","SS1612931382224","trial","","40","800","1376.915000041481","","","","","11","complex_similar","images/stimuli/spore_stims/complex_20_A_a.gif","right","","","","",""
"","null","html-keyboard-response","214","1195992","0.0-41.0-0.4","SS1612931382224","","","null","","","<p><img src= images/blank.png width =""200"" height = ""200"" style = ""float:right""></p><p><img src=images/blank.png width =""800"" height = ""200""></p>","","","","","","","","","","","",""
"","1442.6450000028126","sequential-stimulus-presentation","215","1198247","0.0-41.0-1.4","SS1612931382224","trial","","40","800","2242.6450000028126","","","","","11","complex_similar","images/stimuli/spore_stims/complex_20_A_a.gif","right","","","","",""
"","null","html-keyboard-response","216","1199238","0.0-41.0-0.5","SS1612931382224","","","null","","","<p><img src= images/blank.png width =""200"" height = ""200"" style = ""float:right""></p><p><img src=images/blank.png width =""800"" height = ""200""></p>","","","","","","","","","","","",""
"","2451.809999998659","sequential-stimulus-presentation","217","1202502","0.0-41.0-1.5","SS1612931382224","trial","","40","800","3251.809999998659","","","","","11","complex_similar","images/stimuli/spore_stims/complex_20_B_a.gif","middle","","","","",""
"","null","html-keyboard-response","218","1203356","0.0-41.0-0.6","SS1612931382224","","","null","","","<p><img src= images/blank.png width =""200"" height = ""200"" style = ""float:right""></p><p><img src=images/blank.png width =""800"" height = ""200""></p>","","","","","","","","","","","",""
"","335.90500004356727","sequential-stimulus-presentation","219","1204499","0.0-41.0-1.6","SS1612931382224","trial","","40","800","1135.9050000435673","","","","","11","complex_similar","images/stimuli/spore_stims/complex_20_A_a.gif","right","","","","",""
"","null","html-keyboard-response","220","1205324","0.0-41.0-0.7","SS1612931382224","","","null","","","<p><img src= images/blank.png width =""200"" height = ""200"" style = ""float:right""></p><p><img src=images/blank.png width =""800"" height = ""200""></p>","","","","","","","","","","","",""
"","5819.799999997485","sequential-stimulus-presentation","221","1211951","0.0-41.0-1.7","SS1612931382224","trial","","40","800","6619.799999997485","","","","","11","complex_similar","images/stimuli/spore_stims/complex_20_A_a.gif","right","","","","",""
"","1041.045000019949","html-keyboard-response","222","1213003","0.0-42.0","SS1612931382224","pref_question","","97","","","<video width ='960' height = '540' style='padding-top:8%' autoplay muted><source src='images/stimuli/wall_pref.mp4' type='video/mp4'></video>","1","left","25%","11","","","","","","","",""
"","709.8300000070594","sequential-stimulus-presentation","223","1214533","0.0-43.0","SS1612931382224","pref_reveal","","40","800","1509.8300000070594","","","","","11","","","","novel","","","",""
"","null","html-keyboard-response","224","1215392","0.0-44.0-0.0","SS1612931382224","","","null","","","<p><img src= images/blank.png width =""200"" height = ""200"" style = ""float:right""></p><p><img src=images/blank.png width =""800"" height = ""200""></p>","","","","","","","","","","","",""
"","316.2449999945238","sequential-stimulus-presentation","225","1216524","0.0-44.0-1.0","SS1612931382224","trial","","40","800","1116.2449999945238","","","","","12","simple_dissimilar","images/stimuli/spore_stims/simple_20_B_c.gif","middle","","","","",""
"","null","html-keyboard-response","226","1217590","0.0-44.0-0.1","SS1612931382224","","","null","","","<p><img src= images/blank.png width =""200"" height = ""200"" style = ""float:right""></p><p><img src=images/blank.png width =""800"" height = ""200""></p>","","","","","","","","","","","",""
"","307.1450000279583","sequential-stimulus-presentation","227","1218703","0.0-44.0-1.1","SS1612931382224","trial","","40","800","1107.1450000279583","","","","","12","simple_dissimilar","images/stimuli/spore_stims/simple_20_B_c.gif","middle","","","","",""
"","null","html-keyboard-response","228","1219919","0.0-44.0-0.2","SS1612931382224","","","null","","","<p><img src= images/blank.png width =""200"" height = ""200"" style = ""float:right""></p><p><img src=images/blank.png width =""800"" height = ""200""></p>","","","","","","","","","","","",""
"","27.289999998174608","sequential-stimulus-presentation","229","1220758","0.0-44.0-1.2","SS1612931382224","trial","","40","800","827.2899999981746","","","","","12","simple_dissimilar","images/stimuli/spore_stims/simple_20_B_c.gif","middle","","","","",""
"","null","html-keyboard-response","230","1221866","0.0-44.0-0.3","SS1612931382224","","","null","","","<p><img src= images/blank.png width =""200"" height = ""200"" style = ""float:right""></p><p><img src=images/blank.png width =""800"" height = ""200""></p>","","","","","","","","","","","",""
"","78.19500000914559","sequential-stimulus-presentation","231","1222760","0.0-44.0-1.3","SS1612931382224","trial","","40","800","878.1950000091456","","","","","12","simple_dissimilar","images/stimuli/spore_stims/simple_20_B_c.gif","middle","","","","",""
"","null","html-keyboard-response","232","1223613","0.0-44.0-0.4","SS1612931382224","","","null","","","<p><img src= images/blank.png width =""200"" height = ""200"" style = ""float:right""></p><p><img src=images/blank.png width =""800"" height = ""200""></p>","","","","","","","","","","","",""
"","214.06499994918704","sequential-stimulus-presentation","233","1224637","0.0-44.0-1.4","SS1612931382224","trial","","40","800","1014.064999949187","","","","","12","simple_dissimilar","images/stimuli/spore_stims/simple_20_B_c.gif","middle","","","","",""
"","null","html-keyboard-response","234","1225691","0.0-44.0-0.5","SS1612931382224","","","null","","","<p><img src= images/blank.png width =""200"" height = ""200"" style = ""float:right""></p><p><img src=images/blank.png width =""800"" height = ""200""></p>","","","","","","","","","","","",""
"","273.57499999925494","sequential-stimulus-presentation","235","1226775","0.0-44.0-1.5","SS1612931382224","trial","","40","800","1073.574999999255","","","","","12","simple_dissimilar","images/stimuli/spore_stims/simple_20_B_c.gif","middle","","","","",""
"","null","html-keyboard-response","236","1227776","0.0-44.0-0.6","SS1612931382224","","","null","","","<p><img src= images/blank.png width =""200"" height = ""200"" style = ""float:right""></p><p><img src=images/blank.png width =""800"" height = ""200""></p>","","","","","","","","","","","",""
"","447.74500001221895","sequential-stimulus-presentation","237","1229034","0.0-44.0-1.6","SS1612931382224","trial","","40","800","1247.745000012219","","","","","12","simple_dissimilar","images/stimuli/spore_stims/simple_05_B_b.gif","left","","","","",""
"","null","html-keyboard-response","238","1230194","0.0-44.0-0.7","SS1612931382224","","","null","","","<p><img src= images/blank.png width =""200"" height = ""200"" style = ""float:right""></p><p><img src=images/blank.png width =""800"" height = ""200""></p>","","","","","","","","","","","",""
"","25.480000011157244","sequential-stimulus-presentation","239","1231030","0.0-44.0-1.7","SS1612931382224","trial","","40","800","825.4800000111572","","","","","12","simple_dissimilar","images/stimuli/spore_stims/simple_20_B_c.gif","middle","","","","",""
"","889.8300000000745","html-keyboard-response","240","1231936","0.0-45.0","SS1612931382224","pref_question","","99","","","<video width ='960' height = '540' style='padding-top:8%' autoplay muted><source src='images/stimuli/wall_pref.mp4' type='video/mp4'></video>","3","right","66%","12","","","","","","","",""
"","990.4349999851547","sequential-stimulus-presentation","241","1233738","0.0-46.0","SS1612931382224","pref_reveal","","40","800","1790.4349999851547","","","","","12","","","","novel","","","",""
"","null","html-keyboard-response","242","1234554","0.0-47.0-0.0","SS1612931382224","","","null","","","<p><img src= images/blank.png width =""200"" height = ""200"" style = ""float:right""></p><p><img src=images/blank.png width =""800"" height = ""200""></p>","","","","","","","","","","","",""
"","299.94499997701496","sequential-stimulus-presentation","243","1235666","0.0-47.0-1.0","SS1612931382224","trial","","40","800","1099.944999977015","","","","","13","simple_dissimilar","images/stimuli/spore_stims/simple_14_B_b.gif","left","","","","",""
"","null","html-keyboard-response","244","1236951","0.0-47.0-0.1","SS1612931382224","","","null","","","<p><img src= images/blank.png width =""200"" height = ""200"" style = ""float:right""></p><p><img src=images/blank.png width =""800"" height = ""200""></p>","","","","","","","","","","","",""
"","26.230000017676502","sequential-stimulus-presentation","245","1237790","0.0-47.0-1.1","SS1612931382224","trial","","40","800","826.2300000176765","","","","","13","simple_dissimilar","images/stimuli/spore_stims/simple_14_B_b.gif","left","","","","",""
"","null","html-keyboard-response","246","1238787","0.0-47.0-0.2","SS1612931382224","","","null","","","<p><img src= images/blank.png width =""200"" height = ""200"" style = ""float:right""></p><p><img src=images/blank.png width =""800"" height = ""200""></p>","","","","","","","","","","","",""
"","34.38500000629574","sequential-stimulus-presentation","247","1239628","0.0-47.0-1.2","SS1612931382224","trial","","40","800","834.3850000062957","","","","","13","simple_dissimilar","images/stimuli/spore_stims/simple_14_B_b.gif","left","","","","",""
"","null","html-keyboard-response","248","1240634","0.0-47.0-0.3","SS1612931382224","","","null","","","<p><img src= images/blank.png width =""200"" height = ""200"" style = ""float:right""></p><p><img src=images/blank.png width =""800"" height = ""200""></p>","","","","","","","","","","","",""
"","128.79500002600253","sequential-stimulus-presentation","249","1241594","0.0-47.0-1.3","SS1612931382224","trial","","40","800","928.7950000260025","","","","","13","simple_dissimilar","images/stimuli/spore_stims/simple_14_B_b.gif","left","","","","",""
"","null","html-keyboard-response","250","1242608","0.0-47.0-0.4","SS1612931382224","","","null","","","<p><img src= images/blank.png width =""200"" height = ""200"" style = ""float:right""></p><p><img src=images/blank.png width =""800"" height = ""200""></p>","","","","","","","","","","","",""
"","175.46499997843057","sequential-stimulus-presentation","251","1243597","0.0-47.0-1.4","SS1612931382224","trial","","40","800","975.4649999784306","","","","","13","simple_dissimilar","images/stimuli/spore_stims/simple_18_A_d.gif","right","","","","",""
"","null","html-keyboard-response","252","1244769","0.0-47.0-0.5","SS1612931382224","","","null","","","<p><img src= images/blank.png width =""200"" height = ""200"" style = ""float:right""></p><p><img src=images/blank.png width =""800"" height = ""200""></p>","","","","","","","","","","","",""
"","138.585000007879","sequential-stimulus-presentation","253","1245719","0.0-47.0-1.5","SS1612931382224","trial","","40","800","938.585000007879","","","","","13","simple_dissimilar","images/stimuli/spore_stims/simple_14_B_b.gif","left","","","","",""
"","null","html-keyboard-response","254","1246916","0.0-47.0-0.6","SS1612931382224","","","null","","","<p><img src= images/blank.png width =""200"" height = ""200"" style = ""float:right""></p><p><img src=images/blank.png width =""800"" height = ""200""></p>","","","","","","","","","","","",""
"","27.304999995976686","sequential-stimulus-presentation","255","1247755","0.0-47.0-1.6","SS1612931382224","trial","","40","800","827.3049999959767","","","","","13","simple_dissimilar","images/stimuli/spore_stims/simple_14_B_b.gif","left","","","","",""
"","null","html-keyboard-response","256","1248788","0.0-47.0-0.7","SS1612931382224","","","null","","","<p><img src= images/blank.png width =""200"" height = ""200"" style = ""float:right""></p><p><img src=images/blank.png width =""800"" height = ""200""></p>","","","","","","","","","","","",""
"","101.53499996522442","sequential-stimulus-presentation","257","1249697","0.0-47.0-1.7","SS1612931382224","trial","","40","800","901.5349999652244","","","","","13","simple_dissimilar","images/stimuli/spore_stims/simple_14_B_b.gif","left","","","","",""
"","1083.669999963604","html-keyboard-response","258","1250788","0.0-48.0","SS1612931382224","pref_question","","98","","","<video width ='960' height = '540' style='padding-top:8%' autoplay muted><source src='images/stimuli/wall_pref.mp4' type='video/mp4'></video>","2","middle","45%","13","","","","","","","",""
"","256.9449999718927","sequential-stimulus-presentation","259","1251852","0.0-49.0","SS1612931382224","pref_reveal","","40","800","1056.9449999718927","","","","","13","","","","novel","","","",""
"","null","html-keyboard-response","260","1252782","0.0-50.0-0.0","SS1612931382224","","","null","","","<p><img src= images/blank.png width =""200"" height = ""200"" style = ""float:right""></p><p><img src=images/blank.png width =""800"" height = ""200""></p>","","","","","","","","","","","",""
"","4.5399999944493175","sequential-stimulus-presentation","261","1253605","0.0-50.0-1.0","SS1612931382224","trial","","40","800","804.5399999944493","","","","","14","simple_dissimilar","images/stimuli/spore_stims/simple_02_B_d.gif","right","","","","",""
"","null","html-keyboard-response","262","1254603","0.0-50.0-0.1","SS1612931382224","","","null","","","<p><img src= images/blank.png width =""200"" height = ""200"" style = ""float:right""></p><p><img src=images/blank.png width =""800"" height = ""200""></p>","","","","","","","","","","","",""
"","110.34499999368563","sequential-stimulus-presentation","263","1255520","0.0-50.0-1.1","SS1612931382224","trial","","40","800","910.3449999936856","","","","","14","simple_dissimilar","images/stimuli/spore_stims/simple_02_B_d.gif","right","","","","",""
"","null","html-keyboard-response","264","1256345","0.0-50.0-0.2","SS1612931382224","","","null","","","<p><img src= images/blank.png width =""200"" height = ""200"" style = ""float:right""></p><p><img src=images/blank.png width =""800"" height = ""200""></p>","","","","","","","","","","","",""
"","192.15499999700114","sequential-stimulus-presentation","265","1257346","0.0-50.0-1.2","SS1612931382224","trial","","40","800","992.1549999970011","","","","","14","simple_dissimilar","images/stimuli/spore_stims/simple_02_B_d.gif","right","","","","",""
"","null","html-keyboard-response","266","1258331","0.0-50.0-0.3","SS1612931382224","","","null","","","<p><img src= images/blank.png width =""200"" height = ""200"" style = ""float:right""></p><p><img src=images/blank.png width =""800"" height = ""200""></p>","","","","","","","","","","","",""
"","12.560000002849847","sequential-stimulus-presentation","267","1259152","0.0-50.0-1.3","SS1612931382224","trial","","40","800","812.5600000028498","","","","","14","simple_dissimilar","images/stimuli/spore_stims/simple_02_B_d.gif","right","","","","",""
"","null","html-keyboard-response","268","1260208","0.0-50.0-0.4","SS1612931382224","","","null","","","<p><img src= images/blank.png width =""200"" height = ""200"" style = ""float:right""></p><p><img src=images/blank.png width =""800"" height = ""200""></p>","","","","","","","","","","","",""
"","9.849999973084778","sequential-stimulus-presentation","269","1261032","0.0-50.0-1.4","SS1612931382224","trial","","40","800","809.8499999730848","","","","","14","simple_dissimilar","images/stimuli/spore_stims/simple_02_B_d.gif","right","","","","",""
"","null","html-keyboard-response","270","1262230","0.0-50.0-0.5","SS1612931382224","","","null","","","<p><img src= images/blank.png width =""200"" height = ""200"" style = ""float:right""></p><p><img src=images/blank.png width =""800"" height = ""200""></p>","","","","","","","","","","","",""
"","120.55499997222796","sequential-stimulus-presentation","271","1263161","0.0-50.0-1.5","SS1612931382224","trial","","40","800","920.554999972228","","","","","14","simple_dissimilar","images/stimuli/spore_stims/simple_02_B_d.gif","right","","","","",""
"","null","html-keyboard-response","272","1264296","0.0-50.0-0.6","SS1612931382224","","","null","","","<p><img src= images/blank.png width =""200"" height = ""200"" style = ""float:right""></p><p><img src=images/blank.png width =""800"" height = ""200""></p>","","","","","","","","","","","",""
"","289.6799999871291","sequential-stimulus-presentation","273","1265392","0.0-50.0-1.6","SS1612931382224","trial","","40","800","1089.6799999871291","","","","","14","simple_dissimilar","images/stimuli/spore_stims/simple_04_B_c.gif","left","","","","",""
"","null","html-keyboard-response","274","1266265","0.0-50.0-0.7","SS1612931382224","","","null","","","<p><img src= images/blank.png width =""200"" height = ""200"" style = ""float:right""></p><p><img src=images/blank.png width =""800"" height = ""200""></p>","","","","","","","","","","","",""
"","85.36500000627711","sequential-stimulus-presentation","275","1267157","0.0-50.0-1.7","SS1612931382224","trial","","40","800","885.3650000062771","","","","","14","simple_dissimilar","images/stimuli/spore_stims/simple_02_B_d.gif","right","","","","",""
"","1401.1999999638647","html-keyboard-response","276","1268567","0.0-51.0","SS1612931382224","pref_question","","98","","","<video width ='960' height = '540' style='padding-top:8%' autoplay muted><source src='images/stimuli/wall_pref.mp4' type='video/mp4'></video>","2","middle","45%","14","","","","","","","",""
"","500.76999998418614","sequential-stimulus-presentation","277","1269876","0.0-52.0","SS1612931382224","pref_reveal","","40","800","1300.7699999841861","","","","","14","","","","novel","","","",""
"","null","html-keyboard-response","278","1271155","0.0-53.0-0.0","SS1612931382224","","","null","","","<p><img src= images/blank.png width =""200"" height = ""200"" style = ""float:right""></p><p><img src=images/blank.png width =""800"" height = ""200""></p>","","","","","","","","","","","",""
"","107.42999997455627","sequential-stimulus-presentation","279","1272071","0.0-53.0-1.0","SS1612931382224","trial","","40","800","907.4299999745563","","","","","15","complex_dissimilar","images/stimuli/spore_stims/complex_02_B_d.gif","left","","","","",""
"","null","html-keyboard-response","280","1273187","0.0-53.0-0.1","SS1612931382224","","","null","","","<p><img src= images/blank.png width =""200"" height = ""200"" style = ""float:right""></p><p><img src=images/blank.png width =""800"" height = ""200""></p>","","","","","","","","","","","",""
"","5.1300000050105155","sequential-stimulus-presentation","281","1274004","0.0-53.0-1.1","SS1612931382224","trial","","40","800","805.1300000050105","","","","","15","complex_dissimilar","images/stimuli/spore_stims/complex_02_B_d.gif","left","","","","",""
"","null","html-keyboard-response","282","1275296","0.0-53.0-0.2","SS1612931382224","","","null","","","<p><img src= images/blank.png width =""200"" height = ""200"" style = ""float:right""></p><p><img src=images/blank.png width =""800"" height = ""200""></p>","","","","","","","","","","","",""
"","189.00499999290332","sequential-stimulus-presentation","283","1276308","0.0-53.0-1.2","SS1612931382224","trial","","40","800","989.0049999929033","","","","","15","complex_dissimilar","images/stimuli/spore_stims/complex_02_B_d.gif","left","","","","",""
"","null","html-keyboard-response","284","1277375","0.0-53.0-0.3","SS1612931382224","","","null","","","<p><img src= images/blank.png width =""200"" height = ""200"" style = ""float:right""></p><p><img src=images/blank.png width =""800"" height = ""200""></p>","","","","","","","","","","","",""
"","38.449999992735684","sequential-stimulus-presentation","285","1278221","0.0-53.0-1.3","SS1612931382224","trial","","40","800","838.4499999927357","","","","","15","complex_dissimilar","images/stimuli/spore_stims/complex_02_B_d.gif","left","","","","",""
"","null","html-keyboard-response","286","1279042","0.0-53.0-0.4","SS1612931382224","","","null","","","<p><img src= images/blank.png width =""200"" height = ""200"" style = ""float:right""></p><p><img src=images/blank.png width =""800"" height = ""200""></p>","","","","","","","","","","","",""
"","66.47000001976267","sequential-stimulus-presentation","287","1279921","0.0-53.0-1.4","SS1612931382224","trial","","40","800","866.4700000197627","","","","","15","complex_dissimilar","images/stimuli/spore_stims/complex_02_B_d.gif","left","","","","",""
"","null","html-keyboard-response","288","1280981","0.0-53.0-0.5","SS1612931382224","","","null","","","<p><img src= images/blank.png width =""200"" height = ""200"" style = ""float:right""></p><p><img src=images/blank.png width =""800"" height = ""200""></p>","","","","","","","","","","","",""
"","44.1749999881722","sequential-stimulus-presentation","289","1281833","0.0-53.0-1.5","SS1612931382224","trial","","40","800","844.1749999881722","","","","","15","complex_dissimilar","images/stimuli/spore_stims/complex_02_B_d.gif","left","","","","",""
"","null","html-keyboard-response","290","1282931","0.0-53.0-0.6","SS1612931382224","","","null","","","<p><img src= images/blank.png width =""200"" height = ""200"" style = ""float:right""></p><p><img src=images/blank.png width =""800"" height = ""200""></p>","","","","","","","","","","","",""
"","208.6600000038743","sequential-stimulus-presentation","291","1283961","0.0-53.0-1.6","SS1612931382224","trial","","40","800","1008.6600000038743","","","","","15","complex_dissimilar","images/stimuli/spore_stims/complex_12_A_d.gif","right","","","","",""
"","null","html-keyboard-response","292","1284981","0.0-53.0-0.7","SS1612931382224","","","null","","","<p><img src= images/blank.png width =""200"" height = ""200"" style = ""float:right""></p><p><img src=images/blank.png width =""800"" height = ""200""></p>","","","","","","","","","","","",""
"","118.52000001817942","sequential-stimulus-presentation","293","1285908","0.0-53.0-1.7","SS1612931382224","trial","","40","800","918.5200000181794","","","","","15","complex_dissimilar","images/stimuli/spore_stims/complex_02_B_d.gif","left","","","","",""
"","437.00500001432374","html-keyboard-response","294","1286354","0.0-54.0","SS1612931382224","pref_question","","98","","","<video width ='960' height = '540' style='padding-top:8%' autoplay muted><source src='images/stimuli/wall_pref.mp4' type='video/mp4'></video>","2","middle","45%","15","","","","","","","",""
"","207.9399999929592","sequential-stimulus-presentation","295","1287369","0.0-55.0","SS1612931382224","pref_reveal","","40","800","1007.9399999929592","","","","","15","","","","novel","","","",""
"","null","html-keyboard-response","296","1288608","0.0-56.0-0.0","SS1612931382224","","","null","","","<p><img src= images/blank.png width =""200"" height = ""200"" style = ""float:right""></p><p><img src=images/blank.png width =""800"" height = ""200""></p>","","","","","","","","","","","",""
"","12.325000017881393","sequential-stimulus-presentation","297","1289443","0.0-56.0-1.0","SS1612931382224","trial","","40","800","812.3250000178814","","","","","16","complex_similar","images/stimuli/spore_stims/complex_16_A_a.gif","left","","","","",""
"","null","html-keyboard-response","298","1290557","0.0-56.0-0.1","SS1612931382224","","","null","","","<p><img src= images/blank.png width =""200"" height = ""200"" style = ""float:right""></p><p><img src=images/blank.png width =""800"" height = ""200""></p>","","","","","","","","","","","",""
"","416.7949999682605","sequential-stimulus-presentation","299","1291782","0.0-56.0-1.1","SS1612931382224","trial","","40","800","1216.7949999682605","","","","","16","complex_similar","images/stimuli/spore_stims/complex_16_A_a.gif","left","","","","",""
"","null","html-keyboard-response","300","1293011","0.0-56.0-0.2","SS1612931382224","","","null","","","<p><img src= images/blank.png width =""200"" height = ""200"" style = ""float:right""></p><p><img src=images/blank.png width =""800"" height = ""200""></p>","","","","","","","","","","","",""
"","11.615000024903566","sequential-stimulus-presentation","301","1293829","0.0-56.0-1.2","SS1612931382224","trial","","40","800","811.6150000249036","","","","","16","complex_similar","images/stimuli/spore_stims/complex_16_B_a.gif","right","","","","",""
"","null","html-keyboard-response","302","1294721","0.0-56.0-0.3","SS1612931382224","","","null","","","<p><img src= images/blank.png width =""200"" height = ""200"" style = ""float:right""></p><p><img src=images/blank.png width =""800"" height = ""200""></p>","","","","","","","","","","","",""
"","149.41499999258667","sequential-stimulus-presentation","303","1295689","0.0-56.0-1.3","SS1612931382224","trial","","40","800","949.4149999925867","","","","","16","complex_similar","images/stimuli/spore_stims/complex_16_A_a.gif","left","","","","",""
"","null","html-keyboard-response","304","1296660","0.0-56.0-0.4","SS1612931382224","","","null","","","<p><img src= images/blank.png width =""200"" height = ""200"" style = ""float:right""></p><p><img src=images/blank.png width =""800"" height = ""200""></p>","","","","","","","","","","","",""
"","47.99500002991408","sequential-stimulus-presentation","305","1297541","0.0-56.0-1.4","SS1612931382224","trial","","40","800","847.9950000299141","","","","","16","complex_similar","images/stimuli/spore_stims/complex_16_A_a.gif","left","","","","",""
"","null","html-keyboard-response","306","1298441","0.0-56.0-0.5","SS1612931382224","","","null","","","<p><img src= images/blank.png width =""200"" height = ""200"" style = ""float:right""></p><p><img src=images/blank.png width =""800"" height = ""200""></p>","","","","","","","","","","","",""
"","186.22500001220033","sequential-stimulus-presentation","307","1299434","0.0-56.0-1.5","SS1612931382224","trial","","40","800","986.2250000122003","","","","","16","complex_similar","images/stimuli/spore_stims/complex_16_A_a.gif","left","","","","",""
"","null","html-keyboard-response","308","1300370","0.0-56.0-0.6","SS1612931382224","","","null","","","<p><img src= images/blank.png width =""200"" height = ""200"" style = ""float:right""></p><p><img src=images/blank.png width =""800"" height = ""200""></p>","","","","","","","","","","","",""
"","160.94500001054257","sequential-stimulus-presentation","309","1301340","0.0-56.0-1.6","SS1612931382224","trial","","40","800","960.9450000105426","","","","","16","complex_similar","images/stimuli/spore_stims/complex_16_A_a.gif","left","","","","",""
"","null","html-keyboard-response","310","1302401","0.0-56.0-0.7","SS1612931382224","","","null","","","<p><img src= images/blank.png width =""200"" height = ""200"" style = ""float:right""></p><p><img src=images/blank.png width =""800"" height = ""200""></p>","","","","","","","","","","","",""
"","92.73000003304332","sequential-stimulus-presentation","311","1303301","0.0-56.0-1.7","SS1612931382224","trial","","40","800","892.7300000330433","","","","","16","complex_similar","images/stimuli/spore_stims/complex_16_A_a.gif","left","","","","",""
"","1218.570000026375","html-keyboard-response","312","1304525","0.0-57.0","SS1612931382224","pref_question","","98","","","<video width ='960' height = '540' style='padding-top:8%' autoplay muted><source src='images/stimuli/wall_pref.mp4' type='video/mp4'></video>","2","middle","45%","16","","","","","","","",""
"","517.8500000038184","sequential-stimulus-presentation","313","1305852","0.0-58.0","SS1612931382224","pref_reveal","","40","800","1317.8500000038184","","","","","16","","","","novel","","","",""
"","null","html-keyboard-response","314","1306947","0.0-59.0-0.0","SS1612931382224","","","null","","","<p><img src= images/blank.png width =""200"" height = ""200"" style = ""float:right""></p><p><img src=images/blank.png width =""800"" height = ""200""></p>","","","","","","","","","","","",""
"","10.950000025331974","sequential-stimulus-presentation","315","1307765","0.0-59.0-1.0","SS1612931382224","trial","","40","800","810.950000025332","","","","","17","simple_similar","images/stimuli/spore_stims/simple_20_A_a.gif","left","","","","",""
"","null","html-keyboard-response","316","1308960","0.0-59.0-0.1","SS1612931382224","","","null","","","<p><img src= images/blank.png width =""200"" height = ""200"" style = ""float:right""></p><p><img src=images/blank.png width =""800"" height = ""200""></p>","","","","","","","","","","","",""
"","80.6999999913387","sequential-stimulus-presentation","317","1309848","0.0-59.0-1.1","SS1612931382224","trial","","40","800","880.6999999913387","","","","","17","simple_similar","images/stimuli/spore_stims/simple_20_A_a.gif","left","","","","",""
"","null","html-keyboard-response","318","1310831","0.0-59.0-0.2","SS1612931382224","","","null","","","<p><img src= images/blank.png width =""200"" height = ""200"" style = ""float:right""></p><p><img src=images/blank.png width =""800"" height = ""200""></p>","","","","","","","","","","","",""
"","81.21999999275431","sequential-stimulus-presentation","319","1311730","0.0-59.0-1.2","SS1612931382224","trial","","40","800","881.2199999927543","","","","","17","simple_similar","images/stimuli/spore_stims/simple_20_A_a.gif","left","","","","",""
"","null","html-keyboard-response","320","1312666","0.0-59.0-0.3","SS1612931382224","","","null","","","<p><img src= images/blank.png width =""200"" height = ""200"" style = ""float:right""></p><p><img src=images/blank.png width =""800"" height = ""200""></p>","","","","","","","","","","","",""
"","102.05499996664003","sequential-stimulus-presentation","321","1313576","0.0-59.0-1.3","SS1612931382224","trial","","40","800","902.05499996664","","","","","17","simple_similar","images/stimuli/spore_stims/simple_20_A_a.gif","left","","","","",""
"","null","html-keyboard-response","322","1314721","0.0-59.0-0.4","SS1612931382224","","","null","","","<p><img src= images/blank.png width =""200"" height = ""200"" style = ""float:right""></p><p><img src=images/blank.png width =""800"" height = ""200""></p>","","","","","","","","","","","",""
"","85.26500000152737","sequential-stimulus-presentation","323","1315613","0.0-59.0-1.4","SS1612931382224","trial","","40","800","885.2650000015274","","","","","17","simple_similar","images/stimuli/spore_stims/simple_20_A_a.gif","left","","","","",""
"","null","html-keyboard-response","324","1316574","0.0-59.0-0.5","SS1612931382224","","","null","","","<p><img src= images/blank.png width =""200"" height = ""200"" style = ""float:right""></p><p><img src=images/blank.png width =""800"" height = ""200""></p>","","","","","","","","","","","",""
"","128.02499998360872","sequential-stimulus-presentation","325","1317532","0.0-59.0-1.5","SS1612931382224","trial","","40","800","928.0249999836087","","","","","17","simple_similar","images/stimuli/spore_stims/simple_20_A_a.gif","left","","","","",""
"","null","html-keyboard-response","326","1318369","0.0-59.0-0.6","SS1612931382224","","","null","","","<p><img src= images/blank.png width =""200"" height = ""200"" style = ""float:right""></p><p><img src=images/blank.png width =""800"" height = ""200""></p>","","","","","","","","","","","",""
"","58.62999998498708","sequential-stimulus-presentation","327","1319234","0.0-59.0-1.6","SS1612931382224","trial","","40","800","858.6299999849871","","","","","17","simple_similar","images/stimuli/spore_stims/simple_20_A_a.gif","left","","","","",""
"","null","html-keyboard-response","328","1320242","0.0-59.0-0.7","SS1612931382224","","","null","","","<p><img src= images/blank.png width =""200"" height = ""200"" style = ""float:right""></p><p><img src=images/blank.png width =""800"" height = ""200""></p>","","","","","","","","","","","",""
"","204.25500004785135","sequential-stimulus-presentation","329","1321253","0.0-59.0-1.7","SS1612931382224","trial","","40","800","1004.2550000478514","","","","","17","simple_similar","images/stimuli/spore_stims/simple_20_B_a.gif","right","","","","",""
"","753.9450000040233","html-keyboard-response","330","1322018","0.0-60.0","SS1612931382224","pref_question","","98","","","<video width ='960' height = '540' style='padding-top:8%' autoplay muted><source src='images/stimuli/wall_pref.mp4' type='video/mp4'></video>","2","middle","45%","17","","","","","","","",""
"","143.38999998290092","sequential-stimulus-presentation","331","1322992","0.0-61.0","SS1612931382224","pref_reveal","","40","800","943.3899999829009","","","","","17","","","","novel","","","",""
"","null","html-keyboard-response","332","1323949","0.0-62.0-0.0","SS1612931382224","","","null","","","<p><img src= images/blank.png width =""200"" height = ""200"" style = ""float:right""></p><p><img src=images/blank.png width =""800"" height = ""200""></p>","","","","","","","","","","","",""
"","66.53500004904345","sequential-stimulus-presentation","333","1324829","0.0-62.0-1.0","SS1612931382224","trial","","40","800","866.5350000490434","","","","","18","complex_similar","images/stimuli/spore_stims/complex_01_A_a.gif","left","","","","",""
"","null","html-keyboard-response","334","1325659","0.0-62.0-0.1","SS1612931382224","","","null","","","<p><img src= images/blank.png width =""200"" height = ""200"" style = ""float:right""></p><p><img src=images/blank.png width =""800"" height = ""200""></p>","","","","","","","","","","","",""
"","24.105000018607825","sequential-stimulus-presentation","335","1326494","0.0-62.0-1.1","SS1612931382224","trial","","40","800","824.1050000186078","","","","","18","complex_similar","images/stimuli/spore_stims/complex_01_A_a.gif","left","","","","",""
"","null","html-keyboard-response","336","1327455","0.0-62.0-0.2","SS1612931382224","","","null","","","<p><img src= images/blank.png width =""200"" height = ""200"" style = ""float:right""></p><p><img src=images/blank.png width =""800"" height = ""200""></p>","","","","","","","","","","","",""
"","53.595000004861504","sequential-stimulus-presentation","337","1328316","0.0-62.0-1.2","SS1612931382224","trial","","40","800","853.5950000048615","","","","","18","complex_similar","images/stimuli/spore_stims/complex_01_A_a.gif","left","","","","",""
"","null","html-keyboard-response","338","1329370","0.0-62.0-0.3","SS1612931382224","","","null","","","<p><img src= images/blank.png width =""200"" height = ""200"" style = ""float:right""></p><p><img src=images/blank.png width =""800"" height = ""200""></p>","","","","","","","","","","","",""
"","77.02000002609566","sequential-stimulus-presentation","339","1330261","0.0-62.0-1.3","SS1612931382224","trial","","40","800","877.0200000260957","","","","","18","complex_similar","images/stimuli/spore_stims/complex_01_A_a.gif","left","","","","",""
"","null","html-keyboard-response","340","1331310","0.0-62.0-0.4","SS1612931382224","","","null","","","<p><img src= images/blank.png width =""200"" height = ""200"" style = ""float:right""></p><p><img src=images/blank.png width =""800"" height = ""200""></p>","","","","","","","","","","","",""
"","17.070000001695007","sequential-stimulus-presentation","341","1332137","0.0-62.0-1.4","SS1612931382224","trial","","40","800","817.070000001695","","","","","18","complex_similar","images/stimuli/spore_stims/complex_01_A_a.gif","left","","","","",""
"","null","html-keyboard-response","342","1333120","0.0-62.0-0.5","SS1612931382224","","","null","","","<p><img src= images/blank.png width =""200"" height = ""200"" style = ""float:right""></p><p><img src=images/blank.png width =""800"" height = ""200""></p>","","","","","","","","","","","",""
"","185.30999997165054","sequential-stimulus-presentation","343","1334114","0.0-62.0-1.5","SS1612931382224","trial","","40","800","985.3099999716505","","","","","18","complex_similar","images/stimuli/spore_stims/complex_01_A_a.gif","left","","","","",""
"","null","html-keyboard-response","344","1335072","0.0-62.0-0.6","SS1612931382224","","","null","","","<p><img src= images/blank.png width =""200"" height = ""200"" style = ""float:right""></p><p><img src=images/blank.png width =""800"" height = ""200""></p>","","","","","","","","","","","",""
"","42.58000000845641","sequential-stimulus-presentation","345","1335939","0.0-62.0-1.6","SS1612931382224","trial","","40","800","842.5800000084564","","","","","18","complex_similar","images/stimuli/spore_stims/complex_01_A_a.gif","left","","","","",""
"","null","html-keyboard-response","346","1337119","0.0-62.0-0.7","SS1612931382224","","","null","","","<p><img src= images/blank.png width =""200"" height = ""200"" style = ""float:right""></p><p><img src=images/blank.png width =""800"" height = ""200""></p>","","","","","","","","","","","",""
"","230.63499998534098","sequential-stimulus-presentation","347","1338157","0.0-62.0-1.7","SS1612931382224","trial","","40","800","1030.634999985341","","","","","18","complex_similar","images/stimuli/spore_stims/complex_01_B_a.gif","middle","","","","",""
"","862.2200000099838","html-keyboard-response","348","1339031","0.0-63.0","SS1612931382224","pref_question","","99","","","<video width ='960' height = '540' style='padding-top:8%' autoplay muted><source src='images/stimuli/wall_pref.mp4' type='video/mp4'></video>","3","right","66%","18","","","","","","","",""
"","148.9399999845773","sequential-stimulus-presentation","349","1339987","0.0-64.0","SS1612931382224","pref_reveal","","40","800","948.9399999845773","","","","","18","","","","novel","","","",""
"","null","html-keyboard-response","350","1340887","0.0-65.0-0.0","SS1612931382224","","","null","","","<p><img src= images/blank.png width =""200"" height = ""200"" style = ""float:right""></p><p><img src=images/blank.png width =""800"" height = ""200""></p>","","","","","","","","","","","",""
"","130.730000033509","sequential-stimulus-presentation","351","1341827","0.0-65.0-1.0","SS1612931382224","trial","","40","800","930.730000033509","","","","","19","complex_similar","images/stimuli/spore_stims/complex_19_A_a.gif","middle","","","","",""
"","null","html-keyboard-response","352","1342765","0.0-65.0-0.1","SS1612931382224","","","null","","","<p><img src= images/blank.png width =""200"" height = ""200"" style = ""float:right""></p><p><img src=images/blank.png width =""800"" height = ""200""></p>","","","","","","","","","","","",""
"","129.95999999111518","sequential-stimulus-presentation","353","1343710","0.0-65.0-1.1","SS1612931382224","trial","","40","800","929.9599999911152","","","","","19","complex_similar","images/stimuli/spore_stims/complex_19_A_a.gif","middle","","","","",""
"","null","html-keyboard-response","354","1344949","0.0-65.0-0.2","SS1612931382224","","","null","","","<p><img src= images/blank.png width =""200"" height = ""200"" style = ""float:right""></p><p><img src=images/blank.png width =""800"" height = ""200""></p>","","","","","","","","","","","",""
"","10.629999975208193","sequential-stimulus-presentation","355","1345768","0.0-65.0-1.2","SS1612931382224","trial","","40","800","810.6299999752082","","","","","19","complex_similar","images/stimuli/spore_stims/complex_19_B_a.gif","right","","","","",""
"","null","html-keyboard-response","356","1347004","0.0-65.0-0.3","SS1612931382224","","","null","","","<p><img src= images/blank.png width =""200"" height = ""200"" style = ""float:right""></p><p><img src=images/blank.png width =""800"" height = ""200""></p>","","","","","","","","","","","",""
"","67.71000003209338","sequential-stimulus-presentation","357","1347884","0.0-65.0-1.3","SS1612931382224","trial","","40","800","867.7100000320934","","","","","19","complex_similar","images/stimuli/spore_stims/complex_19_A_a.gif","middle","","","","",""
"","null","html-keyboard-response","358","1349101","0.0-65.0-0.4","SS1612931382224","","","null","","","<p><img src= images/blank.png width =""200"" height = ""200"" style = ""float:right""></p><p><img src=images/blank.png width =""800"" height = ""200""></p>","","","","","","","","","","","",""
"","204.570000001695","sequential-stimulus-presentation","359","1350123","0.0-65.0-1.4","SS1612931382224","trial","","40","800","1004.570000001695","","","","","19","complex_similar","images/stimuli/spore_stims/complex_19_A_a.gif","middle","","","","",""
"","null","html-keyboard-response","360","1351342","0.0-65.0-0.5","SS1612931382224","","","null","","","<p><img src= images/blank.png width =""200"" height = ""200"" style = ""float:right""></p><p><img src=images/blank.png width =""800"" height = ""200""></p>","","","","","","","","","","","",""
"","160.31000000657514","sequential-stimulus-presentation","361","1352310","0.0-65.0-1.5","SS1612931382224","trial","","40","800","960.3100000065751","","","","","19","complex_similar","images/stimuli/spore_stims/complex_19_A_a.gif","middle","","","","",""
"","null","html-keyboard-response","362","1353429","0.0-65.0-0.6","SS1612931382224","","","null","","","<p><img src= images/blank.png width =""200"" height = ""200"" style = ""float:right""></p><p><img src=images/blank.png width =""800"" height = ""200""></p>","","","","","","","","","","","",""
"","155.16500000376254","sequential-stimulus-presentation","363","1354392","0.0-65.0-1.6","SS1612931382224","trial","","40","800","955.1650000037625","","","","","19","complex_similar","images/stimuli/spore_stims/complex_19_A_a.gif","middle","","","","",""
