"view_history","rt","trial_type","trial_index","time_elapsed","internal_node_id","subject","stimulus_type","trial_stimulus","key_press","minimum_viewing_duration","trial_looking_time","stimulus","wall_pref","location","location_percent","block_number","block_type","stimulus_displayed","position_displayed","stim_type_selected","responses","question_order","stimulus_left","stimulus_right"
"[{""page_index"":0,""viewing_time"":3783.2950000010896}]","3785.604999997304","instructions","0","3790","0.0-0.0","SS1612925903745","","","","","","","","","","","","","","","","","",""
"[{""page_index"":0,""viewing_time"":5412.230000001728},{""page_index"":1,""viewing_time"":4528.9149999880465}]","9942.694999990636","instructions","1","15756","0.0-1.0","SS1612925903745","instructions","","","","","","","","","","","","","","","","",""
"","4752.519999994547","sequential-stimulus-presentation","2","21336","0.0-2.0","SS1612925903745","","","40","800","5552.519999994547","","","","","","","","","","","","",""
"","1757.9949999926612","sequential-stimulus-presentation","3","23921","0.0-3.0","SS1612925903745","","","40","800","2557.994999992661","","","","","","","","","","","","",""
"[{""page_index"":0,""viewing_time"":2630.590000000666}]","2631.9749999966007","instructions","4","26557","0.0-4.0","SS1612925903745","instructions","","","","","","","","","","","","","","","","",""
"","9542.45500000252","html-keyboard-response","5","36119","0.0-5.0","SS1612925903745","instructions","","50","","","<video width ='960' height = '540' autoplay muted><source src='images/stimuli/wall_pref.mp4' type='video/mp4'></video>","2","middle","45%","","","","","","","","",""
"","1058.27500000305","sequential-stimulus-presentation","6","38020","0.0-6.0","SS1612925903745","pref_reveal","","40","800","1858.27500000305","","","","","","","","","","","","",""
"[{""page_index"":0,""viewing_time"":2729.2799999995623},{""page_index"":1,""viewing_time"":2911.14500000549},{""page_index"":2,""viewing_time"":1592.7649999939604},{""page_index"":3,""viewing_time"":672.2650000010617}]","7907.315000004019","instructions","7","45939","0.0-7.0","SS1612925903745","instructions","","","","","","","","","","","","","","","","",""
"","null","html-keyboard-response","8","47226","0.0-8.0-0.0","SS1612925903745","","","null","","","<p><img src= images/blank.png width =""200"" height = ""200"" style = ""float:right""></p><p><img src=images/blank.png width =""800"" height = ""200""></p>","","","","","","","","","","","",""
"","1769.0499999880558","sequential-stimulus-presentation","9","49840","0.0-8.0-1.0","SS1612925903745","trial","","40","800","2569.049999988056","","","","","0","simple_dissimilar","images/stimuli/spore_stims/simple_03_B_b.gif","left","","","","",""
"","null","html-keyboard-response","10","51064","0.0-8.0-0.1","SS1612925903745","","","null","","","<p><img src= images/blank.png width =""200"" height = ""200"" style = ""float:right""></p><p><img src=images/blank.png width =""800"" height = ""200""></p>","","","","","","","","","","","",""
"","1043.0449999985285","sequential-stimulus-presentation","11","52939","0.0-8.0-1.1","SS1612925903745","trial","","40","800","1843.0449999985285","","","","","0","simple_dissimilar","images/stimuli/spore_stims/simple_03_B_b.gif","left","","","","",""
"","null","html-keyboard-response","12","54080","0.0-8.0-0.2","SS1612925903745","","","null","","","<p><img src= images/blank.png width =""200"" height = ""200"" style = ""float:right""></p><p><img src=images/blank.png width =""800"" height = ""200""></p>","","","","","","","","","","","",""
"","996.8899999948917","sequential-stimulus-presentation","13","55922","0.0-8.0-1.2","SS1612925903745","trial","","40","800","1796.8899999948917","","","","","0","simple_dissimilar","images/stimuli/spore_stims/simple_03_B_b.gif","left","","","","",""
"","null","html-keyboard-response","14","56876","0.0-8.0-0.3","SS1612925903745","","","null","","","<p><img src= images/blank.png width =""200"" height = ""200"" style = ""float:right""></p><p><img src=images/blank.png width =""800"" height = ""200""></p>","","","","","","","","","","","",""
"","638.6750000092434","sequential-stimulus-presentation","15","58370","0.0-8.0-1.3","SS1612925903745","trial","","40","800","1438.6750000092434","","","","","0","simple_dissimilar","images/stimuli/spore_stims/simple_03_B_b.gif","left","","","","",""
"","null","html-keyboard-response","16","59562","0.0-8.0-0.4","SS1612925903745","","","null","","","<p><img src= images/blank.png width =""200"" height = ""200"" style = ""float:right""></p><p><img src=images/blank.png width =""800"" height = ""200""></p>","","","","","","","","","","","",""
"","337.1999999944819","sequential-stimulus-presentation","17","60745","0.0-8.0-1.4","SS1612925903745","trial","","40","800","1137.199999994482","","","","","0","simple_dissimilar","images/stimuli/spore_stims/simple_03_B_b.gif","left","","","","",""
"","null","html-keyboard-response","18","62067","0.0-8.0-0.5","SS1612925903745","","","null","","","<p><img src= images/blank.png width =""200"" height = ""200"" style = ""float:right""></p><p><img src=images/blank.png width =""800"" height = ""200""></p>","","","","","","","","","","","",""
"","391.3250000041444","sequential-stimulus-presentation","19","63315","0.0-8.0-1.5","SS1612925903745","trial","","40","800","1191.3250000041444","","","","","0","simple_dissimilar","images/stimuli/spore_stims/simple_03_B_b.gif","left","","","","",""
"","null","html-keyboard-response","20","64181","0.0-8.0-0.6","SS1612925903745","","","null","","","<p><img src= images/blank.png width =""200"" height = ""200"" style = ""float:right""></p><p><img src=images/blank.png width =""800"" height = ""200""></p>","","","","","","","","","","","",""
"","496.95499999506865","sequential-stimulus-presentation","21","65536","0.0-8.0-1.6","SS1612925903745","trial","","40","800","1296.9549999950686","","","","","0","simple_dissimilar","images/stimuli/spore_stims/simple_08_A_c.gif","right","","","","",""
"","null","html-keyboard-response","22","66678","0.0-8.0-0.7","SS1612925903745","","","null","","","<p><img src= images/blank.png width =""200"" height = ""200"" style = ""float:right""></p><p><img src=images/blank.png width =""800"" height = ""200""></p>","","","","","","","","","","","",""
"","352.9100000014296","sequential-stimulus-presentation","23","67899","0.0-8.0-1.7","SS1612925903745","trial","","40","800","1152.9100000014296","","","","","0","simple_dissimilar","images/stimuli/spore_stims/simple_03_B_b.gif","left","","","","",""
"","3325.890000007348","html-keyboard-response","24","71259","0.0-9.0","SS1612925903745","pref_question","","50","","","<video width ='960' height = '540' style='padding-top:8%' autoplay muted><source src='images/stimuli/wall_pref.mp4' type='video/mp4'></video>","2","middle","45%","0","","","","","","","",""
"","591.7049999989104","sequential-stimulus-presentation","25","72704","0.0-10.0","SS1612925903745","pref_reveal","","40","800","1391.7049999989104","","","","","0","","","","novel","","","",""
"","null","html-keyboard-response","26","73722","0.0-11.0-0.0","SS1612925903745","","","null","","","<p><img src= images/blank.png width =""200"" height = ""200"" style = ""float:right""></p><p><img src=images/blank.png width =""800"" height = ""200""></p>","","","","","","","","","","","",""
"","797.8450000082375","sequential-stimulus-presentation","27","75356","0.0-11.0-1.0","SS1612925903745","trial","","40","800","1597.8450000082375","","","","","1","complex_similar","images/stimuli/spore_stims/complex_11_B_c.gif","right","","","","",""
"","null","html-keyboard-response","28","76516","0.0-11.0-0.1","SS1612925903745","","","null","","","<p><img src= images/blank.png width =""200"" height = ""200"" style = ""float:right""></p><p><img src=images/blank.png width =""800"" height = ""200""></p>","","","","","","","","","","","",""
"","455.1199999987148","sequential-stimulus-presentation","29","77832","0.0-11.0-1.1","SS1612925903745","trial","","40","800","1255.1199999987148","","","","","1","complex_similar","images/stimuli/spore_stims/complex_11_B_c.gif","right","","","","",""
"","null","html-keyboard-response","30","78902","0.0-11.0-0.2","SS1612925903745","","","null","","","<p><img src= images/blank.png width =""200"" height = ""200"" style = ""float:right""></p><p><img src=images/blank.png width =""800"" height = ""200""></p>","","","","","","","","","","","",""
"","164.4300000043586","sequential-stimulus-presentation","31","79905","0.0-11.0-1.2","SS1612925903745","trial","","40","800","964.4300000043586","","","","","1","complex_similar","images/stimuli/spore_stims/complex_11_B_c.gif","right","","","","",""
"","null","html-keyboard-response","32","81123","0.0-11.0-0.3","SS1612925903745","","","null","","","<p><img src= images/blank.png width =""200"" height = ""200"" style = ""float:right""></p><p><img src=images/blank.png width =""800"" height = ""200""></p>","","","","","","","","","","","",""
"","338.1399999925634","sequential-stimulus-presentation","33","82413","0.0-11.0-1.3","SS1612925903745","trial","","40","800","1138.1399999925634","","","","","1","complex_similar","images/stimuli/spore_stims/complex_11_B_c.gif","right","","","","",""
"","null","html-keyboard-response","34","83689","0.0-11.0-0.4","SS1612925903745","","","null","","","<p><img src= images/blank.png width =""200"" height = ""200"" style = ""float:right""></p><p><img src=images/blank.png width =""800"" height = ""200""></p>","","","","","","","","","","","",""
"","1137.9899999883492","sequential-stimulus-presentation","35","85686","0.0-11.0-1.4","SS1612925903745","trial","","40","800","1937.9899999883492","","","","","1","complex_similar","images/stimuli/spore_stims/complex_11_B_c.gif","right","","","","",""
"","null","html-keyboard-response","36","86955","0.0-11.0-0.5","SS1612925903745","","","null","","","<p><img src= images/blank.png width =""200"" height = ""200"" style = ""float:right""></p><p><img src=images/blank.png width =""800"" height = ""200""></p>","","","","","","","","","","","",""
"","1866.8550000002142","sequential-stimulus-presentation","37","89694","0.0-11.0-1.5","SS1612925903745","trial","","40","800","2666.855000000214","","","","","1","complex_similar","images/stimuli/spore_stims/complex_11_B_c.gif","right","","","","",""
"","null","html-keyboard-response","38","90581","0.0-11.0-0.6","SS1612925903745","","","null","","","<p><img src= images/blank.png width =""200"" height = ""200"" style = ""float:right""></p><p><img src=images/blank.png width =""800"" height = ""200""></p>","","","","","","","","","","","",""
"","975.6650000053924","sequential-stimulus-presentation","39","92406","0.0-11.0-1.6","SS1612925903745","trial","","40","800","1775.6650000053924","","","","","1","complex_similar","images/stimuli/spore_stims/complex_11_A_c.gif","left","","","","",""
"","null","html-keyboard-response","40","93343","0.0-11.0-0.7","SS1612925903745","","","null","","","<p><img src= images/blank.png width =""200"" height = ""200"" style = ""float:right""></p><p><img src=images/blank.png width =""800"" height = ""200""></p>","","","","","","","","","","","",""
"","850.6000000052154","sequential-stimulus-presentation","41","95062","0.0-11.0-1.7","SS1612925903745","trial","","40","800","1650.6000000052154","","","","","1","complex_similar","images/stimuli/spore_stims/complex_11_B_c.gif","right","","","","",""
"","3048.4700000088196","html-keyboard-response","42","98170","0.0-12.0","SS1612925903745","pref_question","","50","","","<video width ='960' height = '540' style='padding-top:8%' autoplay muted><source src='images/stimuli/wall_pref.mp4' type='video/mp4'></video>","2","middle","45%","1","","","","","","","",""
"","472.99999999813735","sequential-stimulus-presentation","43","99503","0.0-13.0","SS1612925903745","pref_reveal","","40","800","1272.9999999981374","","","","","1","","","","novel","","","",""
"","null","html-keyboard-response","44","100692","0.0-14.0-0.0","SS1612925903745","","","null","","","<p><img src= images/blank.png width =""200"" height = ""200"" style = ""float:right""></p><p><img src=images/blank.png width =""800"" height = ""200""></p>","","","","","","","","","","","",""
"","6.634999997913837","sequential-stimulus-presentation","45","101561","0.0-14.0-1.0","SS1612925903745","trial","","40","800","806.6349999979138","","","","","2","complex_dissimilar","images/stimuli/spore_stims/complex_12_A_a.gif","middle","","","","",""
"","null","html-keyboard-response","46","102882","0.0-14.0-0.1","SS1612925903745","","","null","","","<p><img src= images/blank.png width =""200"" height = ""200"" style = ""float:right""></p><p><img src=images/blank.png width =""800"" height = ""200""></p>","","","","","","","","","","","",""
"","35.01999999571126","sequential-stimulus-presentation","47","103778","0.0-14.0-1.1","SS1612925903745","trial","","40","800","835.0199999957113","","","","","2","complex_dissimilar","images/stimuli/spore_stims/complex_12_A_a.gif","middle","","","","",""
"","null","html-keyboard-response","48","104868","0.0-14.0-0.2","SS1612925903745","","","null","","","<p><img src= images/blank.png width =""200"" height = ""200"" style = ""float:right""></p><p><img src=images/blank.png width =""800"" height = ""200""></p>","","","","","","","","","","","",""
"","760.2550000010524","sequential-stimulus-presentation","49","106494","0.0-14.0-1.2","SS1612925903745","trial","","40","800","1560.2550000010524","","","","","2","complex_dissimilar","images/stimuli/spore_stims/complex_12_A_a.gif","middle","","","","",""
"","null","html-keyboard-response","50","107394","0.0-14.0-0.3","SS1612925903745","","","null","","","<p><img src= images/blank.png width =""200"" height = ""200"" style = ""float:right""></p><p><img src=images/blank.png width =""800"" height = ""200""></p>","","","","","","","","","","","",""
"","582.9599999997299","sequential-stimulus-presentation","51","108840","0.0-14.0-1.3","SS1612925903745","trial","","40","800","1382.95999999973","","","","","2","complex_dissimilar","images/stimuli/spore_stims/complex_10_A_d.gif","right","","","","",""
"","null","html-keyboard-response","52","109995","0.0-14.0-0.4","SS1612925903745","","","null","","","<p><img src= images/blank.png width =""200"" height = ""200"" style = ""float:right""></p><p><img src=images/blank.png width =""800"" height = ""200""></p>","","","","","","","","","","","",""
"","292.7700000000186","sequential-stimulus-presentation","53","111182","0.0-14.0-1.4","SS1612925903745","trial","","40","800","1092.7700000000186","","","","","2","complex_dissimilar","images/stimuli/spore_stims/complex_12_A_a.gif","middle","","","","",""
"","null","html-keyboard-response","54","112499","0.0-14.0-0.5","SS1612925903745","","","null","","","<p><img src= images/blank.png width =""200"" height = ""200"" style = ""float:right""></p><p><img src=images/blank.png width =""800"" height = ""200""></p>","","","","","","","","","","","",""
"","1429.244999992079","sequential-stimulus-presentation","55","114819","0.0-14.0-1.5","SS1612925903745","trial","","40","800","2229.244999992079","","","","","2","complex_dissimilar","images/stimuli/spore_stims/complex_12_A_a.gif","middle","","","","",""
"","null","html-keyboard-response","56","116106","0.0-14.0-0.6","SS1612925903745","","","null","","","<p><img src= images/blank.png width =""200"" height = ""200"" style = ""float:right""></p><p><img src=images/blank.png width =""800"" height = ""200""></p>","","","","","","","","","","","",""
"","587.8749999974389","sequential-stimulus-presentation","57","117586","0.0-14.0-1.6","SS1612925903745","trial","","40","800","1387.8749999974389","","","","","2","complex_dissimilar","images/stimuli/spore_stims/complex_12_A_a.gif","middle","","","","",""
"","null","html-keyboard-response","58","118743","0.0-14.0-0.7","SS1612925903745","","","null","","","<p><img src= images/blank.png width =""200"" height = ""200"" style = ""float:right""></p><p><img src=images/blank.png width =""800"" height = ""200""></p>","","","","","","","","","","","",""
"","370.969999989029","sequential-stimulus-presentation","59","119989","0.0-14.0-1.7","SS1612925903745","trial","","40","800","1170.969999989029","","","","","2","complex_dissimilar","images/stimuli/spore_stims/complex_12_A_a.gif","middle","","","","",""
"","1573.7799999915296","html-keyboard-response","60","121589","0.0-15.0","SS1612925903745","pref_question","","49","","","<video width ='960' height = '540' style='padding-top:8%' autoplay muted><source src='images/stimuli/wall_pref.mp4' type='video/mp4'></video>","1","left","25%","2","","","","","","","",""
"","572.3949999955948","sequential-stimulus-presentation","61","123049","0.0-16.0","SS1612925903745","pref_reveal","","40","800","1372.3949999955948","","","","","2","","","","novel","","","",""
"","null","html-keyboard-response","62","124367","0.0-17.0-0.0","SS1612925903745","","","null","","","<p><img src= images/blank.png width =""200"" height = ""200"" style = ""float:right""></p><p><img src=images/blank.png width =""800"" height = ""200""></p>","","","","","","","","","","","",""
"","617.7950000128476","sequential-stimulus-presentation","63","125810","0.0-17.0-1.0","SS1612925903745","trial","","40","800","1417.7950000128476","","","","","3","simple_similar","images/stimuli/spore_stims/simple_12_A_b.gif","left","","","","",""
"","null","html-keyboard-response","64","127022","0.0-17.0-0.1","SS1612925903745","","","null","","","<p><img src= images/blank.png width =""200"" height = ""200"" style = ""float:right""></p><p><img src=images/blank.png width =""800"" height = ""200""></p>","","","","","","","","","","","",""
"","605.3050000045914","sequential-stimulus-presentation","65","128503","0.0-17.0-1.1","SS1612925903745","trial","","40","800","1405.3050000045914","","","","","3","simple_similar","images/stimuli/spore_stims/simple_12_A_b.gif","left","","","","",""
"","null","html-keyboard-response","66","129457","0.0-17.0-0.2","SS1612925903745","","","null","","","<p><img src= images/blank.png width =""200"" height = ""200"" style = ""float:right""></p><p><img src=images/blank.png width =""800"" height = ""200""></p>","","","","","","","","","","","",""
"","111.28499999176711","sequential-stimulus-presentation","67","130453","0.0-17.0-1.2","SS1612925903745","trial","","40","800","911.2849999917671","","","","","3","simple_similar","images/stimuli/spore_stims/simple_12_A_b.gif","left","","","","",""
"","null","html-keyboard-response","68","131330","0.0-17.0-0.3","SS1612925903745","","","null","","","<p><img src= images/blank.png width =""200"" height = ""200"" style = ""float:right""></p><p><img src=images/blank.png width =""800"" height = ""200""></p>","","","","","","","","","","","",""
"","331.56000000599306","sequential-stimulus-presentation","69","132524","0.0-17.0-1.3","SS1612925903745","trial","","40","800","1131.560000005993","","","","","3","simple_similar","images/stimuli/spore_stims/simple_12_A_b.gif","left","","","","",""
"","null","html-keyboard-response","70","133821","0.0-17.0-0.4","SS1612925903745","","","null","","","<p><img src= images/blank.png width =""200"" height = ""200"" style = ""float:right""></p><p><img src=images/blank.png width =""800"" height = ""200""></p>","","","","","","","","","","","",""
"","422.0050000003539","sequential-stimulus-presentation","71","135116","0.0-17.0-1.4","SS1612925903745","trial","","40","800","1222.005000000354","","","","","3","simple_similar","images/stimuli/spore_stims/simple_12_A_b.gif","left","","","","",""
"","null","html-keyboard-response","72","136044","0.0-17.0-0.5","SS1612925903745","","","null","","","<p><img src= images/blank.png width =""200"" height = ""200"" style = ""float:right""></p><p><img src=images/blank.png width =""800"" height = ""200""></p>","","","","","","","","","","","",""
"","719.9450000043726","sequential-stimulus-presentation","73","137610","0.0-17.0-1.5","SS1612925903745","trial","","40","800","1519.9450000043726","","","","","3","simple_similar","images/stimuli/spore_stims/simple_12_A_b.gif","left","","","","",""
"","null","html-keyboard-response","74","138559","0.0-17.0-0.6","SS1612925903745","","","null","","","<p><img src= images/blank.png width =""200"" height = ""200"" style = ""float:right""></p><p><img src=images/blank.png width =""800"" height = ""200""></p>","","","","","","","","","","","",""
"","402.16500000678934","sequential-stimulus-presentation","75","139816","0.0-17.0-1.6","SS1612925903745","trial","","40","800","1202.1650000067893","","","","","3","simple_similar","images/stimuli/spore_stims/simple_12_B_b.gif","right","","","","",""
"","null","html-keyboard-response","76","141058","0.0-17.0-0.7","SS1612925903745","","","null","","","<p><img src= images/blank.png width =""200"" height = ""200"" style = ""float:right""></p><p><img src=images/blank.png width =""800"" height = ""200""></p>","","","","","","","","","","","",""
"","250.16999999934342","sequential-stimulus-presentation","77","142188","0.0-17.0-1.7","SS1612925903745","trial","","40","800","1050.1699999993434","","","","","3","simple_similar","images/stimuli/spore_stims/simple_12_A_b.gif","left","","","","",""
"","2196.5300000010757","html-keyboard-response","78","144414","0.0-18.0","SS1612925903745","pref_question","","50","","","<video width ='960' height = '540' style='padding-top:8%' autoplay muted><source src='images/stimuli/wall_pref.mp4' type='video/mp4'></video>","2","middle","45%","3","","","","","","","",""
"","177.66000000119675","sequential-stimulus-presentation","79","145486","0.0-19.0","SS1612925903745","pref_reveal","","40","800","977.6600000011967","","","","","3","","","","novel","","","",""
"","null","html-keyboard-response","80","146787","0.0-20.0-0.0","SS1612925903745","","","null","","","<p><img src= images/blank.png width =""200"" height = ""200"" style = ""float:right""></p><p><img src=images/blank.png width =""800"" height = ""200""></p>","","","","","","","","","","","",""
"","884.5250000013039","sequential-stimulus-presentation","81","148547","0.0-20.0-1.0","SS1612925903745","trial","","40","800","1684.5250000013039","","","","","4","simple_similar","images/stimuli/spore_stims/simple_07_A_b.gif","right","","","","",""
"","null","html-keyboard-response","82","149663","0.0-20.0-0.1","SS1612925903745","","","null","","","<p><img src= images/blank.png width =""200"" height = ""200"" style = ""float:right""></p><p><img src=images/blank.png width =""800"" height = ""200""></p>","","","","","","","","","","","",""
"","507.15499999932945","sequential-stimulus-presentation","83","151034","0.0-20.0-1.1","SS1612925903745","trial","","40","800","1307.1549999993294","","","","","4","simple_similar","images/stimuli/spore_stims/simple_07_A_b.gif","right","","","","",""
"","null","html-keyboard-response","84","152194","0.0-20.0-0.2","SS1612925903745","","","null","","","<p><img src= images/blank.png width =""200"" height = ""200"" style = ""float:right""></p><p><img src=images/blank.png width =""800"" height = ""200""></p>","","","","","","","","","","","",""
"","491.2849999964237","sequential-stimulus-presentation","85","153596","0.0-20.0-1.2","SS1612925903745","trial","","40","800","1291.2849999964237","","","","","4","simple_similar","images/stimuli/spore_stims/simple_07_A_b.gif","right","","","","",""
"","null","html-keyboard-response","86","154743","0.0-20.0-0.3","SS1612925903745","","","null","","","<p><img src= images/blank.png width =""200"" height = ""200"" style = ""float:right""></p><p><img src=images/blank.png width =""800"" height = ""200""></p>","","","","","","","","","","","",""
"","369.8750000039581","sequential-stimulus-presentation","87","155993","0.0-20.0-1.3","SS1612925903745","trial","","40","800","1169.8750000039581","","","","","4","simple_similar","images/stimuli/spore_stims/simple_07_A_b.gif","right","","","","",""
"","null","html-keyboard-response","88","157332","0.0-20.0-0.4","SS1612925903745","","","null","","","<p><img src= images/blank.png width =""200"" height = ""200"" style = ""float:right""></p><p><img src=images/blank.png width =""800"" height = ""200""></p>","","","","","","","","","","","",""
"","278.5500000027241","sequential-stimulus-presentation","89","158486","0.0-20.0-1.4","SS1612925903745","trial","","40","800","1078.5500000027241","","","","","4","simple_similar","images/stimuli/spore_stims/simple_07_A_b.gif","right","","","","",""
"","null","html-keyboard-response","90","159567","0.0-20.0-0.5","SS1612925903745","","","null","","","<p><img src= images/blank.png width =""200"" height = ""200"" style = ""float:right""></p><p><img src=images/blank.png width =""800"" height = ""200""></p>","","","","","","","","","","","",""
"","862.2699999978067","sequential-stimulus-presentation","91","161268","0.0-20.0-1.5","SS1612925903745","trial","","40","800","1662.2699999978067","","","","","4","simple_similar","images/stimuli/spore_stims/simple_07_A_b.gif","right","","","","",""
"","null","html-keyboard-response","92","162599","0.0-20.0-0.6","SS1612925903745","","","null","","","<p><img src= images/blank.png width =""200"" height = ""200"" style = ""float:right""></p><p><img src=images/blank.png width =""800"" height = ""200""></p>","","","","","","","","","","","",""
"","415.36499999347143","sequential-stimulus-presentation","93","163891","0.0-20.0-1.6","SS1612925903745","trial","","40","800","1215.3649999934714","","","","","4","simple_similar","images/stimuli/spore_stims/simple_07_A_b.gif","right","","","","",""
"","null","html-keyboard-response","94","164811","0.0-20.0-0.7","SS1612925903745","","","null","","","<p><img src= images/blank.png width =""200"" height = ""200"" style = ""float:right""></p><p><img src=images/blank.png width =""800"" height = ""200""></p>","","","","","","","","","","","",""
"","740.7949999906123","sequential-stimulus-presentation","95","166487","0.0-20.0-1.7","SS1612925903745","trial","","40","800","1540.7949999906123","","","","","4","simple_similar","images/stimuli/spore_stims/simple_07_B_b.gif","middle","","","","",""
"","3228.8450000050943","html-keyboard-response","96","169751","0.0-21.0","SS1612925903745","pref_question","","49","","","<video width ='960' height = '540' style='padding-top:8%' autoplay muted><source src='images/stimuli/wall_pref.mp4' type='video/mp4'></video>","1","left","25%","4","","","","","","","",""
"","624.6450000035111","sequential-stimulus-presentation","97","171240","0.0-22.0","SS1612925903745","pref_reveal","","40","800","1424.645000003511","","","","","4","","","","novel","","","",""
"","null","html-keyboard-response","98","172217","0.0-23.0-0.0","SS1612925903745","","","null","","","<p><img src= images/blank.png width =""200"" height = ""200"" style = ""float:right""></p><p><img src=images/blank.png width =""800"" height = ""200""></p>","","","","","","","","","","","",""
"","506.1450000066543","sequential-stimulus-presentation","99","173733","0.0-23.0-1.0","SS1612925903745","trial","","40","800","1306.1450000066543","","","","","5","simple_similar","images/stimuli/spore_stims/simple_17_A_c.gif","left","","","","",""
"","null","html-keyboard-response","100","174631","0.0-23.0-0.1","SS1612925903745","","","null","","","<p><img src= images/blank.png width =""200"" height = ""200"" style = ""float:right""></p><p><img src=images/blank.png width =""800"" height = ""200""></p>","","","","","","","","","","","",""
"","510.78500000585336","sequential-stimulus-presentation","101","176054","0.0-23.0-1.1","SS1612925903745","trial","","40","800","1310.7850000058534","","","","","5","simple_similar","images/stimuli/spore_stims/simple_17_A_c.gif","left","","","","",""
"","null","html-keyboard-response","102","176957","0.0-23.0-0.2","SS1612925903745","","","null","","","<p><img src= images/blank.png width =""200"" height = ""200"" style = ""float:right""></p><p><img src=images/blank.png width =""800"" height = ""200""></p>","","","","","","","","","","","",""
"","748.1949999928474","sequential-stimulus-presentation","103","178608","0.0-23.0-1.2","SS1612925903745","trial","","40","800","1548.1949999928474","","","","","5","simple_similar","images/stimuli/spore_stims/simple_17_A_c.gif","left","","","","",""
"","null","html-keyboard-response","104","179542","0.0-23.0-0.3","SS1612925903745","","","null","","","<p><img src= images/blank.png width =""200"" height = ""200"" style = ""float:right""></p><p><img src=images/blank.png width =""800"" height = ""200""></p>","","","","","","","","","","","",""
"","86.93000000494067","sequential-stimulus-presentation","105","180504","0.0-23.0-1.3","SS1612925903745","trial","","40","800","886.9300000049407","","","","","5","simple_similar","images/stimuli/spore_stims/simple_17_A_c.gif","left","","","","",""
"","null","html-keyboard-response","106","181665","0.0-23.0-0.4","SS1612925903745","","","null","","","<p><img src= images/blank.png width =""200"" height = ""200"" style = ""float:right""></p><p><img src=images/blank.png width =""800"" height = ""200""></p>","","","","","","","","","","","",""
"","376.0349999938626","sequential-stimulus-presentation","107","182952","0.0-23.0-1.4","SS1612925903745","trial","","40","800","1176.0349999938626","","","","","5","simple_similar","images/stimuli/spore_stims/simple_17_A_c.gif","left","","","","",""
"","null","html-keyboard-response","108","183901","0.0-23.0-0.5","SS1612925903745","","","null","","","<p><img src= images/blank.png width =""200"" height = ""200"" style = ""float:right""></p><p><img src=images/blank.png width =""800"" height = ""200""></p>","","","","","","","","","","","",""
"","411.7050000058953","sequential-stimulus-presentation","109","185169","0.0-23.0-1.5","SS1612925903745","trial","","40","800","1211.7050000058953","","","","","5","simple_similar","images/stimuli/spore_stims/simple_17_B_c.gif","middle","","","","",""
"","null","html-keyboard-response","110","186169","0.0-23.0-0.6","SS1612925903745","","","null","","","<p><img src= images/blank.png width =""200"" height = ""200"" style = ""float:right""></p><p><img src=images/blank.png width =""800"" height = ""200""></p>","","","","","","","","","","","",""
"","181.92499999713618","sequential-stimulus-presentation","111","187286","0.0-23.0-1.6","SS1612925903745","trial","","40","800","981.9249999971362","","","","","5","simple_similar","images/stimuli/spore_stims/simple_17_A_c.gif","left","","","","",""
"","null","html-keyboard-response","112","188229","0.0-23.0-0.7","SS1612925903745","","","null","","","<p><img src= images/blank.png width =""200"" height = ""200"" style = ""float:right""></p><p><img src=images/blank.png width =""800"" height = ""200""></p>","","","","","","","","","","","",""
"","384.99000000592787","sequential-stimulus-presentation","113","189478","0.0-23.0-1.7","SS1612925903745","trial","","40","800","1184.9900000059279","","","","","5","simple_similar","images/stimuli/spore_stims/simple_17_A_c.gif","left","","","","",""
"","2205.535000000964","html-keyboard-response","114","191769","0.0-24.0","SS1612925903745","pref_question","","49","","","<video width ='960' height = '540' style='padding-top:8%' autoplay muted><source src='images/stimuli/wall_pref.mp4' type='video/mp4'></video>","1","left","25%","5","","","","","","","",""
"","414.4749999977648","sequential-stimulus-presentation","115","193091","0.0-25.0","SS1612925903745","pref_reveal","","40","800","1214.4749999977648","","","","","5","","","","background","","","",""
"","null","html-keyboard-response","116","194331","0.0-26.0-0.0","SS1612925903745","","","null","","","<p><img src= images/blank.png width =""200"" height = ""200"" style = ""float:right""></p><p><img src=images/blank.png width =""800"" height = ""200""></p>","","","","","","","","","","","",""
"","386.02000000537373","sequential-stimulus-presentation","117","195624","0.0-26.0-1.0","SS1612925903745","trial","","40","800","1186.0200000053737","","","","","6","simple_dissimilar","images/stimuli/spore_stims/simple_09_A_a.gif","right","","","","",""
"","null","html-keyboard-response","118","196951","0.0-26.0-0.1","SS1612925903745","","","null","","","<p><img src= images/blank.png width =""200"" height = ""200"" style = ""float:right""></p><p><img src=images/blank.png width =""800"" height = ""200""></p>","","","","","","","","","","","",""
"","79.81999999901745","sequential-stimulus-presentation","119","197898","0.0-26.0-1.1","SS1612925903745","trial","","40","800","879.8199999990175","","","","","6","simple_dissimilar","images/stimuli/spore_stims/simple_09_A_a.gif","right","","","","",""
"","null","html-keyboard-response","120","198934","0.0-26.0-0.2","SS1612925903745","","","null","","","<p><img src= images/blank.png width =""200"" height = ""200"" style = ""float:right""></p><p><img src=images/blank.png width =""800"" height = ""200""></p>","","","","","","","","","","","",""
"","314.9650000123074","sequential-stimulus-presentation","121","200139","0.0-26.0-1.2","SS1612925903745","trial","","40","800","1114.9650000123074","","","","","6","simple_dissimilar","images/stimuli/spore_stims/simple_09_A_a.gif","right","","","","",""
"","null","html-keyboard-response","122","201480","0.0-26.0-0.3","SS1612925903745","","","null","","","<p><img src= images/blank.png width =""200"" height = ""200"" style = ""float:right""></p><p><img src=images/blank.png width =""800"" height = ""200""></p>","","","","","","","","","","","",""
"","402.44499999971595","sequential-stimulus-presentation","123","202833","0.0-26.0-1.3","SS1612925903745","trial","","40","800","1202.444999999716","","","","","6","simple_dissimilar","images/stimuli/spore_stims/simple_09_A_a.gif","right","","","","",""
"","null","html-keyboard-response","124","204201","0.0-26.0-0.4","SS1612925903745","","","null","","","<p><img src= images/blank.png width =""200"" height = ""200"" style = ""float:right""></p><p><img src=images/blank.png width =""800"" height = ""200""></p>","","","","","","","","","","","",""
"","335.14999999897555","sequential-stimulus-presentation","125","205453","0.0-26.0-1.4","SS1612925903745","trial","","40","800","1135.1499999989755","","","","","6","simple_dissimilar","images/stimuli/spore_stims/simple_14_A_c.gif","middle","","","","",""
"","null","html-keyboard-response","126","206595","0.0-26.0-0.5","SS1612925903745","","","null","","","<p><img src= images/blank.png width =""200"" height = ""200"" style = ""float:right""></p><p><img src=images/blank.png width =""800"" height = ""200""></p>","","","","","","","","","","","",""
"","42.15999999723863","sequential-stimulus-presentation","127","207502","0.0-26.0-1.5","SS1612925903745","trial","","40","800","842.1599999972386","","","","","6","simple_dissimilar","images/stimuli/spore_stims/simple_09_A_a.gif","right","","","","",""
"","null","html-keyboard-response","128","208832","0.0-26.0-0.6","SS1612925903745","","","null","","","<p><img src= images/blank.png width =""200"" height = ""200"" style = ""float:right""></p><p><img src=images/blank.png width =""800"" height = ""200""></p>","","","","","","","","","","","",""
"","372.0950000133598","sequential-stimulus-presentation","129","210078","0.0-26.0-1.6","SS1612925903745","trial","","40","800","1172.0950000133598","","","","","6","simple_dissimilar","images/stimuli/spore_stims/simple_09_A_a.gif","right","","","","",""
"","null","html-keyboard-response","130","211354","0.0-26.0-0.7","SS1612925903745","","","null","","","<p><img src= images/blank.png width =""200"" height = ""200"" style = ""float:right""></p><p><img src=images/blank.png width =""800"" height = ""200""></p>","","","","","","","","","","","",""
"","351.505000013276","sequential-stimulus-presentation","131","212595","0.0-26.0-1.7","SS1612925903745","trial","","40","800","1151.505000013276","","","","","6","simple_dissimilar","images/stimuli/spore_stims/simple_09_A_a.gif","right","","","","",""
"","1678.7049999984447","html-keyboard-response","132","214349","0.0-27.0","SS1612925903745","pref_question","","49","","","<video width ='960' height = '540' style='padding-top:8%' autoplay muted><source src='images/stimuli/wall_pref.mp4' type='video/mp4'></video>","1","left","25%","6","","","","","","","",""
"","569.0500000055181","sequential-stimulus-presentation","133","215860","0.0-28.0","SS1612925903745","pref_reveal","","40","800","1369.050000005518","","","","","6","","","","novel","","","",""
"","null","html-keyboard-response","134","216937","0.0-29.0-0.0","SS1612925903745","","","null","","","<p><img src= images/blank.png width =""200"" height = ""200"" style = ""float:right""></p><p><img src=images/blank.png width =""800"" height = ""200""></p>","","","","","","","","","","","",""
"","385.49000000057276","sequential-stimulus-presentation","135","218221","0.0-29.0-1.0","SS1612925903745","trial","","40","800","1185.4900000005728","","","","","7","simple_similar","images/stimuli/spore_stims/simple_15_A_c.gif","left","","","","",""
"","null","html-keyboard-response","136","219631","0.0-29.0-0.1","SS1612925903745","","","null","","","<p><img src= images/blank.png width =""200"" height = ""200"" style = ""float:right""></p><p><img src=images/blank.png width =""800"" height = ""200""></p>","","","","","","","","","","","",""
"","314.3849999905797","sequential-stimulus-presentation","137","220873","0.0-29.0-1.1","SS1612925903745","trial","","40","800","1114.3849999905797","","","","","7","simple_similar","images/stimuli/spore_stims/simple_15_A_c.gif","left","","","","",""
"","null","html-keyboard-response","138","222183","0.0-29.0-0.2","SS1612925903745","","","null","","","<p><img src= images/blank.png width =""200"" height = ""200"" style = ""float:right""></p><p><img src=images/blank.png width =""800"" height = ""200""></p>","","","","","","","","","","","",""
"","346.785000001546","sequential-stimulus-presentation","139","223402","0.0-29.0-1.2","SS1612925903745","trial","","40","800","1146.785000001546","","","","","7","simple_similar","images/stimuli/spore_stims/simple_15_B_c.gif","right","","","","",""
"","null","html-keyboard-response","140","224687","0.0-29.0-0.3","SS1612925903745","","","null","","","<p><img src= images/blank.png width =""200"" height = ""200"" style = ""float:right""></p><p><img src=images/blank.png width =""800"" height = ""200""></p>","","","","","","","","","","","",""
"","323.0550000007497","sequential-stimulus-presentation","141","225913","0.0-29.0-1.3","SS1612925903745","trial","","40","800","1123.0550000007497","","","","","7","simple_similar","images/stimuli/spore_stims/simple_15_A_c.gif","left","","","","",""
"","null","html-keyboard-response","142","227266","0.0-29.0-0.4","SS1612925903745","","","null","","","<p><img src= images/blank.png width =""200"" height = ""200"" style = ""float:right""></p><p><img src=images/blank.png width =""800"" height = ""200""></p>","","","","","","","","","","","",""
"","19.75500000116881","sequential-stimulus-presentation","143","228159","0.0-29.0-1.4","SS1612925903745","trial","","40","800","819.7550000011688","","","","","7","simple_similar","images/stimuli/spore_stims/simple_15_A_c.gif","left","","","","",""
"","null","html-keyboard-response","144","229139","0.0-29.0-0.5","SS1612925903745","","","null","","","<p><img src= images/blank.png width =""200"" height = ""200"" style = ""float:right""></p><p><img src=images/blank.png width =""800"" height = ""200""></p>","","","","","","","","","","","",""
"","673.6700000037672","sequential-stimulus-presentation","145","230715","0.0-29.0-1.5","SS1612925903745","trial","","40","800","1473.6700000037672","","","","","7","simple_similar","images/stimuli/spore_stims/simple_15_A_c.gif","left","","","","",""
"","null","html-keyboard-response","146","231659","0.0-29.0-0.6","SS1612925903745","","","null","","","<p><img src= images/blank.png width =""200"" height = ""200"" style = ""float:right""></p><p><img src=images/blank.png width =""800"" height = ""200""></p>","","","","","","","","","","","",""
"","213.3600000088336","sequential-stimulus-presentation","147","232736","0.0-29.0-1.6","SS1612925903745","trial","","40","800","1013.3600000088336","","","","","7","simple_similar","images/stimuli/spore_stims/simple_15_A_c.gif","left","","","","",""
"","null","html-keyboard-response","148","233644","0.0-29.0-0.7","SS1612925903745","","","null","","","<p><img src= images/blank.png width =""200"" height = ""200"" style = ""float:right""></p><p><img src=images/blank.png width =""800"" height = ""200""></p>","","","","","","","","","","","",""
"","35.02999999909662","sequential-stimulus-presentation","149","234705","0.0-29.0-1.7","SS1612925903745","trial","","40","800","835.0299999990966","","","","","7","simple_similar","images/stimuli/spore_stims/simple_15_A_c.gif","left","","","","",""
"","3954.4350000069244","html-keyboard-response","150","238710","0.0-30.0","SS1612925903745","pref_question","","51","","","<video width ='960' height = '540' style='padding-top:8%' autoplay muted><source src='images/stimuli/wall_pref.mp4' type='video/mp4'></video>","3","right","66%","7","","","","","","","",""
"","472.8800000011688","sequential-stimulus-presentation","151","240119","0.0-31.0","SS1612925903745","pref_reveal","","40","800","1272.8800000011688","","","","","7","","","","deviant","","","",""
"","null","html-keyboard-response","152","241249","0.0-32.0-0.0","SS1612925903745","","","null","","","<p><img src= images/blank.png width =""200"" height = ""200"" style = ""float:right""></p><p><img src=images/blank.png width =""800"" height = ""200""></p>","","","","","","","","","","","",""
"","170.33500000252388","sequential-stimulus-presentation","153","242310","0.0-32.0-1.0","SS1612925903745","trial","","40","800","970.3350000025239","","","","","8","complex_dissimilar","images/stimuli/spore_stims/complex_16_B_c.gif","right","","","","",""
"","null","html-keyboard-response","154","243426","0.0-32.0-0.1","SS1612925903745","","","null","","","<p><img src= images/blank.png width =""200"" height = ""200"" style = ""float:right""></p><p><img src=images/blank.png width =""800"" height = ""200""></p>","","","","","","","","","","","",""
"","367.854999989504","sequential-stimulus-presentation","155","244689","0.0-32.0-1.1","SS1612925903745","trial","","40","800","1167.854999989504","","","","","8","complex_dissimilar","images/stimuli/spore_stims/complex_16_B_c.gif","right","","","","",""
"","null","html-keyboard-response","156","245602","0.0-32.0-0.2","SS1612925903745","","","null","","","<p><img src= images/blank.png width =""200"" height = ""200"" style = ""float:right""></p><p><img src=images/blank.png width =""800"" height = ""200""></p>","","","","","","","","","","","",""
"","385.29999999445863","sequential-stimulus-presentation","157","246863","0.0-32.0-1.2","SS1612925903745","trial","","40","800","1185.2999999944586","","","","","8","complex_dissimilar","images/stimuli/spore_stims/complex_10_B_c.gif","left","","","","",""
"","null","html-keyboard-response","158","248122","0.0-32.0-0.3","SS1612925903745","","","null","","","<p><img src= images/blank.png width =""200"" height = ""200"" style = ""float:right""></p><p><img src=images/blank.png width =""800"" height = ""200""></p>","","","","","","","","","","","",""
"","531.5950000076555","sequential-stimulus-presentation","159","249527","0.0-32.0-1.3","SS1612925903745","trial","","40","800","1331.5950000076555","","","","","8","complex_dissimilar","images/stimuli/spore_stims/complex_16_B_c.gif","right","","","","",""
"","null","html-keyboard-response","160","250761","0.0-32.0-0.4","SS1612925903745","","","null","","","<p><img src= images/blank.png width =""200"" height = ""200"" style = ""float:right""></p><p><img src=images/blank.png width =""800"" height = ""200""></p>","","","","","","","","","","","",""
"","1031.2599999888334","sequential-stimulus-presentation","161","252677","0.0-32.0-1.4","SS1612925903745","trial","","40","800","1831.2599999888334","","","","","8","complex_dissimilar","images/stimuli/spore_stims/complex_16_B_c.gif","right","","","","",""
"","null","html-keyboard-response","162","253908","0.0-32.0-0.5","SS1612925903745","","","null","","","<p><img src= images/blank.png width =""200"" height = ""200"" style = ""float:right""></p><p><img src=images/blank.png width =""800"" height = ""200""></p>","","","","","","","","","","","",""
"","319.3500000052154","sequential-stimulus-presentation","163","255146","0.0-32.0-1.5","SS1612925903745","trial","","40","800","1119.3500000052154","","","","","8","complex_dissimilar","images/stimuli/spore_stims/complex_16_B_c.gif","right","","","","",""
"","null","html-keyboard-response","164","256297","0.0-32.0-0.6","SS1612925903745","","","null","","","<p><img src= images/blank.png width =""200"" height = ""200"" style = ""float:right""></p><p><img src=images/blank.png width =""800"" height = ""200""></p>","","","","","","","","","","","",""
"","184.9099999963073","sequential-stimulus-presentation","165","257403","0.0-32.0-1.6","SS1612925903745","trial","","40","800","984.9099999963073","","","","","8","complex_dissimilar","images/stimuli/spore_stims/complex_16_B_c.gif","right","","","","",""
"","null","html-keyboard-response","166","258685","0.0-32.0-0.7","SS1612925903745","","","null","","","<p><img src= images/blank.png width =""200"" height = ""200"" style = ""float:right""></p><p><img src=images/blank.png width =""800"" height = ""200""></p>","","","","","","","","","","","",""
"","390.01499999722","sequential-stimulus-presentation","167","260013","0.0-32.0-1.7","SS1612925903745","trial","","40","800","1190.01499999722","","","","","8","complex_dissimilar","images/stimuli/spore_stims/complex_16_B_c.gif","right","","","","",""
"","5635.540000002948","html-keyboard-response","168","265795","0.0-33.0","SS1612925903745","pref_question","","49","","","<video width ='960' height = '540' style='padding-top:8%' autoplay muted><source src='images/stimuli/wall_pref.mp4' type='video/mp4'></video>","1","left","25%","8","","","","","","","",""
"","574.0700000023935","sequential-stimulus-presentation","169","267271","0.0-34.0","SS1612925903745","pref_reveal","","40","800","1374.0700000023935","","","","","8","","","","deviant","","","",""
"","null","html-keyboard-response","170","268587","0.0-35.0-0.0","SS1612925903745","","","null","","","<p><img src= images/blank.png width =""200"" height = ""200"" style = ""float:right""></p><p><img src=images/blank.png width =""800"" height = ""200""></p>","","","","","","","","","","","",""
"","271.164999998291","sequential-stimulus-presentation","171","269741","0.0-35.0-1.0","SS1612925903745","trial","","40","800","1071.164999998291","","","","","9","complex_similar","images/stimuli/spore_stims/complex_19_B_b.gif","right","","","","",""
"","null","html-keyboard-response","172","270876","0.0-35.0-0.1","SS1612925903745","","","null","","","<p><img src= images/blank.png width =""200"" height = ""200"" style = ""float:right""></p><p><img src=images/blank.png width =""800"" height = ""200""></p>","","","","","","","","","","","",""
"","784.7900000051595","sequential-stimulus-presentation","173","272547","0.0-35.0-1.1","SS1612925903745","trial","","40","800","1584.7900000051595","","","","","9","complex_similar","images/stimuli/spore_stims/complex_19_B_b.gif","right","","","","",""
"","null","html-keyboard-response","174","273822","0.0-35.0-0.2","SS1612925903745","","","null","","","<p><img src= images/blank.png width =""200"" height = ""200"" style = ""float:right""></p><p><img src=images/blank.png width =""800"" height = ""200""></p>","","","","","","","","","","","",""
"","202.0150000025751","sequential-stimulus-presentation","175","274897","0.0-35.0-1.2","SS1612925903745","trial","","40","800","1002.0150000025751","","","","","9","complex_similar","images/stimuli/spore_stims/complex_19_B_b.gif","right","","","","",""
"","null","html-keyboard-response","176","276167","0.0-35.0-0.3","SS1612925903745","","","null","","","<p><img src= images/blank.png width =""200"" height = ""200"" style = ""float:right""></p><p><img src=images/blank.png width =""800"" height = ""200""></p>","","","","","","","","","","","",""
"","341.7350000090664","sequential-stimulus-presentation","177","277368","0.0-35.0-1.3","SS1612925903745","trial","","40","800","1141.7350000090664","","","","","9","complex_similar","images/stimuli/spore_stims/complex_19_A_b.gif","left","","","","",""
"","null","html-keyboard-response","178","278410","0.0-35.0-0.4","SS1612925903745","","","null","","","<p><img src= images/blank.png width =""200"" height = ""200"" style = ""float:right""></p><p><img src=images/blank.png width =""800"" height = ""200""></p>","","","","","","","","","","","",""
"","283.33500000007916","sequential-stimulus-presentation","179","279541","0.0-35.0-1.4","SS1612925903745","trial","","40","800","1083.3350000000792","","","","","9","complex_similar","images/stimuli/spore_stims/complex_19_B_b.gif","right","","","","",""
"","null","html-keyboard-response","180","280738","0.0-35.0-0.5","SS1612925903745","","","null","","","<p><img src= images/blank.png width =""200"" height = ""200"" style = ""float:right""></p><p><img src=images/blank.png width =""800"" height = ""200""></p>","","","","","","","","","","","",""
"","181.50500000047032","sequential-stimulus-presentation","181","281854","0.0-35.0-1.5","SS1612925903745","trial","","40","800","981.5050000004703","","","","","9","complex_similar","images/stimuli/spore_stims/complex_19_B_b.gif","right","","","","",""
"","null","html-keyboard-response","182","283152","0.0-35.0-0.6","SS1612925903745","","","null","","","<p><img src= images/blank.png width =""200"" height = ""200"" style = ""float:right""></p><p><img src=images/blank.png width =""800"" height = ""200""></p>","","","","","","","","","","","",""
"","189.00500000745524","sequential-stimulus-presentation","183","284312","0.0-35.0-1.6","SS1612925903745","trial","","40","800","989.0050000074552","","","","","9","complex_similar","images/stimuli/spore_stims/complex_19_B_b.gif","right","","","","",""
"","null","html-keyboard-response","184","285631","0.0-35.0-0.7","SS1612925903745","","","null","","","<p><img src= images/blank.png width =""200"" height = ""200"" style = ""float:right""></p><p><img src=images/blank.png width =""800"" height = ""200""></p>","","","","","","","","","","","",""
"","876.6650000034133","sequential-stimulus-presentation","185","287453","0.0-35.0-1.7","SS1612925903745","trial","","40","800","1676.6650000034133","","","","","9","complex_similar","images/stimuli/spore_stims/complex_19_B_b.gif","right","","","","",""
"","4909.134999994421","html-keyboard-response","186","292445","0.0-36.0","SS1612925903745","pref_question","","49","","","<video width ='960' height = '540' style='padding-top:8%' autoplay muted><source src='images/stimuli/wall_pref.mp4' type='video/mp4'></video>","1","left","25%","9","","","","","","","",""
"","452.98999999067746","sequential-stimulus-presentation","187","293759","0.0-37.0","SS1612925903745","pref_reveal","","40","800","1252.9899999906775","","","","","9","","","","deviant","","","",""
"","null","html-keyboard-response","188","295173","0.0-38.0-0.0","SS1612925903745","","","null","","","<p><img src= images/blank.png width =""200"" height = ""200"" style = ""float:right""></p><p><img src=images/blank.png width =""800"" height = ""200""></p>","","","","","","","","","","","",""
"","203.85499999974854","sequential-stimulus-presentation","189","296273","0.0-38.0-1.0","SS1612925903745","trial","","40","800","1003.8549999997485","","","","","10","simple_similar","images/stimuli/spore_stims/simple_18_A_b.gif","left","","","","",""
"","null","html-keyboard-response","190","297227","0.0-38.0-0.1","SS1612925903745","","","null","","","<p><img src= images/blank.png width =""200"" height = ""200"" style = ""float:right""></p><p><img src=images/blank.png width =""800"" height = ""200""></p>","","","","","","","","","","","",""
"","589.0799999906449","sequential-stimulus-presentation","191","298696","0.0-38.0-1.1","SS1612925903745","trial","","40","800","1389.0799999906449","","","","","10","simple_similar","images/stimuli/spore_stims/simple_18_A_b.gif","left","","","","",""
"","null","html-keyboard-response","192","300001","0.0-38.0-0.2","SS1612925903745","","","null","","","<p><img src= images/blank.png width =""200"" height = ""200"" style = ""float:right""></p><p><img src=images/blank.png width =""800"" height = ""200""></p>","","","","","","","","","","","",""
"","213.41499999107327","sequential-stimulus-presentation","193","301092","0.0-38.0-1.2","SS1612925903745","trial","","40","800","1013.4149999910733","","","","","10","simple_similar","images/stimuli/spore_stims/simple_18_B_b.gif","middle","","","","",""
"","null","html-keyboard-response","194","302149","0.0-38.0-0.3","SS1612925903745","","","null","","","<p><img src= images/blank.png width =""200"" height = ""200"" style = ""float:right""></p><p><img src=images/blank.png width =""800"" height = ""200""></p>","","","","","","","","","","","",""
"","656.4650000073016","sequential-stimulus-presentation","195","303695","0.0-38.0-1.3","SS1612925903745","trial","","40","800","1456.4650000073016","","","","","10","simple_similar","images/stimuli/spore_stims/simple_18_A_b.gif","left","","","","",""
"","null","html-keyboard-response","196","304897","0.0-38.0-0.4","SS1612925903745","","","null","","","<p><img src= images/blank.png width =""200"" height = ""200"" style = ""float:right""></p><p><img src=images/blank.png width =""800"" height = ""200""></p>","","","","","","","","","","","",""
"","455.5350000009639","sequential-stimulus-presentation","197","306231","0.0-38.0-1.4","SS1612925903745","trial","","40","800","1255.535000000964","","","","","10","simple_similar","images/stimuli/spore_stims/simple_18_A_b.gif","left","","","","",""
"","null","html-keyboard-response","198","307219","0.0-38.0-0.5","SS1612925903745","","","null","","","<p><img src= images/blank.png width =""200"" height = ""200"" style = ""float:right""></p><p><img src=images/blank.png width =""800"" height = ""200""></p>","","","","","","","","","","","",""
"","391.3650000031339","sequential-stimulus-presentation","199","308464","0.0-38.0-1.5","SS1612925903745","trial","","40","800","1191.365000003134","","","","","10","simple_similar","images/stimuli/spore_stims/simple_18_A_b.gif","left","","","","",""
"","null","html-keyboard-response","200","309462","0.0-38.0-0.6","SS1612925903745","","","null","","","<p><img src= images/blank.png width =""200"" height = ""200"" style = ""float:right""></p><p><img src=images/blank.png width =""800"" height = ""200""></p>","","","","","","","","","","","",""
"","162.85500000230968","sequential-stimulus-presentation","201","310502","0.0-38.0-1.6","SS1612925903745","trial","","40","800","962.8550000023097","","","","","10","simple_similar","images/stimuli/spore_stims/simple_18_A_b.gif","left","","","","",""
"","null","html-keyboard-response","202","311407","0.0-38.0-0.7","SS1612925903745","","","null","","","<p><img src= images/blank.png width =""200"" height = ""200"" style = ""float:right""></p><p><img src=images/blank.png width =""800"" height = ""200""></p>","","","","","","","","","","","",""
"","103.19500000332482","sequential-stimulus-presentation","203","312437","0.0-38.0-1.7","SS1612925903745","trial","","40","800","903.1950000033248","","","","","10","simple_similar","images/stimuli/spore_stims/simple_18_A_b.gif","left","","","","",""
"","1651.9650000118418","html-keyboard-response","204","314172","0.0-39.0","SS1612925903745","pref_question","","51","","","<video width ='960' height = '540' style='padding-top:8%' autoplay muted><source src='images/stimuli/wall_pref.mp4' type='video/mp4'></video>","3","right","66%","10","","","","","","","",""
"","613.084999989951","sequential-stimulus-presentation","205","315667","0.0-40.0","SS1612925903745","pref_reveal","","40","800","1413.084999989951","","","","","10","","","","novel","","","",""
"","null","html-keyboard-response","206","316706","0.0-41.0-0.0","SS1612925903745","","","null","","","<p><img src= images/blank.png width =""200"" height = ""200"" style = ""float:right""></p><p><img src=images/blank.png width =""800"" height = ""200""></p>","","","","","","","","","","","",""
"","83.0300000088755","sequential-stimulus-presentation","207","317764","0.0-41.0-1.0","SS1612925903745","trial","","40","800","883.0300000088755","","","","","11","simple_dissimilar","images/stimuli/spore_stims/simple_11_A_a.gif","middle","","","","",""
"","null","html-keyboard-response","208","318995","0.0-41.0-0.1","SS1612925903745","","","null","","","<p><img src= images/blank.png width =""200"" height = ""200"" style = ""float:right""></p><p><img src=images/blank.png width =""800"" height = ""200""></p>","","","","","","","","","","","",""
"","225.18000000854954","sequential-stimulus-presentation","209","320087","0.0-41.0-1.1","SS1612925903745","trial","","40","800","1025.1800000085495","","","","","11","simple_dissimilar","images/stimuli/spore_stims/simple_11_A_a.gif","middle","","","","",""
"","null","html-keyboard-response","210","321089","0.0-41.0-0.2","SS1612925903745","","","null","","","<p><img src= images/blank.png width =""200"" height = ""200"" style = ""float:right""></p><p><img src=images/blank.png width =""800"" height = ""200""></p>","","","","","","","","","","","",""
"","118.88500000350177","sequential-stimulus-presentation","211","322140","0.0-41.0-1.2","SS1612925903745","trial","","40","800","918.8850000035018","","","","","11","simple_dissimilar","images/stimuli/spore_stims/simple_11_A_a.gif","middle","","","","",""
"","null","html-keyboard-response","212","323400","0.0-41.0-0.3","SS1612925903745","","","null","","","<p><img src= images/blank.png width =""200"" height = ""200"" style = ""float:right""></p><p><img src=images/blank.png width =""800"" height = ""200""></p>","","","","","","","","","","","",""
"","479.25999999279156","sequential-stimulus-presentation","213","324735","0.0-41.0-1.3","SS1612925903745","trial","","40","800","1279.2599999927916","","","","","11","simple_dissimilar","images/stimuli/spore_stims/simple_11_A_a.gif","middle","","","","",""
"","null","html-keyboard-response","214","325705","0.0-41.0-0.4","SS1612925903745","","","null","","","<p><img src= images/blank.png width =""200"" height = ""200"" style = ""float:right""></p><p><img src=images/blank.png width =""800"" height = ""200""></p>","","","","","","","","","","","",""
"","285.86500001256354","sequential-stimulus-presentation","215","326925","0.0-41.0-1.4","SS1612925903745","trial","","40","800","1085.8650000125635","","","","","11","simple_dissimilar","images/stimuli/spore_stims/simple_11_A_a.gif","middle","","","","",""
"","null","html-keyboard-response","216","328268","0.0-41.0-0.5","SS1612925903745","","","null","","","<p><img src= images/blank.png width =""200"" height = ""200"" style = ""float:right""></p><p><img src=images/blank.png width =""800"" height = ""200""></p>","","","","","","","","","","","",""
"","268.39000001200475","sequential-stimulus-presentation","217","329438","0.0-41.0-1.5","SS1612925903745","trial","","40","800","1068.3900000120047","","","","","11","simple_dissimilar","images/stimuli/spore_stims/simple_10_A_a.gif","right","","","","",""
"","null","html-keyboard-response","218","330482","0.0-41.0-0.6","SS1612925903745","","","null","","","<p><img src= images/blank.png width =""200"" height = ""200"" style = ""float:right""></p><p><img src=images/blank.png width =""800"" height = ""200""></p>","","","","","","","","","","","",""
"","638.9849999977741","sequential-stimulus-presentation","219","332015","0.0-41.0-1.6","SS1612925903745","trial","","40","800","1438.9849999977741","","","","","11","simple_dissimilar","images/stimuli/spore_stims/simple_11_A_a.gif","middle","","","","",""
"","null","html-keyboard-response","220","333300","0.0-41.0-0.7","SS1612925903745","","","null","","","<p><img src= images/blank.png width =""200"" height = ""200"" style = ""float:right""></p><p><img src=images/blank.png width =""800"" height = ""200""></p>","","","","","","","","","","","",""
"","717.9250000044703","sequential-stimulus-presentation","221","334887","0.0-41.0-1.7","SS1612925903745","trial","","40","800","1517.9250000044703","","","","","11","simple_dissimilar","images/stimuli/spore_stims/simple_11_A_a.gif","middle","","","","",""
"","1587.165000004461","html-keyboard-response","222","336541","0.0-42.0","SS1612925903745","pref_question","","49","","","<video width ='960' height = '540' style='padding-top:8%' autoplay muted><source src='images/stimuli/wall_pref.mp4' type='video/mp4'></video>","1","left","25%","11","","","","","","","",""
"","961.7349999898579","sequential-stimulus-presentation","223","338386","0.0-43.0","SS1612925903745","pref_reveal","","40","800","1761.734999989858","","","","","11","","","","novel","","","",""
"","null","html-keyboard-response","224","339747","0.0-44.0-0.0","SS1612925903745","","","null","","","<p><img src= images/blank.png width =""200"" height = ""200"" style = ""float:right""></p><p><img src=images/blank.png width =""800"" height = ""200""></p>","","","","","","","","","","","",""
"","629.7650000051362","sequential-stimulus-presentation","225","341281","0.0-44.0-1.0","SS1612925903745","trial","","40","800","1429.7650000051362","","","","","12","complex_dissimilar","images/stimuli/spore_stims/complex_15_B_a.gif","middle","","","","",""
"","null","html-keyboard-response","226","342209","0.0-44.0-0.1","SS1612925903745","","","null","","","<p><img src= images/blank.png width =""200"" height = ""200"" style = ""float:right""></p><p><img src=images/blank.png width =""800"" height = ""200""></p>","","","","","","","","","","","",""
"","73.60499999776948","sequential-stimulus-presentation","227","343213","0.0-44.0-1.1","SS1612925903745","trial","","40","800","873.6049999977695","","","","","12","complex_dissimilar","images/stimuli/spore_stims/complex_15_B_a.gif","middle","","","","",""
"","null","html-keyboard-response","228","344585","0.0-44.0-0.2","SS1612925903745","","","null","","","<p><img src= images/blank.png width =""200"" height = ""200"" style = ""float:right""></p><p><img src=images/blank.png width =""800"" height = ""200""></p>","","","","","","","","","","","",""
"","593.3450000011362","sequential-stimulus-presentation","229","346094","0.0-44.0-1.2","SS1612925903745","trial","","40","800","1393.3450000011362","","","","","12","complex_dissimilar","images/stimuli/spore_stims/complex_15_B_a.gif","middle","","","","",""
"","null","html-keyboard-response","230","347101","0.0-44.0-0.3","SS1612925903745","","","null","","","<p><img src= images/blank.png width =""200"" height = ""200"" style = ""float:right""></p><p><img src=images/blank.png width =""800"" height = ""200""></p>","","","","","","","","","","","",""
"","451.89500000560656","sequential-stimulus-presentation","231","348478","0.0-44.0-1.3","SS1612925903745","trial","","40","800","1251.8950000056066","","","","","12","complex_dissimilar","images/stimuli/spore_stims/complex_01_B_a.gif","right","","","","",""
"","null","html-keyboard-response","232","349424","0.0-44.0-0.4","SS1612925903745","","","null","","","<p><img src= images/blank.png width =""200"" height = ""200"" style = ""float:right""></p><p><img src=images/blank.png width =""800"" height = ""200""></p>","","","","","","","","","","","",""
"","399.4950000051176","sequential-stimulus-presentation","233","350731","0.0-44.0-1.4","SS1612925903745","trial","","40","800","1199.4950000051176","","","","","12","complex_dissimilar","images/stimuli/spore_stims/complex_15_B_a.gif","middle","","","","",""
"","null","html-keyboard-response","234","351924","0.0-44.0-0.5","SS1612925903745","","","null","","","<p><img src= images/blank.png width =""200"" height = ""200"" style = ""float:right""></p><p><img src=images/blank.png width =""800"" height = ""200""></p>","","","","","","","","","","","",""
"","862.3150000057649","sequential-stimulus-presentation","235","353685","0.0-44.0-1.5","SS1612925903745","trial","","40","800","1662.315000005765","","","","","12","complex_dissimilar","images/stimuli/spore_stims/complex_15_B_a.gif","middle","","","","",""
"","null","html-keyboard-response","236","354968","0.0-44.0-0.6","SS1612925903745","","","null","","","<p><img src= images/blank.png width =""200"" height = ""200"" style = ""float:right""></p><p><img src=images/blank.png width =""800"" height = ""200""></p>","","","","","","","","","","","",""
"","66.26999999571126","sequential-stimulus-presentation","237","355988","0.0-44.0-1.6","SS1612925903745","trial","","40","800","866.2699999957113","","","","","12","complex_dissimilar","images/stimuli/spore_stims/complex_15_B_a.gif","middle","","","","",""
"","null","html-keyboard-response","238","357077","0.0-44.0-0.7","SS1612925903745","","","null","","","<p><img src= images/blank.png width =""200"" height = ""200"" style = ""float:right""></p><p><img src=images/blank.png width =""800"" height = ""200""></p>","","","","","","","","","","","",""
"","413.88500000175554","sequential-stimulus-presentation","239","358384","0.0-44.0-1.7","SS1612925903745","trial","","40","800","1213.8850000017555","","","","","12","complex_dissimilar","images/stimuli/spore_stims/complex_15_B_a.gif","middle","","","","",""
"","3308.5250000003725","html-keyboard-response","240","361761","0.0-45.0","SS1612925903745","pref_question","","51","","","<video width ='960' height = '540' style='padding-top:8%' autoplay muted><source src='images/stimuli/wall_pref.mp4' type='video/mp4'></video>","3","right","66%","12","","","","","","","",""
"","401.96500001184177","sequential-stimulus-presentation","241","363055","0.0-46.0","SS1612925903745","pref_reveal","","40","800","1201.9650000118418","","","","","12","","","","deviant","","","",""
"","null","html-keyboard-response","242","364152","0.0-47.0-0.0","SS1612925903745","","","null","","","<p><img src= images/blank.png width =""200"" height = ""200"" style = ""float:right""></p><p><img src=images/blank.png width =""800"" height = ""200""></p>","","","","","","","","","","","",""
"","673.5100000078091","sequential-stimulus-presentation","243","365780","0.0-47.0-1.0","SS1612925903745","trial","","40","800","1473.5100000078091","","","","","13","simple_dissimilar","images/stimuli/spore_stims/simple_06_B_c.gif","right","","","","",""
"","null","html-keyboard-response","244","367037","0.0-47.0-0.1","SS1612925903745","","","null","","","<p><img src= images/blank.png width =""200"" height = ""200"" style = ""float:right""></p><p><img src=images/blank.png width =""800"" height = ""200""></p>","","","","","","","","","","","",""
"","707.7750000025844","sequential-stimulus-presentation","245","368651","0.0-47.0-1.1","SS1612925903745","trial","","40","800","1507.7750000025844","","","","","13","simple_dissimilar","images/stimuli/spore_stims/simple_06_B_c.gif","right","","","","",""
"","null","html-keyboard-response","246","370047","0.0-47.0-0.2","SS1612925903745","","","null","","","<p><img src= images/blank.png width =""200"" height = ""200"" style = ""float:right""></p><p><img src=images/blank.png width =""800"" height = ""200""></p>","","","","","","","","","","","",""
"","618.4250000078464","sequential-stimulus-presentation","247","371539","0.0-47.0-1.2","SS1612925903745","trial","","40","800","1418.4250000078464","","","","","13","simple_dissimilar","images/stimuli/spore_stims/simple_02_B_c.gif","middle","","","","",""
"","null","html-keyboard-response","248","372662","0.0-47.0-0.3","SS1612925903745","","","null","","","<p><img src= images/blank.png width =""200"" height = ""200"" style = ""float:right""></p><p><img src=images/blank.png width =""800"" height = ""200""></p>","","","","","","","","","","","",""
"","487.0450000016717","sequential-stimulus-presentation","249","374045","0.0-47.0-1.3","SS1612925903745","trial","","40","800","1287.0450000016717","","","","","13","simple_dissimilar","images/stimuli/spore_stims/simple_06_B_c.gif","right","","","","",""
"","null","html-keyboard-response","250","375166","0.0-47.0-0.4","SS1612925903745","","","null","","","<p><img src= images/blank.png width =""200"" height = ""200"" style = ""float:right""></p><p><img src=images/blank.png width =""800"" height = ""200""></p>","","","","","","","","","","","",""
"","149.27500000339933","sequential-stimulus-presentation","251","376237","0.0-47.0-1.4","SS1612925903745","trial","","40","800","949.2750000033993","","","","","13","simple_dissimilar","images/stimuli/spore_stims/simple_06_B_c.gif","right","","","","",""
"","null","html-keyboard-response","252","377236","0.0-47.0-0.5","SS1612925903745","","","null","","","<p><img src= images/blank.png width =""200"" height = ""200"" style = ""float:right""></p><p><img src=images/blank.png width =""800"" height = ""200""></p>","","","","","","","","","","","",""
"","433.30999999307096","sequential-stimulus-presentation","253","378623","0.0-47.0-1.5","SS1612925903745","trial","","40","800","1233.309999993071","","","","","13","simple_dissimilar","images/stimuli/spore_stims/simple_06_B_c.gif","right","","","","",""
"","null","html-keyboard-response","254","380021","0.0-47.0-0.6","SS1612925903745","","","null","","","<p><img src= images/blank.png width =""200"" height = ""200"" style = ""float:right""></p><p><img src=images/blank.png width =""800"" height = ""200""></p>","","","","","","","","","","","",""
"","782.1550000080606","sequential-stimulus-presentation","255","381777","0.0-47.0-1.6","SS1612925903745","trial","","40","800","1582.1550000080606","","","","","13","simple_dissimilar","images/stimuli/spore_stims/simple_06_B_c.gif","right","","","","",""
"","null","html-keyboard-response","256","383082","0.0-47.0-0.7","SS1612925903745","","","null","","","<p><img src= images/blank.png width =""200"" height = ""200"" style = ""float:right""></p><p><img src=images/blank.png width =""800"" height = ""200""></p>","","","","","","","","","","","",""
"","753.4000000014203","sequential-stimulus-presentation","257","384756","0.0-47.0-1.7","SS1612925903745","trial","","40","800","1553.4000000014203","","","","","13","simple_dissimilar","images/stimuli/spore_stims/simple_06_B_c.gif","right","","","","",""
"","4023.939999999129","html-keyboard-response","258","388866","0.0-48.0","SS1612925903745","pref_question","","49","","","<video width ='960' height = '540' style='padding-top:8%' autoplay muted><source src='images/stimuli/wall_pref.mp4' type='video/mp4'></video>","1","left","25%","13","","","","","","","",""
"","1567.6649999950314","sequential-stimulus-presentation","259","391368","0.0-49.0","SS1612925903745","pref_reveal","","40","800","2367.6649999950314","","","","","13","","","","novel","","","",""
"","null","html-keyboard-response","260","392739","0.0-50.0-0.0","SS1612925903745","","","null","","","<p><img src= images/blank.png width =""200"" height = ""200"" style = ""float:right""></p><p><img src=images/blank.png width =""800"" height = ""200""></p>","","","","","","","","","","","",""
"","789.1300000046613","sequential-stimulus-presentation","261","394471","0.0-50.0-1.0","SS1612925903745","trial","","40","800","1589.1300000046613","","","","","14","complex_similar","images/stimuli/spore_stims/complex_07_A_d.gif","right","","","","",""
"","null","html-keyboard-response","262","395527","0.0-50.0-0.1","SS1612925903745","","","null","","","<p><img src= images/blank.png width =""200"" height = ""200"" style = ""float:right""></p><p><img src=images/blank.png width =""800"" height = ""200""></p>","","","","","","","","","","","",""
"","857.319999995525","sequential-stimulus-presentation","263","397323","0.0-50.0-1.1","SS1612925903745","trial","","40","800","1657.319999995525","","","","","14","complex_similar","images/stimuli/spore_stims/complex_07_A_d.gif","right","","","","",""
"","null","html-keyboard-response","264","398616","0.0-50.0-0.2","SS1612925903745","","","null","","","<p><img src= images/blank.png width =""200"" height = ""200"" style = ""float:right""></p><p><img src=images/blank.png width =""800"" height = ""200""></p>","","","","","","","","","","","",""
"","2597.1649999992223","sequential-stimulus-presentation","265","402092","0.0-50.0-1.2","SS1612925903745","trial","","40","800","3397.1649999992223","","","","","14","complex_similar","images/stimuli/spore_stims/complex_07_B_d.gif","middle","","","","",""
"","null","html-keyboard-response","266","403346","0.0-50.0-0.3","SS1612925903745","","","null","","","<p><img src= images/blank.png width =""200"" height = ""200"" style = ""float:right""></p><p><img src=images/blank.png width =""800"" height = ""200""></p>","","","","","","","","","","","",""
"","1263.554999997723","sequential-stimulus-presentation","267","405476","0.0-50.0-1.3","SS1612925903745","trial","","40","800","2063.554999997723","","","","","14","complex_similar","images/stimuli/spore_stims/complex_07_A_d.gif","right","","","","",""
"","null","html-keyboard-response","268","406824","0.0-50.0-0.4","SS1612925903745","","","null","","","<p><img src= images/blank.png width =""200"" height = ""200"" style = ""float:right""></p><p><img src=images/blank.png width =""800"" height = ""200""></p>","","","","","","","","","","","",""
"","1418.0150000029244","sequential-stimulus-presentation","269","409138","0.0-50.0-1.4","SS1612925903745","trial","","40","800","2218.0150000029244","","","","","14","complex_similar","images/stimuli/spore_stims/complex_07_A_d.gif","right","","","","",""
"","null","html-keyboard-response","270","410271","0.0-50.0-0.5","SS1612925903745","","","null","","","<p><img src= images/blank.png width =""200"" height = ""200"" style = ""float:right""></p><p><img src=images/blank.png width =""800"" height = ""200""></p>","","","","","","","","","","","",""
"","398.6049999948591","sequential-stimulus-presentation","271","411642","0.0-50.0-1.5","SS1612925903745","trial","","40","800","1198.604999994859","","","","","14","complex_similar","images/stimuli/spore_stims/complex_07_A_d.gif","right","","","","",""
"","null","html-keyboard-response","272","412912","0.0-50.0-0.6","SS1612925903745","","","null","","","<p><img src= images/blank.png width =""200"" height = ""200"" style = ""float:right""></p><p><img src=images/blank.png width =""800"" height = ""200""></p>","","","","","","","","","","","",""
"","297.3599999968428","sequential-stimulus-presentation","273","414108","0.0-50.0-1.6","SS1612925903745","trial","","40","800","1097.3599999968428","","","","","14","complex_similar","images/stimuli/spore_stims/complex_07_A_d.gif","right","","","","",""
"","null","html-keyboard-response","274","415111","0.0-50.0-0.7","SS1612925903745","","","null","","","<p><img src= images/blank.png width =""200"" height = ""200"" style = ""float:right""></p><p><img src=images/blank.png width =""800"" height = ""200""></p>","","","","","","","","","","","",""
"","334.09999999275897","sequential-stimulus-presentation","275","416405","0.0-50.0-1.7","SS1612925903745","trial","","40","800","1134.099999992759","","","","","14","complex_similar","images/stimuli/spore_stims/complex_07_A_d.gif","right","","","","",""
"","864.3299999966985","html-keyboard-response","276","417339","0.0-51.0","SS1612925903745","pref_question","","49","","","<video width ='960' height = '540' style='padding-top:8%' autoplay muted><source src='images/stimuli/wall_pref.mp4' type='video/mp4'></video>","1","left","25%","14","","","","","","","",""
"","591.3700000091922","sequential-stimulus-presentation","277","418825","0.0-52.0","SS1612925903745","pref_reveal","","40","800","1391.3700000091922","","","","","14","","","","novel","","","",""
"","null","html-keyboard-response","278","420178","0.0-53.0-0.0","SS1612925903745","","","null","","","<p><img src= images/blank.png width =""200"" height = ""200"" style = ""float:right""></p><p><img src=images/blank.png width =""800"" height = ""200""></p>","","","","","","","","","","","",""
"","390.6449999922188","sequential-stimulus-presentation","279","421454","0.0-53.0-1.0","SS1612925903745","trial","","40","800","1190.6449999922188","","","","","15","complex_dissimilar","images/stimuli/spore_stims/complex_09_A_a.gif","right","","","","",""
"","null","html-keyboard-response","280","422512","0.0-53.0-0.1","SS1612925903745","","","null","","","<p><img src= images/blank.png width =""200"" height = ""200"" style = ""float:right""></p><p><img src=images/blank.png width =""800"" height = ""200""></p>","","","","","","","","","","","",""
"","349.99499999685213","sequential-stimulus-presentation","281","423760","0.0-53.0-1.1","SS1612925903745","trial","","40","800","1149.9949999968521","","","","","15","complex_dissimilar","images/stimuli/spore_stims/complex_09_A_a.gif","right","","","","",""
"","null","html-keyboard-response","282","424806","0.0-53.0-0.2","SS1612925903745","","","null","","","<p><img src= images/blank.png width =""200"" height = ""200"" style = ""float:right""></p><p><img src=images/blank.png width =""800"" height = ""200""></p>","","","","","","","","","","","",""
"","10.874999992665835","sequential-stimulus-presentation","283","425688","0.0-53.0-1.2","SS1612925903745","trial","","40","800","810.8749999926658","","","","","15","complex_dissimilar","images/stimuli/spore_stims/complex_09_A_a.gif","right","","","","",""
"","null","html-keyboard-response","284","426567","0.0-53.0-0.3","SS1612925903745","","","null","","","<p><img src= images/blank.png width =""200"" height = ""200"" style = ""float:right""></p><p><img src=images/blank.png width =""800"" height = ""200""></p>","","","","","","","","","","","",""
"","330.85499999288004","sequential-stimulus-presentation","285","427763","0.0-53.0-1.3","SS1612925903745","trial","","40","800","1130.85499999288","","","","","15","complex_dissimilar","images/stimuli/spore_stims/complex_09_A_a.gif","right","","","","",""
"","null","html-keyboard-response","286","429029","0.0-53.0-0.4","SS1612925903745","","","null","","","<p><img src= images/blank.png width =""200"" height = ""200"" style = ""float:right""></p><p><img src=images/blank.png width =""800"" height = ""200""></p>","","","","","","","","","","","",""
"","404.3099999980768","sequential-stimulus-presentation","287","430346","0.0-53.0-1.4","SS1612925903745","trial","","40","800","1204.3099999980768","","","","","15","complex_dissimilar","images/stimuli/spore_stims/complex_09_A_a.gif","right","","","","",""
"","null","html-keyboard-response","288","431553","0.0-53.0-0.5","SS1612925903745","","","null","","","<p><img src= images/blank.png width =""200"" height = ""200"" style = ""float:right""></p><p><img src=images/blank.png width =""800"" height = ""200""></p>","","","","","","","","","","","",""
"","1085.124999997788","sequential-stimulus-presentation","289","433566","0.0-53.0-1.5","SS1612925903745","trial","","40","800","1885.124999997788","","","","","15","complex_dissimilar","images/stimuli/spore_stims/complex_03_B_d.gif","left","","","","",""
"","null","html-keyboard-response","290","434595","0.0-53.0-0.6","SS1612925903745","","","null","","","<p><img src= images/blank.png width =""200"" height = ""200"" style = ""float:right""></p><p><img src=images/blank.png width =""800"" height = ""200""></p>","","","","","","","","","","","",""
"","873.715000008815","sequential-stimulus-presentation","291","436388","0.0-53.0-1.6","SS1612925903745","trial","","40","800","1673.715000008815","","","","","15","complex_dissimilar","images/stimuli/spore_stims/complex_09_A_a.gif","right","","","","",""
"","null","html-keyboard-response","292","437368","0.0-53.0-0.7","SS1612925903745","","","null","","","<p><img src= images/blank.png width =""200"" height = ""200"" style = ""float:right""></p><p><img src=images/blank.png width =""800"" height = ""200""></p>","","","","","","","","","","","",""
"","730.7900000014342","sequential-stimulus-presentation","293","438991","0.0-53.0-1.7","SS1612925903745","trial","","40","800","1530.7900000014342","","","","","15","complex_dissimilar","images/stimuli/spore_stims/complex_09_A_a.gif","right","","","","",""
"","3317.620000001625","html-keyboard-response","294","442381","0.0-54.0","SS1612925903745","pref_question","","50","","","<video width ='960' height = '540' style='padding-top:8%' autoplay muted><source src='images/stimuli/wall_pref.mp4' type='video/mp4'></video>","2","middle","45%","15","","","","","","","",""
"","74.65000000956934","sequential-stimulus-presentation","295","443355","0.0-55.0","SS1612925903745","pref_reveal","","40","800","874.6500000095693","","","","","15","","","","novel","","","",""
"","null","html-keyboard-response","296","444364","0.0-56.0-0.0","SS1612925903745","","","null","","","<p><img src= images/blank.png width =""200"" height = ""200"" style = ""float:right""></p><p><img src=images/blank.png width =""800"" height = ""200""></p>","","","","","","","","","","","",""
"","662.1650000015507","sequential-stimulus-presentation","297","445935","0.0-56.0-1.0","SS1612925903745","trial","","40","800","1462.1650000015507","","","","","16","complex_similar","images/stimuli/spore_stims/complex_17_A_d.gif","left","","","","",""
"","null","html-keyboard-response","298","447280","0.0-56.0-0.1","SS1612925903745","","","null","","","<p><img src= images/blank.png width =""200"" height = ""200"" style = ""float:right""></p><p><img src=images/blank.png width =""800"" height = ""200""></p>","","","","","","","","","","","",""
"","895.2350000035949","sequential-stimulus-presentation","299","449133","0.0-56.0-1.1","SS1612925903745","trial","","40","800","1695.235000003595","","","","","16","complex_similar","images/stimuli/spore_stims/complex_17_A_d.gif","left","","","","",""
"","null","html-keyboard-response","300","450292","0.0-56.0-0.2","SS1612925903745","","","null","","","<p><img src= images/blank.png width =""200"" height = ""200"" style = ""float:right""></p><p><img src=images/blank.png width =""800"" height = ""200""></p>","","","","","","","","","","","",""
"","833.2699999882607","sequential-stimulus-presentation","301","452021","0.0-56.0-1.2","SS1612925903745","trial","","40","800","1633.2699999882607","","","","","16","complex_similar","images/stimuli/spore_stims/complex_17_A_d.gif","left","","","","",""
"","null","html-keyboard-response","302","453460","0.0-56.0-0.3","SS1612925903745","","","null","","","<p><img src= images/blank.png width =""200"" height = ""200"" style = ""float:right""></p><p><img src=images/blank.png width =""800"" height = ""200""></p>","","","","","","","","","","","",""
"","565.3800000000047","sequential-stimulus-presentation","303","454963","0.0-56.0-1.3","SS1612925903745","trial","","40","800","1365.3800000000047","","","","","16","complex_similar","images/stimuli/spore_stims/complex_17_A_d.gif","left","","","","",""
"","null","html-keyboard-response","304","456377","0.0-56.0-0.4","SS1612925903745","","","null","","","<p><img src= images/blank.png width =""200"" height = ""200"" style = ""float:right""></p><p><img src=images/blank.png width =""800"" height = ""200""></p>","","","","","","","","","","","",""
"","1226.024999996298","sequential-stimulus-presentation","305","458525","0.0-56.0-1.4","SS1612925903745","trial","","40","800","2026.024999996298","","","","","16","complex_similar","images/stimuli/spore_stims/complex_17_A_d.gif","left","","","","",""
"","null","html-keyboard-response","306","459817","0.0-56.0-0.5","SS1612925903745","","","null","","","<p><img src= images/blank.png width =""200"" height = ""200"" style = ""float:right""></p><p><img src=images/blank.png width =""800"" height = ""200""></p>","","","","","","","","","","","",""
"","25.509999992209487","sequential-stimulus-presentation","307","460746","0.0-56.0-1.5","SS1612925903745","trial","","40","800","825.5099999922095","","","","","16","complex_similar","images/stimuli/spore_stims/complex_17_A_d.gif","left","","","","",""
"","null","html-keyboard-response","308","462096","0.0-56.0-0.6","SS1612925903745","","","null","","","<p><img src= images/blank.png width =""200"" height = ""200"" style = ""float:right""></p><p><img src=images/blank.png width =""800"" height = ""200""></p>","","","","","","","","","","","",""
"","618.8450000045123","sequential-stimulus-presentation","309","463737","0.0-56.0-1.6","SS1612925903745","trial","","40","800","1418.8450000045123","","","","","16","complex_similar","images/stimuli/spore_stims/complex_17_A_d.gif","left","","","","",""
"","null","html-keyboard-response","310","464678","0.0-56.0-0.7","SS1612925903745","","","null","","","<p><img src= images/blank.png width =""200"" height = ""200"" style = ""float:right""></p><p><img src=images/blank.png width =""800"" height = ""200""></p>","","","","","","","","","","","",""
"","109.74499999429099","sequential-stimulus-presentation","311","465729","0.0-56.0-1.7","SS1612925903745","trial","","40","800","909.744999994291","","","","","16","complex_similar","images/stimuli/spore_stims/complex_17_B_d.gif","right","","","","",""
"","776.4049999968847","html-keyboard-response","312","466581","0.0-57.0","SS1612925903745","pref_question","","49","","","<video width ='960' height = '540' style='padding-top:8%' autoplay muted><source src='images/stimuli/wall_pref.mp4' type='video/mp4'></video>","1","left","25%","16","","","","","","","",""
"","730.5599999963306","sequential-stimulus-presentation","313","468238","0.0-58.0","SS1612925903745","pref_reveal","","40","800","1530.5599999963306","","","","","16","","","","background","","","",""
"","null","html-keyboard-response","314","469674","0.0-59.0-0.0","SS1612925903745","","","null","","","<p><img src= images/blank.png width =""200"" height = ""200"" style = ""float:right""></p><p><img src=images/blank.png width =""800"" height = ""200""></p>","","","","","","","","","","","",""
"","566.8500000028871","sequential-stimulus-presentation","315","471134","0.0-59.0-1.0","SS1612925903745","trial","","40","800","1366.850000002887","","","","","17","simple_dissimilar","images/stimuli/spore_stims/simple_04_B_c.gif","middle","","","","",""
"","null","html-keyboard-response","316","472150","0.0-59.0-0.1","SS1612925903745","","","null","","","<p><img src= images/blank.png width =""200"" height = ""200"" style = ""float:right""></p><p><img src=images/blank.png width =""800"" height = ""200""></p>","","","","","","","","","","","",""
"","357.5200000050245","sequential-stimulus-presentation","317","473441","0.0-59.0-1.1","SS1612925903745","trial","","40","800","1157.5200000050245","","","","","17","simple_dissimilar","images/stimuli/spore_stims/simple_04_B_c.gif","middle","","","","",""
"","null","html-keyboard-response","318","474623","0.0-59.0-0.2","SS1612925903745","","","null","","","<p><img src= images/blank.png width =""200"" height = ""200"" style = ""float:right""></p><p><img src=images/blank.png width =""800"" height = ""200""></p>","","","","","","","","","","","",""
"","657.3750000097789","sequential-stimulus-presentation","319","476237","0.0-59.0-1.2","SS1612925903745","trial","","40","800","1457.375000009779","","","","","17","simple_dissimilar","images/stimuli/spore_stims/simple_04_B_c.gif","middle","","","","",""
"","null","html-keyboard-response","320","477580","0.0-59.0-0.3","SS1612925903745","","","null","","","<p><img src= images/blank.png width =""200"" height = ""200"" style = ""float:right""></p><p><img src=images/blank.png width =""800"" height = ""200""></p>","","","","","","","","","","","",""
"","1278.2250000018394","sequential-stimulus-presentation","321","479802","0.0-59.0-1.3","SS1612925903745","trial","","40","800","2078.2250000018394","","","","","17","simple_dissimilar","images/stimuli/spore_stims/simple_16_A_a.gif","right","","","","",""
"","null","html-keyboard-response","322","481037","0.0-59.0-0.4","SS1612925903745","","","null","","","<p><img src= images/blank.png width =""200"" height = ""200"" style = ""float:right""></p><p><img src=images/blank.png width =""800"" height = ""200""></p>","","","","","","","","","","","",""
"","177.45499999728054","sequential-stimulus-presentation","323","482214","0.0-59.0-1.4","SS1612925903745","trial","","40","800","977.4549999972805","","","","","17","simple_dissimilar","images/stimuli/spore_stims/simple_04_B_c.gif","middle","","","","",""
"","null","html-keyboard-response","324","483578","0.0-59.0-0.5","SS1612925903745","","","null","","","<p><img src= images/blank.png width =""200"" height = ""200"" style = ""float:right""></p><p><img src=images/blank.png width =""800"" height = ""200""></p>","","","","","","","","","","","",""
"","3758.0650000018068","sequential-stimulus-presentation","325","488245","0.0-59.0-1.5","SS1612925903745","trial","","40","800","4558.065000001807","","","","","17","simple_dissimilar","images/stimuli/spore_stims/simple_04_B_c.gif","middle","","","","",""
"","null","html-keyboard-response","326","489659","0.0-59.0-0.6","SS1612925903745","","","null","","","<p><img src= images/blank.png width =""200"" height = ""200"" style = ""float:right""></p><p><img src=images/blank.png width =""800"" height = ""200""></p>","","","","","","","","","","","",""
"","539.4349999987753","sequential-stimulus-presentation","327","491157","0.0-59.0-1.6","SS1612925903745","trial","","40","800","1339.4349999987753","","","","","17","simple_dissimilar","images/stimuli/spore_stims/simple_04_B_c.gif","middle","","","","",""
"","null","html-keyboard-response","328","492495","0.0-59.0-0.7","SS1612925903745","","","null","","","<p><img src= images/blank.png width =""200"" height = ""200"" style = ""float:right""></p><p><img src=images/blank.png width =""800"" height = ""200""></p>","","","","","","","","","","","",""
"","726.31499999261","sequential-stimulus-presentation","329","494142","0.0-59.0-1.7","SS1612925903745","trial","","40","800","1526.31499999261","","","","","17","simple_dissimilar","images/stimuli/spore_stims/simple_04_B_c.gif","middle","","","","",""
"","1118.400000006659","html-keyboard-response","330","495346","0.0-60.0","SS1612925903745","pref_question","","49","","","<video width ='960' height = '540' style='padding-top:8%' autoplay muted><source src='images/stimuli/wall_pref.mp4' type='video/mp4'></video>","1","left","25%","17","","","","","","","",""
"","893.8699999998789","sequential-stimulus-presentation","331","497116","0.0-61.0","SS1612925903745","pref_reveal","","40","800","1693.869999999879","","","","","17","","","","novel","","","",""
"","null","html-keyboard-response","332","498233","0.0-62.0-0.0","SS1612925903745","","","null","","","<p><img src= images/blank.png width =""200"" height = ""200"" style = ""float:right""></p><p><img src=images/blank.png width =""800"" height = ""200""></p>","","","","","","","","","","","",""
"","444.04500001110137","sequential-stimulus-presentation","333","499583","0.0-62.0-1.0","SS1612925903745","trial","","40","800","1244.0450000111014","","","","","18","complex_similar","images/stimuli/spore_stims/complex_16_A_c.gif","left","","","","",""
"","null","html-keyboard-response","334","500742","0.0-62.0-0.1","SS1612925903745","","","null","","","<p><img src= images/blank.png width =""200"" height = ""200"" style = ""float:right""></p><p><img src=images/blank.png width =""800"" height = ""200""></p>","","","","","","","","","","","",""
"","696.4950000110548","sequential-stimulus-presentation","335","502363","0.0-62.0-1.1","SS1612925903745","trial","","40","800","1496.4950000110548","","","","","18","complex_similar","images/stimuli/spore_stims/complex_16_A_c.gif","left","","","","",""
"","null","html-keyboard-response","336","503321","0.0-62.0-0.2","SS1612925903745","","","null","","","<p><img src= images/blank.png width =""200"" height = ""200"" style = ""float:right""></p><p><img src=images/blank.png width =""800"" height = ""200""></p>","","","","","","","","","","","",""
"","105.43999999936204","sequential-stimulus-presentation","337","504309","0.0-62.0-1.2","SS1612925903745","trial","","40","800","905.439999999362","","","","","18","complex_similar","images/stimuli/spore_stims/complex_16_A_c.gif","left","","","","",""
"","null","html-keyboard-response","338","505598","0.0-62.0-0.3","SS1612925903745","","","null","","","<p><img src= images/blank.png width =""200"" height = ""200"" style = ""float:right""></p><p><img src=images/blank.png width =""800"" height = ""200""></p>","","","","","","","","","","","",""
"","1191.2499999889405","sequential-stimulus-presentation","339","507690","0.0-62.0-1.3","SS1612925903745","trial","","40","800","1991.2499999889405","","","","","18","complex_similar","images/stimuli/spore_stims/complex_16_B_c.gif","middle","","","","",""
"","null","html-keyboard-response","340","508644","0.0-62.0-0.4","SS1612925903745","","","null","","","<p><img src= images/blank.png width =""200"" height = ""200"" style = ""float:right""></p><p><img src=images/blank.png width =""800"" height = ""200""></p>","","","","","","","","","","","",""
"","4031.7999999970198","sequential-stimulus-presentation","341","513652","0.0-62.0-1.4","SS1612925903745","trial","","40","800","4831.79999999702","","","","","18","complex_similar","images/stimuli/spore_stims/complex_16_A_c.gif","left","","","","",""
"","null","html-keyboard-response","342","514807","0.0-62.0-0.5","SS1612925903745","","","null","","","<p><img src= images/blank.png width =""200"" height = ""200"" style = ""float:right""></p><p><img src=images/blank.png width =""800"" height = ""200""></p>","","","","","","","","","","","",""
"","40.16000000410713","sequential-stimulus-presentation","343","515856","0.0-62.0-1.5","SS1612925903745","trial","","40","800","840.1600000041071","","","","","18","complex_similar","images/stimuli/spore_stims/complex_16_A_c.gif","left","","","","",""
"","null","html-keyboard-response","344","516789","0.0-62.0-0.6","SS1612925903745","","","null","","","<p><img src= images/blank.png width =""200"" height = ""200"" style = ""float:right""></p><p><img src=images/blank.png width =""800"" height = ""200""></p>","","","","","","","","","","","",""
"","458.46999999776017","sequential-stimulus-presentation","345","518164","0.0-62.0-1.6","SS1612925903745","trial","","40","800","1258.4699999977602","","","","","18","complex_similar","images/stimuli/spore_stims/complex_16_A_c.gif","left","","","","",""
"","null","html-keyboard-response","346","519183","0.0-62.0-0.7","SS1612925903745","","","null","","","<p><img src= images/blank.png width =""200"" height = ""200"" style = ""float:right""></p><p><img src=images/blank.png width =""800"" height = ""200""></p>","","","","","","","","","","","",""
"","543.4200000017881","sequential-stimulus-presentation","347","520633","0.0-62.0-1.7","SS1612925903745","trial","","40","800","1343.4200000017881","","","","","18","complex_similar","images/stimuli/spore_stims/complex_16_A_c.gif","left","","","","",""
"","3328.8549999997485","html-keyboard-response","348","524139","0.0-63.0","SS1612925903745","pref_question","","50","","","<video width ='960' height = '540' style='padding-top:8%' autoplay muted><source src='images/stimuli/wall_pref.mp4' type='video/mp4'></video>","2","middle","45%","18","","","","","","","",""
"","582.6400000078138","sequential-stimulus-presentation","349","525664","0.0-64.0","SS1612925903745","pref_reveal","","40","800","1382.6400000078138","","","","","18","","","","deviant","","","",""
"","null","html-keyboard-response","350","526902","0.0-65.0-0.0","SS1612925903745","","","null","","","<p><img src= images/blank.png width =""200"" height = ""200"" style = ""float:right""></p><p><img src=images/blank.png width =""800"" height = ""200""></p>","","","","","","","","","","","",""
"","1357.4999999982538","sequential-stimulus-presentation","351","529231","0.0-65.0-1.0","SS1612925903745","trial","","40","800","2157.4999999982538","","","","","19","complex_dissimilar","images/stimuli/spore_stims/complex_06_A_a.gif","middle","","","","",""
"","null","html-keyboard-response","352","530609","0.0-65.0-0.1","SS1612925903745","","","null","","","<p><img src= images/blank.png width =""200"" height = ""200"" style = ""float:right""></p><p><img src=images/blank.png width =""800"" height = ""200""></p>","","","","","","","","","","","",""
"","395.8400000119582","sequential-stimulus-presentation","353","532070","0.0-65.0-1.1","SS1612925903745","trial","","40","800","1195.8400000119582","","","","","19","complex_dissimilar","images/stimuli/spore_stims/complex_06_A_a.gif","middle","","","","",""
"","null","html-keyboard-response","354","533086","0.0-65.0-0.2","SS1612925903745","","","null","","","<p><img src= images/blank.png width =""200"" height = ""200"" style = ""float:right""></p><p><img src=images/blank.png width =""800"" height = ""200""></p>","","","","","","","","","","","",""
"","525.260000009439","sequential-stimulus-presentation","355","534523","0.0-65.0-1.2","SS1612925903745","trial","","40","800","1325.260000009439","","","","","19","complex_dissimilar","images/stimuli/spore_stims/complex_06_A_a.gif","middle","","","","",""
"","null","html-keyboard-response","356","535892","0.0-65.0-0.3","SS1612925903745","","","null","","","<p><img src= images/blank.png width =""200"" height = ""200"" style = ""float:right""></p><p><img src=images/blank.png width =""800"" height = ""200""></p>","","","","","","","","","","","",""
"","1211.1650000006193","sequential-stimulus-presentation","357","538193","0.0-65.0-1.3","SS1612925903745","trial","","40","800","2011.1650000006193","","","","","19","complex_dissimilar","images/stimuli/spore_stims/complex_06_A_a.gif","middle","","","","",""
"","null","html-keyboard-response","358","539186","0.0-65.0-0.4","SS1612925903745","","","null","","","<p><img src= images/blank.png width =""200"" height = ""200"" style = ""float:right""></p><p><img src=images/blank.png width =""800"" height = ""200""></p>","","","","","","","","","","","",""
"","1226.2849999970058","sequential-stimulus-presentation","359","541404","0.0-65.0-1.4","SS1612925903745","trial","","40","800","2026.2849999970058","","","","","19","complex_dissimilar","images/stimuli/spore_stims/complex_06_A_a.gif","middle","","","","",""
"","null","html-keyboard-response","360","542418","0.0-65.0-0.5","SS1612925903745","","","null","","","<p><img src= images/blank.png width =""200"" height = ""200"" style = ""float:right""></p><p><img src=images/blank.png width =""800"" height = ""200""></p>","","","","","","","","","","","",""
"","163.41999999713153","sequential-stimulus-presentation","361","543557","0.0-65.0-1.5","SS1612925903745","trial","","40","800","963.4199999971315","","","","","19","complex_dissimilar","images/stimuli/spore_stims/complex_06_A_a.gif","middle","","","","",""
"","null","html-keyboard-response","362","544616","0.0-65.0-0.6","SS1612925903745","","","null","","","<p><img src= images/blank.png width =""200"" height = ""200"" style = ""float:right""></p><p><img src=images/blank.png width =""800"" height = ""200""></p>","","","","","","","","","","","",""
"","125.57999999262393","sequential-stimulus-presentation","363","545647","0.0-65.0-1.6","SS1612925903745","trial","","40","800","925.5799999926239","","","","","19","complex_dissimilar","images/stimuli/spore_stims/complex_15_A_d.gif","right","","","","",""
"","null","html-keyboard-response","364","546776","0.0-65.0-0.7","SS1612925903745","","","null","","","<p><img src= images/blank.png width =""200"" height = ""200"" style = ""float:right""></p><p><img src=images/blank.png width =""800"" height = ""200""></p>","","","","","","","","","","","",""
