"view_history","rt","trial_type","trial_index","time_elapsed","internal_node_id","subject","stimulus_type","trial_stimulus","key_press","minimum_viewing_duration","trial_looking_time","stimulus","wall_pref","location","location_percent","block_number","block_type","stimulus_displayed","position_displayed","stim_type_selected","responses","question_order","stimulus_left","stimulus_right"
"[{""page_index"":0,""viewing_time"":8740.045000100508}]","8742.650000029244","instructions","0","8748","0.0-0.0","SS1612925841711","","","","","","","","","","","","","","","","","",""
"[{""page_index"":0,""viewing_time"":12608.280000044033},{""page_index"":1,""viewing_time"":7574.254999984987}]","20183.38499998208","instructions","1","30943","0.0-1.0","SS1612925841711","instructions","","","","","","","","","","","","","","","","",""
"","7286.859999992885","sequential-stimulus-presentation","2","39055","0.0-2.0","SS1612925841711","","","40","800","8086.859999992885","","","","","","","","","","","","",""
"","8310.820000013337","sequential-stimulus-presentation","3","48187","0.0-3.0","SS1612925841711","","","40","800","9110.820000013337","","","","","","","","","","","","",""
"[{""page_index"":0,""viewing_time"":6711.834999965504}]","6712.625000043772","instructions","4","54904","0.0-4.0","SS1612925841711","instructions","","","","","","","","","","","","","","","","",""
"","13677.479999954812","html-keyboard-response","5","68594","0.0-5.0","SS1612925841711","instructions","","50","","","<video width ='960' height = '540' autoplay muted><source src='images/stimuli/wall_pref.mp4' type='video/mp4'></video>","2","middle","45%","","","","","","","","",""
"","3707.4049999937415","sequential-stimulus-presentation","6","73146","0.0-6.0","SS1612925841711","pref_reveal","","40","800","4507.4049999937415","","","","","","","","","","","","",""
"[{""page_index"":0,""viewing_time"":14132.359999930486},{""page_index"":1,""viewing_time"":6088.5950000956655},{""page_index"":2,""viewing_time"":1727.7649999596179},{""page_index"":3,""viewing_time"":1594.0849999897182}]","23543.76000002958","instructions","7","96694","0.0-7.0","SS1612925841711","instructions","","","","","","","","","","","","","","","","",""
"","null","html-keyboard-response","8","97838","0.0-8.0-0.0","SS1612925841711","","","null","","","<p><img src= images/blank.png width =""200"" height = ""200"" style = ""float:right""></p><p><img src=images/blank.png width =""800"" height = ""200""></p>","","","","","","","","","","","",""
"","6079.825000022538","sequential-stimulus-presentation","9","104764","0.0-8.0-1.0","SS1612925841711","trial","","40","800","6879.825000022538","","","","","0","simple_dissimilar","images/stimuli/spore_stims/simple_03_A_d.gif","middle","","","","",""
"","null","html-keyboard-response","10","105691","0.0-8.0-0.1","SS1612925841711","","","null","","","<p><img src= images/blank.png width =""200"" height = ""200"" style = ""float:right""></p><p><img src=images/blank.png width =""800"" height = ""200""></p>","","","","","","","","","","","",""
"","6082.705000066198","sequential-stimulus-presentation","11","112619","0.0-8.0-1.1","SS1612925841711","trial","","40","800","6882.705000066198","","","","","0","simple_dissimilar","images/stimuli/spore_stims/simple_03_A_d.gif","middle","","","","",""
"","null","html-keyboard-response","12","113543","0.0-8.0-0.2","SS1612925841711","","","null","","","<p><img src= images/blank.png width =""200"" height = ""200"" style = ""float:right""></p><p><img src=images/blank.png width =""800"" height = ""200""></p>","","","","","","","","","","","",""
"","5471.744999988005","sequential-stimulus-presentation","13","119856","0.0-8.0-1.2","SS1612925841711","trial","","40","800","6271.744999988005","","","","","0","simple_dissimilar","images/stimuli/spore_stims/simple_06_A_c.gif","left","","","","",""
"","null","html-keyboard-response","14","120763","0.0-8.0-0.3","SS1612925841711","","","null","","","<p><img src= images/blank.png width =""200"" height = ""200"" style = ""float:right""></p><p><img src=images/blank.png width =""800"" height = ""200""></p>","","","","","","","","","","","",""
"","7645.565000013448","sequential-stimulus-presentation","15","129256","0.0-8.0-1.3","SS1612925841711","trial","","40","800","8445.565000013448","","","","","0","simple_dissimilar","images/stimuli/spore_stims/simple_03_A_d.gif","middle","","","","",""
"","null","html-keyboard-response","16","130170","0.0-8.0-0.4","SS1612925841711","","","null","","","<p><img src= images/blank.png width =""200"" height = ""200"" style = ""float:right""></p><p><img src=images/blank.png width =""800"" height = ""200""></p>","","","","","","","","","","","",""
"","6341.404999955557","sequential-stimulus-presentation","17","137345","0.0-8.0-1.4","SS1612925841711","trial","","40","800","7141.404999955557","","","","","0","simple_dissimilar","images/stimuli/spore_stims/simple_03_A_d.gif","middle","","","","",""
"","null","html-keyboard-response","18","138359","0.0-8.0-0.5","SS1612925841711","","","null","","","<p><img src= images/blank.png width =""200"" height = ""200"" style = ""float:right""></p><p><img src=images/blank.png width =""800"" height = ""200""></p>","","","","","","","","","","","",""
"","4518.975000013597","sequential-stimulus-presentation","19","143767","0.0-8.0-1.5","SS1612925841711","trial","","40","800","5318.975000013597","","","","","0","simple_dissimilar","images/stimuli/spore_stims/simple_03_A_d.gif","middle","","","","",""
"","null","html-keyboard-response","20","144855","0.0-8.0-0.6","SS1612925841711","","","null","","","<p><img src= images/blank.png width =""200"" height = ""200"" style = ""float:right""></p><p><img src=images/blank.png width =""800"" height = ""200""></p>","","","","","","","","","","","",""
"","6282.854999997653","sequential-stimulus-presentation","21","151985","0.0-8.0-1.6","SS1612925841711","trial","","40","800","7082.854999997653","","","","","0","simple_dissimilar","images/stimuli/spore_stims/simple_03_A_d.gif","middle","","","","",""
"","null","html-keyboard-response","22","152916","0.0-8.0-0.7","SS1612925841711","","","null","","","<p><img src= images/blank.png width =""200"" height = ""200"" style = ""float:right""></p><p><img src=images/blank.png width =""800"" height = ""200""></p>","","","","","","","","","","","",""
"","3719.0450000343844","sequential-stimulus-presentation","23","157459","0.0-8.0-1.7","SS1612925841711","trial","","40","800","4519.045000034384","","","","","0","simple_dissimilar","images/stimuli/spore_stims/simple_03_A_d.gif","middle","","","","",""
"","2412.1399999130517","html-keyboard-response","24","159879","0.0-9.0","SS1612925841711","pref_question","","49","","","<video width ='960' height = '540' style='padding-top:8%' autoplay muted><source src='images/stimuli/wall_pref.mp4' type='video/mp4'></video>","1","left","25%","0","","","","","","","",""
"","4988.879999960773","sequential-stimulus-presentation","25","165702","0.0-10.0","SS1612925841711","pref_reveal","","40","800","5788.879999960773","","","","","0","","","","deviant","","","",""
"","null","html-keyboard-response","26","166945","0.0-11.0-0.0","SS1612925841711","","","null","","","<p><img src= images/blank.png width =""200"" height = ""200"" style = ""float:right""></p><p><img src=images/blank.png width =""800"" height = ""200""></p>","","","","","","","","","","","",""
"","5976.340000052005","sequential-stimulus-presentation","27","173763","0.0-11.0-1.0","SS1612925841711","trial","","40","800","6776.340000052005","","","","","1","complex_similar","images/stimuli/spore_stims/complex_14_A_b.gif","right","","","","",""
"","null","html-keyboard-response","28","174906","0.0-11.0-0.1","SS1612925841711","","","null","","","<p><img src= images/blank.png width =""200"" height = ""200"" style = ""float:right""></p><p><img src=images/blank.png width =""800"" height = ""200""></p>","","","","","","","","","","","",""
"","3067.73999996949","sequential-stimulus-presentation","29","178820","0.0-11.0-1.1","SS1612925841711","trial","","40","800","3867.73999996949","","","","","1","complex_similar","images/stimuli/spore_stims/complex_14_A_b.gif","right","","","","",""
"","null","html-keyboard-response","30","179920","0.0-11.0-0.2","SS1612925841711","","","null","","","<p><img src= images/blank.png width =""200"" height = ""200"" style = ""float:right""></p><p><img src=images/blank.png width =""800"" height = ""200""></p>","","","","","","","","","","","",""
"","5252.375000040047","sequential-stimulus-presentation","31","186012","0.0-11.0-1.2","SS1612925841711","trial","","40","800","6052.375000040047","","","","","1","complex_similar","images/stimuli/spore_stims/complex_14_A_b.gif","right","","","","",""
"","null","html-keyboard-response","32","187100","0.0-11.0-0.3","SS1612925841711","","","null","","","<p><img src= images/blank.png width =""200"" height = ""200"" style = ""float:right""></p><p><img src=images/blank.png width =""800"" height = ""200""></p>","","","","","","","","","","","",""
"","2886.6350000025705","sequential-stimulus-presentation","33","190811","0.0-11.0-1.3","SS1612925841711","trial","","40","800","3686.6350000025705","","","","","1","complex_similar","images/stimuli/spore_stims/complex_14_A_b.gif","right","","","","",""
"","null","html-keyboard-response","34","191929","0.0-11.0-0.4","SS1612925841711","","","null","","","<p><img src= images/blank.png width =""200"" height = ""200"" style = ""float:right""></p><p><img src=images/blank.png width =""800"" height = ""200""></p>","","","","","","","","","","","",""
"","3938.829999999143","sequential-stimulus-presentation","35","196709","0.0-11.0-1.4","SS1612925841711","trial","","40","800","4738.829999999143","","","","","1","complex_similar","images/stimuli/spore_stims/complex_14_B_b.gif","left","","","","",""
"","null","html-keyboard-response","36","197770","0.0-11.0-0.5","SS1612925841711","","","null","","","<p><img src= images/blank.png width =""200"" height = ""200"" style = ""float:right""></p><p><img src=images/blank.png width =""800"" height = ""200""></p>","","","","","","","","","","","",""
"","1297.3549999296665","sequential-stimulus-presentation","37","199935","0.0-11.0-1.5","SS1612925841711","trial","","40","800","2097.3549999296665","","","","","1","complex_similar","images/stimuli/spore_stims/complex_14_A_b.gif","right","","","","",""
"","null","html-keyboard-response","38","201117","0.0-11.0-0.6","SS1612925841711","","","null","","","<p><img src= images/blank.png width =""200"" height = ""200"" style = ""float:right""></p><p><img src=images/blank.png width =""800"" height = ""200""></p>","","","","","","","","","","","",""
"","7505.490000010468","sequential-stimulus-presentation","39","209455","0.0-11.0-1.6","SS1612925841711","trial","","40","800","8305.490000010468","","","","","1","complex_similar","images/stimuli/spore_stims/complex_14_A_b.gif","right","","","","",""
"","null","html-keyboard-response","40","210600","0.0-11.0-0.7","SS1612925841711","","","null","","","<p><img src= images/blank.png width =""200"" height = ""200"" style = ""float:right""></p><p><img src=images/blank.png width =""800"" height = ""200""></p>","","","","","","","","","","","",""
"","2557.5400000670925","sequential-stimulus-presentation","41","214000","0.0-11.0-1.7","SS1612925841711","trial","","40","800","3357.5400000670925","","","","","1","complex_similar","images/stimuli/spore_stims/complex_14_A_b.gif","right","","","","",""
"","2871.1799999000505","html-keyboard-response","42","216894","0.0-12.0","SS1612925841711","pref_question","","50","","","<video width ='960' height = '540' style='padding-top:8%' autoplay muted><source src='images/stimuli/wall_pref.mp4' type='video/mp4'></video>","2","middle","45%","1","","","","","","","",""
"","4747.600000002421","sequential-stimulus-presentation","43","222469","0.0-13.0","SS1612925841711","pref_reveal","","40","800","5547.600000002421","","","","","1","","","","novel","","","",""
"","null","html-keyboard-response","44","223641","0.0-14.0-0.0","SS1612925841711","","","null","","","<p><img src= images/blank.png width =""200"" height = ""200"" style = ""float:right""></p><p><img src=images/blank.png width =""800"" height = ""200""></p>","","","","","","","","","","","",""
"","4187.165000010282","sequential-stimulus-presentation","45","228653","0.0-14.0-1.0","SS1612925841711","trial","","40","800","4987.165000010282","","","","","2","complex_dissimilar","images/stimuli/spore_stims/complex_12_A_c.gif","middle","","","","",""
"","null","html-keyboard-response","46","229762","0.0-14.0-0.1","SS1612925841711","","","null","","","<p><img src= images/blank.png width =""200"" height = ""200"" style = ""float:right""></p><p><img src=images/blank.png width =""800"" height = ""200""></p>","","","","","","","","","","","",""
"","6009.515000041574","sequential-stimulus-presentation","47","236617","0.0-14.0-1.1","SS1612925841711","trial","","40","800","6809.515000041574","","","","","2","complex_dissimilar","images/stimuli/spore_stims/complex_12_A_c.gif","middle","","","","",""
"","null","html-keyboard-response","48","237837","0.0-14.0-0.2","SS1612925841711","","","null","","","<p><img src= images/blank.png width =""200"" height = ""200"" style = ""float:right""></p><p><img src=images/blank.png width =""800"" height = ""200""></p>","","","","","","","","","","","",""
"","6276.799999992363","sequential-stimulus-presentation","49","244953","0.0-14.0-1.2","SS1612925841711","trial","","40","800","7076.799999992363","","","","","2","complex_dissimilar","images/stimuli/spore_stims/complex_12_A_c.gif","middle","","","","",""
"","null","html-keyboard-response","50","245788","0.0-14.0-0.3","SS1612925841711","","","null","","","<p><img src= images/blank.png width =""200"" height = ""200"" style = ""float:right""></p><p><img src=images/blank.png width =""800"" height = ""200""></p>","","","","","","","","","","","",""
"","3736.3899999763817","sequential-stimulus-presentation","51","250376","0.0-14.0-1.3","SS1612925841711","trial","","40","800","4536.389999976382","","","","","2","complex_dissimilar","images/stimuli/spore_stims/complex_12_A_c.gif","middle","","","","",""
"","null","html-keyboard-response","52","251646","0.0-14.0-0.4","SS1612925841711","","","null","","","<p><img src= images/blank.png width =""200"" height = ""200"" style = ""float:right""></p><p><img src=images/blank.png width =""800"" height = ""200""></p>","","","","","","","","","","","",""
"","2939.49000001885","sequential-stimulus-presentation","53","255429","0.0-14.0-1.4","SS1612925841711","trial","","40","800","3739.49000001885","","","","","2","complex_dissimilar","images/stimuli/spore_stims/complex_12_A_c.gif","middle","","","","",""
"","null","html-keyboard-response","54","256550","0.0-14.0-0.5","SS1612925841711","","","null","","","<p><img src= images/blank.png width =""200"" height = ""200"" style = ""float:right""></p><p><img src=images/blank.png width =""800"" height = ""200""></p>","","","","","","","","","","","",""
"","1927.670000004582","sequential-stimulus-presentation","55","259328","0.0-14.0-1.5","SS1612925841711","trial","","40","800","2727.670000004582","","","","","2","complex_dissimilar","images/stimuli/spore_stims/complex_12_A_c.gif","middle","","","","",""
"","null","html-keyboard-response","56","260389","0.0-14.0-0.6","SS1612925841711","","","null","","","<p><img src= images/blank.png width =""200"" height = ""200"" style = ""float:right""></p><p><img src=images/blank.png width =""800"" height = ""200""></p>","","","","","","","","","","","",""
"","888.9750000089407","sequential-stimulus-presentation","57","262106","0.0-14.0-1.6","SS1612925841711","trial","","40","800","1688.9750000089407","","","","","2","complex_dissimilar","images/stimuli/spore_stims/complex_12_A_c.gif","middle","","","","",""
"","null","html-keyboard-response","58","263151","0.0-14.0-0.7","SS1612925841711","","","null","","","<p><img src= images/blank.png width =""200"" height = ""200"" style = ""float:right""></p><p><img src=images/blank.png width =""800"" height = ""200""></p>","","","","","","","","","","","",""
"","3458.369999891147","sequential-stimulus-presentation","59","267496","0.0-14.0-1.7","SS1612925841711","trial","","40","800","4258.369999891147","","","","","2","complex_dissimilar","images/stimuli/spore_stims/complex_16_B_a.gif","left","","","","",""
"","4761.83500001207","html-keyboard-response","60","272288","0.0-15.0","SS1612925841711","pref_question","","51","","","<video width ='960' height = '540' style='padding-top:8%' autoplay muted><source src='images/stimuli/wall_pref.mp4' type='video/mp4'></video>","3","right","66%","2","","","","","","","",""
"","4549.1750000510365","sequential-stimulus-presentation","61","277656","0.0-16.0","SS1612925841711","pref_reveal","","40","800","5349.1750000510365","","","","","2","","","","novel","","","",""
"","null","html-keyboard-response","62","278975","0.0-17.0-0.0","SS1612925841711","","","null","","","<p><img src= images/blank.png width =""200"" height = ""200"" style = ""float:right""></p><p><img src=images/blank.png width =""800"" height = ""200""></p>","","","","","","","","","","","",""
"","3783.6799999931827","sequential-stimulus-presentation","63","283612","0.0-17.0-1.0","SS1612925841711","trial","","40","800","4583.679999993183","","","","","3","complex_similar","images/stimuli/spore_stims/complex_18_B_c.gif","middle","","","","",""
"","null","html-keyboard-response","64","284561","0.0-17.0-0.1","SS1612925841711","","","null","","","<p><img src= images/blank.png width =""200"" height = ""200"" style = ""float:right""></p><p><img src=images/blank.png width =""800"" height = ""200""></p>","","","","","","","","","","","",""
"","4090.5600000405684","sequential-stimulus-presentation","65","289472","0.0-17.0-1.1","SS1612925841711","trial","","40","800","4890.560000040568","","","","","3","complex_similar","images/stimuli/spore_stims/complex_18_B_c.gif","middle","","","","",""
"","null","html-keyboard-response","66","290337","0.0-17.0-0.2","SS1612925841711","","","null","","","<p><img src= images/blank.png width =""200"" height = ""200"" style = ""float:right""></p><p><img src=images/blank.png width =""800"" height = ""200""></p>","","","","","","","","","","","",""
"","1819.0999999642372","sequential-stimulus-presentation","67","292984","0.0-17.0-1.2","SS1612925841711","trial","","40","800","2619.099999964237","","","","","3","complex_similar","images/stimuli/spore_stims/complex_18_B_c.gif","middle","","","","",""
"","null","html-keyboard-response","68","294159","0.0-17.0-0.3","SS1612925841711","","","null","","","<p><img src= images/blank.png width =""200"" height = ""200"" style = ""float:right""></p><p><img src=images/blank.png width =""800"" height = ""200""></p>","","","","","","","","","","","",""
"","2830.0849999068305","sequential-stimulus-presentation","69","297880","0.0-17.0-1.3","SS1612925841711","trial","","40","800","3630.0849999068305","","","","","3","complex_similar","images/stimuli/spore_stims/complex_18_B_c.gif","middle","","","","",""
"","null","html-keyboard-response","70","299167","0.0-17.0-0.4","SS1612925841711","","","null","","","<p><img src= images/blank.png width =""200"" height = ""200"" style = ""float:right""></p><p><img src=images/blank.png width =""800"" height = ""200""></p>","","","","","","","","","","","",""
"","3063.5999999940395","sequential-stimulus-presentation","71","303058","0.0-17.0-1.4","SS1612925841711","trial","","40","800","3863.5999999940395","","","","","3","complex_similar","images/stimuli/spore_stims/complex_18_B_c.gif","middle","","","","",""
"","null","html-keyboard-response","72","304352","0.0-17.0-0.5","SS1612925841711","","","null","","","<p><img src= images/blank.png width =""200"" height = ""200"" style = ""float:right""></p><p><img src=images/blank.png width =""800"" height = ""200""></p>","","","","","","","","","","","",""
"","2739.8449999745935","sequential-stimulus-presentation","73","307938","0.0-17.0-1.5","SS1612925841711","trial","","40","800","3539.8449999745935","","","","","3","complex_similar","images/stimuli/spore_stims/complex_18_B_c.gif","middle","","","","",""
"","null","html-keyboard-response","74","309146","0.0-17.0-0.6","SS1612925841711","","","null","","","<p><img src= images/blank.png width =""200"" height = ""200"" style = ""float:right""></p><p><img src=images/blank.png width =""800"" height = ""200""></p>","","","","","","","","","","","",""
"","3735.0149999838322","sequential-stimulus-presentation","75","313741","0.0-17.0-1.6","SS1612925841711","trial","","40","800","4535.014999983832","","","","","3","complex_similar","images/stimuli/spore_stims/complex_18_A_c.gif","right","","","","",""
"","null","html-keyboard-response","76","314666","0.0-17.0-0.7","SS1612925841711","","","null","","","<p><img src= images/blank.png width =""200"" height = ""200"" style = ""float:right""></p><p><img src=images/blank.png width =""800"" height = ""200""></p>","","","","","","","","","","","",""
"","2893.3400000678375","sequential-stimulus-presentation","77","318395","0.0-17.0-1.7","SS1612925841711","trial","","40","800","3693.3400000678375","","","","","3","complex_similar","images/stimuli/spore_stims/complex_18_B_c.gif","middle","","","","",""
"","2790.55499995593","html-keyboard-response","78","321233","0.0-18.0","SS1612925841711","pref_question","","50","","","<video width ='960' height = '540' style='padding-top:8%' autoplay muted><source src='images/stimuli/wall_pref.mp4' type='video/mp4'></video>","2","middle","45%","3","","","","","","","",""
"","2928.535000071861","sequential-stimulus-presentation","79","324980","0.0-19.0","SS1612925841711","pref_reveal","","40","800","3728.535000071861","","","","","3","","","","background","","","",""
"","null","html-keyboard-response","80","326136","0.0-20.0-0.0","SS1612925841711","","","null","","","<p><img src= images/blank.png width =""200"" height = ""200"" style = ""float:right""></p><p><img src=images/blank.png width =""800"" height = ""200""></p>","","","","","","","","","","","",""
"","4570.310000097379","sequential-stimulus-presentation","81","331549","0.0-20.0-1.0","SS1612925841711","trial","","40","800","5370.310000097379","","","","","4","simple_similar","images/stimuli/spore_stims/simple_15_A_d.gif","right","","","","",""
"","null","html-keyboard-response","82","332605","0.0-20.0-0.1","SS1612925841711","","","null","","","<p><img src= images/blank.png width =""200"" height = ""200"" style = ""float:right""></p><p><img src=images/blank.png width =""800"" height = ""200""></p>","","","","","","","","","","","",""
"","12307.975000003353","sequential-stimulus-presentation","83","345741","0.0-20.0-1.1","SS1612925841711","trial","","40","800","13107.975000003353","","","","","4","simple_similar","images/stimuli/spore_stims/simple_15_A_d.gif","right","","","","",""
"","null","html-keyboard-response","84","346937","0.0-20.0-0.2","SS1612925841711","","","null","","","<p><img src= images/blank.png width =""200"" height = ""200"" style = ""float:right""></p><p><img src=images/blank.png width =""800"" height = ""200""></p>","","","","","","","","","","","",""
"","13616.40499997884","sequential-stimulus-presentation","85","361404","0.0-20.0-1.2","SS1612925841711","trial","","40","800","14416.40499997884","","","","","4","simple_similar","images/stimuli/spore_stims/simple_15_A_d.gif","right","","","","",""
"","null","html-keyboard-response","86","362300","0.0-20.0-0.3","SS1612925841711","","","null","","","<p><img src= images/blank.png width =""200"" height = ""200"" style = ""float:right""></p><p><img src=images/blank.png width =""800"" height = ""200""></p>","","","","","","","","","","","",""
"","1687.2850001091138","sequential-stimulus-presentation","87","364827","0.0-20.0-1.3","SS1612925841711","trial","","40","800","2487.2850001091138","","","","","4","simple_similar","images/stimuli/spore_stims/simple_15_A_d.gif","right","","","","",""
"","null","html-keyboard-response","88","365789","0.0-20.0-0.4","SS1612925841711","","","null","","","<p><img src= images/blank.png width =""200"" height = ""200"" style = ""float:right""></p><p><img src=images/blank.png width =""800"" height = ""200""></p>","","","","","","","","","","","",""
"","1812.1650000102818","sequential-stimulus-presentation","89","368458","0.0-20.0-1.4","SS1612925841711","trial","","40","800","2612.165000010282","","","","","4","simple_similar","images/stimuli/spore_stims/simple_15_A_d.gif","right","","","","",""
"","null","html-keyboard-response","90","369365","0.0-20.0-0.5","SS1612925841711","","","null","","","<p><img src= images/blank.png width =""200"" height = ""200"" style = ""float:right""></p><p><img src=images/blank.png width =""800"" height = ""200""></p>","","","","","","","","","","","",""
"","2808.5800000699237","sequential-stimulus-presentation","91","373002","0.0-20.0-1.5","SS1612925841711","trial","","40","800","3608.5800000699237","","","","","4","simple_similar","images/stimuli/spore_stims/simple_15_A_d.gif","right","","","","",""
"","null","html-keyboard-response","92","374276","0.0-20.0-0.6","SS1612925841711","","","null","","","<p><img src= images/blank.png width =""200"" height = ""200"" style = ""float:right""></p><p><img src=images/blank.png width =""800"" height = ""200""></p>","","","","","","","","","","","",""
"","2801.020000013523","sequential-stimulus-presentation","93","377917","0.0-20.0-1.6","SS1612925841711","trial","","40","800","3601.020000013523","","","","","4","simple_similar","images/stimuli/spore_stims/simple_15_B_d.gif","middle","","","","",""
"","null","html-keyboard-response","94","379088","0.0-20.0-0.7","SS1612925841711","","","null","","","<p><img src= images/blank.png width =""200"" height = ""200"" style = ""float:right""></p><p><img src=images/blank.png width =""800"" height = ""200""></p>","","","","","","","","","","","",""
"","3487.925000023097","sequential-stimulus-presentation","95","383424","0.0-20.0-1.7","SS1612925841711","trial","","40","800","4287.925000023097","","","","","4","simple_similar","images/stimuli/spore_stims/simple_15_A_d.gif","right","","","","",""
"","2186.604999937117","html-keyboard-response","96","385638","0.0-21.0","SS1612925841711","pref_question","","49","","","<video width ='960' height = '540' style='padding-top:8%' autoplay muted><source src='images/stimuli/wall_pref.mp4' type='video/mp4'></video>","1","left","25%","4","","","","","","","",""
"","4172.830000054091","sequential-stimulus-presentation","97","390667","0.0-22.0","SS1612925841711","pref_reveal","","40","800","4972.830000054091","","","","","4","","","","novel","","","",""
"","null","html-keyboard-response","98","391547","0.0-23.0-0.0","SS1612925841711","","","null","","","<p><img src= images/blank.png width =""200"" height = ""200"" style = ""float:right""></p><p><img src=images/blank.png width =""800"" height = ""200""></p>","","","","","","","","","","","",""
"","3314.0849999617785","sequential-stimulus-presentation","99","395704","0.0-23.0-1.0","SS1612925841711","trial","","40","800","4114.0849999617785","","","","","5","complex_dissimilar","images/stimuli/spore_stims/complex_20_B_c.gif","left","","","","",""
"","null","html-keyboard-response","100","396969","0.0-23.0-0.1","SS1612925841711","","","null","","","<p><img src= images/blank.png width =""200"" height = ""200"" style = ""float:right""></p><p><img src=images/blank.png width =""800"" height = ""200""></p>","","","","","","","","","","","",""
"","2882.0850000483915","sequential-stimulus-presentation","101","400676","0.0-23.0-1.1","SS1612925841711","trial","","40","800","3682.0850000483915","","","","","5","complex_dissimilar","images/stimuli/spore_stims/complex_20_B_c.gif","left","","","","",""
"","null","html-keyboard-response","102","401728","0.0-23.0-0.2","SS1612925841711","","","null","","","<p><img src= images/blank.png width =""200"" height = ""200"" style = ""float:right""></p><p><img src=images/blank.png width =""800"" height = ""200""></p>","","","","","","","","","","","",""
"","1207.9650000669062","sequential-stimulus-presentation","103","403797","0.0-23.0-1.2","SS1612925841711","trial","","40","800","2007.9650000669062","","","","","5","complex_dissimilar","images/stimuli/spore_stims/complex_20_B_c.gif","left","","","","",""
"","null","html-keyboard-response","104","405091","0.0-23.0-0.3","SS1612925841711","","","null","","","<p><img src= images/blank.png width =""200"" height = ""200"" style = ""float:right""></p><p><img src=images/blank.png width =""800"" height = ""200""></p>","","","","","","","","","","","",""
"","876.8450000789016","sequential-stimulus-presentation","105","406812","0.0-23.0-1.3","SS1612925841711","trial","","40","800","1676.8450000789016","","","","","5","complex_dissimilar","images/stimuli/spore_stims/complex_20_B_c.gif","left","","","","",""
"","null","html-keyboard-response","106","407674","0.0-23.0-0.4","SS1612925841711","","","null","","","<p><img src= images/blank.png width =""200"" height = ""200"" style = ""float:right""></p><p><img src=images/blank.png width =""800"" height = ""200""></p>","","","","","","","","","","","",""
"","907.3250000365078","sequential-stimulus-presentation","107","409422","0.0-23.0-1.4","SS1612925841711","trial","","40","800","1707.3250000365078","","","","","5","complex_dissimilar","images/stimuli/spore_stims/complex_20_B_c.gif","left","","","","",""
"","null","html-keyboard-response","108","410726","0.0-23.0-0.5","SS1612925841711","","","null","","","<p><img src= images/blank.png width =""200"" height = ""200"" style = ""float:right""></p><p><img src=images/blank.png width =""800"" height = ""200""></p>","","","","","","","","","","","",""
"","3846.739999949932","sequential-stimulus-presentation","109","415412","0.0-23.0-1.5","SS1612925841711","trial","","40","800","4646.739999949932","","","","","5","complex_dissimilar","images/stimuli/spore_stims/complex_05_B_b.gif","middle","","","","",""
"","null","html-keyboard-response","110","416605","0.0-23.0-0.6","SS1612925841711","","","null","","","<p><img src= images/blank.png width =""200"" height = ""200"" style = ""float:right""></p><p><img src=images/blank.png width =""800"" height = ""200""></p>","","","","","","","","","","","",""
"","3353.304999996908","sequential-stimulus-presentation","111","420814","0.0-23.0-1.6","SS1612925841711","trial","","40","800","4153.304999996908","","","","","5","complex_dissimilar","images/stimuli/spore_stims/complex_20_B_c.gif","left","","","","",""
"","null","html-keyboard-response","112","421912","0.0-23.0-0.7","SS1612925841711","","","null","","","<p><img src= images/blank.png width =""200"" height = ""200"" style = ""float:right""></p><p><img src=images/blank.png width =""800"" height = ""200""></p>","","","","","","","","","","","",""
"","3081.940000061877","sequential-stimulus-presentation","113","425857","0.0-23.0-1.7","SS1612925841711","trial","","40","800","3881.940000061877","","","","","5","complex_dissimilar","images/stimuli/spore_stims/complex_20_B_c.gif","left","","","","",""
"","4185.479999985546","html-keyboard-response","114","430078","0.0-24.0","SS1612925841711","pref_question","","51","","","<video width ='960' height = '540' style='padding-top:8%' autoplay muted><source src='images/stimuli/wall_pref.mp4' type='video/mp4'></video>","3","right","66%","5","","","","","","","",""
"","3110.98499991931","sequential-stimulus-presentation","115","434026","0.0-25.0","SS1612925841711","pref_reveal","","40","800","3910.98499991931","","","","","5","","","","novel","","","",""
"","null","html-keyboard-response","116","434943","0.0-26.0-0.0","SS1612925841711","","","null","","","<p><img src= images/blank.png width =""200"" height = ""200"" style = ""float:right""></p><p><img src=images/blank.png width =""800"" height = ""200""></p>","","","","","","","","","","","",""
"","2858.929999987595","sequential-stimulus-presentation","117","438678","0.0-26.0-1.0","SS1612925841711","trial","","40","800","3658.929999987595","","","","","6","simple_similar","images/stimuli/spore_stims/simple_12_A_b.gif","right","","","","",""
"","null","html-keyboard-response","118","439590","0.0-26.0-0.1","SS1612925841711","","","null","","","<p><img src= images/blank.png width =""200"" height = ""200"" style = ""float:right""></p><p><img src=images/blank.png width =""800"" height = ""200""></p>","","","","","","","","","","","",""
"","1206.1649999814108","sequential-stimulus-presentation","119","441653","0.0-26.0-1.1","SS1612925841711","trial","","40","800","2006.1649999814108","","","","","6","simple_similar","images/stimuli/spore_stims/simple_12_A_b.gif","right","","","","",""
"","null","html-keyboard-response","120","442822","0.0-26.0-0.2","SS1612925841711","","","null","","","<p><img src= images/blank.png width =""200"" height = ""200"" style = ""float:right""></p><p><img src=images/blank.png width =""800"" height = ""200""></p>","","","","","","","","","","","",""
"","1169.3750000558794","sequential-stimulus-presentation","121","444819","0.0-26.0-1.2","SS1612925841711","trial","","40","800","1969.3750000558794","","","","","6","simple_similar","images/stimuli/spore_stims/simple_12_A_b.gif","right","","","","",""
"","null","html-keyboard-response","122","446020","0.0-26.0-0.3","SS1612925841711","","","null","","","<p><img src= images/blank.png width =""200"" height = ""200"" style = ""float:right""></p><p><img src=images/blank.png width =""800"" height = ""200""></p>","","","","","","","","","","","",""
"","696.7400000430644","sequential-stimulus-presentation","123","447566","0.0-26.0-1.3","SS1612925841711","trial","","40","800","1496.7400000430644","","","","","6","simple_similar","images/stimuli/spore_stims/simple_12_A_b.gif","right","","","","",""
"","null","html-keyboard-response","124","448855","0.0-26.0-0.4","SS1612925841711","","","null","","","<p><img src= images/blank.png width =""200"" height = ""200"" style = ""float:right""></p><p><img src=images/blank.png width =""800"" height = ""200""></p>","","","","","","","","","","","",""
"","860.5899999383837","sequential-stimulus-presentation","125","450573","0.0-26.0-1.4","SS1612925841711","trial","","40","800","1660.5899999383837","","","","","6","simple_similar","images/stimuli/spore_stims/simple_12_A_b.gif","right","","","","",""
"","null","html-keyboard-response","126","451594","0.0-26.0-0.5","SS1612925841711","","","null","","","<p><img src= images/blank.png width =""200"" height = ""200"" style = ""float:right""></p><p><img src=images/blank.png width =""800"" height = ""200""></p>","","","","","","","","","","","",""
"","773.3450001105666","sequential-stimulus-presentation","127","453204","0.0-26.0-1.5","SS1612925841711","trial","","40","800","1573.3450001105666","","","","","6","simple_similar","images/stimuli/spore_stims/simple_12_A_b.gif","right","","","","",""
"","null","html-keyboard-response","128","454399","0.0-26.0-0.6","SS1612925841711","","","null","","","<p><img src= images/blank.png width =""200"" height = ""200"" style = ""float:right""></p><p><img src=images/blank.png width =""800"" height = ""200""></p>","","","","","","","","","","","",""
"","529.3999999994412","sequential-stimulus-presentation","129","455784","0.0-26.0-1.6","SS1612925841711","trial","","40","800","1329.3999999994412","","","","","6","simple_similar","images/stimuli/spore_stims/simple_12_B_b.gif","middle","","","","",""
"","null","html-keyboard-response","130","456791","0.0-26.0-0.7","SS1612925841711","","","null","","","<p><img src= images/blank.png width =""200"" height = ""200"" style = ""float:right""></p><p><img src=images/blank.png width =""800"" height = ""200""></p>","","","","","","","","","","","",""
"","1452.0849999971688","sequential-stimulus-presentation","131","459119","0.0-26.0-1.7","SS1612925841711","trial","","40","800","2252.084999997169","","","","","6","simple_similar","images/stimuli/spore_stims/simple_12_A_b.gif","right","","","","",""
"","2438.079999992624","html-keyboard-response","132","461583","0.0-27.0","SS1612925841711","pref_question","","50","","","<video width ='960' height = '540' style='padding-top:8%' autoplay muted><source src='images/stimuli/wall_pref.mp4' type='video/mp4'></video>","2","middle","45%","6","","","","","","","",""
"","2010.9699999447912","sequential-stimulus-presentation","133","464446","0.0-28.0","SS1612925841711","pref_reveal","","40","800","2810.969999944791","","","","","6","","","","deviant","","","",""
"","null","html-keyboard-response","134","465417","0.0-29.0-0.0","SS1612925841711","","","null","","","<p><img src= images/blank.png width =""200"" height = ""200"" style = ""float:right""></p><p><img src=images/blank.png width =""800"" height = ""200""></p>","","","","","","","","","","","",""
"","3623.0450000148267","sequential-stimulus-presentation","135","469951","0.0-29.0-1.0","SS1612925841711","trial","","40","800","4423.045000014827","","","","","7","complex_similar","images/stimuli/spore_stims/complex_13_A_a.gif","middle","","","","",""
"","null","html-keyboard-response","136","471045","0.0-29.0-0.1","SS1612925841711","","","null","","","<p><img src= images/blank.png width =""200"" height = ""200"" style = ""float:right""></p><p><img src=images/blank.png width =""800"" height = ""200""></p>","","","","","","","","","","","",""
"","2366.069999989122","sequential-stimulus-presentation","137","474271","0.0-29.0-1.1","SS1612925841711","trial","","40","800","3166.069999989122","","","","","7","complex_similar","images/stimuli/spore_stims/complex_13_A_a.gif","middle","","","","",""
"","null","html-keyboard-response","138","475481","0.0-29.0-0.2","SS1612925841711","","","null","","","<p><img src= images/blank.png width =""200"" height = ""200"" style = ""float:right""></p><p><img src=images/blank.png width =""800"" height = ""200""></p>","","","","","","","","","","","",""
"","3329.245000029914","sequential-stimulus-presentation","139","479671","0.0-29.0-1.2","SS1612925841711","trial","","40","800","4129.245000029914","","","","","7","complex_similar","images/stimuli/spore_stims/complex_13_A_a.gif","middle","","","","",""
"","null","html-keyboard-response","140","480910","0.0-29.0-0.3","SS1612925841711","","","null","","","<p><img src= images/blank.png width =""200"" height = ""200"" style = ""float:right""></p><p><img src=images/blank.png width =""800"" height = ""200""></p>","","","","","","","","","","","",""
"","1010.2099999785423","sequential-stimulus-presentation","141","482776","0.0-29.0-1.3","SS1612925841711","trial","","40","800","1810.2099999785423","","","","","7","complex_similar","images/stimuli/spore_stims/complex_13_A_a.gif","middle","","","","",""
"","null","html-keyboard-response","142","484080","0.0-29.0-0.4","SS1612925841711","","","null","","","<p><img src= images/blank.png width =""200"" height = ""200"" style = ""float:right""></p><p><img src=images/blank.png width =""800"" height = ""200""></p>","","","","","","","","","","","",""
"","692.5599999958649","sequential-stimulus-presentation","143","485648","0.0-29.0-1.4","SS1612925841711","trial","","40","800","1492.559999995865","","","","","7","complex_similar","images/stimuli/spore_stims/complex_13_A_a.gif","middle","","","","",""
"","null","html-keyboard-response","144","486476","0.0-29.0-0.5","SS1612925841711","","","null","","","<p><img src= images/blank.png width =""200"" height = ""200"" style = ""float:right""></p><p><img src=images/blank.png width =""800"" height = ""200""></p>","","","","","","","","","","","",""
"","673.5000000335276","sequential-stimulus-presentation","145","487999","0.0-29.0-1.5","SS1612925841711","trial","","40","800","1473.5000000335276","","","","","7","complex_similar","images/stimuli/spore_stims/complex_13_A_a.gif","middle","","","","",""
"","null","html-keyboard-response","146","488860","0.0-29.0-0.6","SS1612925841711","","","null","","","<p><img src= images/blank.png width =""200"" height = ""200"" style = ""float:right""></p><p><img src=images/blank.png width =""800"" height = ""200""></p>","","","","","","","","","","","",""
"","672.5500000175089","sequential-stimulus-presentation","147","490375","0.0-29.0-1.6","SS1612925841711","trial","","40","800","1472.5500000175089","","","","","7","complex_similar","images/stimuli/spore_stims/complex_13_A_a.gif","middle","","","","",""
"","null","html-keyboard-response","148","491313","0.0-29.0-0.7","SS1612925841711","","","null","","","<p><img src= images/blank.png width =""200"" height = ""200"" style = ""float:right""></p><p><img src=images/blank.png width =""800"" height = ""200""></p>","","","","","","","","","","","",""
"","1343.7749999575317","sequential-stimulus-presentation","149","493505","0.0-29.0-1.7","SS1612925841711","trial","","40","800","2143.7749999575317","","","","","7","complex_similar","images/stimuli/spore_stims/complex_13_B_a.gif","left","","","","",""
"","2008.2350000739098","html-keyboard-response","150","495536","0.0-30.0","SS1612925841711","pref_question","","50","","","<video width ='960' height = '540' style='padding-top:8%' autoplay muted><source src='images/stimuli/wall_pref.mp4' type='video/mp4'></video>","2","middle","45%","7","","","","","","","",""
"","750.5649999948218","sequential-stimulus-presentation","151","497151","0.0-31.0","SS1612925841711","pref_reveal","","40","800","1550.5649999948218","","","","","7","","","","background","","","",""
"","null","html-keyboard-response","152","498194","0.0-32.0-0.0","SS1612925841711","","","null","","","<p><img src= images/blank.png width =""200"" height = ""200"" style = ""float:right""></p><p><img src=images/blank.png width =""800"" height = ""200""></p>","","","","","","","","","","","",""
"","2156.470000045374","sequential-stimulus-presentation","153","501209","0.0-32.0-1.0","SS1612925841711","trial","","40","800","2956.470000045374","","","","","8","simple_similar","images/stimuli/spore_stims/simple_14_B_c.gif","right","","","","",""
"","null","html-keyboard-response","154","502253","0.0-32.0-0.1","SS1612925841711","","","null","","","<p><img src= images/blank.png width =""200"" height = ""200"" style = ""float:right""></p><p><img src=images/blank.png width =""800"" height = ""200""></p>","","","","","","","","","","","",""
"","2956.1749999411404","sequential-stimulus-presentation","155","506076","0.0-32.0-1.1","SS1612925841711","trial","","40","800","3756.1749999411404","","","","","8","simple_similar","images/stimuli/spore_stims/simple_14_B_c.gif","right","","","","",""
"","null","html-keyboard-response","156","507190","0.0-32.0-0.2","SS1612925841711","","","null","","","<p><img src= images/blank.png width =""200"" height = ""200"" style = ""float:right""></p><p><img src=images/blank.png width =""800"" height = ""200""></p>","","","","","","","","","","","",""
"","1362.3299999162555","sequential-stimulus-presentation","157","509414","0.0-32.0-1.2","SS1612925841711","trial","","40","800","2162.3299999162555","","","","","8","simple_similar","images/stimuli/spore_stims/simple_14_B_c.gif","right","","","","",""
"","null","html-keyboard-response","158","510644","0.0-32.0-0.3","SS1612925841711","","","null","","","<p><img src= images/blank.png width =""200"" height = ""200"" style = ""float:right""></p><p><img src=images/blank.png width =""800"" height = ""200""></p>","","","","","","","","","","","",""
"","3006.9450000301003","sequential-stimulus-presentation","159","514499","0.0-32.0-1.3","SS1612925841711","trial","","40","800","3806.9450000301003","","","","","8","simple_similar","images/stimuli/spore_stims/simple_14_A_c.gif","left","","","","",""
"","null","html-keyboard-response","160","515740","0.0-32.0-0.4","SS1612925841711","","","null","","","<p><img src= images/blank.png width =""200"" height = ""200"" style = ""float:right""></p><p><img src=images/blank.png width =""800"" height = ""200""></p>","","","","","","","","","","","",""
"","1745.0749999843538","sequential-stimulus-presentation","161","518362","0.0-32.0-1.4","SS1612925841711","trial","","40","800","2545.074999984354","","","","","8","simple_similar","images/stimuli/spore_stims/simple_14_B_c.gif","right","","","","",""
"","null","html-keyboard-response","162","519289","0.0-32.0-0.5","SS1612925841711","","","null","","","<p><img src= images/blank.png width =""200"" height = ""200"" style = ""float:right""></p><p><img src=images/blank.png width =""800"" height = ""200""></p>","","","","","","","","","","","",""
"","1110.2350000292063","sequential-stimulus-presentation","163","521242","0.0-32.0-1.5","SS1612925841711","trial","","40","800","1910.2350000292063","","","","","8","simple_similar","images/stimuli/spore_stims/simple_14_B_c.gif","right","","","","",""
"","null","html-keyboard-response","164","522319","0.0-32.0-0.6","SS1612925841711","","","null","","","<p><img src= images/blank.png width =""200"" height = ""200"" style = ""float:right""></p><p><img src=images/blank.png width =""800"" height = ""200""></p>","","","","","","","","","","","",""
"","683.8400000706315","sequential-stimulus-presentation","165","523841","0.0-32.0-1.6","SS1612925841711","trial","","40","800","1483.8400000706315","","","","","8","simple_similar","images/stimuli/spore_stims/simple_14_B_c.gif","right","","","","",""
"","null","html-keyboard-response","166","524979","0.0-32.0-0.7","SS1612925841711","","","null","","","<p><img src= images/blank.png width =""200"" height = ""200"" style = ""float:right""></p><p><img src=images/blank.png width =""800"" height = ""200""></p>","","","","","","","","","","","",""
"","621.9850000925362","sequential-stimulus-presentation","167","526479","0.0-32.0-1.7","SS1612925841711","trial","","40","800","1421.9850000925362","","","","","8","simple_similar","images/stimuli/spore_stims/simple_14_B_c.gif","right","","","","",""
"","2852.5750000262633","html-keyboard-response","168","529350","0.0-33.0","SS1612925841711","pref_question","","50","","","<video width ='960' height = '540' style='padding-top:8%' autoplay muted><source src='images/stimuli/wall_pref.mp4' type='video/mp4'></video>","2","middle","45%","8","","","","","","","",""
"","6218.515000073239","sequential-stimulus-presentation","169","536433","0.0-34.0","SS1612925841711","pref_reveal","","40","800","7018.515000073239","","","","","8","","","","novel","","","",""
"","null","html-keyboard-response","170","537324","0.0-35.0-0.0","SS1612925841711","","","null","","","<p><img src= images/blank.png width =""200"" height = ""200"" style = ""float:right""></p><p><img src=images/blank.png width =""800"" height = ""200""></p>","","","","","","","","","","","",""
"","2963.854999979958","sequential-stimulus-presentation","171","541132","0.0-35.0-1.0","SS1612925841711","trial","","40","800","3763.854999979958","","","","","9","simple_similar","images/stimuli/spore_stims/simple_11_B_d.gif","right","","","","",""
"","null","html-keyboard-response","172","542280","0.0-35.0-0.1","SS1612925841711","","","null","","","<p><img src= images/blank.png width =""200"" height = ""200"" style = ""float:right""></p><p><img src=images/blank.png width =""800"" height = ""200""></p>","","","","","","","","","","","",""
"","1992.2500000102445","sequential-stimulus-presentation","173","545180","0.0-35.0-1.1","SS1612925841711","trial","","40","800","2792.2500000102445","","","","","9","simple_similar","images/stimuli/spore_stims/simple_11_B_d.gif","right","","","","",""
"","null","html-keyboard-response","174","546064","0.0-35.0-0.2","SS1612925841711","","","null","","","<p><img src= images/blank.png width =""200"" height = ""200"" style = ""float:right""></p><p><img src=images/blank.png width =""800"" height = ""200""></p>","","","","","","","","","","","",""
"","1059.7650000127032","sequential-stimulus-presentation","175","547988","0.0-35.0-1.2","SS1612925841711","trial","","40","800","1859.7650000127032","","","","","9","simple_similar","images/stimuli/spore_stims/simple_11_B_d.gif","right","","","","",""
"","null","html-keyboard-response","176","549182","0.0-35.0-0.3","SS1612925841711","","","null","","","<p><img src= images/blank.png width =""200"" height = ""200"" style = ""float:right""></p><p><img src=images/blank.png width =""800"" height = ""200""></p>","","","","","","","","","","","",""
"","602.7400000020862","sequential-stimulus-presentation","177","550641","0.0-35.0-1.3","SS1612925841711","trial","","40","800","1402.7400000020862","","","","","9","simple_similar","images/stimuli/spore_stims/simple_11_B_d.gif","right","","","","",""
"","null","html-keyboard-response","178","551959","0.0-35.0-0.4","SS1612925841711","","","null","","","<p><img src= images/blank.png width =""200"" height = ""200"" style = ""float:right""></p><p><img src=images/blank.png width =""800"" height = ""200""></p>","","","","","","","","","","","",""
"","1490.9450000850484","sequential-stimulus-presentation","179","554294","0.0-35.0-1.4","SS1612925841711","trial","","40","800","2290.9450000850484","","","","","9","simple_similar","images/stimuli/spore_stims/simple_11_B_d.gif","right","","","","",""
"","null","html-keyboard-response","180","555182","0.0-35.0-0.5","SS1612925841711","","","null","","","<p><img src= images/blank.png width =""200"" height = ""200"" style = ""float:right""></p><p><img src=images/blank.png width =""800"" height = ""200""></p>","","","","","","","","","","","",""
"","1033.2100000232458","sequential-stimulus-presentation","181","557073","0.0-35.0-1.5","SS1612925841711","trial","","40","800","1833.2100000232458","","","","","9","simple_similar","images/stimuli/spore_stims/simple_11_B_d.gif","right","","","","",""
"","null","html-keyboard-response","182","558113","0.0-35.0-0.6","SS1612925841711","","","null","","","<p><img src= images/blank.png width =""200"" height = ""200"" style = ""float:right""></p><p><img src=images/blank.png width =""800"" height = ""200""></p>","","","","","","","","","","","",""
"","3849.404999986291","sequential-stimulus-presentation","183","562829","0.0-35.0-1.6","SS1612925841711","trial","","40","800","4649.404999986291","","","","","9","simple_similar","images/stimuli/spore_stims/simple_11_A_d.gif","middle","","","","",""
"","null","html-keyboard-response","184","564155","0.0-35.0-0.7","SS1612925841711","","","null","","","<p><img src= images/blank.png width =""200"" height = ""200"" style = ""float:right""></p><p><img src=images/blank.png width =""800"" height = ""200""></p>","","","","","","","","","","","",""
"","1696.8150000320747","sequential-stimulus-presentation","185","566696","0.0-35.0-1.7","SS1612925841711","trial","","40","800","2496.8150000320747","","","","","9","simple_similar","images/stimuli/spore_stims/simple_11_B_d.gif","right","","","","",""
"","2906.6700000548735","html-keyboard-response","186","569658","0.0-36.0","SS1612925841711","pref_question","","50","","","<video width ='960' height = '540' style='padding-top:8%' autoplay muted><source src='images/stimuli/wall_pref.mp4' type='video/mp4'></video>","2","middle","45%","9","","","","","","","",""
"","1884.235000004992","sequential-stimulus-presentation","187","572377","0.0-37.0","SS1612925841711","pref_reveal","","40","800","2684.235000004992","","","","","9","","","","deviant","","","",""
"","null","html-keyboard-response","188","573501","0.0-38.0-0.0","SS1612925841711","","","null","","","<p><img src= images/blank.png width =""200"" height = ""200"" style = ""float:right""></p><p><img src=images/blank.png width =""800"" height = ""200""></p>","","","","","","","","","","","",""
"","3270.669999998063","sequential-stimulus-presentation","189","577679","0.0-38.0-1.0","SS1612925841711","trial","","40","800","4070.669999998063","","","","","10","complex_similar","images/stimuli/spore_stims/complex_19_A_b.gif","right","","","","",""
"","null","html-keyboard-response","190","578899","0.0-38.0-0.1","SS1612925841711","","","null","","","<p><img src= images/blank.png width =""200"" height = ""200"" style = ""float:right""></p><p><img src=images/blank.png width =""800"" height = ""200""></p>","","","","","","","","","","","",""
"","2827.0100000081584","sequential-stimulus-presentation","191","582588","0.0-38.0-1.1","SS1612925841711","trial","","40","800","3627.0100000081584","","","","","10","complex_similar","images/stimuli/spore_stims/complex_19_A_b.gif","right","","","","",""
"","null","html-keyboard-response","192","583902","0.0-38.0-0.2","SS1612925841711","","","null","","","<p><img src= images/blank.png width =""200"" height = ""200"" style = ""float:right""></p><p><img src=images/blank.png width =""800"" height = ""200""></p>","","","","","","","","","","","",""
"","2212.7399999881163","sequential-stimulus-presentation","193","586995","0.0-38.0-1.2","SS1612925841711","trial","","40","800","3012.7399999881163","","","","","10","complex_similar","images/stimuli/spore_stims/complex_19_A_b.gif","right","","","","",""
"","null","html-keyboard-response","194","587987","0.0-38.0-0.3","SS1612925841711","","","null","","","<p><img src= images/blank.png width =""200"" height = ""200"" style = ""float:right""></p><p><img src=images/blank.png width =""800"" height = ""200""></p>","","","","","","","","","","","",""
"","921.3650000747293","sequential-stimulus-presentation","195","589725","0.0-38.0-1.3","SS1612925841711","trial","","40","800","1721.3650000747293","","","","","10","complex_similar","images/stimuli/spore_stims/complex_19_A_b.gif","right","","","","",""
"","null","html-keyboard-response","196","590914","0.0-38.0-0.4","SS1612925841711","","","null","","","<p><img src= images/blank.png width =""200"" height = ""200"" style = ""float:right""></p><p><img src=images/blank.png width =""800"" height = ""200""></p>","","","","","","","","","","","",""
"","3759.6149999881163","sequential-stimulus-presentation","197","595530","0.0-38.0-1.4","SS1612925841711","trial","","40","800","4559.614999988116","","","","","10","complex_similar","images/stimuli/spore_stims/complex_19_B_b.gif","middle","","","","",""
"","null","html-keyboard-response","198","596780","0.0-38.0-0.5","SS1612925841711","","","null","","","<p><img src= images/blank.png width =""200"" height = ""200"" style = ""float:right""></p><p><img src=images/blank.png width =""800"" height = ""200""></p>","","","","","","","","","","","",""
"","1107.7649999642745","sequential-stimulus-presentation","199","598749","0.0-38.0-1.5","SS1612925841711","trial","","40","800","1907.7649999642745","","","","","10","complex_similar","images/stimuli/spore_stims/complex_19_A_b.gif","right","","","","",""
"","null","html-keyboard-response","200","599959","0.0-38.0-0.6","SS1612925841711","","","null","","","<p><img src= images/blank.png width =""200"" height = ""200"" style = ""float:right""></p><p><img src=images/blank.png width =""800"" height = ""200""></p>","","","","","","","","","","","",""
"","1165.940000093542","sequential-stimulus-presentation","201","602001","0.0-38.0-1.6","SS1612925841711","trial","","40","800","1965.940000093542","","","","","10","complex_similar","images/stimuli/spore_stims/complex_19_A_b.gif","right","","","","",""
"","null","html-keyboard-response","202","603178","0.0-38.0-0.7","SS1612925841711","","","null","","","<p><img src= images/blank.png width =""200"" height = ""200"" style = ""float:right""></p><p><img src=images/blank.png width =""800"" height = ""200""></p>","","","","","","","","","","","",""
"","838.4050000458956","sequential-stimulus-presentation","203","604861","0.0-38.0-1.7","SS1612925841711","trial","","40","800","1638.4050000458956","","","","","10","complex_similar","images/stimuli/spore_stims/complex_19_A_b.gif","right","","","","",""
"","3044.9600000865757","html-keyboard-response","204","607955","0.0-39.0","SS1612925841711","pref_question","","51","","","<video width ='960' height = '540' style='padding-top:8%' autoplay muted><source src='images/stimuli/wall_pref.mp4' type='video/mp4'></video>","3","right","66%","10","","","","","","","",""
"","850.7799999788404","sequential-stimulus-presentation","205","609644","0.0-40.0","SS1612925841711","pref_reveal","","40","800","1650.7799999788404","","","","","10","","","","background","","","",""
"","null","html-keyboard-response","206","610753","0.0-41.0-0.0","SS1612925841711","","","null","","","<p><img src= images/blank.png width =""200"" height = ""200"" style = ""float:right""></p><p><img src=images/blank.png width =""800"" height = ""200""></p>","","","","","","","","","","","",""
"","3390.305000008084","sequential-stimulus-presentation","207","614989","0.0-41.0-1.0","SS1612925841711","trial","","40","800","4190.305000008084","","","","","11","complex_dissimilar","images/stimuli/spore_stims/complex_06_A_d.gif","left","","","","",""
"","null","html-keyboard-response","208","616228","0.0-41.0-0.1","SS1612925841711","","","null","","","<p><img src= images/blank.png width =""200"" height = ""200"" style = ""float:right""></p><p><img src=images/blank.png width =""800"" height = ""200""></p>","","","","","","","","","","","",""
"","3210.1000000257045","sequential-stimulus-presentation","209","620293","0.0-41.0-1.1","SS1612925841711","trial","","40","800","4010.1000000257045","","","","","11","complex_dissimilar","images/stimuli/spore_stims/complex_06_A_d.gif","left","","","","",""
"","null","html-keyboard-response","210","621473","0.0-41.0-0.2","SS1612925841711","","","null","","","<p><img src= images/blank.png width =""200"" height = ""200"" style = ""float:right""></p><p><img src=images/blank.png width =""800"" height = ""200""></p>","","","","","","","","","","","",""
"","1074.5350000215694","sequential-stimulus-presentation","211","623387","0.0-41.0-1.2","SS1612925841711","trial","","40","800","1874.5350000215694","","","","","11","complex_dissimilar","images/stimuli/spore_stims/complex_06_A_d.gif","left","","","","",""
"","null","html-keyboard-response","212","624558","0.0-41.0-0.3","SS1612925841711","","","null","","","<p><img src= images/blank.png width =""200"" height = ""200"" style = ""float:right""></p><p><img src=images/blank.png width =""800"" height = ""200""></p>","","","","","","","","","","","",""
"","648.4750000527129","sequential-stimulus-presentation","213","626096","0.0-41.0-1.3","SS1612925841711","trial","","40","800","1448.4750000527129","","","","","11","complex_dissimilar","images/stimuli/spore_stims/complex_06_A_d.gif","left","","","","",""
"","null","html-keyboard-response","214","627009","0.0-41.0-0.4","SS1612925841711","","","null","","","<p><img src= images/blank.png width =""200"" height = ""200"" style = ""float:right""></p><p><img src=images/blank.png width =""800"" height = ""200""></p>","","","","","","","","","","","",""
"","596.8149999389425","sequential-stimulus-presentation","215","628438","0.0-41.0-1.4","SS1612925841711","trial","","40","800","1396.8149999389425","","","","","11","complex_dissimilar","images/stimuli/spore_stims/complex_06_A_d.gif","left","","","","",""
"","null","html-keyboard-response","216","629788","0.0-41.0-0.5","SS1612925841711","","","null","","","<p><img src= images/blank.png width =""200"" height = ""200"" style = ""float:right""></p><p><img src=images/blank.png width =""800"" height = ""200""></p>","","","","","","","","","","","",""
"","1785.7749999966472","sequential-stimulus-presentation","217","632402","0.0-41.0-1.5","SS1612925841711","trial","","40","800","2585.7749999966472","","","","","11","complex_dissimilar","images/stimuli/spore_stims/complex_02_B_b.gif","right","","","","",""
"","null","html-keyboard-response","218","633335","0.0-41.0-0.6","SS1612925841711","","","null","","","<p><img src= images/blank.png width =""200"" height = ""200"" style = ""float:right""></p><p><img src=images/blank.png width =""800"" height = ""200""></p>","","","","","","","","","","","",""
"","1273.5999999567866","sequential-stimulus-presentation","219","635442","0.0-41.0-1.6","SS1612925841711","trial","","40","800","2073.5999999567866","","","","","11","complex_dissimilar","images/stimuli/spore_stims/complex_06_A_d.gif","left","","","","",""
"","null","html-keyboard-response","220","636717","0.0-41.0-0.7","SS1612925841711","","","null","","","<p><img src= images/blank.png width =""200"" height = ""200"" style = ""float:right""></p><p><img src=images/blank.png width =""800"" height = ""200""></p>","","","","","","","","","","","",""
"","1204.050000058487","sequential-stimulus-presentation","221","638788","0.0-41.0-1.7","SS1612925841711","trial","","40","800","2004.050000058487","","","","","11","complex_dissimilar","images/stimuli/spore_stims/complex_06_A_d.gif","left","","","","",""
"","4783.010000013746","html-keyboard-response","222","643599","0.0-42.0","SS1612925841711","pref_question","","50","","","<video width ='960' height = '540' style='padding-top:8%' autoplay muted><source src='images/stimuli/wall_pref.mp4' type='video/mp4'></video>","2","middle","45%","11","","","","","","","",""
"","2886.9650000706315","sequential-stimulus-presentation","223","647351","0.0-43.0","SS1612925841711","pref_reveal","","40","800","3686.9650000706315","","","","","11","","","","novel","","","",""
"","null","html-keyboard-response","224","648553","0.0-44.0-0.0","SS1612925841711","","","null","","","<p><img src= images/blank.png width =""200"" height = ""200"" style = ""float:right""></p><p><img src=images/blank.png width =""800"" height = ""200""></p>","","","","","","","","","","","",""
"","3196.2850000709295","sequential-stimulus-presentation","225","652606","0.0-44.0-1.0","SS1612925841711","trial","","40","800","3996.2850000709295","","","","","12","complex_dissimilar","images/stimuli/spore_stims/complex_15_A_b.gif","middle","","","","",""
"","null","html-keyboard-response","226","653616","0.0-44.0-0.1","SS1612925841711","","","null","","","<p><img src= images/blank.png width =""200"" height = ""200"" style = ""float:right""></p><p><img src=images/blank.png width =""800"" height = ""200""></p>","","","","","","","","","","","",""
"","920.9600000176579","sequential-stimulus-presentation","227","655460","0.0-44.0-1.1","SS1612925841711","trial","","40","800","1720.9600000176579","","","","","12","complex_dissimilar","images/stimuli/spore_stims/complex_15_A_b.gif","middle","","","","",""
"","null","html-keyboard-response","228","656311","0.0-44.0-0.2","SS1612925841711","","","null","","","<p><img src= images/blank.png width =""200"" height = ""200"" style = ""float:right""></p><p><img src=images/blank.png width =""800"" height = ""200""></p>","","","","","","","","","","","",""
"","5340.635000029579","sequential-stimulus-presentation","229","662523","0.0-44.0-1.2","SS1612925841711","trial","","40","800","6140.635000029579","","","","","12","complex_dissimilar","images/stimuli/spore_stims/complex_15_A_b.gif","middle","","","","",""
"","null","html-keyboard-response","230","663408","0.0-44.0-0.3","SS1612925841711","","","null","","","<p><img src= images/blank.png width =""200"" height = ""200"" style = ""float:right""></p><p><img src=images/blank.png width =""800"" height = ""200""></p>","","","","","","","","","","","",""
"","2186.5149999503046","sequential-stimulus-presentation","231","666471","0.0-44.0-1.3","SS1612925841711","trial","","40","800","2986.5149999503046","","","","","12","complex_dissimilar","images/stimuli/spore_stims/complex_15_A_b.gif","middle","","","","",""
"","null","html-keyboard-response","232","667658","0.0-44.0-0.4","SS1612925841711","","","null","","","<p><img src= images/blank.png width =""200"" height = ""200"" style = ""float:right""></p><p><img src=images/blank.png width =""800"" height = ""200""></p>","","","","","","","","","","","",""
"","5755.055000074208","sequential-stimulus-presentation","233","674287","0.0-44.0-1.4","SS1612925841711","trial","","40","800","6555.055000074208","","","","","12","complex_dissimilar","images/stimuli/spore_stims/complex_06_B_c.gif","left","","","","",""
"","null","html-keyboard-response","234","675585","0.0-44.0-0.5","SS1612925841711","","","null","","","<p><img src= images/blank.png width =""200"" height = ""200"" style = ""float:right""></p><p><img src=images/blank.png width =""800"" height = ""200""></p>","","","","","","","","","","","",""
"","1412.6950000645593","sequential-stimulus-presentation","235","677870","0.0-44.0-1.5","SS1612925841711","trial","","40","800","2212.6950000645593","","","","","12","complex_dissimilar","images/stimuli/spore_stims/complex_15_A_b.gif","middle","","","","",""
"","null","html-keyboard-response","236","678741","0.0-44.0-0.6","SS1612925841711","","","null","","","<p><img src= images/blank.png width =""200"" height = ""200"" style = ""float:right""></p><p><img src=images/blank.png width =""800"" height = ""200""></p>","","","","","","","","","","","",""
"","963.8799999374896","sequential-stimulus-presentation","237","680584","0.0-44.0-1.6","SS1612925841711","trial","","40","800","1763.8799999374896","","","","","12","complex_dissimilar","images/stimuli/spore_stims/complex_15_A_b.gif","middle","","","","",""
"","null","html-keyboard-response","238","681781","0.0-44.0-0.7","SS1612925841711","","","null","","","<p><img src= images/blank.png width =""200"" height = ""200"" style = ""float:right""></p><p><img src=images/blank.png width =""800"" height = ""200""></p>","","","","","","","","","","","",""
"","608.9800000190735","sequential-stimulus-presentation","239","683260","0.0-44.0-1.7","SS1612925841711","trial","","40","800","1408.9800000190735","","","","","12","complex_dissimilar","images/stimuli/spore_stims/complex_15_A_b.gif","middle","","","","",""
"","2412.7550000557676","html-keyboard-response","240","685704","0.0-45.0","SS1612925841711","pref_question","","49","","","<video width ='960' height = '540' style='padding-top:8%' autoplay muted><source src='images/stimuli/wall_pref.mp4' type='video/mp4'></video>","1","left","25%","12","","","","","","","",""
"","7691.2100000772625","sequential-stimulus-presentation","241","694256","0.0-46.0","SS1612925841711","pref_reveal","","40","800","8491.210000077263","","","","","12","","","","deviant","","","",""
"","null","html-keyboard-response","242","695568","0.0-47.0-0.0","SS1612925841711","","","null","","","<p><img src= images/blank.png width =""200"" height = ""200"" style = ""float:right""></p><p><img src=images/blank.png width =""800"" height = ""200""></p>","","","","","","","","","","","",""
"","1200.0349999871105","sequential-stimulus-presentation","243","697638","0.0-47.0-1.0","SS1612925841711","trial","","40","800","2000.0349999871105","","","","","13","simple_dissimilar","images/stimuli/spore_stims/simple_10_B_d.gif","left","","","","",""
"","null","html-keyboard-response","244","698856","0.0-47.0-0.1","SS1612925841711","","","null","","","<p><img src= images/blank.png width =""200"" height = ""200"" style = ""float:right""></p><p><img src=images/blank.png width =""800"" height = ""200""></p>","","","","","","","","","","","",""
"","788.8200000161305","sequential-stimulus-presentation","245","700520","0.0-47.0-1.1","SS1612925841711","trial","","40","800","1588.8200000161305","","","","","13","simple_dissimilar","images/stimuli/spore_stims/simple_10_B_d.gif","left","","","","",""
"","null","html-keyboard-response","246","701657","0.0-47.0-0.2","SS1612925841711","","","null","","","<p><img src= images/blank.png width =""200"" height = ""200"" style = ""float:right""></p><p><img src=images/blank.png width =""800"" height = ""200""></p>","","","","","","","","","","","",""
"","528.9950000587851","sequential-stimulus-presentation","247","703031","0.0-47.0-1.2","SS1612925841711","trial","","40","800","1328.995000058785","","","","","13","simple_dissimilar","images/stimuli/spore_stims/simple_10_B_d.gif","left","","","","",""
"","null","html-keyboard-response","248","703950","0.0-47.0-0.3","SS1612925841711","","","null","","","<p><img src= images/blank.png width =""200"" height = ""200"" style = ""float:right""></p><p><img src=images/blank.png width =""800"" height = ""200""></p>","","","","","","","","","","","",""
"","1083.4150000009686","sequential-stimulus-presentation","249","705894","0.0-47.0-1.3","SS1612925841711","trial","","40","800","1883.4150000009686","","","","","13","simple_dissimilar","images/stimuli/spore_stims/simple_16_B_a.gif","middle","","","","",""
"","null","html-keyboard-response","250","707106","0.0-47.0-0.4","SS1612925841711","","","null","","","<p><img src= images/blank.png width =""200"" height = ""200"" style = ""float:right""></p><p><img src=images/blank.png width =""800"" height = ""200""></p>","","","","","","","","","","","",""
"","462.110000080429","sequential-stimulus-presentation","251","708430","0.0-47.0-1.4","SS1612925841711","trial","","40","800","1262.110000080429","","","","","13","simple_dissimilar","images/stimuli/spore_stims/simple_10_B_d.gif","left","","","","",""
"","null","html-keyboard-response","252","709457","0.0-47.0-0.5","SS1612925841711","","","null","","","<p><img src= images/blank.png width =""200"" height = ""200"" style = ""float:right""></p><p><img src=images/blank.png width =""800"" height = ""200""></p>","","","","","","","","","","","",""
"","630.6249999906868","sequential-stimulus-presentation","253","710952","0.0-47.0-1.5","SS1612925841711","trial","","40","800","1430.6249999906868","","","","","13","simple_dissimilar","images/stimuli/spore_stims/simple_10_B_d.gif","left","","","","",""
"","null","html-keyboard-response","254","711802","0.0-47.0-0.6","SS1612925841711","","","null","","","<p><img src= images/blank.png width =""200"" height = ""200"" style = ""float:right""></p><p><img src=images/blank.png width =""800"" height = ""200""></p>","","","","","","","","","","","",""
"","449.06000001356006","sequential-stimulus-presentation","255","713096","0.0-47.0-1.6","SS1612925841711","trial","","40","800","1249.06000001356","","","","","13","simple_dissimilar","images/stimuli/spore_stims/simple_10_B_d.gif","left","","","","",""
"","null","html-keyboard-response","256","714310","0.0-47.0-0.7","SS1612925841711","","","null","","","<p><img src= images/blank.png width =""200"" height = ""200"" style = ""float:right""></p><p><img src=images/blank.png width =""800"" height = ""200""></p>","","","","","","","","","","","",""
"","458.49500002805144","sequential-stimulus-presentation","257","715656","0.0-47.0-1.7","SS1612925841711","trial","","40","800","1258.4950000280514","","","","","13","simple_dissimilar","images/stimuli/spore_stims/simple_10_B_d.gif","left","","","","",""
"","2708.7449999526143","html-keyboard-response","258","718481","0.0-48.0","SS1612925841711","pref_question","","51","","","<video width ='960' height = '540' style='padding-top:8%' autoplay muted><source src='images/stimuli/wall_pref.mp4' type='video/mp4'></video>","3","right","66%","13","","","","","","","",""
"","5597.45500003919","sequential-stimulus-presentation","259","724927","0.0-49.0","SS1612925841711","pref_reveal","","40","800","6397.45500003919","","","","","13","","","","novel","","","",""
"","null","html-keyboard-response","260","725825","0.0-50.0-0.0","SS1612925841711","","","null","","","<p><img src= images/blank.png width =""200"" height = ""200"" style = ""float:right""></p><p><img src=images/blank.png width =""800"" height = ""200""></p>","","","","","","","","","","","",""
"","885.0499999243766","sequential-stimulus-presentation","261","727559","0.0-50.0-1.0","SS1612925841711","trial","","40","800","1685.0499999243766","","","","","14","simple_dissimilar","images/stimuli/spore_stims/simple_14_A_d.gif","right","","","","",""
"","null","html-keyboard-response","262","728873","0.0-50.0-0.1","SS1612925841711","","","null","","","<p><img src= images/blank.png width =""200"" height = ""200"" style = ""float:right""></p><p><img src=images/blank.png width =""800"" height = ""200""></p>","","","","","","","","","","","",""
"","754.0949999820441","sequential-stimulus-presentation","263","730489","0.0-50.0-1.1","SS1612925841711","trial","","40","800","1554.094999982044","","","","","14","simple_dissimilar","images/stimuli/spore_stims/simple_14_A_d.gif","right","","","","",""
"","null","html-keyboard-response","264","731789","0.0-50.0-0.2","SS1612925841711","","","null","","","<p><img src= images/blank.png width =""200"" height = ""200"" style = ""float:right""></p><p><img src=images/blank.png width =""800"" height = ""200""></p>","","","","","","","","","","","",""
"","675.2900000428781","sequential-stimulus-presentation","265","733343","0.0-50.0-1.2","SS1612925841711","trial","","40","800","1475.290000042878","","","","","14","simple_dissimilar","images/stimuli/spore_stims/simple_14_A_d.gif","right","","","","",""
"","null","html-keyboard-response","266","734454","0.0-50.0-0.3","SS1612925841711","","","null","","","<p><img src= images/blank.png width =""200"" height = ""200"" style = ""float:right""></p><p><img src=images/blank.png width =""800"" height = ""200""></p>","","","","","","","","","","","",""
"","1039.2050000373274","sequential-stimulus-presentation","267","736352","0.0-50.0-1.3","SS1612925841711","trial","","40","800","1839.2050000373274","","","","","14","simple_dissimilar","images/stimuli/spore_stims/simple_11_A_a.gif","left","","","","",""
"","null","html-keyboard-response","268","737520","0.0-50.0-0.4","SS1612925841711","","","null","","","<p><img src= images/blank.png width =""200"" height = ""200"" style = ""float:right""></p><p><img src=images/blank.png width =""800"" height = ""200""></p>","","","","","","","","","","","",""
"","504.4299999717623","sequential-stimulus-presentation","269","738895","0.0-50.0-1.4","SS1612925841711","trial","","40","800","1304.4299999717623","","","","","14","simple_dissimilar","images/stimuli/spore_stims/simple_14_A_d.gif","right","","","","",""
"","null","html-keyboard-response","270","739939","0.0-50.0-0.5","SS1612925841711","","","null","","","<p><img src= images/blank.png width =""200"" height = ""200"" style = ""float:right""></p><p><img src=images/blank.png width =""800"" height = ""200""></p>","","","","","","","","","","","",""
"","424.86000002827495","sequential-stimulus-presentation","271","741226","0.0-50.0-1.5","SS1612925841711","trial","","40","800","1224.860000028275","","","","","14","simple_dissimilar","images/stimuli/spore_stims/simple_14_A_d.gif","right","","","","",""
"","null","html-keyboard-response","272","742178","0.0-50.0-0.6","SS1612925841711","","","null","","","<p><img src= images/blank.png width =""200"" height = ""200"" style = ""float:right""></p><p><img src=images/blank.png width =""800"" height = ""200""></p>","","","","","","","","","","","",""
"","401.2449999572709","sequential-stimulus-presentation","273","743456","0.0-50.0-1.6","SS1612925841711","trial","","40","800","1201.244999957271","","","","","14","simple_dissimilar","images/stimuli/spore_stims/simple_14_A_d.gif","right","","","","",""
"","null","html-keyboard-response","274","744461","0.0-50.0-0.7","SS1612925841711","","","null","","","<p><img src= images/blank.png width =""200"" height = ""200"" style = ""float:right""></p><p><img src=images/blank.png width =""800"" height = ""200""></p>","","","","","","","","","","","",""
"","515.9950000233948","sequential-stimulus-presentation","275","745798","0.0-50.0-1.7","SS1612925841711","trial","","40","800","1315.9950000233948","","","","","14","simple_dissimilar","images/stimuli/spore_stims/simple_14_A_d.gif","right","","","","",""
"","1222.7849999908358","html-keyboard-response","276","747040","0.0-51.0","SS1612925841711","pref_question","","49","","","<video width ='960' height = '540' style='padding-top:8%' autoplay muted><source src='images/stimuli/wall_pref.mp4' type='video/mp4'></video>","1","left","25%","14","","","","","","","",""
"","932.120000012219","sequential-stimulus-presentation","277","748839","0.0-52.0","SS1612925841711","pref_reveal","","40","800","1732.120000012219","","","","","14","","","","deviant","","","",""
"","null","html-keyboard-response","278","750084","0.0-53.0-0.0","SS1612925841711","","","null","","","<p><img src= images/blank.png width =""200"" height = ""200"" style = ""float:right""></p><p><img src=images/blank.png width =""800"" height = ""200""></p>","","","","","","","","","","","",""
"","566.3199999835342","sequential-stimulus-presentation","279","751525","0.0-53.0-1.0","SS1612925841711","trial","","40","800","1366.3199999835342","","","","","15","simple_dissimilar","images/stimuli/spore_stims/simple_16_A_d.gif","right","","","","",""
"","null","html-keyboard-response","280","752680","0.0-53.0-0.1","SS1612925841711","","","null","","","<p><img src= images/blank.png width =""200"" height = ""200"" style = ""float:right""></p><p><img src=images/blank.png width =""800"" height = ""200""></p>","","","","","","","","","","","",""
"","1122.4100000690669","sequential-stimulus-presentation","281","754696","0.0-53.0-1.1","SS1612925841711","trial","","40","800","1922.4100000690669","","","","","15","simple_dissimilar","images/stimuli/spore_stims/simple_16_A_d.gif","right","","","","",""
"","null","html-keyboard-response","282","755936","0.0-53.0-0.2","SS1612925841711","","","null","","","<p><img src= images/blank.png width =""200"" height = ""200"" style = ""float:right""></p><p><img src=images/blank.png width =""800"" height = ""200""></p>","","","","","","","","","","","",""
"","2164.950000005774","sequential-stimulus-presentation","283","758967","0.0-53.0-1.2","SS1612925841711","trial","","40","800","2964.950000005774","","","","","15","simple_dissimilar","images/stimuli/spore_stims/simple_16_A_d.gif","right","","","","",""
"","null","html-keyboard-response","284","759965","0.0-53.0-0.3","SS1612925841711","","","null","","","<p><img src= images/blank.png width =""200"" height = ""200"" style = ""float:right""></p><p><img src=images/blank.png width =""800"" height = ""200""></p>","","","","","","","","","","","",""
"","748.0450000148267","sequential-stimulus-presentation","285","761594","0.0-53.0-1.3","SS1612925841711","trial","","40","800","1548.0450000148267","","","","","15","simple_dissimilar","images/stimuli/spore_stims/simple_16_A_d.gif","right","","","","",""
"","null","html-keyboard-response","286","762533","0.0-53.0-0.4","SS1612925841711","","","null","","","<p><img src= images/blank.png width =""200"" height = ""200"" style = ""float:right""></p><p><img src=images/blank.png width =""800"" height = ""200""></p>","","","","","","","","","","","",""
"","1368.0800000438467","sequential-stimulus-presentation","287","764760","0.0-53.0-1.4","SS1612925841711","trial","","40","800","2168.0800000438467","","","","","15","simple_dissimilar","images/stimuli/spore_stims/simple_18_A_d.gif","left","","","","",""
"","null","html-keyboard-response","288","765884","0.0-53.0-0.5","SS1612925841711","","","null","","","<p><img src= images/blank.png width =""200"" height = ""200"" style = ""float:right""></p><p><img src=images/blank.png width =""800"" height = ""200""></p>","","","","","","","","","","","",""
"","810.2949999738485","sequential-stimulus-presentation","289","767558","0.0-53.0-1.5","SS1612925841711","trial","","40","800","1610.2949999738485","","","","","15","simple_dissimilar","images/stimuli/spore_stims/simple_16_A_d.gif","right","","","","",""
"","null","html-keyboard-response","290","768381","0.0-53.0-0.6","SS1612925841711","","","null","","","<p><img src= images/blank.png width =""200"" height = ""200"" style = ""float:right""></p><p><img src=images/blank.png width =""800"" height = ""200""></p>","","","","","","","","","","","",""
"","1089.4400000106543","sequential-stimulus-presentation","291","770328","0.0-53.0-1.6","SS1612925841711","trial","","40","800","1889.4400000106543","","","","","15","simple_dissimilar","images/stimuli/spore_stims/simple_16_A_d.gif","right","","","","",""
"","null","html-keyboard-response","292","771242","0.0-53.0-0.7","SS1612925841711","","","null","","","<p><img src= images/blank.png width =""200"" height = ""200"" style = ""float:right""></p><p><img src=images/blank.png width =""800"" height = ""200""></p>","","","","","","","","","","","",""
"","1330.9900000458583","sequential-stimulus-presentation","293","773428","0.0-53.0-1.7","SS1612925841711","trial","","40","800","2130.9900000458583","","","","","15","simple_dissimilar","images/stimuli/spore_stims/simple_16_A_d.gif","right","","","","",""
"","1492.4599999794737","html-keyboard-response","294","774967","0.0-54.0","SS1612925841711","pref_question","","50","","","<video width ='960' height = '540' style='padding-top:8%' autoplay muted><source src='images/stimuli/wall_pref.mp4' type='video/mp4'></video>","2","middle","45%","15","","","","","","","",""
"","1074.1549999220297","sequential-stimulus-presentation","295","776897","0.0-55.0","SS1612925841711","pref_reveal","","40","800","1874.1549999220297","","","","","15","","","","novel","","","",""
"","null","html-keyboard-response","296","778117","0.0-56.0-0.0","SS1612925841711","","","null","","","<p><img src= images/blank.png width =""200"" height = ""200"" style = ""float:right""></p><p><img src=images/blank.png width =""800"" height = ""200""></p>","","","","","","","","","","","",""
"","2110.220000031404","sequential-stimulus-presentation","297","781078","0.0-56.0-1.0","SS1612925841711","trial","","40","800","2910.220000031404","","","","","16","complex_similar","images/stimuli/spore_stims/complex_17_A_c.gif","right","","","","",""
"","null","html-keyboard-response","298","782306","0.0-56.0-0.1","SS1612925841711","","","null","","","<p><img src= images/blank.png width =""200"" height = ""200"" style = ""float:right""></p><p><img src=images/blank.png width =""800"" height = ""200""></p>","","","","","","","","","","","",""
"","1180.6850000284612","sequential-stimulus-presentation","299","784347","0.0-56.0-1.1","SS1612925841711","trial","","40","800","1980.6850000284612","","","","","16","complex_similar","images/stimuli/spore_stims/complex_17_A_c.gif","right","","","","",""
"","null","html-keyboard-response","300","785275","0.0-56.0-0.2","SS1612925841711","","","null","","","<p><img src= images/blank.png width =""200"" height = ""200"" style = ""float:right""></p><p><img src=images/blank.png width =""800"" height = ""200""></p>","","","","","","","","","","","",""
"","708.9449999621138","sequential-stimulus-presentation","301","786850","0.0-56.0-1.2","SS1612925841711","trial","","40","800","1508.9449999621138","","","","","16","complex_similar","images/stimuli/spore_stims/complex_17_A_c.gif","right","","","","",""
"","null","html-keyboard-response","302","788028","0.0-56.0-0.3","SS1612925841711","","","null","","","<p><img src= images/blank.png width =""200"" height = ""200"" style = ""float:right""></p><p><img src=images/blank.png width =""800"" height = ""200""></p>","","","","","","","","","","","",""
"","507.4950000271201","sequential-stimulus-presentation","303","789394","0.0-56.0-1.3","SS1612925841711","trial","","40","800","1307.49500002712","","","","","16","complex_similar","images/stimuli/spore_stims/complex_17_A_c.gif","right","","","","",""
"","null","html-keyboard-response","304","790614","0.0-56.0-0.4","SS1612925841711","","","null","","","<p><img src= images/blank.png width =""200"" height = ""200"" style = ""float:right""></p><p><img src=images/blank.png width =""800"" height = ""200""></p>","","","","","","","","","","","",""
"","671.3599999202415","sequential-stimulus-presentation","305","792161","0.0-56.0-1.4","SS1612925841711","trial","","40","800","1471.3599999202415","","","","","16","complex_similar","images/stimuli/spore_stims/complex_17_B_c.gif","middle","","","","",""
"","null","html-keyboard-response","306","793092","0.0-56.0-0.5","SS1612925841711","","","null","","","<p><img src= images/blank.png width =""200"" height = ""200"" style = ""float:right""></p><p><img src=images/blank.png width =""800"" height = ""200""></p>","","","","","","","","","","","",""
"","580.5000000400469","sequential-stimulus-presentation","307","794535","0.0-56.0-1.5","SS1612925841711","trial","","40","800","1380.5000000400469","","","","","16","complex_similar","images/stimuli/spore_stims/complex_17_A_c.gif","right","","","","",""
"","null","html-keyboard-response","308","795532","0.0-56.0-0.6","SS1612925841711","","","null","","","<p><img src= images/blank.png width =""200"" height = ""200"" style = ""float:right""></p><p><img src=images/blank.png width =""800"" height = ""200""></p>","","","","","","","","","","","",""
"","573.2749999733642","sequential-stimulus-presentation","309","796962","0.0-56.0-1.6","SS1612925841711","trial","","40","800","1373.2749999733642","","","","","16","complex_similar","images/stimuli/spore_stims/complex_17_A_c.gif","right","","","","",""
"","null","html-keyboard-response","310","798146","0.0-56.0-0.7","SS1612925841711","","","null","","","<p><img src= images/blank.png width =""200"" height = ""200"" style = ""float:right""></p><p><img src=images/blank.png width =""800"" height = ""200""></p>","","","","","","","","","","","",""
"","458.0650000134483","sequential-stimulus-presentation","311","799464","0.0-56.0-1.7","SS1612925841711","trial","","40","800","1258.0650000134483","","","","","16","complex_similar","images/stimuli/spore_stims/complex_17_A_c.gif","right","","","","",""
"","1451.8649999517947","html-keyboard-response","312","800961","0.0-57.0","SS1612925841711","pref_question","","50","","","<video width ='960' height = '540' style='padding-top:8%' autoplay muted><source src='images/stimuli/wall_pref.mp4' type='video/mp4'></video>","2","middle","45%","16","","","","","","","",""
"","530.1899999612942","sequential-stimulus-presentation","313","802337","0.0-58.0","SS1612925841711","pref_reveal","","40","800","1330.1899999612942","","","","","16","","","","deviant","","","",""
"","null","html-keyboard-response","314","803171","0.0-59.0-0.0","SS1612925841711","","","null","","","<p><img src= images/blank.png width =""200"" height = ""200"" style = ""float:right""></p><p><img src=images/blank.png width =""800"" height = ""200""></p>","","","","","","","","","","","",""
"","1232.4099999386817","sequential-stimulus-presentation","315","805242","0.0-59.0-1.0","SS1612925841711","trial","","40","800","2032.4099999386817","","","","","17","simple_similar","images/stimuli/spore_stims/simple_05_B_d.gif","middle","","","","",""
"","null","html-keyboard-response","316","806088","0.0-59.0-0.1","SS1612925841711","","","null","","","<p><img src= images/blank.png width =""200"" height = ""200"" style = ""float:right""></p><p><img src=images/blank.png width =""800"" height = ""200""></p>","","","","","","","","","","","",""
"","841.5450000902638","sequential-stimulus-presentation","317","807785","0.0-59.0-1.1","SS1612925841711","trial","","40","800","1641.5450000902638","","","","","17","simple_similar","images/stimuli/spore_stims/simple_05_B_d.gif","middle","","","","",""
"","null","html-keyboard-response","318","808696","0.0-59.0-0.2","SS1612925841711","","","null","","","<p><img src= images/blank.png width =""200"" height = ""200"" style = ""float:right""></p><p><img src=images/blank.png width =""800"" height = ""200""></p>","","","","","","","","","","","",""
"","840.9949999768287","sequential-stimulus-presentation","319","810417","0.0-59.0-1.2","SS1612925841711","trial","","40","800","1640.9949999768287","","","","","17","simple_similar","images/stimuli/spore_stims/simple_05_B_d.gif","middle","","","","",""
"","null","html-keyboard-response","320","811705","0.0-59.0-0.3","SS1612925841711","","","null","","","<p><img src= images/blank.png width =""200"" height = ""200"" style = ""float:right""></p><p><img src=images/blank.png width =""800"" height = ""200""></p>","","","","","","","","","","","",""
"","531.4850000431761","sequential-stimulus-presentation","321","813082","0.0-59.0-1.3","SS1612925841711","trial","","40","800","1331.4850000431761","","","","","17","simple_similar","images/stimuli/spore_stims/simple_05_B_d.gif","middle","","","","",""
"","null","html-keyboard-response","322","814295","0.0-59.0-0.4","SS1612925841711","","","null","","","<p><img src= images/blank.png width =""200"" height = ""200"" style = ""float:right""></p><p><img src=images/blank.png width =""800"" height = ""200""></p>","","","","","","","","","","","",""
"","927.3450000910088","sequential-stimulus-presentation","323","816139","0.0-59.0-1.4","SS1612925841711","trial","","40","800","1727.3450000910088","","","","","17","simple_similar","images/stimuli/spore_stims/simple_05_B_d.gif","middle","","","","",""
"","null","html-keyboard-response","324","816994","0.0-59.0-0.5","SS1612925841711","","","null","","","<p><img src= images/blank.png width =""200"" height = ""200"" style = ""float:right""></p><p><img src=images/blank.png width =""800"" height = ""200""></p>","","","","","","","","","","","",""
"","825.4050000105053","sequential-stimulus-presentation","325","818689","0.0-59.0-1.5","SS1612925841711","trial","","40","800","1625.4050000105053","","","","","17","simple_similar","images/stimuli/spore_stims/simple_05_B_d.gif","middle","","","","",""
"","null","html-keyboard-response","326","819753","0.0-59.0-0.6","SS1612925841711","","","null","","","<p><img src= images/blank.png width =""200"" height = ""200"" style = ""float:right""></p><p><img src=images/blank.png width =""800"" height = ""200""></p>","","","","","","","","","","","",""
"","852.5449999142438","sequential-stimulus-presentation","327","821469","0.0-59.0-1.6","SS1612925841711","trial","","40","800","1652.5449999142438","","","","","17","simple_similar","images/stimuli/spore_stims/simple_05_A_d.gif","left","","","","",""
"","null","html-keyboard-response","328","822777","0.0-59.0-0.7","SS1612925841711","","","null","","","<p><img src= images/blank.png width =""200"" height = ""200"" style = ""float:right""></p><p><img src=images/blank.png width =""800"" height = ""200""></p>","","","","","","","","","","","",""
"","483.0250000813976","sequential-stimulus-presentation","329","824153","0.0-59.0-1.7","SS1612925841711","trial","","40","800","1283.0250000813976","","","","","17","simple_similar","images/stimuli/spore_stims/simple_05_B_d.gif","middle","","","","",""
"","1363.3600000757724","html-keyboard-response","330","825563","0.0-60.0","SS1612925841711","pref_question","","50","","","<video width ='960' height = '540' style='padding-top:8%' autoplay muted><source src='images/stimuli/wall_pref.mp4' type='video/mp4'></video>","2","middle","45%","17","","","","","","","",""
"","655.4350000806153","sequential-stimulus-presentation","331","827119","0.0-61.0","SS1612925841711","pref_reveal","","40","800","1455.4350000806153","","","","","17","","","","background","","","",""
"","null","html-keyboard-response","332","828172","0.0-62.0-0.0","SS1612925841711","","","null","","","<p><img src= images/blank.png width =""200"" height = ""200"" style = ""float:right""></p><p><img src=images/blank.png width =""800"" height = ""200""></p>","","","","","","","","","","","",""
"","995.435000048019","sequential-stimulus-presentation","333","830042","0.0-62.0-1.0","SS1612925841711","trial","","40","800","1795.435000048019","","","","","18","simple_dissimilar","images/stimuli/spore_stims/simple_19_A_a.gif","left","","","","",""
"","null","html-keyboard-response","334","831102","0.0-62.0-0.1","SS1612925841711","","","null","","","<p><img src= images/blank.png width =""200"" height = ""200"" style = ""float:right""></p><p><img src=images/blank.png width =""800"" height = ""200""></p>","","","","","","","","","","","",""
"","508.46000004094094","sequential-stimulus-presentation","335","832467","0.0-62.0-1.1","SS1612925841711","trial","","40","800","1308.460000040941","","","","","18","simple_dissimilar","images/stimuli/spore_stims/simple_19_A_a.gif","left","","","","",""
"","null","html-keyboard-response","336","833486","0.0-62.0-0.2","SS1612925841711","","","null","","","<p><img src= images/blank.png width =""200"" height = ""200"" style = ""float:right""></p><p><img src=images/blank.png width =""800"" height = ""200""></p>","","","","","","","","","","","",""
"","600.3700000001118","sequential-stimulus-presentation","337","834947","0.0-62.0-1.2","SS1612925841711","trial","","40","800","1400.3700000001118","","","","","18","simple_dissimilar","images/stimuli/spore_stims/simple_19_A_a.gif","left","","","","",""
"","null","html-keyboard-response","338","835960","0.0-62.0-0.3","SS1612925841711","","","null","","","<p><img src= images/blank.png width =""200"" height = ""200"" style = ""float:right""></p><p><img src=images/blank.png width =""800"" height = ""200""></p>","","","","","","","","","","","",""
"","761.8900000816211","sequential-stimulus-presentation","339","837633","0.0-62.0-1.3","SS1612925841711","trial","","40","800","1561.890000081621","","","","","18","simple_dissimilar","images/stimuli/spore_stims/simple_19_A_a.gif","left","","","","",""
"","null","html-keyboard-response","340","838788","0.0-62.0-0.4","SS1612925841711","","","null","","","<p><img src= images/blank.png width =""200"" height = ""200"" style = ""float:right""></p><p><img src=images/blank.png width =""800"" height = ""200""></p>","","","","","","","","","","","",""
"","804.355000029318","sequential-stimulus-presentation","341","840467","0.0-62.0-1.4","SS1612925841711","trial","","40","800","1604.355000029318","","","","","18","simple_dissimilar","images/stimuli/spore_stims/simple_19_A_a.gif","left","","","","",""
"","null","html-keyboard-response","342","841596","0.0-62.0-0.5","SS1612925841711","","","null","","","<p><img src= images/blank.png width =""200"" height = ""200"" style = ""float:right""></p><p><img src=images/blank.png width =""800"" height = ""200""></p>","","","","","","","","","","","",""
"","795.574999996461","sequential-stimulus-presentation","343","843266","0.0-62.0-1.5","SS1612925841711","trial","","40","800","1595.574999996461","","","","","18","simple_dissimilar","images/stimuli/spore_stims/simple_19_A_a.gif","left","","","","",""
"","null","html-keyboard-response","344","844457","0.0-62.0-0.6","SS1612925841711","","","null","","","<p><img src= images/blank.png width =""200"" height = ""200"" style = ""float:right""></p><p><img src=images/blank.png width =""800"" height = ""200""></p>","","","","","","","","","","","",""
"","1170.8250000374392","sequential-stimulus-presentation","345","846516","0.0-62.0-1.6","SS1612925841711","trial","","40","800","1970.8250000374392","","","","","18","simple_dissimilar","images/stimuli/spore_stims/simple_08_A_c.gif","right","","","","",""
"","null","html-keyboard-response","346","847501","0.0-62.0-0.7","SS1612925841711","","","null","","","<p><img src= images/blank.png width =""200"" height = ""200"" style = ""float:right""></p><p><img src=images/blank.png width =""800"" height = ""200""></p>","","","","","","","","","","","",""
"","674.9500000150874","sequential-stimulus-presentation","347","849024","0.0-62.0-1.7","SS1612925841711","trial","","40","800","1474.9500000150874","","","","","18","simple_dissimilar","images/stimuli/spore_stims/simple_19_A_a.gif","left","","","","",""
"","1868.724999949336","html-keyboard-response","348","850949","0.0-63.0","SS1612925841711","pref_question","","51","","","<video width ='960' height = '540' style='padding-top:8%' autoplay muted><source src='images/stimuli/wall_pref.mp4' type='video/mp4'></video>","3","right","66%","18","","","","","","","",""
"","511.1599999945611","sequential-stimulus-presentation","349","852345","0.0-64.0","SS1612925841711","pref_reveal","","40","800","1311.159999994561","","","","","18","","","","deviant","","","",""
"","null","html-keyboard-response","350","853326","0.0-65.0-0.0","SS1612925841711","","","null","","","<p><img src= images/blank.png width =""200"" height = ""200"" style = ""float:right""></p><p><img src=images/blank.png width =""800"" height = ""200""></p>","","","","","","","","","","","",""
"","588.9999999199063","sequential-stimulus-presentation","351","854771","0.0-65.0-1.0","SS1612925841711","trial","","40","800","1388.9999999199063","","","","","19","complex_dissimilar","images/stimuli/spore_stims/complex_05_A_d.gif","right","","","","",""
"","null","html-keyboard-response","352","855914","0.0-65.0-0.1","SS1612925841711","","","null","","","<p><img src= images/blank.png width =""200"" height = ""200"" style = ""float:right""></p><p><img src=images/blank.png width =""800"" height = ""200""></p>","","","","","","","","","","","",""
"","1509.6099999500439","sequential-stimulus-presentation","353","858299","0.0-65.0-1.1","SS1612925841711","trial","","40","800","2309.609999950044","","","","","19","complex_dissimilar","images/stimuli/spore_stims/complex_05_A_d.gif","right","","","","",""
"","null","html-keyboard-response","354","859533","0.0-65.0-0.2","SS1612925841711","","","null","","","<p><img src= images/blank.png width =""200"" height = ""200"" style = ""float:right""></p><p><img src=images/blank.png width =""800"" height = ""200""></p>","","","","","","","","","","","",""
"","916.0350000020117","sequential-stimulus-presentation","355","861306","0.0-65.0-1.2","SS1612925841711","trial","","40","800","1716.0350000020117","","","","","19","complex_dissimilar","images/stimuli/spore_stims/complex_05_A_d.gif","right","","","","",""
"","null","html-keyboard-response","356","862450","0.0-65.0-0.3","SS1612925841711","","","null","","","<p><img src= images/blank.png width =""200"" height = ""200"" style = ""float:right""></p><p><img src=images/blank.png width =""800"" height = ""200""></p>","","","","","","","","","","","",""
"","830.0850000232458","sequential-stimulus-presentation","357","864155","0.0-65.0-1.3","SS1612925841711","trial","","40","800","1630.0850000232458","","","","","19","complex_dissimilar","images/stimuli/spore_stims/complex_08_B_a.gif","left","","","","",""
"","null","html-keyboard-response","358","865244","0.0-65.0-0.4","SS1612925841711","","","null","","","<p><img src= images/blank.png width =""200"" height = ""200"" style = ""float:right""></p><p><img src=images/blank.png width =""800"" height = ""200""></p>","","","","","","","","","","","",""
"","653.3899999922141","sequential-stimulus-presentation","359","866789","0.0-65.0-1.4","SS1612925841711","trial","","40","800","1453.3899999922141","","","","","19","complex_dissimilar","images/stimuli/spore_stims/complex_05_A_d.gif","right","","","","",""
"","null","html-keyboard-response","360","867720","0.0-65.0-0.5","SS1612925841711","","","null","","","<p><img src= images/blank.png width =""200"" height = ""200"" style = ""float:right""></p><p><img src=images/blank.png width =""800"" height = ""200""></p>","","","","","","","","","","","",""
"","603.8649999536574","sequential-stimulus-presentation","361","869182","0.0-65.0-1.5","SS1612925841711","trial","","40","800","1403.8649999536574","","","","","19","complex_dissimilar","images/stimuli/spore_stims/complex_05_A_d.gif","right","","","","",""
"","null","html-keyboard-response","362","870276","0.0-65.0-0.6","SS1612925841711","","","null","","","<p><img src= images/blank.png width =""200"" height = ""200"" style = ""float:right""></p><p><img src=images/blank.png width =""800"" height = ""200""></p>","","","","","","","","","","","",""
"","551.6799999168143","sequential-stimulus-presentation","363","871708","0.0-65.0-1.6","SS1612925841711","trial","","40","800","1351.6799999168143","","","","","19","complex_dissimilar","images/stimuli/spore_stims/complex_05_A_d.gif","right","","","","",""
