"view_history","rt","trial_type","trial_index","time_elapsed","internal_node_id","subject","stimulus_type","trial_stimulus","key_press","minimum_viewing_duration","trial_looking_time","stimulus","wall_pref","location","location_percent","block_number","block_type","stimulus_displayed","position_displayed","stim_type_selected","responses","question_order","stimulus_left","stimulus_right"
"[{""page_index"":0,""viewing_time"":8601.655000005849}]","8603.79500000272","instructions","0","8608","0.0-0.0","SS1612927819925","","","","","","","","","","","","","","","","","",""
"[{""page_index"":0,""viewing_time"":14605.65000004135},{""page_index"":1,""viewing_time"":5552.890000049956}]","20158.709999988787","instructions","1","30783","0.0-1.0","SS1612927819925","instructions","","","","","","","","","","","","","","","","",""
"","7485.605000052601","sequential-stimulus-presentation","2","39073","0.0-2.0","SS1612927819925","","","40","800","8285.605000052601","","","","","","","","","","","","",""
"","3064.7200000239536","sequential-stimulus-presentation","3","42953","0.0-3.0","SS1612927819925","","","40","800","3864.7200000239536","","","","","","","","","","","","",""
"[{""page_index"":0,""viewing_time"":5988.330000080168}]","5988.7900000903755","instructions","4","48942","0.0-4.0","SS1612927819925","instructions","","","","","","","","","","","","","","","","",""
"","15265.464999945834","html-keyboard-response","5","64213","0.0-5.0","SS1612927819925","instructions","","49","","","<video width ='960' height = '540' autoplay muted><source src='images/stimuli/wall_pref.mp4' type='video/mp4'></video>","1","left","25%","","","","","","","","",""
"","1627.3650000803173","sequential-stimulus-presentation","6","66662","0.0-6.0","SS1612927819925","pref_reveal","","40","800","2427.3650000803173","","","","","","","","","","","","",""
"[{""page_index"":0,""viewing_time"":15511.585000087507},{""page_index"":1,""viewing_time"":21682.455000001937},{""page_index"":2,""viewing_time"":1865.8099999884143},{""page_index"":3,""viewing_time"":2057.009999989532}]","41117.080000112765","instructions","7","107781","0.0-7.0","SS1612927819925","instructions","","","","","","","","","","","","","","","","",""
"","null","html-keyboard-response","8","108940","0.0-8.0-0.0","SS1612927819925","","","null","","","<p><img src= images/blank.png width =""200"" height = ""200"" style = ""float:right""></p><p><img src=images/blank.png width =""800"" height = ""200""></p>","","","","","","","","","","","",""
"","5340.680000022985","sequential-stimulus-presentation","9","115103","0.0-8.0-1.0","SS1612927819925","trial","","40","800","6140.680000022985","","","","","0","complex_similar","images/stimuli/spore_stims/complex_12_B_a.gif","right","","","","",""
"","null","html-keyboard-response","10","116318","0.0-8.0-0.1","SS1612927819925","","","null","","","<p><img src= images/blank.png width =""200"" height = ""200"" style = ""float:right""></p><p><img src=images/blank.png width =""800"" height = ""200""></p>","","","","","","","","","","","",""
"","1381.8350000074133","sequential-stimulus-presentation","11","118515","0.0-8.0-1.1","SS1612927819925","trial","","40","800","2181.8350000074133","","","","","0","complex_similar","images/stimuli/spore_stims/complex_12_B_a.gif","right","","","","",""
"","null","html-keyboard-response","12","119428","0.0-8.0-0.2","SS1612927819925","","","null","","","<p><img src= images/blank.png width =""200"" height = ""200"" style = ""float:right""></p><p><img src=images/blank.png width =""800"" height = ""200""></p>","","","","","","","","","","","",""
"","322.87999999243766","sequential-stimulus-presentation","13","120566","0.0-8.0-1.2","SS1612927819925","trial","","40","800","1122.8799999924377","","","","","0","complex_similar","images/stimuli/spore_stims/complex_12_B_a.gif","right","","","","",""
"","null","html-keyboard-response","14","121669","0.0-8.0-0.3","SS1612927819925","","","null","","","<p><img src= images/blank.png width =""200"" height = ""200"" style = ""float:right""></p><p><img src=images/blank.png width =""800"" height = ""200""></p>","","","","","","","","","","","",""
"","402.19499997328967","sequential-stimulus-presentation","15","122882","0.0-8.0-1.3","SS1612927819925","trial","","40","800","1202.1949999732897","","","","","0","complex_similar","images/stimuli/spore_stims/complex_12_B_a.gif","right","","","","",""
"","null","html-keyboard-response","16","123885","0.0-8.0-0.4","SS1612927819925","","","null","","","<p><img src= images/blank.png width =""200"" height = ""200"" style = ""float:right""></p><p><img src=images/blank.png width =""800"" height = ""200""></p>","","","","","","","","","","","",""
"","344.15500005707145","sequential-stimulus-presentation","17","125040","0.0-8.0-1.4","SS1612927819925","trial","","40","800","1144.1550000570714","","","","","0","complex_similar","images/stimuli/spore_stims/complex_12_B_a.gif","right","","","","",""
"","null","html-keyboard-response","18","125969","0.0-8.0-0.5","SS1612927819925","","","null","","","<p><img src= images/blank.png width =""200"" height = ""200"" style = ""float:right""></p><p><img src=images/blank.png width =""800"" height = ""200""></p>","","","","","","","","","","","",""
"","7892.284999950789","sequential-stimulus-presentation","19","134678","0.0-8.0-1.5","SS1612927819925","trial","","40","800","8692.284999950789","","","","","0","complex_similar","images/stimuli/spore_stims/complex_12_A_a.gif","middle","","","","",""
"","null","html-keyboard-response","20","135576","0.0-8.0-0.6","SS1612927819925","","","null","","","<p><img src= images/blank.png width =""200"" height = ""200"" style = ""float:right""></p><p><img src=images/blank.png width =""800"" height = ""200""></p>","","","","","","","","","","","",""
"","545.9350000601262","sequential-stimulus-presentation","21","136944","0.0-8.0-1.6","SS1612927819925","trial","","40","800","1345.9350000601262","","","","","0","complex_similar","images/stimuli/spore_stims/complex_12_B_a.gif","right","","","","",""
"","null","html-keyboard-response","22","138160","0.0-8.0-0.7","SS1612927819925","","","null","","","<p><img src= images/blank.png width =""200"" height = ""200"" style = ""float:right""></p><p><img src=images/blank.png width =""800"" height = ""200""></p>","","","","","","","","","","","",""
"","970.934999990277","sequential-stimulus-presentation","23","139946","0.0-8.0-1.7","SS1612927819925","trial","","40","800","1770.934999990277","","","","","0","complex_similar","images/stimuli/spore_stims/complex_12_B_a.gif","right","","","","",""
"","2007.344999932684","html-keyboard-response","24","141957","0.0-9.0","SS1612927819925","pref_question","","49","","","<video width ='960' height = '540' style='padding-top:8%' autoplay muted><source src='images/stimuli/wall_pref.mp4' type='video/mp4'></video>","1","left","25%","0","","","","","","","",""
"","6740.690000005998","sequential-stimulus-presentation","25","149512","0.0-10.0","SS1612927819925","pref_reveal","","40","800","7540.690000005998","","","","","0","","","","novel","","","",""
"","null","html-keyboard-response","26","150435","0.0-11.0-0.0","SS1612927819925","","","null","","","<p><img src= images/blank.png width =""200"" height = ""200"" style = ""float:right""></p><p><img src=images/blank.png width =""800"" height = ""200""></p>","","","","","","","","","","","",""
"","3597.414999967441","sequential-stimulus-presentation","27","154845","0.0-11.0-1.0","SS1612927819925","trial","","40","800","4397.414999967441","","","","","1","simple_similar","images/stimuli/spore_stims/simple_18_A_d.gif","middle","","","","",""
"","null","html-keyboard-response","28","155853","0.0-11.0-0.1","SS1612927819925","","","null","","","<p><img src= images/blank.png width =""200"" height = ""200"" style = ""float:right""></p><p><img src=images/blank.png width =""800"" height = ""200""></p>","","","","","","","","","","","",""
"","1081.8900000303984","sequential-stimulus-presentation","29","157750","0.0-11.0-1.1","SS1612927819925","trial","","40","800","1881.8900000303984","","","","","1","simple_similar","images/stimuli/spore_stims/simple_18_A_d.gif","middle","","","","",""
"","null","html-keyboard-response","30","158850","0.0-11.0-0.2","SS1612927819925","","","null","","","<p><img src= images/blank.png width =""200"" height = ""200"" style = ""float:right""></p><p><img src=images/blank.png width =""800"" height = ""200""></p>","","","","","","","","","","","",""
"","781.6450000973418","sequential-stimulus-presentation","31","160441","0.0-11.0-1.2","SS1612927819925","trial","","40","800","1581.6450000973418","","","","","1","simple_similar","images/stimuli/spore_stims/simple_18_A_d.gif","middle","","","","",""
"","null","html-keyboard-response","32","161515","0.0-11.0-0.3","SS1612927819925","","","null","","","<p><img src= images/blank.png width =""200"" height = ""200"" style = ""float:right""></p><p><img src=images/blank.png width =""800"" height = ""200""></p>","","","","","","","","","","","",""
"","1023.2549998909235","sequential-stimulus-presentation","33","163355","0.0-11.0-1.3","SS1612927819925","trial","","40","800","1823.2549998909235","","","","","1","simple_similar","images/stimuli/spore_stims/simple_18_A_d.gif","middle","","","","",""
"","null","html-keyboard-response","34","164348","0.0-11.0-0.4","SS1612927819925","","","null","","","<p><img src= images/blank.png width =""200"" height = ""200"" style = ""float:right""></p><p><img src=images/blank.png width =""800"" height = ""200""></p>","","","","","","","","","","","",""
"","783.7049999507144","sequential-stimulus-presentation","35","165943","0.0-11.0-1.4","SS1612927819925","trial","","40","800","1583.7049999507144","","","","","1","simple_similar","images/stimuli/spore_stims/simple_18_A_d.gif","middle","","","","",""
"","null","html-keyboard-response","36","167027","0.0-11.0-0.5","SS1612927819925","","","null","","","<p><img src= images/blank.png width =""200"" height = ""200"" style = ""float:right""></p><p><img src=images/blank.png width =""800"" height = ""200""></p>","","","","","","","","","","","",""
"","1649.1249999962747","sequential-stimulus-presentation","37","169495","0.0-11.0-1.5","SS1612927819925","trial","","40","800","2449.1249999962747","","","","","1","simple_similar","images/stimuli/spore_stims/simple_18_B_d.gif","left","","","","",""
"","null","html-keyboard-response","38","170799","0.0-11.0-0.6","SS1612927819925","","","null","","","<p><img src= images/blank.png width =""200"" height = ""200"" style = ""float:right""></p><p><img src=images/blank.png width =""800"" height = ""200""></p>","","","","","","","","","","","",""
"","828.8649999303743","sequential-stimulus-presentation","39","172436","0.0-11.0-1.6","SS1612927819925","trial","","40","800","1628.8649999303743","","","","","1","simple_similar","images/stimuli/spore_stims/simple_18_A_d.gif","middle","","","","",""
"","null","html-keyboard-response","40","173489","0.0-11.0-0.7","SS1612927819925","","","null","","","<p><img src= images/blank.png width =""200"" height = ""200"" style = ""float:right""></p><p><img src=images/blank.png width =""800"" height = ""200""></p>","","","","","","","","","","","",""
"","752.100000041537","sequential-stimulus-presentation","41","175053","0.0-11.0-1.7","SS1612927819925","trial","","40","800","1552.100000041537","","","","","1","simple_similar","images/stimuli/spore_stims/simple_18_A_d.gif","middle","","","","",""
"","1920.369999948889","html-keyboard-response","42","176975","0.0-12.0","SS1612927819925","pref_question","","51","","","<video width ='960' height = '540' style='padding-top:8%' autoplay muted><source src='images/stimuli/wall_pref.mp4' type='video/mp4'></video>","3","right","66%","1","","","","","","","",""
"","4938.680000021122","sequential-stimulus-presentation","43","182730","0.0-13.0","SS1612927819925","pref_reveal","","40","800","5738.680000021122","","","","","1","","","","novel","","","",""
"","null","html-keyboard-response","44","183752","0.0-14.0-0.0","SS1612927819925","","","null","","","<p><img src= images/blank.png width =""200"" height = ""200"" style = ""float:right""></p><p><img src=images/blank.png width =""800"" height = ""200""></p>","","","","","","","","","","","",""
"","3888.524999958463","sequential-stimulus-presentation","45","188446","0.0-14.0-1.0","SS1612927819925","trial","","40","800","4688.524999958463","","","","","2","complex_similar","images/stimuli/spore_stims/complex_11_A_b.gif","right","","","","",""
"","null","html-keyboard-response","46","189564","0.0-14.0-0.1","SS1612927819925","","","null","","","<p><img src= images/blank.png width =""200"" height = ""200"" style = ""float:right""></p><p><img src=images/blank.png width =""800"" height = ""200""></p>","","","","","","","","","","","",""
"","1829.4899999164045","sequential-stimulus-presentation","47","192207","0.0-14.0-1.1","SS1612927819925","trial","","40","800","2629.4899999164045","","","","","2","complex_similar","images/stimuli/spore_stims/complex_11_A_b.gif","right","","","","",""
"","null","html-keyboard-response","48","193105","0.0-14.0-0.2","SS1612927819925","","","null","","","<p><img src= images/blank.png width =""200"" height = ""200"" style = ""float:right""></p><p><img src=images/blank.png width =""800"" height = ""200""></p>","","","","","","","","","","","",""
"","1361.6050001000986","sequential-stimulus-presentation","49","195275","0.0-14.0-1.2","SS1612927819925","trial","","40","800","2161.6050001000986","","","","","2","complex_similar","images/stimuli/spore_stims/complex_11_B_b.gif","left","","","","",""
"","null","html-keyboard-response","50","196473","0.0-14.0-0.3","SS1612927819925","","","null","","","<p><img src= images/blank.png width =""200"" height = ""200"" style = ""float:right""></p><p><img src=images/blank.png width =""800"" height = ""200""></p>","","","","","","","","","","","",""
"","599.309999961406","sequential-stimulus-presentation","51","197884","0.0-14.0-1.3","SS1612927819925","trial","","40","800","1399.309999961406","","","","","2","complex_similar","images/stimuli/spore_stims/complex_11_A_b.gif","right","","","","",""
"","null","html-keyboard-response","52","198997","0.0-14.0-0.4","SS1612927819925","","","null","","","<p><img src= images/blank.png width =""200"" height = ""200"" style = ""float:right""></p><p><img src=images/blank.png width =""800"" height = ""200""></p>","","","","","","","","","","","",""
"","461.8599999230355","sequential-stimulus-presentation","53","200266","0.0-14.0-1.4","SS1612927819925","trial","","40","800","1261.8599999230355","","","","","2","complex_similar","images/stimuli/spore_stims/complex_11_A_b.gif","right","","","","",""
"","null","html-keyboard-response","54","201199","0.0-14.0-0.5","SS1612927819925","","","null","","","<p><img src= images/blank.png width =""200"" height = ""200"" style = ""float:right""></p><p><img src=images/blank.png width =""800"" height = ""200""></p>","","","","","","","","","","","",""
"","668.8599999761209","sequential-stimulus-presentation","55","202676","0.0-14.0-1.5","SS1612927819925","trial","","40","800","1468.859999976121","","","","","2","complex_similar","images/stimuli/spore_stims/complex_11_A_b.gif","right","","","","",""
"","null","html-keyboard-response","56","203814","0.0-14.0-0.6","SS1612927819925","","","null","","","<p><img src= images/blank.png width =""200"" height = ""200"" style = ""float:right""></p><p><img src=images/blank.png width =""800"" height = ""200""></p>","","","","","","","","","","","",""
"","789.5100000314415","sequential-stimulus-presentation","57","205415","0.0-14.0-1.6","SS1612927819925","trial","","40","800","1589.5100000314415","","","","","2","complex_similar","images/stimuli/spore_stims/complex_11_A_b.gif","right","","","","",""
"","null","html-keyboard-response","58","206291","0.0-14.0-0.7","SS1612927819925","","","null","","","<p><img src= images/blank.png width =""200"" height = ""200"" style = ""float:right""></p><p><img src=images/blank.png width =""800"" height = ""200""></p>","","","","","","","","","","","",""
"","421.90499999560416","sequential-stimulus-presentation","59","207531","0.0-14.0-1.7","SS1612927819925","trial","","40","800","1221.9049999956042","","","","","2","complex_similar","images/stimuli/spore_stims/complex_11_A_b.gif","right","","","","",""
"","1949.8700000112876","html-keyboard-response","60","209487","0.0-15.0","SS1612927819925","pref_question","","50","","","<video width ='960' height = '540' style='padding-top:8%' autoplay muted><source src='images/stimuli/wall_pref.mp4' type='video/mp4'></video>","2","middle","45%","2","","","","","","","",""
"","5824.230000027455","sequential-stimulus-presentation","61","216130","0.0-16.0","SS1612927819925","pref_reveal","","40","800","6624.230000027455","","","","","2","","","","novel","","","",""
"","null","html-keyboard-response","62","217026","0.0-17.0-0.0","SS1612927819925","","","null","","","<p><img src= images/blank.png width =""200"" height = ""200"" style = ""float:right""></p><p><img src=images/blank.png width =""800"" height = ""200""></p>","","","","","","","","","","","",""
"","1892.7749999566004","sequential-stimulus-presentation","63","219731","0.0-17.0-1.0","SS1612927819925","trial","","40","800","2692.7749999566004","","","","","3","simple_dissimilar","images/stimuli/spore_stims/simple_12_A_d.gif","middle","","","","",""
"","null","html-keyboard-response","64","220842","0.0-17.0-0.1","SS1612927819925","","","null","","","<p><img src= images/blank.png width =""200"" height = ""200"" style = ""float:right""></p><p><img src=images/blank.png width =""800"" height = ""200""></p>","","","","","","","","","","","",""
"","3139.285000041127","sequential-stimulus-presentation","65","224812","0.0-17.0-1.1","SS1612927819925","trial","","40","800","3939.285000041127","","","","","3","simple_dissimilar","images/stimuli/spore_stims/simple_12_A_d.gif","middle","","","","",""
"","null","html-keyboard-response","66","225954","0.0-17.0-0.2","SS1612927819925","","","null","","","<p><img src= images/blank.png width =""200"" height = ""200"" style = ""float:right""></p><p><img src=images/blank.png width =""800"" height = ""200""></p>","","","","","","","","","","","",""
"","668.6249999329448","sequential-stimulus-presentation","67","227429","0.0-17.0-1.2","SS1612927819925","trial","","40","800","1468.6249999329448","","","","","3","simple_dissimilar","images/stimuli/spore_stims/simple_12_A_d.gif","middle","","","","",""
"","null","html-keyboard-response","68","228290","0.0-17.0-0.3","SS1612927819925","","","null","","","<p><img src= images/blank.png width =""200"" height = ""200"" style = ""float:right""></p><p><img src=images/blank.png width =""800"" height = ""200""></p>","","","","","","","","","","","",""
"","1689.4000000320375","sequential-stimulus-presentation","69","230792","0.0-17.0-1.3","SS1612927819925","trial","","40","800","2489.4000000320375","","","","","3","simple_dissimilar","images/stimuli/spore_stims/simple_06_B_a.gif","right","","","","",""
"","null","html-keyboard-response","70","231814","0.0-17.0-0.4","SS1612927819925","","","null","","","<p><img src= images/blank.png width =""200"" height = ""200"" style = ""float:right""></p><p><img src=images/blank.png width =""800"" height = ""200""></p>","","","","","","","","","","","",""
"","667.3000000882894","sequential-stimulus-presentation","71","233293","0.0-17.0-1.4","SS1612927819925","trial","","40","800","1467.3000000882894","","","","","3","simple_dissimilar","images/stimuli/spore_stims/simple_12_A_d.gif","middle","","","","",""
"","null","html-keyboard-response","72","234134","0.0-17.0-0.5","SS1612927819925","","","null","","","<p><img src= images/blank.png width =""200"" height = ""200"" style = ""float:right""></p><p><img src=images/blank.png width =""800"" height = ""200""></p>","","","","","","","","","","","",""
"","510.77000005170703","sequential-stimulus-presentation","73","235458","0.0-17.0-1.5","SS1612927819925","trial","","40","800","1310.770000051707","","","","","3","simple_dissimilar","images/stimuli/spore_stims/simple_12_A_d.gif","middle","","","","",""
"","null","html-keyboard-response","74","236711","0.0-17.0-0.6","SS1612927819925","","","null","","","<p><img src= images/blank.png width =""200"" height = ""200"" style = ""float:right""></p><p><img src=images/blank.png width =""800"" height = ""200""></p>","","","","","","","","","","","",""
"","474.53999996650964","sequential-stimulus-presentation","75","238002","0.0-17.0-1.6","SS1612927819925","trial","","40","800","1274.5399999665096","","","","","3","simple_dissimilar","images/stimuli/spore_stims/simple_12_A_d.gif","middle","","","","",""
"","null","html-keyboard-response","76","239272","0.0-17.0-0.7","SS1612927819925","","","null","","","<p><img src= images/blank.png width =""200"" height = ""200"" style = ""float:right""></p><p><img src=images/blank.png width =""800"" height = ""200""></p>","","","","","","","","","","","",""
"","468.9699999289587","sequential-stimulus-presentation","77","240550","0.0-17.0-1.7","SS1612927819925","trial","","40","800","1268.9699999289587","","","","","3","simple_dissimilar","images/stimuli/spore_stims/simple_12_A_d.gif","middle","","","","",""
"","2209.344999981113","html-keyboard-response","78","242761","0.0-18.0","SS1612927819925","pref_question","","49","","","<video width ='960' height = '540' style='padding-top:8%' autoplay muted><source src='images/stimuli/wall_pref.mp4' type='video/mp4'></video>","1","left","25%","3","","","","","","","",""
"","4876.540000084788","sequential-stimulus-presentation","79","248446","0.0-19.0","SS1612927819925","pref_reveal","","40","800","5676.540000084788","","","","","3","","","","novel","","","",""
"","null","html-keyboard-response","80","249284","0.0-20.0-0.0","SS1612927819925","","","null","","","<p><img src= images/blank.png width =""200"" height = ""200"" style = ""float:right""></p><p><img src=images/blank.png width =""800"" height = ""200""></p>","","","","","","","","","","","",""
"","3453.789999941364","sequential-stimulus-presentation","81","253547","0.0-20.0-1.0","SS1612927819925","trial","","40","800","4253.789999941364","","","","","4","simple_similar","images/stimuli/spore_stims/simple_20_A_b.gif","right","","","","",""
"","null","html-keyboard-response","82","254793","0.0-20.0-0.1","SS1612927819925","","","null","","","<p><img src= images/blank.png width =""200"" height = ""200"" style = ""float:right""></p><p><img src=images/blank.png width =""800"" height = ""200""></p>","","","","","","","","","","","",""
"","731.5350000280887","sequential-stimulus-presentation","83","256337","0.0-20.0-1.1","SS1612927819925","trial","","40","800","1531.5350000280887","","","","","4","simple_similar","images/stimuli/spore_stims/simple_20_A_b.gif","right","","","","",""
"","null","html-keyboard-response","84","257240","0.0-20.0-0.2","SS1612927819925","","","null","","","<p><img src= images/blank.png width =""200"" height = ""200"" style = ""float:right""></p><p><img src=images/blank.png width =""800"" height = ""200""></p>","","","","","","","","","","","",""
"","758.1099999370053","sequential-stimulus-presentation","85","258810","0.0-20.0-1.2","SS1612927819925","trial","","40","800","1558.1099999370053","","","","","4","simple_similar","images/stimuli/spore_stims/simple_20_A_b.gif","right","","","","",""
"","null","html-keyboard-response","86","259734","0.0-20.0-0.3","SS1612927819925","","","null","","","<p><img src= images/blank.png width =""200"" height = ""200"" style = ""float:right""></p><p><img src=images/blank.png width =""800"" height = ""200""></p>","","","","","","","","","","","",""
"","782.8300000401214","sequential-stimulus-presentation","87","261333","0.0-20.0-1.3","SS1612927819925","trial","","40","800","1582.8300000401214","","","","","4","simple_similar","images/stimuli/spore_stims/simple_20_B_b.gif","left","","","","",""
"","null","html-keyboard-response","88","262330","0.0-20.0-0.4","SS1612927819925","","","null","","","<p><img src= images/blank.png width =""200"" height = ""200"" style = ""float:right""></p><p><img src=images/blank.png width =""800"" height = ""200""></p>","","","","","","","","","","","",""
"","651.5600000275299","sequential-stimulus-presentation","89","263792","0.0-20.0-1.4","SS1612927819925","trial","","40","800","1451.56000002753","","","","","4","simple_similar","images/stimuli/spore_stims/simple_20_A_b.gif","right","","","","",""
"","null","html-keyboard-response","90","264652","0.0-20.0-0.5","SS1612927819925","","","null","","","<p><img src= images/blank.png width =""200"" height = ""200"" style = ""float:right""></p><p><img src=images/blank.png width =""800"" height = ""200""></p>","","","","","","","","","","","",""
"","372.4550000624731","sequential-stimulus-presentation","91","265841","0.0-20.0-1.5","SS1612927819925","trial","","40","800","1172.4550000624731","","","","","4","simple_similar","images/stimuli/spore_stims/simple_20_A_b.gif","right","","","","",""
"","null","html-keyboard-response","92","266725","0.0-20.0-0.6","SS1612927819925","","","null","","","<p><img src= images/blank.png width =""200"" height = ""200"" style = ""float:right""></p><p><img src=images/blank.png width =""800"" height = ""200""></p>","","","","","","","","","","","",""
"","1705.9000000590459","sequential-stimulus-presentation","93","269247","0.0-20.0-1.6","SS1612927819925","trial","","40","800","2505.900000059046","","","","","4","simple_similar","images/stimuli/spore_stims/simple_20_A_b.gif","right","","","","",""
"","null","html-keyboard-response","94","270114","0.0-20.0-0.7","SS1612927819925","","","null","","","<p><img src= images/blank.png width =""200"" height = ""200"" style = ""float:right""></p><p><img src=images/blank.png width =""800"" height = ""200""></p>","","","","","","","","","","","",""
"","782.439999980852","sequential-stimulus-presentation","95","271710","0.0-20.0-1.7","SS1612927819925","trial","","40","800","1582.439999980852","","","","","4","simple_similar","images/stimuli/spore_stims/simple_20_A_b.gif","right","","","","",""
"","1721.5300000971183","html-keyboard-response","96","273438","0.0-21.0","SS1612927819925","pref_question","","50","","","<video width ='960' height = '540' style='padding-top:8%' autoplay muted><source src='images/stimuli/wall_pref.mp4' type='video/mp4'></video>","2","middle","45%","4","","","","","","","",""
"","6196.644999901764","sequential-stimulus-presentation","97","280444","0.0-22.0","SS1612927819925","pref_reveal","","40","800","6996.644999901764","","","","","4","","","","novel","","","",""
"","null","html-keyboard-response","98","281663","0.0-23.0-0.0","SS1612927819925","","","null","","","<p><img src= images/blank.png width =""200"" height = ""200"" style = ""float:right""></p><p><img src=images/blank.png width =""800"" height = ""200""></p>","","","","","","","","","","","",""
"","94.33500003069639","sequential-stimulus-presentation","99","282578","0.0-23.0-1.0","SS1612927819925","trial","","40","800","894.3350000306964","","","","","5","complex_similar","images/stimuli/spore_stims/complex_20_B_c.gif","left","","","","",""
"","null","html-keyboard-response","100","283779","0.0-23.0-0.1","SS1612927819925","","","null","","","<p><img src= images/blank.png width =""200"" height = ""200"" style = ""float:right""></p><p><img src=images/blank.png width =""800"" height = ""200""></p>","","","","","","","","","","","",""
"","3523.0699999956414","sequential-stimulus-presentation","101","288113","0.0-23.0-1.1","SS1612927819925","trial","","40","800","4323.069999995641","","","","","5","complex_similar","images/stimuli/spore_stims/complex_20_B_c.gif","left","","","","",""
"","null","html-keyboard-response","102","289117","0.0-23.0-0.2","SS1612927819925","","","null","","","<p><img src= images/blank.png width =""200"" height = ""200"" style = ""float:right""></p><p><img src=images/blank.png width =""800"" height = ""200""></p>","","","","","","","","","","","",""
"","904.2549999430776","sequential-stimulus-presentation","103","290828","0.0-23.0-1.2","SS1612927819925","trial","","40","800","1704.2549999430776","","","","","5","complex_similar","images/stimuli/spore_stims/complex_20_B_c.gif","left","","","","",""
"","null","html-keyboard-response","104","292087","0.0-23.0-0.3","SS1612927819925","","","null","","","<p><img src= images/blank.png width =""200"" height = ""200"" style = ""float:right""></p><p><img src=images/blank.png width =""800"" height = ""200""></p>","","","","","","","","","","","",""
"","1358.5450000828132","sequential-stimulus-presentation","105","294256","0.0-23.0-1.3","SS1612927819925","trial","","40","800","2158.545000082813","","","","","5","complex_similar","images/stimuli/spore_stims/complex_20_B_c.gif","left","","","","",""
"","null","html-keyboard-response","106","295470","0.0-23.0-0.4","SS1612927819925","","","null","","","<p><img src= images/blank.png width =""200"" height = ""200"" style = ""float:right""></p><p><img src=images/blank.png width =""800"" height = ""200""></p>","","","","","","","","","","","",""
"","756.2599999364465","sequential-stimulus-presentation","107","297038","0.0-23.0-1.4","SS1612927819925","trial","","40","800","1556.2599999364465","","","","","5","complex_similar","images/stimuli/spore_stims/complex_20_A_c.gif","middle","","","","",""
"","null","html-keyboard-response","108","298245","0.0-23.0-0.5","SS1612927819925","","","null","","","<p><img src= images/blank.png width =""200"" height = ""200"" style = ""float:right""></p><p><img src=images/blank.png width =""800"" height = ""200""></p>","","","","","","","","","","","",""
"","842.1699999598786","sequential-stimulus-presentation","109","299897","0.0-23.0-1.5","SS1612927819925","trial","","40","800","1642.1699999598786","","","","","5","complex_similar","images/stimuli/spore_stims/complex_20_B_c.gif","left","","","","",""
"","null","html-keyboard-response","110","300768","0.0-23.0-0.6","SS1612927819925","","","null","","","<p><img src= images/blank.png width =""200"" height = ""200"" style = ""float:right""></p><p><img src=images/blank.png width =""800"" height = ""200""></p>","","","","","","","","","","","",""
"","469.6450000628829","sequential-stimulus-presentation","111","302042","0.0-23.0-1.6","SS1612927819925","trial","","40","800","1269.645000062883","","","","","5","complex_similar","images/stimuli/spore_stims/complex_20_B_c.gif","left","","","","",""
"","null","html-keyboard-response","112","303336","0.0-23.0-0.7","SS1612927819925","","","null","","","<p><img src= images/blank.png width =""200"" height = ""200"" style = ""float:right""></p><p><img src=images/blank.png width =""800"" height = ""200""></p>","","","","","","","","","","","",""
"","743.7700000591576","sequential-stimulus-presentation","113","304889","0.0-23.0-1.7","SS1612927819925","trial","","40","800","1543.7700000591576","","","","","5","complex_similar","images/stimuli/spore_stims/complex_20_B_c.gif","left","","","","",""
"","2353.735000011511","html-keyboard-response","114","307250","0.0-24.0","SS1612927819925","pref_question","","51","","","<video width ='960' height = '540' style='padding-top:8%' autoplay muted><source src='images/stimuli/wall_pref.mp4' type='video/mp4'></video>","3","right","66%","5","","","","","","","",""
"","5369.115000008605","sequential-stimulus-presentation","115","313431","0.0-25.0","SS1612927819925","pref_reveal","","40","800","6169.115000008605","","","","","5","","","","novel","","","",""
"","null","html-keyboard-response","116","314437","0.0-26.0-0.0","SS1612927819925","","","null","","","<p><img src= images/blank.png width =""200"" height = ""200"" style = ""float:right""></p><p><img src=images/blank.png width =""800"" height = ""200""></p>","","","","","","","","","","","",""
"","1936.8150000227615","sequential-stimulus-presentation","117","317185","0.0-26.0-1.0","SS1612927819925","trial","","40","800","2736.8150000227615","","","","","6","simple_similar","images/stimuli/spore_stims/simple_10_A_c.gif","middle","","","","",""
"","null","html-keyboard-response","118","318131","0.0-26.0-0.1","SS1612927819925","","","null","","","<p><img src= images/blank.png width =""200"" height = ""200"" style = ""float:right""></p><p><img src=images/blank.png width =""800"" height = ""200""></p>","","","","","","","","","","","",""
"","750.2099999692291","sequential-stimulus-presentation","119","319692","0.0-26.0-1.1","SS1612927819925","trial","","40","800","1550.209999969229","","","","","6","simple_similar","images/stimuli/spore_stims/simple_10_A_c.gif","middle","","","","",""
"","null","html-keyboard-response","120","320630","0.0-26.0-0.2","SS1612927819925","","","null","","","<p><img src= images/blank.png width =""200"" height = ""200"" style = ""float:right""></p><p><img src=images/blank.png width =""800"" height = ""200""></p>","","","","","","","","","","","",""
"","969.9049999471754","sequential-stimulus-presentation","121","322410","0.0-26.0-1.2","SS1612927819925","trial","","40","800","1769.9049999471754","","","","","6","simple_similar","images/stimuli/spore_stims/simple_10_B_c.gif","right","","","","",""
"","null","html-keyboard-response","122","323344","0.0-26.0-0.3","SS1612927819925","","","null","","","<p><img src= images/blank.png width =""200"" height = ""200"" style = ""float:right""></p><p><img src=images/blank.png width =""800"" height = ""200""></p>","","","","","","","","","","","",""
"","935.8200000133365","sequential-stimulus-presentation","123","325091","0.0-26.0-1.3","SS1612927819925","trial","","40","800","1735.8200000133365","","","","","6","simple_similar","images/stimuli/spore_stims/simple_10_A_c.gif","middle","","","","",""
"","null","html-keyboard-response","124","325953","0.0-26.0-0.4","SS1612927819925","","","null","","","<p><img src= images/blank.png width =""200"" height = ""200"" style = ""float:right""></p><p><img src=images/blank.png width =""800"" height = ""200""></p>","","","","","","","","","","","",""
"","621.0750000318512","sequential-stimulus-presentation","125","327385","0.0-26.0-1.4","SS1612927819925","trial","","40","800","1421.0750000318512","","","","","6","simple_similar","images/stimuli/spore_stims/simple_10_A_c.gif","middle","","","","",""
"","null","html-keyboard-response","126","328553","0.0-26.0-0.5","SS1612927819925","","","null","","","<p><img src= images/blank.png width =""200"" height = ""200"" style = ""float:right""></p><p><img src=images/blank.png width =""800"" height = ""200""></p>","","","","","","","","","","","",""
"","536.8149999994785","sequential-stimulus-presentation","127","329902","0.0-26.0-1.5","SS1612927819925","trial","","40","800","1336.8149999994785","","","","","6","simple_similar","images/stimuli/spore_stims/simple_10_A_c.gif","middle","","","","",""
"","null","html-keyboard-response","128","330846","0.0-26.0-0.6","SS1612927819925","","","null","","","<p><img src= images/blank.png width =""200"" height = ""200"" style = ""float:right""></p><p><img src=images/blank.png width =""800"" height = ""200""></p>","","","","","","","","","","","",""
"","692.8750000661239","sequential-stimulus-presentation","129","332353","0.0-26.0-1.6","SS1612927819925","trial","","40","800","1492.875000066124","","","","","6","simple_similar","images/stimuli/spore_stims/simple_10_A_c.gif","middle","","","","",""
"","null","html-keyboard-response","130","333295","0.0-26.0-0.7","SS1612927819925","","","null","","","<p><img src= images/blank.png width =""200"" height = ""200"" style = ""float:right""></p><p><img src=images/blank.png width =""800"" height = ""200""></p>","","","","","","","","","","","",""
"","503.4649999579415","sequential-stimulus-presentation","131","334610","0.0-26.0-1.7","SS1612927819925","trial","","40","800","1303.4649999579415","","","","","6","simple_similar","images/stimuli/spore_stims/simple_10_A_c.gif","middle","","","","",""
"","2043.7699999893084","html-keyboard-response","132","336656","0.0-27.0","SS1612927819925","pref_question","","49","","","<video width ='960' height = '540' style='padding-top:8%' autoplay muted><source src='images/stimuli/wall_pref.mp4' type='video/mp4'></video>","1","left","25%","6","","","","","","","",""
"","4677.224999992177","sequential-stimulus-presentation","133","342152","0.0-28.0","SS1612927819925","pref_reveal","","40","800","5477.224999992177","","","","","6","","","","novel","","","",""
"","null","html-keyboard-response","134","343441","0.0-29.0-0.0","SS1612927819925","","","null","","","<p><img src= images/blank.png width =""200"" height = ""200"" style = ""float:right""></p><p><img src=images/blank.png width =""800"" height = ""200""></p>","","","","","","","","","","","",""
"","1857.3099999921396","sequential-stimulus-presentation","135","346115","0.0-29.0-1.0","SS1612927819925","trial","","40","800","2657.3099999921396","","","","","7","complex_dissimilar","images/stimuli/spore_stims/complex_05_A_a.gif","middle","","","","",""
"","null","html-keyboard-response","136","347245","0.0-29.0-0.1","SS1612927819925","","","null","","","<p><img src= images/blank.png width =""200"" height = ""200"" style = ""float:right""></p><p><img src=images/blank.png width =""800"" height = ""200""></p>","","","","","","","","","","","",""
"","740.5399999115616","sequential-stimulus-presentation","137","348789","0.0-29.0-1.1","SS1612927819925","trial","","40","800","1540.5399999115616","","","","","7","complex_dissimilar","images/stimuli/spore_stims/complex_05_A_a.gif","middle","","","","",""
"","null","html-keyboard-response","138","349613","0.0-29.0-0.2","SS1612927819925","","","null","","","<p><img src= images/blank.png width =""200"" height = ""200"" style = ""float:right""></p><p><img src=images/blank.png width =""800"" height = ""200""></p>","","","","","","","","","","","",""
"","530.4799999576062","sequential-stimulus-presentation","139","350955","0.0-29.0-1.2","SS1612927819925","trial","","40","800","1330.4799999576062","","","","","7","complex_dissimilar","images/stimuli/spore_stims/complex_05_A_a.gif","middle","","","","",""
"","null","html-keyboard-response","140","351883","0.0-29.0-0.3","SS1612927819925","","","null","","","<p><img src= images/blank.png width =""200"" height = ""200"" style = ""float:right""></p><p><img src=images/blank.png width =""800"" height = ""200""></p>","","","","","","","","","","","",""
"","446.04499998968095","sequential-stimulus-presentation","141","353140","0.0-29.0-1.3","SS1612927819925","trial","","40","800","1246.044999989681","","","","","7","complex_dissimilar","images/stimuli/spore_stims/complex_05_A_a.gif","middle","","","","",""
"","null","html-keyboard-response","142","354411","0.0-29.0-0.4","SS1612927819925","","","null","","","<p><img src= images/blank.png width =""200"" height = ""200"" style = ""float:right""></p><p><img src=images/blank.png width =""800"" height = ""200""></p>","","","","","","","","","","","",""
"","926.6899999929592","sequential-stimulus-presentation","143","356153","0.0-29.0-1.4","SS1612927819925","trial","","40","800","1726.6899999929592","","","","","7","complex_dissimilar","images/stimuli/spore_stims/complex_08_A_c.gif","right","","","","",""
"","null","html-keyboard-response","144","357358","0.0-29.0-0.5","SS1612927819925","","","null","","","<p><img src= images/blank.png width =""200"" height = ""200"" style = ""float:right""></p><p><img src=images/blank.png width =""800"" height = ""200""></p>","","","","","","","","","","","",""
"","551.8800000427291","sequential-stimulus-presentation","145","358724","0.0-29.0-1.5","SS1612927819925","trial","","40","800","1351.880000042729","","","","","7","complex_dissimilar","images/stimuli/spore_stims/complex_05_A_a.gif","middle","","","","",""
"","null","html-keyboard-response","146","359966","0.0-29.0-0.6","SS1612927819925","","","null","","","<p><img src= images/blank.png width =""200"" height = ""200"" style = ""float:right""></p><p><img src=images/blank.png width =""800"" height = ""200""></p>","","","","","","","","","","","",""
"","558.7999999988824","sequential-stimulus-presentation","147","361336","0.0-29.0-1.6","SS1612927819925","trial","","40","800","1358.7999999988824","","","","","7","complex_dissimilar","images/stimuli/spore_stims/complex_05_A_a.gif","middle","","","","",""
"","null","html-keyboard-response","148","362425","0.0-29.0-0.7","SS1612927819925","","","null","","","<p><img src= images/blank.png width =""200"" height = ""200"" style = ""float:right""></p><p><img src=images/blank.png width =""800"" height = ""200""></p>","","","","","","","","","","","",""
"","656.1400000937283","sequential-stimulus-presentation","149","363891","0.0-29.0-1.7","SS1612927819925","trial","","40","800","1456.1400000937283","","","","","7","complex_dissimilar","images/stimuli/spore_stims/complex_05_A_a.gif","middle","","","","",""
"","1983.864999958314","html-keyboard-response","150","365892","0.0-30.0","SS1612927819925","pref_question","","51","","","<video width ='960' height = '540' style='padding-top:8%' autoplay muted><source src='images/stimuli/wall_pref.mp4' type='video/mp4'></video>","3","right","66%","7","","","","","","","",""
"","4215.215000091121","sequential-stimulus-presentation","151","370929","0.0-31.0","SS1612927819925","pref_reveal","","40","800","5015.215000091121","","","","","7","","","","deviant","","","",""
"","null","html-keyboard-response","152","371846","0.0-32.0-0.0","SS1612927819925","","","null","","","<p><img src= images/blank.png width =""200"" height = ""200"" style = ""float:right""></p><p><img src=images/blank.png width =""800"" height = ""200""></p>","","","","","","","","","","","",""
"","1755.3850000258535","sequential-stimulus-presentation","153","374427","0.0-32.0-1.0","SS1612927819925","trial","","40","800","2555.3850000258535","","","","","8","complex_dissimilar","images/stimuli/spore_stims/complex_15_B_b.gif","left","","","","",""
"","null","html-keyboard-response","154","375638","0.0-32.0-0.1","SS1612927819925","","","null","","","<p><img src= images/blank.png width =""200"" height = ""200"" style = ""float:right""></p><p><img src=images/blank.png width =""800"" height = ""200""></p>","","","","","","","","","","","",""
"","1470.00999993179","sequential-stimulus-presentation","155","377920","0.0-32.0-1.1","SS1612927819925","trial","","40","800","2270.00999993179","","","","","8","complex_dissimilar","images/stimuli/spore_stims/complex_15_B_b.gif","left","","","","",""
"","null","html-keyboard-response","156","378879","0.0-32.0-0.2","SS1612927819925","","","null","","","<p><img src= images/blank.png width =""200"" height = ""200"" style = ""float:right""></p><p><img src=images/blank.png width =""800"" height = ""200""></p>","","","","","","","","","","","",""
"","800.8499999996275","sequential-stimulus-presentation","157","380490","0.0-32.0-1.2","SS1612927819925","trial","","40","800","1600.8499999996275","","","","","8","complex_dissimilar","images/stimuli/spore_stims/complex_15_B_b.gif","left","","","","",""
"","null","html-keyboard-response","158","381543","0.0-32.0-0.3","SS1612927819925","","","null","","","<p><img src= images/blank.png width =""200"" height = ""200"" style = ""float:right""></p><p><img src=images/blank.png width =""800"" height = ""200""></p>","","","","","","","","","","","",""
"","1501.5600000042468","sequential-stimulus-presentation","159","383857","0.0-32.0-1.3","SS1612927819925","trial","","40","800","2301.560000004247","","","","","8","complex_dissimilar","images/stimuli/spore_stims/complex_01_B_b.gif","middle","","","","",""
"","null","html-keyboard-response","160","385106","0.0-32.0-0.4","SS1612927819925","","","null","","","<p><img src= images/blank.png width =""200"" height = ""200"" style = ""float:right""></p><p><img src=images/blank.png width =""800"" height = ""200""></p>","","","","","","","","","","","",""
"","1005.4450000170618","sequential-stimulus-presentation","161","386926","0.0-32.0-1.4","SS1612927819925","trial","","40","800","1805.4450000170618","","","","","8","complex_dissimilar","images/stimuli/spore_stims/complex_15_B_b.gif","left","","","","",""
"","null","html-keyboard-response","162","388235","0.0-32.0-0.5","SS1612927819925","","","null","","","<p><img src= images/blank.png width =""200"" height = ""200"" style = ""float:right""></p><p><img src=images/blank.png width =""800"" height = ""200""></p>","","","","","","","","","","","",""
"","580.6749999755993","sequential-stimulus-presentation","163","389638","0.0-32.0-1.5","SS1612927819925","trial","","40","800","1380.6749999755993","","","","","8","complex_dissimilar","images/stimuli/spore_stims/complex_15_B_b.gif","left","","","","",""
"","null","html-keyboard-response","164","390782","0.0-32.0-0.6","SS1612927819925","","","null","","","<p><img src= images/blank.png width =""200"" height = ""200"" style = ""float:right""></p><p><img src=images/blank.png width =""800"" height = ""200""></p>","","","","","","","","","","","",""
"","502.44000006932765","sequential-stimulus-presentation","165","392096","0.0-32.0-1.6","SS1612927819925","trial","","40","800","1302.4400000693277","","","","","8","complex_dissimilar","images/stimuli/spore_stims/complex_15_B_b.gif","left","","","","",""
"","null","html-keyboard-response","166","393356","0.0-32.0-0.7","SS1612927819925","","","null","","","<p><img src= images/blank.png width =""200"" height = ""200"" style = ""float:right""></p><p><img src=images/blank.png width =""800"" height = ""200""></p>","","","","","","","","","","","",""
"","495.8199999528006","sequential-stimulus-presentation","167","394657","0.0-32.0-1.7","SS1612927819925","trial","","40","800","1295.8199999528006","","","","","8","complex_dissimilar","images/stimuli/spore_stims/complex_15_B_b.gif","left","","","","",""
"","4014.9550000205636","html-keyboard-response","168","398679","0.0-33.0","SS1612927819925","pref_question","","51","","","<video width ='960' height = '540' style='padding-top:8%' autoplay muted><source src='images/stimuli/wall_pref.mp4' type='video/mp4'></video>","3","right","66%","8","","","","","","","",""
"","3345.515000051819","sequential-stimulus-presentation","169","402835","0.0-34.0","SS1612927819925","pref_reveal","","40","800","4145.515000051819","","","","","8","","","","novel","","","",""
"","null","html-keyboard-response","170","403961","0.0-35.0-0.0","SS1612927819925","","","null","","","<p><img src= images/blank.png width =""200"" height = ""200"" style = ""float:right""></p><p><img src=images/blank.png width =""800"" height = ""200""></p>","","","","","","","","","","","",""
"","1739.8449999745935","sequential-stimulus-presentation","171","406510","0.0-35.0-1.0","SS1612927819925","trial","","40","800","2539.8449999745935","","","","","9","complex_dissimilar","images/stimuli/spore_stims/complex_16_B_c.gif","right","","","","",""
"","null","html-keyboard-response","172","407339","0.0-35.0-0.1","SS1612927819925","","","null","","","<p><img src= images/blank.png width =""200"" height = ""200"" style = ""float:right""></p><p><img src=images/blank.png width =""800"" height = ""200""></p>","","","","","","","","","","","",""
"","3499.820000026375","sequential-stimulus-presentation","173","411657","0.0-35.0-1.1","SS1612927819925","trial","","40","800","4299.820000026375","","","","","9","complex_dissimilar","images/stimuli/spore_stims/complex_16_B_c.gif","right","","","","",""
"","null","html-keyboard-response","174","412868","0.0-35.0-0.2","SS1612927819925","","","null","","","<p><img src= images/blank.png width =""200"" height = ""200"" style = ""float:right""></p><p><img src=images/blank.png width =""800"" height = ""200""></p>","","","","","","","","","","","",""
"","489.2950000939891","sequential-stimulus-presentation","175","414168","0.0-35.0-1.2","SS1612927819925","trial","","40","800","1289.295000093989","","","","","9","complex_dissimilar","images/stimuli/spore_stims/complex_16_B_c.gif","right","","","","",""
"","null","html-keyboard-response","176","415004","0.0-35.0-0.3","SS1612927819925","","","null","","","<p><img src= images/blank.png width =""200"" height = ""200"" style = ""float:right""></p><p><img src=images/blank.png width =""800"" height = ""200""></p>","","","","","","","","","","","",""
"","510.9950000187382","sequential-stimulus-presentation","177","416330","0.0-35.0-1.3","SS1612927819925","trial","","40","800","1310.9950000187382","","","","","9","complex_dissimilar","images/stimuli/spore_stims/complex_16_B_c.gif","right","","","","",""
"","null","html-keyboard-response","178","417595","0.0-35.0-0.4","SS1612927819925","","","null","","","<p><img src= images/blank.png width =""200"" height = ""200"" style = ""float:right""></p><p><img src=images/blank.png width =""800"" height = ""200""></p>","","","","","","","","","","","",""
"","4206.83000003919","sequential-stimulus-presentation","179","422625","0.0-35.0-1.4","SS1612927819925","trial","","40","800","5006.83000003919","","","","","9","complex_dissimilar","images/stimuli/spore_stims/complex_10_A_a.gif","middle","","","","",""
"","null","html-keyboard-response","180","423844","0.0-35.0-0.5","SS1612927819925","","","null","","","<p><img src= images/blank.png width =""200"" height = ""200"" style = ""float:right""></p><p><img src=images/blank.png width =""800"" height = ""200""></p>","","","","","","","","","","","",""
"","488.00500005017966","sequential-stimulus-presentation","181","425144","0.0-35.0-1.5","SS1612927819925","trial","","40","800","1288.0050000501797","","","","","9","complex_dissimilar","images/stimuli/spore_stims/complex_16_B_c.gif","right","","","","",""
"","null","html-keyboard-response","182","426260","0.0-35.0-0.6","SS1612927819925","","","null","","","<p><img src= images/blank.png width =""200"" height = ""200"" style = ""float:right""></p><p><img src=images/blank.png width =""800"" height = ""200""></p>","","","","","","","","","","","",""
"","687.7849999582395","sequential-stimulus-presentation","183","427761","0.0-35.0-1.6","SS1612927819925","trial","","40","800","1487.7849999582395","","","","","9","complex_dissimilar","images/stimuli/spore_stims/complex_16_B_c.gif","right","","","","",""
"","null","html-keyboard-response","184","428596","0.0-35.0-0.7","SS1612927819925","","","null","","","<p><img src= images/blank.png width =""200"" height = ""200"" style = ""float:right""></p><p><img src=images/blank.png width =""800"" height = ""200""></p>","","","","","","","","","","","",""
"","437.66499997582287","sequential-stimulus-presentation","185","429860","0.0-35.0-1.7","SS1612927819925","trial","","40","800","1237.6649999758229","","","","","9","complex_dissimilar","images/stimuli/spore_stims/complex_16_B_c.gif","right","","","","",""
"","5266.279999981634","html-keyboard-response","186","435137","0.0-36.0","SS1612927819925","pref_question","","49","","","<video width ='960' height = '540' style='padding-top:8%' autoplay muted><source src='images/stimuli/wall_pref.mp4' type='video/mp4'></video>","1","left","25%","9","","","","","","","",""
"","4366.775000002235","sequential-stimulus-presentation","187","440319","0.0-37.0","SS1612927819925","pref_reveal","","40","800","5166.775000002235","","","","","9","","","","novel","","","",""
"","null","html-keyboard-response","188","441444","0.0-38.0-0.0","SS1612927819925","","","null","","","<p><img src= images/blank.png width =""200"" height = ""200"" style = ""float:right""></p><p><img src=images/blank.png width =""800"" height = ""200""></p>","","","","","","","","","","","",""
"","1503.9200000464916","sequential-stimulus-presentation","189","443776","0.0-38.0-1.0","SS1612927819925","trial","","40","800","2303.9200000464916","","","","","10","simple_dissimilar","images/stimuli/spore_stims/simple_12_B_d.gif","middle","","","","",""
"","null","html-keyboard-response","190","444826","0.0-38.0-0.1","SS1612927819925","","","null","","","<p><img src= images/blank.png width =""200"" height = ""200"" style = ""float:right""></p><p><img src=images/blank.png width =""800"" height = ""200""></p>","","","","","","","","","","","",""
"","788.3700000820681","sequential-stimulus-presentation","191","446436","0.0-38.0-1.1","SS1612927819925","trial","","40","800","1588.3700000820681","","","","","10","simple_dissimilar","images/stimuli/spore_stims/simple_12_B_d.gif","middle","","","","",""
"","null","html-keyboard-response","192","447298","0.0-38.0-0.2","SS1612927819925","","","null","","","<p><img src= images/blank.png width =""200"" height = ""200"" style = ""float:right""></p><p><img src=images/blank.png width =""800"" height = ""200""></p>","","","","","","","","","","","",""
"","337.7800000598654","sequential-stimulus-presentation","193","448449","0.0-38.0-1.2","SS1612927819925","trial","","40","800","1137.7800000598654","","","","","10","simple_dissimilar","images/stimuli/spore_stims/simple_12_B_d.gif","middle","","","","",""
"","null","html-keyboard-response","194","449708","0.0-38.0-0.3","SS1612927819925","","","null","","","<p><img src= images/blank.png width =""200"" height = ""200"" style = ""float:right""></p><p><img src=images/blank.png width =""800"" height = ""200""></p>","","","","","","","","","","","",""
"","733.074999996461","sequential-stimulus-presentation","195","451255","0.0-38.0-1.3","SS1612927819925","trial","","40","800","1533.074999996461","","","","","10","simple_dissimilar","images/stimuli/spore_stims/simple_12_B_d.gif","middle","","","","",""
"","null","html-keyboard-response","196","452079","0.0-38.0-0.4","SS1612927819925","","","null","","","<p><img src= images/blank.png width =""200"" height = ""200"" style = ""float:right""></p><p><img src=images/blank.png width =""800"" height = ""200""></p>","","","","","","","","","","","",""
"","1415.1800000108778","sequential-stimulus-presentation","197","454317","0.0-38.0-1.4","SS1612927819925","trial","","40","800","2215.180000010878","","","","","10","simple_dissimilar","images/stimuli/spore_stims/simple_05_B_b.gif","left","","","","",""
"","null","html-keyboard-response","198","455188","0.0-38.0-0.5","SS1612927819925","","","null","","","<p><img src= images/blank.png width =""200"" height = ""200"" style = ""float:right""></p><p><img src=images/blank.png width =""800"" height = ""200""></p>","","","","","","","","","","","",""
"","764.1500000609085","sequential-stimulus-presentation","199","456768","0.0-38.0-1.5","SS1612927819925","trial","","40","800","1564.1500000609085","","","","","10","simple_dissimilar","images/stimuli/spore_stims/simple_12_B_d.gif","middle","","","","",""
"","null","html-keyboard-response","200","457874","0.0-38.0-0.6","SS1612927819925","","","null","","","<p><img src= images/blank.png width =""200"" height = ""200"" style = ""float:right""></p><p><img src=images/blank.png width =""800"" height = ""200""></p>","","","","","","","","","","","",""
"","646.4699999196455","sequential-stimulus-presentation","201","459331","0.0-38.0-1.6","SS1612927819925","trial","","40","800","1446.4699999196455","","","","","10","simple_dissimilar","images/stimuli/spore_stims/simple_12_B_d.gif","middle","","","","",""
"","null","html-keyboard-response","202","460449","0.0-38.0-0.7","SS1612927819925","","","null","","","<p><img src= images/blank.png width =""200"" height = ""200"" style = ""float:right""></p><p><img src=images/blank.png width =""800"" height = ""200""></p>","","","","","","","","","","","",""
"","472.28999994695187","sequential-stimulus-presentation","203","461733","0.0-38.0-1.7","SS1612927819925","trial","","40","800","1272.2899999469519","","","","","10","simple_dissimilar","images/stimuli/spore_stims/simple_12_B_d.gif","middle","","","","",""
"","2375.099999946542","html-keyboard-response","204","464111","0.0-39.0","SS1612927819925","pref_question","","51","","","<video width ='960' height = '540' style='padding-top:8%' autoplay muted><source src='images/stimuli/wall_pref.mp4' type='video/mp4'></video>","3","right","66%","10","","","","","","","",""
"","4844.9349999427795","sequential-stimulus-presentation","205","469773","0.0-40.0","SS1612927819925","pref_reveal","","40","800","5644.9349999427795","","","","","10","","","","novel","","","",""
"","null","html-keyboard-response","206","470800","0.0-41.0-0.0","SS1612927819925","","","null","","","<p><img src= images/blank.png width =""200"" height = ""200"" style = ""float:right""></p><p><img src=images/blank.png width =""800"" height = ""200""></p>","","","","","","","","","","","",""
"","2663.899999926798","sequential-stimulus-presentation","207","474274","0.0-41.0-1.0","SS1612927819925","trial","","40","800","3463.899999926798","","","","","11","complex_similar","images/stimuli/spore_stims/complex_19_A_c.gif","left","","","","",""
"","null","html-keyboard-response","208","475448","0.0-41.0-0.1","SS1612927819925","","","null","","","<p><img src= images/blank.png width =""200"" height = ""200"" style = ""float:right""></p><p><img src=images/blank.png width =""800"" height = ""200""></p>","","","","","","","","","","","",""
"","2113.3549999212846","sequential-stimulus-presentation","209","478372","0.0-41.0-1.1","SS1612927819925","trial","","40","800","2913.3549999212846","","","","","11","complex_similar","images/stimuli/spore_stims/complex_19_A_c.gif","left","","","","",""
"","null","html-keyboard-response","210","479578","0.0-41.0-0.2","SS1612927819925","","","null","","","<p><img src= images/blank.png width =""200"" height = ""200"" style = ""float:right""></p><p><img src=images/blank.png width =""800"" height = ""200""></p>","","","","","","","","","","","",""
"","826.9950000103563","sequential-stimulus-presentation","211","481219","0.0-41.0-1.2","SS1612927819925","trial","","40","800","1626.9950000103563","","","","","11","complex_similar","images/stimuli/spore_stims/complex_19_A_c.gif","left","","","","",""
"","null","html-keyboard-response","212","482314","0.0-41.0-0.3","SS1612927819925","","","null","","","<p><img src= images/blank.png width =""200"" height = ""200"" style = ""float:right""></p><p><img src=images/blank.png width =""800"" height = ""200""></p>","","","","","","","","","","","",""
"","2322.859999956563","sequential-stimulus-presentation","213","485448","0.0-41.0-1.3","SS1612927819925","trial","","40","800","3122.859999956563","","","","","11","complex_similar","images/stimuli/spore_stims/complex_19_A_c.gif","left","","","","",""
"","null","html-keyboard-response","214","486476","0.0-41.0-0.4","SS1612927819925","","","null","","","<p><img src= images/blank.png width =""200"" height = ""200"" style = ""float:right""></p><p><img src=images/blank.png width =""800"" height = ""200""></p>","","","","","","","","","","","",""
"","1014.5349999656901","sequential-stimulus-presentation","215","488304","0.0-41.0-1.4","SS1612927819925","trial","","40","800","1814.53499996569","","","","","11","complex_similar","images/stimuli/spore_stims/complex_19_A_c.gif","left","","","","",""
"","null","html-keyboard-response","216","489368","0.0-41.0-0.5","SS1612927819925","","","null","","","<p><img src= images/blank.png width =""200"" height = ""200"" style = ""float:right""></p><p><img src=images/blank.png width =""800"" height = ""200""></p>","","","","","","","","","","","",""
"","721.6250000055879","sequential-stimulus-presentation","217","490907","0.0-41.0-1.5","SS1612927819925","trial","","40","800","1521.625000005588","","","","","11","complex_similar","images/stimuli/spore_stims/complex_19_A_c.gif","left","","","","",""
"","null","html-keyboard-response","218","492015","0.0-41.0-0.6","SS1612927819925","","","null","","","<p><img src= images/blank.png width =""200"" height = ""200"" style = ""float:right""></p><p><img src=images/blank.png width =""800"" height = ""200""></p>","","","","","","","","","","","",""
"","4463.59499997925","sequential-stimulus-presentation","219","497301","0.0-41.0-1.6","SS1612927819925","trial","","40","800","5263.59499997925","","","","","11","complex_similar","images/stimuli/spore_stims/complex_19_B_c.gif","right","","","","",""
"","null","html-keyboard-response","220","498224","0.0-41.0-0.7","SS1612927819925","","","null","","","<p><img src= images/blank.png width =""200"" height = ""200"" style = ""float:right""></p><p><img src=images/blank.png width =""800"" height = ""200""></p>","","","","","","","","","","","",""
"","1249.3699999758974","sequential-stimulus-presentation","221","500282","0.0-41.0-1.7","SS1612927819925","trial","","40","800","2049.3699999758974","","","","","11","complex_similar","images/stimuli/spore_stims/complex_19_A_c.gif","left","","","","",""
"","2319.6449999231845","html-keyboard-response","222","502606","0.0-42.0","SS1612927819925","pref_question","","50","","","<video width ='960' height = '540' style='padding-top:8%' autoplay muted><source src='images/stimuli/wall_pref.mp4' type='video/mp4'></video>","2","middle","45%","11","","","","","","","",""
"","4872.695000027306","sequential-stimulus-presentation","223","508309","0.0-43.0","SS1612927819925","pref_reveal","","40","800","5672.695000027306","","","","","11","","","","novel","","","",""
"","null","html-keyboard-response","224","509593","0.0-44.0-0.0","SS1612927819925","","","null","","","<p><img src= images/blank.png width =""200"" height = ""200"" style = ""float:right""></p><p><img src=images/blank.png width =""800"" height = ""200""></p>","","","","","","","","","","","",""
"","2201.0000000009313","sequential-stimulus-presentation","225","512604","0.0-44.0-1.0","SS1612927819925","trial","","40","800","3001.0000000009313","","","","","12","complex_dissimilar","images/stimuli/spore_stims/complex_18_A_a.gif","left","","","","",""
"","null","html-keyboard-response","226","513483","0.0-44.0-0.1","SS1612927819925","","","null","","","<p><img src= images/blank.png width =""200"" height = ""200"" style = ""float:right""></p><p><img src=images/blank.png width =""800"" height = ""200""></p>","","","","","","","","","","","",""
"","484.9600000306964","sequential-stimulus-presentation","227","514783","0.0-44.0-1.1","SS1612927819925","trial","","40","800","1284.9600000306964","","","","","12","complex_dissimilar","images/stimuli/spore_stims/complex_18_A_a.gif","left","","","","",""
"","null","html-keyboard-response","228","515990","0.0-44.0-0.2","SS1612927819925","","","null","","","<p><img src= images/blank.png width =""200"" height = ""200"" style = ""float:right""></p><p><img src=images/blank.png width =""800"" height = ""200""></p>","","","","","","","","","","","",""
"","463.95500004291534","sequential-stimulus-presentation","229","517268","0.0-44.0-1.2","SS1612927819925","trial","","40","800","1263.9550000429153","","","","","12","complex_dissimilar","images/stimuli/spore_stims/complex_18_A_a.gif","left","","","","",""
"","null","html-keyboard-response","230","518146","0.0-44.0-0.3","SS1612927819925","","","null","","","<p><img src= images/blank.png width =""200"" height = ""200"" style = ""float:right""></p><p><img src=images/blank.png width =""800"" height = ""200""></p>","","","","","","","","","","","",""
"","698.16000002902","sequential-stimulus-presentation","231","519654","0.0-44.0-1.3","SS1612927819925","trial","","40","800","1498.16000002902","","","","","12","complex_dissimilar","images/stimuli/spore_stims/complex_03_B_c.gif","right","","","","",""
"","null","html-keyboard-response","232","520608","0.0-44.0-0.4","SS1612927819925","","","null","","","<p><img src= images/blank.png width =""200"" height = ""200"" style = ""float:right""></p><p><img src=images/blank.png width =""800"" height = ""200""></p>","","","","","","","","","","","",""
"","740.1750000426546","sequential-stimulus-presentation","233","522176","0.0-44.0-1.4","SS1612927819925","trial","","40","800","1540.1750000426546","","","","","12","complex_dissimilar","images/stimuli/spore_stims/complex_18_A_a.gif","left","","","","",""
"","null","html-keyboard-response","234","523383","0.0-44.0-0.5","SS1612927819925","","","null","","","<p><img src= images/blank.png width =""200"" height = ""200"" style = ""float:right""></p><p><img src=images/blank.png width =""800"" height = ""200""></p>","","","","","","","","","","","",""
"","866.2250000052154","sequential-stimulus-presentation","235","525065","0.0-44.0-1.5","SS1612927819925","trial","","40","800","1666.2250000052154","","","","","12","complex_dissimilar","images/stimuli/spore_stims/complex_18_A_a.gif","left","","","","",""
"","null","html-keyboard-response","236","525976","0.0-44.0-0.6","SS1612927819925","","","null","","","<p><img src= images/blank.png width =""200"" height = ""200"" style = ""float:right""></p><p><img src=images/blank.png width =""800"" height = ""200""></p>","","","","","","","","","","","",""
"","521.8999999342486","sequential-stimulus-presentation","237","527311","0.0-44.0-1.6","SS1612927819925","trial","","40","800","1321.8999999342486","","","","","12","complex_dissimilar","images/stimuli/spore_stims/complex_18_A_a.gif","left","","","","",""
"","null","html-keyboard-response","238","528265","0.0-44.0-0.7","SS1612927819925","","","null","","","<p><img src= images/blank.png width =""200"" height = ""200"" style = ""float:right""></p><p><img src=images/blank.png width =""800"" height = ""200""></p>","","","","","","","","","","","",""
"","534.2700000619516","sequential-stimulus-presentation","239","529615","0.0-44.0-1.7","SS1612927819925","trial","","40","800","1334.2700000619516","","","","","12","complex_dissimilar","images/stimuli/spore_stims/complex_18_A_a.gif","left","","","","",""
"","1776.7600000370294","html-keyboard-response","240","531396","0.0-45.0","SS1612927819925","pref_question","","50","","","<video width ='960' height = '540' style='padding-top:8%' autoplay muted><source src='images/stimuli/wall_pref.mp4' type='video/mp4'></video>","2","middle","45%","12","","","","","","","",""
"","2826.0999999474734","sequential-stimulus-presentation","241","535037","0.0-46.0","SS1612927819925","pref_reveal","","40","800","3626.0999999474734","","","","","12","","","","novel","","","",""
"","null","html-keyboard-response","242","536259","0.0-47.0-0.0","SS1612927819925","","","null","","","<p><img src= images/blank.png width =""200"" height = ""200"" style = ""float:right""></p><p><img src=images/blank.png width =""800"" height = ""200""></p>","","","","","","","","","","","",""
"","3551.8999999621883","sequential-stimulus-presentation","243","540621","0.0-47.0-1.0","SS1612927819925","trial","","40","800","4351.899999962188","","","","","13","simple_similar","images/stimuli/spore_stims/simple_16_B_b.gif","right","","","","",""
"","null","html-keyboard-response","244","541930","0.0-47.0-0.1","SS1612927819925","","","null","","","<p><img src= images/blank.png width =""200"" height = ""200"" style = ""float:right""></p><p><img src=images/blank.png width =""800"" height = ""200""></p>","","","","","","","","","","","",""
"","739.9849999928847","sequential-stimulus-presentation","245","543480","0.0-47.0-1.1","SS1612927819925","trial","","40","800","1539.9849999928847","","","","","13","simple_similar","images/stimuli/spore_stims/simple_16_B_b.gif","right","","","","",""
"","null","html-keyboard-response","246","544531","0.0-47.0-0.2","SS1612927819925","","","null","","","<p><img src= images/blank.png width =""200"" height = ""200"" style = ""float:right""></p><p><img src=images/blank.png width =""800"" height = ""200""></p>","","","","","","","","","","","",""
"","1899.3849999969825","sequential-stimulus-presentation","247","547258","0.0-47.0-1.2","SS1612927819925","trial","","40","800","2699.3849999969825","","","","","13","simple_similar","images/stimuli/spore_stims/simple_16_A_b.gif","left","","","","",""
"","null","html-keyboard-response","248","548500","0.0-47.0-0.3","SS1612927819925","","","null","","","<p><img src= images/blank.png width =""200"" height = ""200"" style = ""float:right""></p><p><img src=images/blank.png width =""800"" height = ""200""></p>","","","","","","","","","","","",""
"","770.2249999856576","sequential-stimulus-presentation","249","550082","0.0-47.0-1.3","SS1612927819925","trial","","40","800","1570.2249999856576","","","","","13","simple_similar","images/stimuli/spore_stims/simple_16_B_b.gif","right","","","","",""
"","null","html-keyboard-response","250","551341","0.0-47.0-0.4","SS1612927819925","","","null","","","<p><img src= images/blank.png width =""200"" height = ""200"" style = ""float:right""></p><p><img src=images/blank.png width =""800"" height = ""200""></p>","","","","","","","","","","","",""
"","582.2449999395758","sequential-stimulus-presentation","251","552734","0.0-47.0-1.4","SS1612927819925","trial","","40","800","1382.2449999395758","","","","","13","simple_similar","images/stimuli/spore_stims/simple_16_B_b.gif","right","","","","",""
"","null","html-keyboard-response","252","553674","0.0-47.0-0.5","SS1612927819925","","","null","","","<p><img src= images/blank.png width =""200"" height = ""200"" style = ""float:right""></p><p><img src=images/blank.png width =""800"" height = ""200""></p>","","","","","","","","","","","",""
"","628.3899999689311","sequential-stimulus-presentation","253","555118","0.0-47.0-1.5","SS1612927819925","trial","","40","800","1428.389999968931","","","","","13","simple_similar","images/stimuli/spore_stims/simple_16_B_b.gif","right","","","","",""
"","null","html-keyboard-response","254","556364","0.0-47.0-0.6","SS1612927819925","","","null","","","<p><img src= images/blank.png width =""200"" height = ""200"" style = ""float:right""></p><p><img src=images/blank.png width =""800"" height = ""200""></p>","","","","","","","","","","","",""
"","412.7249999437481","sequential-stimulus-presentation","255","557585","0.0-47.0-1.6","SS1612927819925","trial","","40","800","1212.7249999437481","","","","","13","simple_similar","images/stimuli/spore_stims/simple_16_B_b.gif","right","","","","",""
"","null","html-keyboard-response","256","558638","0.0-47.0-0.7","SS1612927819925","","","null","","","<p><img src= images/blank.png width =""200"" height = ""200"" style = ""float:right""></p><p><img src=images/blank.png width =""800"" height = ""200""></p>","","","","","","","","","","","",""
"","696.6099999845028","sequential-stimulus-presentation","257","560146","0.0-47.0-1.7","SS1612927819925","trial","","40","800","1496.6099999845028","","","","","13","simple_similar","images/stimuli/spore_stims/simple_16_B_b.gif","right","","","","",""
"","1688.8400000752881","html-keyboard-response","258","561840","0.0-48.0","SS1612927819925","pref_question","","50","","","<video width ='960' height = '540' style='padding-top:8%' autoplay muted><source src='images/stimuli/wall_pref.mp4' type='video/mp4'></video>","2","middle","45%","13","","","","","","","",""
"","3563.0850000306964","sequential-stimulus-presentation","259","566220","0.0-49.0","SS1612927819925","pref_reveal","","40","800","4363.085000030696","","","","","13","","","","novel","","","",""
"","null","html-keyboard-response","260","567153","0.0-50.0-0.0","SS1612927819925","","","null","","","<p><img src= images/blank.png width =""200"" height = ""200"" style = ""float:right""></p><p><img src=images/blank.png width =""800"" height = ""200""></p>","","","","","","","","","","","",""
"","3152.1100000245497","sequential-stimulus-presentation","261","571131","0.0-50.0-1.0","SS1612927819925","trial","","40","800","3952.1100000245497","","","","","14","simple_dissimilar","images/stimuli/spore_stims/simple_11_A_a.gif","right","","","","",""
"","null","html-keyboard-response","262","572044","0.0-50.0-0.1","SS1612927819925","","","null","","","<p><img src= images/blank.png width =""200"" height = ""200"" style = ""float:right""></p><p><img src=images/blank.png width =""800"" height = ""200""></p>","","","","","","","","","","","",""
"","1316.9500000076368","sequential-stimulus-presentation","263","574186","0.0-50.0-1.1","SS1612927819925","trial","","40","800","2116.950000007637","","","","","14","simple_dissimilar","images/stimuli/spore_stims/simple_11_A_a.gif","right","","","","",""
"","null","html-keyboard-response","264","575177","0.0-50.0-0.2","SS1612927819925","","","null","","","<p><img src= images/blank.png width =""200"" height = ""200"" style = ""float:right""></p><p><img src=images/blank.png width =""800"" height = ""200""></p>","","","","","","","","","","","",""
"","1099.6600000653416","sequential-stimulus-presentation","265","577097","0.0-50.0-1.2","SS1612927819925","trial","","40","800","1899.6600000653416","","","","","14","simple_dissimilar","images/stimuli/spore_stims/simple_11_A_a.gif","right","","","","",""
"","null","html-keyboard-response","266","578218","0.0-50.0-0.3","SS1612927819925","","","null","","","<p><img src= images/blank.png width =""200"" height = ""200"" style = ""float:right""></p><p><img src=images/blank.png width =""800"" height = ""200""></p>","","","","","","","","","","","",""
"","1194.9749999912456","sequential-stimulus-presentation","267","580226","0.0-50.0-1.3","SS1612927819925","trial","","40","800","1994.9749999912456","","","","","14","simple_dissimilar","images/stimuli/spore_stims/simple_11_A_a.gif","right","","","","",""
"","null","html-keyboard-response","268","581367","0.0-50.0-0.4","SS1612927819925","","","null","","","<p><img src= images/blank.png width =""200"" height = ""200"" style = ""float:right""></p><p><img src=images/blank.png width =""800"" height = ""200""></p>","","","","","","","","","","","",""
"","472.9949999600649","sequential-stimulus-presentation","269","582652","0.0-50.0-1.4","SS1612927819925","trial","","40","800","1272.994999960065","","","","","14","simple_dissimilar","images/stimuli/spore_stims/simple_11_A_a.gif","right","","","","",""
"","null","html-keyboard-response","270","583700","0.0-50.0-0.5","SS1612927819925","","","null","","","<p><img src= images/blank.png width =""200"" height = ""200"" style = ""float:right""></p><p><img src=images/blank.png width =""800"" height = ""200""></p>","","","","","","","","","","","",""
"","832.4900000588968","sequential-stimulus-presentation","271","585348","0.0-50.0-1.5","SS1612927819925","trial","","40","800","1632.4900000588968","","","","","14","simple_dissimilar","images/stimuli/spore_stims/simple_11_A_a.gif","right","","","","",""
"","null","html-keyboard-response","272","586171","0.0-50.0-0.6","SS1612927819925","","","null","","","<p><img src= images/blank.png width =""200"" height = ""200"" style = ""float:right""></p><p><img src=images/blank.png width =""800"" height = ""200""></p>","","","","","","","","","","","",""
"","2033.6849999148399","sequential-stimulus-presentation","273","589033","0.0-50.0-1.6","SS1612927819925","trial","","40","800","2833.68499991484","","","","","14","simple_dissimilar","images/stimuli/spore_stims/simple_01_B_a.gif","middle","","","","",""
"","null","html-keyboard-response","274","590265","0.0-50.0-0.7","SS1612927819925","","","null","","","<p><img src= images/blank.png width =""200"" height = ""200"" style = ""float:right""></p><p><img src=images/blank.png width =""800"" height = ""200""></p>","","","","","","","","","","","",""
"","1293.695000000298","sequential-stimulus-presentation","275","592370","0.0-50.0-1.7","SS1612927819925","trial","","40","800","2093.695000000298","","","","","14","simple_dissimilar","images/stimuli/spore_stims/simple_11_A_a.gif","right","","","","",""
"","1735.9149999683723","html-keyboard-response","276","594111","0.0-51.0","SS1612927819925","pref_question","","49","","","<video width ='960' height = '540' style='padding-top:8%' autoplay muted><source src='images/stimuli/wall_pref.mp4' type='video/mp4'></video>","1","left","25%","14","","","","","","","",""
"","4308.534999960102","sequential-stimulus-presentation","277","599228","0.0-52.0","SS1612927819925","pref_reveal","","40","800","5108.534999960102","","","","","14","","","","novel","","","",""
"","null","html-keyboard-response","278","600166","0.0-53.0-0.0","SS1612927819925","","","null","","","<p><img src= images/blank.png width =""200"" height = ""200"" style = ""float:right""></p><p><img src=images/blank.png width =""800"" height = ""200""></p>","","","","","","","","","","","",""
"","2037.30500000529","sequential-stimulus-presentation","279","603022","0.0-53.0-1.0","SS1612927819925","trial","","40","800","2837.30500000529","","","","","15","complex_dissimilar","images/stimuli/spore_stims/complex_19_B_c.gif","middle","","","","",""
"","null","html-keyboard-response","280","604251","0.0-53.0-0.1","SS1612927819925","","","null","","","<p><img src= images/blank.png width =""200"" height = ""200"" style = ""float:right""></p><p><img src=images/blank.png width =""800"" height = ""200""></p>","","","","","","","","","","","",""
"","1225.925000035204","sequential-stimulus-presentation","281","606304","0.0-53.0-1.1","SS1612927819925","trial","","40","800","2025.925000035204","","","","","15","complex_dissimilar","images/stimuli/spore_stims/complex_19_B_c.gif","middle","","","","",""
"","null","html-keyboard-response","282","607376","0.0-53.0-0.2","SS1612927819925","","","null","","","<p><img src= images/blank.png width =""200"" height = ""200"" style = ""float:right""></p><p><img src=images/blank.png width =""800"" height = ""200""></p>","","","","","","","","","","","",""
"","1136.5799999330193","sequential-stimulus-presentation","283","609323","0.0-53.0-1.2","SS1612927819925","trial","","40","800","1936.5799999330193","","","","","15","complex_dissimilar","images/stimuli/spore_stims/complex_19_B_c.gif","middle","","","","",""
"","null","html-keyboard-response","284","610603","0.0-53.0-0.3","SS1612927819925","","","null","","","<p><img src= images/blank.png width =""200"" height = ""200"" style = ""float:right""></p><p><img src=images/blank.png width =""800"" height = ""200""></p>","","","","","","","","","","","",""
"","895.8149999380112","sequential-stimulus-presentation","285","612325","0.0-53.0-1.3","SS1612927819925","trial","","40","800","1695.8149999380112","","","","","15","complex_dissimilar","images/stimuli/spore_stims/complex_19_B_c.gif","middle","","","","",""
"","null","html-keyboard-response","286","613644","0.0-53.0-0.4","SS1612927819925","","","null","","","<p><img src= images/blank.png width =""200"" height = ""200"" style = ""float:right""></p><p><img src=images/blank.png width =""800"" height = ""200""></p>","","","","","","","","","","","",""
"","289.6649999311194","sequential-stimulus-presentation","287","614759","0.0-53.0-1.4","SS1612927819925","trial","","40","800","1089.6649999311194","","","","","15","complex_dissimilar","images/stimuli/spore_stims/complex_19_B_c.gif","middle","","","","",""
"","null","html-keyboard-response","288","616025","0.0-53.0-0.5","SS1612927819925","","","null","","","<p><img src= images/blank.png width =""200"" height = ""200"" style = ""float:right""></p><p><img src=images/blank.png width =""800"" height = ""200""></p>","","","","","","","","","","","",""
"","362.2749999631196","sequential-stimulus-presentation","289","617201","0.0-53.0-1.5","SS1612927819925","trial","","40","800","1162.2749999631196","","","","","15","complex_dissimilar","images/stimuli/spore_stims/complex_19_B_c.gif","middle","","","","",""
"","null","html-keyboard-response","290","618162","0.0-53.0-0.6","SS1612927819925","","","null","","","<p><img src= images/blank.png width =""200"" height = ""200"" style = ""float:right""></p><p><img src=images/blank.png width =""800"" height = ""200""></p>","","","","","","","","","","","",""
"","353.49499993026257","sequential-stimulus-presentation","291","619343","0.0-53.0-1.6","SS1612927819925","trial","","40","800","1153.4949999302626","","","","","15","complex_dissimilar","images/stimuli/spore_stims/complex_19_B_c.gif","middle","","","","",""
"","null","html-keyboard-response","292","620579","0.0-53.0-0.7","SS1612927819925","","","null","","","<p><img src= images/blank.png width =""200"" height = ""200"" style = ""float:right""></p><p><img src=images/blank.png width =""800"" height = ""200""></p>","","","","","","","","","","","",""
"","3407.675000024028","sequential-stimulus-presentation","293","624827","0.0-53.0-1.7","SS1612927819925","trial","","40","800","4207.675000024028","","","","","15","complex_dissimilar","images/stimuli/spore_stims/complex_05_B_c.gif","right","","","","",""
"","1798.5599999083206","html-keyboard-response","294","626636","0.0-54.0","SS1612927819925","pref_question","","49","","","<video width ='960' height = '540' style='padding-top:8%' autoplay muted><source src='images/stimuli/wall_pref.mp4' type='video/mp4'></video>","1","left","25%","15","","","","","","","",""
"","2265.1600000681356","sequential-stimulus-presentation","295","629713","0.0-55.0","SS1612927819925","pref_reveal","","40","800","3065.1600000681356","","","","","15","","","","novel","","","",""
"","null","html-keyboard-response","296","630682","0.0-56.0-0.0","SS1612927819925","","","null","","","<p><img src= images/blank.png width =""200"" height = ""200"" style = ""float:right""></p><p><img src=images/blank.png width =""800"" height = ""200""></p>","","","","","","","","","","","",""
"","2479.7649999381974","sequential-stimulus-presentation","297","633974","0.0-56.0-1.0","SS1612927819925","trial","","40","800","3279.7649999381974","","","","","16","complex_similar","images/stimuli/spore_stims/complex_06_A_a.gif","middle","","","","",""
"","null","html-keyboard-response","298","634942","0.0-56.0-0.1","SS1612927819925","","","null","","","<p><img src= images/blank.png width =""200"" height = ""200"" style = ""float:right""></p><p><img src=images/blank.png width =""800"" height = ""200""></p>","","","","","","","","","","","",""
"","885.0600000005215","sequential-stimulus-presentation","299","636652","0.0-56.0-1.1","SS1612927819925","trial","","40","800","1685.0600000005215","","","","","16","complex_similar","images/stimuli/spore_stims/complex_06_A_a.gif","middle","","","","",""
"","null","html-keyboard-response","300","637851","0.0-56.0-0.2","SS1612927819925","","","null","","","<p><img src= images/blank.png width =""200"" height = ""200"" style = ""float:right""></p><p><img src=images/blank.png width =""800"" height = ""200""></p>","","","","","","","","","","","",""
"","512.3700000112876","sequential-stimulus-presentation","301","639194","0.0-56.0-1.2","SS1612927819925","trial","","40","800","1312.3700000112876","","","","","16","complex_similar","images/stimuli/spore_stims/complex_06_A_a.gif","middle","","","","",""
"","null","html-keyboard-response","302","640287","0.0-56.0-0.3","SS1612927819925","","","null","","","<p><img src= images/blank.png width =""200"" height = ""200"" style = ""float:right""></p><p><img src=images/blank.png width =""800"" height = ""200""></p>","","","","","","","","","","","",""
"","627.1149999229237","sequential-stimulus-presentation","303","641738","0.0-56.0-1.3","SS1612927819925","trial","","40","800","1427.1149999229237","","","","","16","complex_similar","images/stimuli/spore_stims/complex_06_A_a.gif","middle","","","","",""
"","null","html-keyboard-response","304","642759","0.0-56.0-0.4","SS1612927819925","","","null","","","<p><img src= images/blank.png width =""200"" height = ""200"" style = ""float:right""></p><p><img src=images/blank.png width =""800"" height = ""200""></p>","","","","","","","","","","","",""
"","1196.0049999179319","sequential-stimulus-presentation","305","644778","0.0-56.0-1.4","SS1612927819925","trial","","40","800","1996.0049999179319","","","","","16","complex_similar","images/stimuli/spore_stims/complex_06_B_a.gif","right","","","","",""
"","null","html-keyboard-response","306","645714","0.0-56.0-0.5","SS1612927819925","","","null","","","<p><img src= images/blank.png width =""200"" height = ""200"" style = ""float:right""></p><p><img src=images/blank.png width =""800"" height = ""200""></p>","","","","","","","","","","","",""
"","581.5749999601394","sequential-stimulus-presentation","307","647116","0.0-56.0-1.5","SS1612927819925","trial","","40","800","1381.5749999601394","","","","","16","complex_similar","images/stimuli/spore_stims/complex_06_A_a.gif","middle","","","","",""
"","null","html-keyboard-response","308","648025","0.0-56.0-0.6","SS1612927819925","","","null","","","<p><img src= images/blank.png width =""200"" height = ""200"" style = ""float:right""></p><p><img src=images/blank.png width =""800"" height = ""200""></p>","","","","","","","","","","","",""
"","414.93999992962927","sequential-stimulus-presentation","309","649260","0.0-56.0-1.6","SS1612927819925","trial","","40","800","1214.9399999296293","","","","","16","complex_similar","images/stimuli/spore_stims/complex_06_A_a.gif","middle","","","","",""
"","null","html-keyboard-response","310","650498","0.0-56.0-0.7","SS1612927819925","","","null","","","<p><img src= images/blank.png width =""200"" height = ""200"" style = ""float:right""></p><p><img src=images/blank.png width =""800"" height = ""200""></p>","","","","","","","","","","","",""
"","337.02000009361655","sequential-stimulus-presentation","311","651646","0.0-56.0-1.7","SS1612927819925","trial","","40","800","1137.0200000936165","","","","","16","complex_similar","images/stimuli/spore_stims/complex_06_A_a.gif","middle","","","","",""
"","2116.4349999744445","html-keyboard-response","312","653770","0.0-57.0","SS1612927819925","pref_question","","49","","","<video width ='960' height = '540' style='padding-top:8%' autoplay muted><source src='images/stimuli/wall_pref.mp4' type='video/mp4'></video>","1","left","25%","16","","","","","","","",""
"","2863.744999980554","sequential-stimulus-presentation","313","657448","0.0-58.0","SS1612927819925","pref_reveal","","40","800","3663.744999980554","","","","","16","","","","novel","","","",""
"","null","html-keyboard-response","314","658385","0.0-59.0-0.0","SS1612927819925","","","null","","","<p><img src= images/blank.png width =""200"" height = ""200"" style = ""float:right""></p><p><img src=images/blank.png width =""800"" height = ""200""></p>","","","","","","","","","","","",""
"","1775.069999974221","sequential-stimulus-presentation","315","660990","0.0-59.0-1.0","SS1612927819925","trial","","40","800","2575.069999974221","","","","","17","simple_dissimilar","images/stimuli/spore_stims/simple_02_B_d.gif","right","","","","",""
"","null","html-keyboard-response","316","661898","0.0-59.0-0.1","SS1612927819925","","","null","","","<p><img src= images/blank.png width =""200"" height = ""200"" style = ""float:right""></p><p><img src=images/blank.png width =""800"" height = ""200""></p>","","","","","","","","","","","",""
"","1081.3100000377744","sequential-stimulus-presentation","317","663804","0.0-59.0-1.1","SS1612927819925","trial","","40","800","1881.3100000377744","","","","","17","simple_dissimilar","images/stimuli/spore_stims/simple_02_B_d.gif","right","","","","",""
"","null","html-keyboard-response","318","664643","0.0-59.0-0.2","SS1612927819925","","","null","","","<p><img src= images/blank.png width =""200"" height = ""200"" style = ""float:right""></p><p><img src=images/blank.png width =""800"" height = ""200""></p>","","","","","","","","","","","",""
"","985.5550000211224","sequential-stimulus-presentation","319","666438","0.0-59.0-1.2","SS1612927819925","trial","","40","800","1785.5550000211224","","","","","17","simple_dissimilar","images/stimuli/spore_stims/simple_02_B_d.gif","right","","","","",""
"","null","html-keyboard-response","320","667707","0.0-59.0-0.3","SS1612927819925","","","null","","","<p><img src= images/blank.png width =""200"" height = ""200"" style = ""float:right""></p><p><img src=images/blank.png width =""800"" height = ""200""></p>","","","","","","","","","","","",""
"","511.97999995201826","sequential-stimulus-presentation","321","669031","0.0-59.0-1.3","SS1612927819925","trial","","40","800","1311.9799999520183","","","","","17","simple_dissimilar","images/stimuli/spore_stims/simple_02_B_d.gif","right","","","","",""
"","null","html-keyboard-response","322","670302","0.0-59.0-0.4","SS1612927819925","","","null","","","<p><img src= images/blank.png width =""200"" height = ""200"" style = ""float:right""></p><p><img src=images/blank.png width =""800"" height = ""200""></p>","","","","","","","","","","","",""
"","403.11499999370426","sequential-stimulus-presentation","323","671517","0.0-59.0-1.4","SS1612927819925","trial","","40","800","1203.1149999937043","","","","","17","simple_dissimilar","images/stimuli/spore_stims/simple_02_B_d.gif","right","","","","",""
"","null","html-keyboard-response","324","672505","0.0-59.0-0.5","SS1612927819925","","","null","","","<p><img src= images/blank.png width =""200"" height = ""200"" style = ""float:right""></p><p><img src=images/blank.png width =""800"" height = ""200""></p>","","","","","","","","","","","",""
"","1360.7799999881536","sequential-stimulus-presentation","325","674695","0.0-59.0-1.5","SS1612927819925","trial","","40","800","2160.7799999881536","","","","","17","simple_dissimilar","images/stimuli/spore_stims/simple_02_B_d.gif","right","","","","",""
"","null","html-keyboard-response","326","675748","0.0-59.0-0.6","SS1612927819925","","","null","","","<p><img src= images/blank.png width =""200"" height = ""200"" style = ""float:right""></p><p><img src=images/blank.png width =""800"" height = ""200""></p>","","","","","","","","","","","",""
"","908.1599999917671","sequential-stimulus-presentation","327","677482","0.0-59.0-1.6","SS1612927819925","trial","","40","800","1708.159999991767","","","","","17","simple_dissimilar","images/stimuli/spore_stims/simple_02_B_d.gif","right","","","","",""
"","null","html-keyboard-response","328","678775","0.0-59.0-0.7","SS1612927819925","","","null","","","<p><img src= images/blank.png width =""200"" height = ""200"" style = ""float:right""></p><p><img src=images/blank.png width =""800"" height = ""200""></p>","","","","","","","","","","","",""
"","3023.5249999677762","sequential-stimulus-presentation","329","682609","0.0-59.0-1.7","SS1612927819925","trial","","40","800","3823.5249999677762","","","","","17","simple_dissimilar","images/stimuli/spore_stims/simple_04_B_b.gif","left","","","","",""
"","1934.3649999937043","html-keyboard-response","330","684547","0.0-60.0","SS1612927819925","pref_question","","50","","","<video width ='960' height = '540' style='padding-top:8%' autoplay muted><source src='images/stimuli/wall_pref.mp4' type='video/mp4'></video>","2","middle","45%","17","","","","","","","",""
"","1553.8849999429658","sequential-stimulus-presentation","331","686929","0.0-61.0","SS1612927819925","pref_reveal","","40","800","2353.884999942966","","","","","17","","","","novel","","","",""
"","null","html-keyboard-response","332","687883","0.0-62.0-0.0","SS1612927819925","","","null","","","<p><img src= images/blank.png width =""200"" height = ""200"" style = ""float:right""></p><p><img src=images/blank.png width =""800"" height = ""200""></p>","","","","","","","","","","","",""
"","2034.5950000919402","sequential-stimulus-presentation","333","690726","0.0-62.0-1.0","SS1612927819925","trial","","40","800","2834.59500009194","","","","","18","simple_similar","images/stimuli/spore_stims/simple_07_B_a.gif","middle","","","","",""
"","null","html-keyboard-response","334","691840","0.0-62.0-0.1","SS1612927819925","","","null","","","<p><img src= images/blank.png width =""200"" height = ""200"" style = ""float:right""></p><p><img src=images/blank.png width =""800"" height = ""200""></p>","","","","","","","","","","","",""
"","703.3400000073016","sequential-stimulus-presentation","335","693349","0.0-62.0-1.1","SS1612927819925","trial","","40","800","1503.3400000073016","","","","","18","simple_similar","images/stimuli/spore_stims/simple_07_B_a.gif","middle","","","","",""
"","null","html-keyboard-response","336","694659","0.0-62.0-0.2","SS1612927819925","","","null","","","<p><img src= images/blank.png width =""200"" height = ""200"" style = ""float:right""></p><p><img src=images/blank.png width =""800"" height = ""200""></p>","","","","","","","","","","","",""
"","395.2549999812618","sequential-stimulus-presentation","337","695878","0.0-62.0-1.2","SS1612927819925","trial","","40","800","1195.2549999812618","","","","","18","simple_similar","images/stimuli/spore_stims/simple_07_B_a.gif","middle","","","","",""
"","null","html-keyboard-response","338","697133","0.0-62.0-0.3","SS1612927819925","","","null","","","<p><img src= images/blank.png width =""200"" height = ""200"" style = ""float:right""></p><p><img src=images/blank.png width =""800"" height = ""200""></p>","","","","","","","","","","","",""
"","393.51999992504716","sequential-stimulus-presentation","339","698357","0.0-62.0-1.3","SS1612927819925","trial","","40","800","1193.5199999250472","","","","","18","simple_similar","images/stimuli/spore_stims/simple_07_B_a.gif","middle","","","","",""
"","null","html-keyboard-response","340","699417","0.0-62.0-0.4","SS1612927819925","","","null","","","<p><img src= images/blank.png width =""200"" height = ""200"" style = ""float:right""></p><p><img src=images/blank.png width =""800"" height = ""200""></p>","","","","","","","","","","","",""
"","1313.6350000277162","sequential-stimulus-presentation","341","701540","0.0-62.0-1.4","SS1612927819925","trial","","40","800","2113.635000027716","","","","","18","simple_similar","images/stimuli/spore_stims/simple_07_A_a.gif","right","","","","",""
"","null","html-keyboard-response","342","702595","0.0-62.0-0.5","SS1612927819925","","","null","","","<p><img src= images/blank.png width =""200"" height = ""200"" style = ""float:right""></p><p><img src=images/blank.png width =""800"" height = ""200""></p>","","","","","","","","","","","",""
"","727.2899999516085","sequential-stimulus-presentation","343","704133","0.0-62.0-1.5","SS1612927819925","trial","","40","800","1527.2899999516085","","","","","18","simple_similar","images/stimuli/spore_stims/simple_07_B_a.gif","middle","","","","",""
"","null","html-keyboard-response","344","705071","0.0-62.0-0.6","SS1612927819925","","","null","","","<p><img src= images/blank.png width =""200"" height = ""200"" style = ""float:right""></p><p><img src=images/blank.png width =""800"" height = ""200""></p>","","","","","","","","","","","",""
"","577.7999999700114","sequential-stimulus-presentation","345","706458","0.0-62.0-1.6","SS1612927819925","trial","","40","800","1377.7999999700114","","","","","18","simple_similar","images/stimuli/spore_stims/simple_07_B_a.gif","middle","","","","",""
"","null","html-keyboard-response","346","707358","0.0-62.0-0.7","SS1612927819925","","","null","","","<p><img src= images/blank.png width =""200"" height = ""200"" style = ""float:right""></p><p><img src=images/blank.png width =""800"" height = ""200""></p>","","","","","","","","","","","",""
"","705.2449999609962","sequential-stimulus-presentation","347","708887","0.0-62.0-1.7","SS1612927819925","trial","","40","800","1505.2449999609962","","","","","18","simple_similar","images/stimuli/spore_stims/simple_07_B_a.gif","middle","","","","",""
"","2239.714999916032","html-keyboard-response","348","711162","0.0-63.0","SS1612927819925","pref_question","","51","","","<video width ='960' height = '540' style='padding-top:8%' autoplay muted><source src='images/stimuli/wall_pref.mp4' type='video/mp4'></video>","3","right","66%","18","","","","","","","",""
"","769.5799999637529","sequential-stimulus-presentation","349","712751","0.0-64.0","SS1612927819925","pref_reveal","","40","800","1569.579999963753","","","","","18","","","","deviant","","","",""
"","null","html-keyboard-response","350","713699","0.0-65.0-0.0","SS1612927819925","","","null","","","<p><img src= images/blank.png width =""200"" height = ""200"" style = ""float:right""></p><p><img src=images/blank.png width =""800"" height = ""200""></p>","","","","","","","","","","","",""
"","2365.8000000286847","sequential-stimulus-presentation","351","716890","0.0-65.0-1.0","SS1612927819925","trial","","40","800","3165.8000000286847","","","","","19","simple_dissimilar","images/stimuli/spore_stims/simple_15_B_a.gif","right","","","","",""
"","null","html-keyboard-response","352","718143","0.0-65.0-0.1","SS1612927819925","","","null","","","<p><img src= images/blank.png width =""200"" height = ""200"" style = ""float:right""></p><p><img src=images/blank.png width =""800"" height = ""200""></p>","","","","","","","","","","","",""
"","449.7149999951944","sequential-stimulus-presentation","353","719420","0.0-65.0-1.1","SS1612927819925","trial","","40","800","1249.7149999951944","","","","","19","simple_dissimilar","images/stimuli/spore_stims/simple_15_B_a.gif","right","","","","",""
"","null","html-keyboard-response","354","720403","0.0-65.0-0.2","SS1612927819925","","","null","","","<p><img src= images/blank.png width =""200"" height = ""200"" style = ""float:right""></p><p><img src=images/blank.png width =""800"" height = ""200""></p>","","","","","","","","","","","",""
"","490.7700000330806","sequential-stimulus-presentation","355","721717","0.0-65.0-1.2","SS1612927819925","trial","","40","800","1290.7700000330806","","","","","19","simple_dissimilar","images/stimuli/spore_stims/simple_15_B_a.gif","right","","","","",""
"","null","html-keyboard-response","356","722804","0.0-65.0-0.3","SS1612927819925","","","null","","","<p><img src= images/blank.png width =""200"" height = ""200"" style = ""float:right""></p><p><img src=images/blank.png width =""800"" height = ""200""></p>","","","","","","","","","","","",""
"","359.93999999482185","sequential-stimulus-presentation","357","723978","0.0-65.0-1.3","SS1612927819925","trial","","40","800","1159.9399999948218","","","","","19","simple_dissimilar","images/stimuli/spore_stims/simple_15_B_a.gif","right","","","","",""
"","null","html-keyboard-response","358","725217","0.0-65.0-0.4","SS1612927819925","","","null","","","<p><img src= images/blank.png width =""200"" height = ""200"" style = ""float:right""></p><p><img src=images/blank.png width =""800"" height = ""200""></p>","","","","","","","","","","","",""
"","2783.9549999916926","sequential-stimulus-presentation","359","728821","0.0-65.0-1.4","SS1612927819925","trial","","40","800","3583.9549999916926","","","","","19","simple_dissimilar","images/stimuli/spore_stims/simple_14_B_b.gif","middle","","","","",""
"","null","html-keyboard-response","360","729647","0.0-65.0-0.5","SS1612927819925","","","null","","","<p><img src= images/blank.png width =""200"" height = ""200"" style = ""float:right""></p><p><img src=images/blank.png width =""800"" height = ""200""></p>","","","","","","","","","","","",""
"","603.2750000013039","sequential-stimulus-presentation","361","731058","0.0-65.0-1.5","SS1612927819925","trial","","40","800","1403.2750000013039","","","","","19","simple_dissimilar","images/stimuli/spore_stims/simple_15_B_a.gif","right","","","","",""
"","null","html-keyboard-response","362","732068","0.0-65.0-0.6","SS1612927819925","","","null","","","<p><img src= images/blank.png width =""200"" height = ""200"" style = ""float:right""></p><p><img src=images/blank.png width =""800"" height = ""200""></p>","","","","","","","","","","","",""
"","715.2850000420585","sequential-stimulus-presentation","363","733597","0.0-65.0-1.6","SS1612927819925","trial","","40","800","1515.2850000420585","","","","","19","simple_dissimilar","images/stimuli/spore_stims/simple_15_B_a.gif","right","","","","",""
