"view_history","rt","trial_type","trial_index","time_elapsed","internal_node_id","subject","stimulus_type","trial_stimulus","key_press","minimum_viewing_duration","trial_looking_time","stimulus","wall_pref","location","location_percent","block_number","block_type","stimulus_displayed","position_displayed","stim_type_selected","responses","question_order","stimulus_left","stimulus_right"
"[{""page_index"":0,""viewing_time"":29489.004999995814}]","29494.42000000272","instructions","0","29496","0.0-0.0","SS1612929941256","","","","","","","","","","","","","","","","","",""
"[{""page_index"":0,""viewing_time"":16712.16500000446},{""page_index"":1,""viewing_time"":18033.620000001974}]","34746.55000001076","instructions","1","66343","0.0-1.0","SS1612929941256","instructions","","","","","","","","","","","","","","","","",""
"","12693.525000009686","sequential-stimulus-presentation","2","80124","0.0-2.0","SS1612929941256","","","40","800","13493.525000009686","","","","","","","","","","","","",""
"","1866.7350000032457","sequential-stimulus-presentation","3","82806","0.0-3.0","SS1612929941256","","","40","800","2666.7350000032457","","","","","","","","","","","","",""
"[{""page_index"":0,""viewing_time"":3097.0650000090245}]","3097.7249999996275","instructions","4","85907","0.0-4.0","SS1612929941256","instructions","","","","","","","","","","","","","","","","",""
"","17415.120000005118","html-keyboard-response","5","103328","0.0-5.0","SS1612929941256","instructions","","97","","","<video width ='960' height = '540' autoplay muted><source src='images/stimuli/wall_pref.mp4' type='video/mp4'></video>","1","left","25%","","","","","","","","",""
"","2713.0100000067614","sequential-stimulus-presentation","6","106937","0.0-6.0","SS1612929941256","pref_reveal","","40","800","3513.0100000067614","","","","","","","","","","","","",""
"[{""page_index"":0,""viewing_time"":2495.4600000055507},{""page_index"":1,""viewing_time"":4469.589999993332},{""page_index"":2,""viewing_time"":2715.1000000012573},{""page_index"":3,""viewing_time"":1838.0299999989802}]","11518.970000004629","instructions","7","118460","0.0-7.0","SS1612929941256","instructions","","","","","","","","","","","","","","","","",""
"","null","html-keyboard-response","8","119589","0.0-8.0-0.0","SS1612929941256","","","null","","","<p><img src= images/blank.png width =""200"" height = ""200"" style = ""float:right""></p><p><img src=images/blank.png width =""800"" height = ""200""></p>","","","","","","","","","","","",""
"","5307.964999999967","sequential-stimulus-presentation","9","126078","0.0-8.0-1.0","SS1612929941256","trial","","40","800","6107.964999999967","","","","","0","complex_similar","images/stimuli/spore_stims/complex_03_A_b.gif","middle","","","","",""
"","null","html-keyboard-response","10","127238","0.0-8.0-0.1","SS1612929941256","","","null","","","<p><img src= images/blank.png width =""200"" height = ""200"" style = ""float:right""></p><p><img src=images/blank.png width =""800"" height = ""200""></p>","","","","","","","","","","","",""
"","2127.215000000433","sequential-stimulus-presentation","11","130346","0.0-8.0-1.1","SS1612929941256","trial","","40","800","2927.215000000433","","","","","0","complex_similar","images/stimuli/spore_stims/complex_03_A_b.gif","middle","","","","",""
"","null","html-keyboard-response","12","131228","0.0-8.0-0.2","SS1612929941256","","","null","","","<p><img src= images/blank.png width =""200"" height = ""200"" style = ""float:right""></p><p><img src=images/blank.png width =""800"" height = ""200""></p>","","","","","","","","","","","",""
"","1462.935000003199","sequential-stimulus-presentation","13","133564","0.0-8.0-1.2","SS1612929941256","trial","","40","800","2262.935000003199","","","","","0","complex_similar","images/stimuli/spore_stims/complex_03_A_b.gif","middle","","","","",""
"","null","html-keyboard-response","14","134387","0.0-8.0-0.3","SS1612929941256","","","null","","","<p><img src= images/blank.png width =""200"" height = ""200"" style = ""float:right""></p><p><img src=images/blank.png width =""800"" height = ""200""></p>","","","","","","","","","","","",""
"","4371.239999993122","sequential-stimulus-presentation","15","139955","0.0-8.0-1.3","SS1612929941256","trial","","40","800","5171.239999993122","","","","","0","complex_similar","images/stimuli/spore_stims/complex_03_A_b.gif","middle","","","","",""
"","null","html-keyboard-response","16","141219","0.0-8.0-0.4","SS1612929941256","","","null","","","<p><img src= images/blank.png width =""200"" height = ""200"" style = ""float:right""></p><p><img src=images/blank.png width =""800"" height = ""200""></p>","","","","","","","","","","","",""
"","4180.835000006482","sequential-stimulus-presentation","17","146212","0.0-8.0-1.4","SS1612929941256","trial","","40","800","4980.835000006482","","","","","0","complex_similar","images/stimuli/spore_stims/complex_03_A_b.gif","middle","","","","",""
"","null","html-keyboard-response","18","147401","0.0-8.0-0.5","SS1612929941256","","","null","","","<p><img src= images/blank.png width =""200"" height = ""200"" style = ""float:right""></p><p><img src=images/blank.png width =""800"" height = ""200""></p>","","","","","","","","","","","",""
"","3175.420000014128","sequential-stimulus-presentation","19","151599","0.0-8.0-1.5","SS1612929941256","trial","","40","800","3975.420000014128","","","","","0","complex_similar","images/stimuli/spore_stims/complex_03_A_b.gif","middle","","","","",""
"","null","html-keyboard-response","20","152522","0.0-8.0-0.6","SS1612929941256","","","null","","","<p><img src= images/blank.png width =""200"" height = ""200"" style = ""float:right""></p><p><img src=images/blank.png width =""800"" height = ""200""></p>","","","","","","","","","","","",""
"","1469.939999995404","sequential-stimulus-presentation","21","154884","0.0-8.0-1.6","SS1612929941256","trial","","40","800","2269.939999995404","","","","","0","complex_similar","images/stimuli/spore_stims/complex_03_B_b.gif","left","","","","",""
"","null","html-keyboard-response","22","155784","0.0-8.0-0.7","SS1612929941256","","","null","","","<p><img src= images/blank.png width =""200"" height = ""200"" style = ""float:right""></p><p><img src=images/blank.png width =""800"" height = ""200""></p>","","","","","","","","","","","",""
"","3837.1550000010757","sequential-stimulus-presentation","23","160499","0.0-8.0-1.7","SS1612929941256","trial","","40","800","4637.155000001076","","","","","0","complex_similar","images/stimuli/spore_stims/complex_03_A_b.gif","middle","","","","",""
"","1221.8849999917438","html-keyboard-response","24","161726","0.0-9.0","SS1612929941256","pref_question","","98","","","<video width ='960' height = '540' style='padding-top:8%' autoplay muted><source src='images/stimuli/wall_pref.mp4' type='video/mp4'></video>","2","middle","45%","0","","","","","","","",""
"","2505.3099999931874","sequential-stimulus-presentation","25","165298","0.0-10.0","SS1612929941256","pref_reveal","","40","800","3305.3099999931874","","","","","0","","","","background","","","",""
"","null","html-keyboard-response","26","166521","0.0-11.0-0.0","SS1612929941256","","","null","","","<p><img src= images/blank.png width =""200"" height = ""200"" style = ""float:right""></p><p><img src=images/blank.png width =""800"" height = ""200""></p>","","","","","","","","","","","",""
"","2076.4000000053784","sequential-stimulus-presentation","27","169572","0.0-11.0-1.0","SS1612929941256","trial","","40","800","2876.4000000053784","","","","","1","complex_similar","images/stimuli/spore_stims/complex_19_A_d.gif","right","","","","",""
"","null","html-keyboard-response","28","170453","0.0-11.0-0.1","SS1612929941256","","","null","","","<p><img src= images/blank.png width =""200"" height = ""200"" style = ""float:right""></p><p><img src=images/blank.png width =""800"" height = ""200""></p>","","","","","","","","","","","",""
"","1653.8149999978486","sequential-stimulus-presentation","29","173610","0.0-11.0-1.1","SS1612929941256","trial","","40","800","2453.8149999978486","","","","","1","complex_similar","images/stimuli/spore_stims/complex_19_A_d.gif","right","","","","",""
"","null","html-keyboard-response","30","174725","0.0-11.0-0.2","SS1612929941256","","","null","","","<p><img src= images/blank.png width =""200"" height = ""200"" style = ""float:right""></p><p><img src=images/blank.png width =""800"" height = ""200""></p>","","","","","","","","","","","",""
"","3707.815000001574","sequential-stimulus-presentation","31","179302","0.0-11.0-1.2","SS1612929941256","trial","","40","800","4507.815000001574","","","","","1","complex_similar","images/stimuli/spore_stims/complex_19_A_d.gif","right","","","","",""
"","null","html-keyboard-response","32","180465","0.0-11.0-0.3","SS1612929941256","","","null","","","<p><img src= images/blank.png width =""200"" height = ""200"" style = ""float:right""></p><p><img src=images/blank.png width =""800"" height = ""200""></p>","","","","","","","","","","","",""
"","2671.09000000346","sequential-stimulus-presentation","33","184100","0.0-11.0-1.3","SS1612929941256","trial","","40","800","3471.09000000346","","","","","1","complex_similar","images/stimuli/spore_stims/complex_19_A_d.gif","right","","","","",""
"","null","html-keyboard-response","34","185145","0.0-11.0-0.4","SS1612929941256","","","null","","","<p><img src= images/blank.png width =""200"" height = ""200"" style = ""float:right""></p><p><img src=images/blank.png width =""800"" height = ""200""></p>","","","","","","","","","","","",""
"","1048.8899999909336","sequential-stimulus-presentation","35","187405","0.0-11.0-1.4","SS1612929941256","trial","","40","800","1848.8899999909336","","","","","1","complex_similar","images/stimuli/spore_stims/complex_19_A_d.gif","right","","","","",""
"","null","html-keyboard-response","36","188477","0.0-11.0-0.5","SS1612929941256","","","null","","","<p><img src= images/blank.png width =""200"" height = ""200"" style = ""float:right""></p><p><img src=images/blank.png width =""800"" height = ""200""></p>","","","","","","","","","","","",""
"","772.9949999920791","sequential-stimulus-presentation","37","190121","0.0-11.0-1.5","SS1612929941256","trial","","40","800","1572.994999992079","","","","","1","complex_similar","images/stimuli/spore_stims/complex_19_A_d.gif","right","","","","",""
"","null","html-keyboard-response","38","191490","0.0-11.0-0.6","SS1612929941256","","","null","","","<p><img src= images/blank.png width =""200"" height = ""200"" style = ""float:right""></p><p><img src=images/blank.png width =""800"" height = ""200""></p>","","","","","","","","","","","",""
"","2084.80499999132","sequential-stimulus-presentation","39","194486","0.0-11.0-1.6","SS1612929941256","trial","","40","800","2884.80499999132","","","","","1","complex_similar","images/stimuli/spore_stims/complex_19_B_d.gif","middle","","","","",""
"","null","html-keyboard-response","40","195584","0.0-11.0-0.7","SS1612929941256","","","null","","","<p><img src= images/blank.png width =""200"" height = ""200"" style = ""float:right""></p><p><img src=images/blank.png width =""800"" height = ""200""></p>","","","","","","","","","","","",""
"","1308.8900000002468","sequential-stimulus-presentation","41","197722","0.0-11.0-1.7","SS1612929941256","trial","","40","800","2108.890000000247","","","","","1","complex_similar","images/stimuli/spore_stims/complex_19_A_d.gif","right","","","","",""
"","2048.0099999986123","html-keyboard-response","42","199776","0.0-12.0","SS1612929941256","pref_question","","99","","","<video width ='960' height = '540' style='padding-top:8%' autoplay muted><source src='images/stimuli/wall_pref.mp4' type='video/mp4'></video>","3","right","66%","1","","","","","","","",""
"","1072.795000000042","sequential-stimulus-presentation","43","201833","0.0-13.0","SS1612929941256","pref_reveal","","40","800","1872.795000000042","","","","","1","","","","background","","","",""
"","null","html-keyboard-response","44","202777","0.0-14.0-0.0","SS1612929941256","","","null","","","<p><img src= images/blank.png width =""200"" height = ""200"" style = ""float:right""></p><p><img src=images/blank.png width =""800"" height = ""200""></p>","","","","","","","","","","","",""
"","1628.0899999983376","sequential-stimulus-presentation","45","205354","0.0-14.0-1.0","SS1612929941256","trial","","40","800","2428.0899999983376","","","","","2","simple_dissimilar","images/stimuli/spore_stims/simple_08_A_b.gif","middle","","","","",""
"","null","html-keyboard-response","46","207223","0.0-14.0-0.1","SS1612929941256","","","null","","","<p><img src= images/blank.png width =""200"" height = ""200"" style = ""float:right""></p><p><img src=images/blank.png width =""800"" height = ""200""></p>","","","","","","","","","","","",""
"","149.35999999579508","sequential-stimulus-presentation","47","208344","0.0-14.0-1.1","SS1612929941256","trial","","40","800","949.3599999957951","","","","","2","simple_dissimilar","images/stimuli/spore_stims/simple_08_A_b.gif","middle","","","","",""
"","null","html-keyboard-response","48","209572","0.0-14.0-0.2","SS1612929941256","","","null","","","<p><img src= images/blank.png width =""200"" height = ""200"" style = ""float:right""></p><p><img src=images/blank.png width =""800"" height = ""200""></p>","","","","","","","","","","","",""
"","575.635000001057","sequential-stimulus-presentation","49","211011","0.0-14.0-1.2","SS1612929941256","trial","","40","800","1375.635000001057","","","","","2","simple_dissimilar","images/stimuli/spore_stims/simple_08_A_b.gif","middle","","","","",""
"","null","html-keyboard-response","50","212323","0.0-14.0-0.3","SS1612929941256","","","null","","","<p><img src= images/blank.png width =""200"" height = ""200"" style = ""float:right""></p><p><img src=images/blank.png width =""800"" height = ""200""></p>","","","","","","","","","","","",""
"","178.45999999553896","sequential-stimulus-presentation","51","213359","0.0-14.0-1.3","SS1612929941256","trial","","40","800","978.459999995539","","","","","2","simple_dissimilar","images/stimuli/spore_stims/simple_08_A_b.gif","middle","","","","",""
"","null","html-keyboard-response","52","214452","0.0-14.0-0.4","SS1612929941256","","","null","","","<p><img src= images/blank.png width =""200"" height = ""200"" style = ""float:right""></p><p><img src=images/blank.png width =""800"" height = ""200""></p>","","","","","","","","","","","",""
"","779.0900000109104","sequential-stimulus-presentation","53","216257","0.0-14.0-1.4","SS1612929941256","trial","","40","800","1579.0900000109104","","","","","2","simple_dissimilar","images/stimuli/spore_stims/simple_08_A_b.gif","middle","","","","",""
"","null","html-keyboard-response","54","217216","0.0-14.0-0.5","SS1612929941256","","","null","","","<p><img src= images/blank.png width =""200"" height = ""200"" style = ""float:right""></p><p><img src=images/blank.png width =""800"" height = ""200""></p>","","","","","","","","","","","",""
"","2490.2099999890197","sequential-stimulus-presentation","55","220732","0.0-14.0-1.5","SS1612929941256","trial","","40","800","3290.2099999890197","","","","","2","simple_dissimilar","images/stimuli/spore_stims/simple_08_A_b.gif","middle","","","","",""
"","null","html-keyboard-response","56","221918","0.0-14.0-0.6","SS1612929941256","","","null","","","<p><img src= images/blank.png width =""200"" height = ""200"" style = ""float:right""></p><p><img src=images/blank.png width =""800"" height = ""200""></p>","","","","","","","","","","","",""
"","1848.7650000024587","sequential-stimulus-presentation","57","224634","0.0-14.0-1.6","SS1612929941256","trial","","40","800","2648.7650000024587","","","","","2","simple_dissimilar","images/stimuli/spore_stims/simple_08_A_b.gif","middle","","","","",""
"","null","html-keyboard-response","58","225826","0.0-14.0-0.7","SS1612929941256","","","null","","","<p><img src= images/blank.png width =""200"" height = ""200"" style = ""float:right""></p><p><img src=images/blank.png width =""800"" height = ""200""></p>","","","","","","","","","","","",""
"","333.7100000062492","sequential-stimulus-presentation","59","227074","0.0-14.0-1.7","SS1612929941256","trial","","40","800","1133.7100000062492","","","","","2","simple_dissimilar","images/stimuli/spore_stims/simple_02_A_d.gif","right","","","","",""
"","7.165000002714805","html-keyboard-response","60","227266","0.0-15.0","SS1612929941256","pref_question","","99","","","<video width ='960' height = '540' style='padding-top:8%' autoplay muted><source src='images/stimuli/wall_pref.mp4' type='video/mp4'></video>","3","right","66%","2","","","","","","","",""
"","1346.8600000051083","sequential-stimulus-presentation","61","229595","0.0-16.0","SS1612929941256","pref_reveal","","40","800","2146.8600000051083","","","","","2","","","","deviant","","","",""
"","null","html-keyboard-response","62","230894","0.0-17.0-0.0","SS1612929941256","","","null","","","<p><img src= images/blank.png width =""200"" height = ""200"" style = ""float:right""></p><p><img src=images/blank.png width =""800"" height = ""200""></p>","","","","","","","","","","","",""
"","1037.7299999963725","sequential-stimulus-presentation","63","232958","0.0-17.0-1.0","SS1612929941256","trial","","40","800","1837.7299999963725","","","","","3","simple_dissimilar","images/stimuli/spore_stims/simple_09_B_a.gif","left","","","","",""
"","null","html-keyboard-response","64","234221","0.0-17.0-0.1","SS1612929941256","","","null","","","<p><img src= images/blank.png width =""200"" height = ""200"" style = ""float:right""></p><p><img src=images/blank.png width =""800"" height = ""200""></p>","","","","","","","","","","","",""
"","529.2849999968894","sequential-stimulus-presentation","65","235658","0.0-17.0-1.1","SS1612929941256","trial","","40","800","1329.2849999968894","","","","","3","simple_dissimilar","images/stimuli/spore_stims/simple_09_B_a.gif","left","","","","",""
"","null","html-keyboard-response","66","236607","0.0-17.0-0.2","SS1612929941256","","","null","","","<p><img src= images/blank.png width =""200"" height = ""200"" style = ""float:right""></p><p><img src=images/blank.png width =""800"" height = ""200""></p>","","","","","","","","","","","",""
"","753.0850000039209","sequential-stimulus-presentation","67","238415","0.0-17.0-1.2","SS1612929941256","trial","","40","800","1553.0850000039209","","","","","3","simple_dissimilar","images/stimuli/spore_stims/simple_09_B_a.gif","left","","","","",""
"","null","html-keyboard-response","68","239663","0.0-17.0-0.3","SS1612929941256","","","null","","","<p><img src= images/blank.png width =""200"" height = ""200"" style = ""float:right""></p><p><img src=images/blank.png width =""800"" height = ""200""></p>","","","","","","","","","","","",""
"","1163.7099999934435","sequential-stimulus-presentation","69","241688","0.0-17.0-1.3","SS1612929941256","trial","","40","800","1963.7099999934435","","","","","3","simple_dissimilar","images/stimuli/spore_stims/simple_09_B_a.gif","left","","","","",""
"","null","html-keyboard-response","70","243025","0.0-17.0-0.4","SS1612929941256","","","null","","","<p><img src= images/blank.png width =""200"" height = ""200"" style = ""float:right""></p><p><img src=images/blank.png width =""800"" height = ""200""></p>","","","","","","","","","","","",""
"","724.6500000037486","sequential-stimulus-presentation","71","244569","0.0-17.0-1.4","SS1612929941256","trial","","40","800","1524.6500000037486","","","","","3","simple_dissimilar","images/stimuli/spore_stims/simple_09_B_a.gif","left","","","","",""
"","null","html-keyboard-response","72","245797","0.0-17.0-0.5","SS1612929941256","","","null","","","<p><img src= images/blank.png width =""200"" height = ""200"" style = ""float:right""></p><p><img src=images/blank.png width =""800"" height = ""200""></p>","","","","","","","","","","","",""
"","1096.9550000008894","sequential-stimulus-presentation","73","247862","0.0-17.0-1.5","SS1612929941256","trial","","40","800","1896.9550000008894","","","","","3","simple_dissimilar","images/stimuli/spore_stims/simple_03_B_b.gif","middle","","","","",""
"","null","html-keyboard-response","74","249105","0.0-17.0-0.6","SS1612929941256","","","null","","","<p><img src= images/blank.png width =""200"" height = ""200"" style = ""float:right""></p><p><img src=images/blank.png width =""800"" height = ""200""></p>","","","","","","","","","","","",""
"","241.7249999998603","sequential-stimulus-presentation","75","250379","0.0-17.0-1.6","SS1612929941256","trial","","40","800","1041.7249999998603","","","","","3","simple_dissimilar","images/stimuli/spore_stims/simple_09_B_a.gif","left","","","","",""
"","null","html-keyboard-response","76","251454","0.0-17.0-0.7","SS1612929941256","","","null","","","<p><img src= images/blank.png width =""200"" height = ""200"" style = ""float:right""></p><p><img src=images/blank.png width =""800"" height = ""200""></p>","","","","","","","","","","","",""
"","1040.7049999921583","sequential-stimulus-presentation","77","253305","0.0-17.0-1.7","SS1612929941256","trial","","40","800","1840.7049999921583","","","","","3","simple_dissimilar","images/stimuli/spore_stims/simple_09_B_a.gif","left","","","","",""
"","2470.064999986789","html-keyboard-response","78","255781","0.0-18.0","SS1612929941256","pref_question","","97","","","<video width ='960' height = '540' style='padding-top:8%' autoplay muted><source src='images/stimuli/wall_pref.mp4' type='video/mp4'></video>","1","left","25%","3","","","","","","","",""
"","1602.4449999968056","sequential-stimulus-presentation","79","258548","0.0-19.0","SS1612929941256","pref_reveal","","40","800","2402.4449999968056","","","","","3","","","","background","","","",""
"","null","html-keyboard-response","80","259426","0.0-20.0-0.0","SS1612929941256","","","null","","","<p><img src= images/blank.png width =""200"" height = ""200"" style = ""float:right""></p><p><img src=images/blank.png width =""800"" height = ""200""></p>","","","","","","","","","","","",""
"","1110.095000010915","sequential-stimulus-presentation","81","261509","0.0-20.0-1.0","SS1612929941256","trial","","40","800","1910.095000010915","","","","","4","complex_dissimilar","images/stimuli/spore_stims/complex_10_B_b.gif","middle","","","","",""
"","null","html-keyboard-response","82","262780","0.0-20.0-0.1","SS1612929941256","","","null","","","<p><img src= images/blank.png width =""200"" height = ""200"" style = ""float:right""></p><p><img src=images/blank.png width =""800"" height = ""200""></p>","","","","","","","","","","","",""
"","4602.014999996754","sequential-stimulus-presentation","83","268234","0.0-20.0-1.1","SS1612929941256","trial","","40","800","5402.014999996754","","","","","4","complex_dissimilar","images/stimuli/spore_stims/complex_10_B_b.gif","middle","","","","",""
"","null","html-keyboard-response","84","269556","0.0-20.0-0.2","SS1612929941256","","","null","","","<p><img src= images/blank.png width =""200"" height = ""200"" style = ""float:right""></p><p><img src=images/blank.png width =""800"" height = ""200""></p>","","","","","","","","","","","",""
"","1470.644999993965","sequential-stimulus-presentation","85","272103","0.0-20.0-1.2","SS1612929941256","trial","","40","800","2270.644999993965","","","","","4","complex_dissimilar","images/stimuli/spore_stims/complex_10_B_b.gif","middle","","","","",""
"","null","html-keyboard-response","86","273465","0.0-20.0-0.3","SS1612929941256","","","null","","","<p><img src= images/blank.png width =""200"" height = ""200"" style = ""float:right""></p><p><img src=images/blank.png width =""800"" height = ""200""></p>","","","","","","","","","","","",""
"","940.1899999938905","sequential-stimulus-presentation","87","275451","0.0-20.0-1.3","SS1612929941256","trial","","40","800","1740.1899999938905","","","","","4","complex_dissimilar","images/stimuli/spore_stims/complex_10_B_b.gif","middle","","","","",""
"","null","html-keyboard-response","88","276712","0.0-20.0-0.4","SS1612929941256","","","null","","","<p><img src= images/blank.png width =""200"" height = ""200"" style = ""float:right""></p><p><img src=images/blank.png width =""800"" height = ""200""></p>","","","","","","","","","","","",""
"","1205.5449999897974","sequential-stimulus-presentation","89","278823","0.0-20.0-1.4","SS1612929941256","trial","","40","800","2005.5449999897974","","","","","4","complex_dissimilar","images/stimuli/spore_stims/complex_10_B_b.gif","middle","","","","",""
"","null","html-keyboard-response","90","279854","0.0-20.0-0.5","SS1612929941256","","","null","","","<p><img src= images/blank.png width =""200"" height = ""200"" style = ""float:right""></p><p><img src=images/blank.png width =""800"" height = ""200""></p>","","","","","","","","","","","",""
"","4856.640000012703","sequential-stimulus-presentation","91","285572","0.0-20.0-1.5","SS1612929941256","trial","","40","800","5656.640000012703","","","","","4","complex_dissimilar","images/stimuli/spore_stims/complex_10_B_b.gif","middle","","","","",""
"","null","html-keyboard-response","92","286771","0.0-20.0-0.6","SS1612929941256","","","null","","","<p><img src= images/blank.png width =""200"" height = ""200"" style = ""float:right""></p><p><img src=images/blank.png width =""800"" height = ""200""></p>","","","","","","","","","","","",""
"","342.27999999711756","sequential-stimulus-presentation","93","288137","0.0-20.0-1.6","SS1612929941256","trial","","40","800","1142.2799999971176","","","","","4","complex_dissimilar","images/stimuli/spore_stims/complex_07_B_d.gif","left","","","","",""
"","null","html-keyboard-response","94","289320","0.0-20.0-0.7","SS1612929941256","","","null","","","<p><img src= images/blank.png width =""200"" height = ""200"" style = ""float:right""></p><p><img src=images/blank.png width =""800"" height = ""200""></p>","","","","","","","","","","","",""
"","5580.8799999940675","sequential-stimulus-presentation","95","295936","0.0-20.0-1.7","SS1612929941256","trial","","40","800","6380.8799999940675","","","","","4","complex_dissimilar","images/stimuli/spore_stims/complex_10_B_b.gif","middle","","","","",""
"","2752.6700000016717","html-keyboard-response","96","298697","0.0-21.0","SS1612929941256","pref_question","","98","","","<video width ='960' height = '540' style='padding-top:8%' autoplay muted><source src='images/stimuli/wall_pref.mp4' type='video/mp4'></video>","2","middle","45%","4","","","","","","","",""
"","2311.6899999877205","sequential-stimulus-presentation","97","301884","0.0-22.0","SS1612929941256","pref_reveal","","40","800","3111.6899999877205","","","","","4","","","","background","","","",""
"","null","html-keyboard-response","98","303037","0.0-23.0-0.0","SS1612929941256","","","null","","","<p><img src= images/blank.png width =""200"" height = ""200"" style = ""float:right""></p><p><img src=images/blank.png width =""800"" height = ""200""></p>","","","","","","","","","","","",""
"","3716.2649999954738","sequential-stimulus-presentation","99","307640","0.0-23.0-1.0","SS1612929941256","trial","","40","800","4516.264999995474","","","","","5","simple_dissimilar","images/stimuli/spore_stims/simple_02_B_d.gif","right","","","","",""
"","null","html-keyboard-response","100","308804","0.0-23.0-0.1","SS1612929941256","","","null","","","<p><img src= images/blank.png width =""200"" height = ""200"" style = ""float:right""></p><p><img src=images/blank.png width =""800"" height = ""200""></p>","","","","","","","","","","","",""
"","9018.270000000484","sequential-stimulus-presentation","101","318719","0.0-23.0-1.1","SS1612929941256","trial","","40","800","9818.270000000484","","","","","5","simple_dissimilar","images/stimuli/spore_stims/simple_02_B_d.gif","right","","","","",""
"","null","html-keyboard-response","102","319635","0.0-23.0-0.2","SS1612929941256","","","null","","","<p><img src= images/blank.png width =""200"" height = ""200"" style = ""float:right""></p><p><img src=images/blank.png width =""800"" height = ""200""></p>","","","","","","","","","","","",""
"","920.1150000008056","sequential-stimulus-presentation","103","321431","0.0-23.0-1.2","SS1612929941256","trial","","40","800","1720.1150000008056","","","","","5","simple_dissimilar","images/stimuli/spore_stims/simple_02_B_d.gif","right","","","","",""
"","null","html-keyboard-response","104","322360","0.0-23.0-0.3","SS1612929941256","","","null","","","<p><img src= images/blank.png width =""200"" height = ""200"" style = ""float:right""></p><p><img src=images/blank.png width =""800"" height = ""200""></p>","","","","","","","","","","","",""
"","1070.5400000006193","sequential-stimulus-presentation","105","324276","0.0-23.0-1.3","SS1612929941256","trial","","40","800","1870.5400000006193","","","","","5","simple_dissimilar","images/stimuli/spore_stims/simple_02_B_d.gif","right","","","","",""
"","null","html-keyboard-response","106","325590","0.0-23.0-0.4","SS1612929941256","","","null","","","<p><img src= images/blank.png width =""200"" height = ""200"" style = ""float:right""></p><p><img src=images/blank.png width =""800"" height = ""200""></p>","","","","","","","","","","","",""
"","3686.2550000078045","sequential-stimulus-presentation","107","330251","0.0-23.0-1.4","SS1612929941256","trial","","40","800","4486.2550000078045","","","","","5","simple_dissimilar","images/stimuli/spore_stims/simple_06_A_a.gif","middle","","","","",""
"","null","html-keyboard-response","108","331297","0.0-23.0-0.5","SS1612929941256","","","null","","","<p><img src= images/blank.png width =""200"" height = ""200"" style = ""float:right""></p><p><img src=images/blank.png width =""800"" height = ""200""></p>","","","","","","","","","","","",""
"","1900.3200000006473","sequential-stimulus-presentation","109","334285","0.0-23.0-1.5","SS1612929941256","trial","","40","800","2700.3200000006473","","","","","5","simple_dissimilar","images/stimuli/spore_stims/simple_02_B_d.gif","right","","","","",""
"","null","html-keyboard-response","110","335221","0.0-23.0-0.6","SS1612929941256","","","null","","","<p><img src= images/blank.png width =""200"" height = ""200"" style = ""float:right""></p><p><img src=images/blank.png width =""800"" height = ""200""></p>","","","","","","","","","","","",""
"","916.945000004489","sequential-stimulus-presentation","111","337084","0.0-23.0-1.6","SS1612929941256","trial","","40","800","1716.945000004489","","","","","5","simple_dissimilar","images/stimuli/spore_stims/simple_02_B_d.gif","right","","","","",""
"","null","html-keyboard-response","112","338316","0.0-23.0-0.7","SS1612929941256","","","null","","","<p><img src= images/blank.png width =""200"" height = ""200"" style = ""float:right""></p><p><img src=images/blank.png width =""800"" height = ""200""></p>","","","","","","","","","","","",""
"","1106.004999994184","sequential-stimulus-presentation","113","340341","0.0-23.0-1.7","SS1612929941256","trial","","40","800","1906.004999994184","","","","","5","simple_dissimilar","images/stimuli/spore_stims/simple_02_B_d.gif","right","","","","",""
"","3576.79000000644","html-keyboard-response","114","343925","0.0-24.0","SS1612929941256","pref_question","","99","","","<video width ='960' height = '540' style='padding-top:8%' autoplay muted><source src='images/stimuli/wall_pref.mp4' type='video/mp4'></video>","3","right","66%","5","","","","","","","",""
"","2075.040000010631","sequential-stimulus-presentation","115","347025","0.0-25.0","SS1612929941256","pref_reveal","","40","800","2875.040000010631","","","","","5","","","","background","","","",""
"","null","html-keyboard-response","116","348038","0.0-26.0-0.0","SS1612929941256","","","null","","","<p><img src= images/blank.png width =""200"" height = ""200"" style = ""float:right""></p><p><img src=images/blank.png width =""800"" height = ""200""></p>","","","","","","","","","","","",""
"","2845.2700000052573","sequential-stimulus-presentation","117","351853","0.0-26.0-1.0","SS1612929941256","trial","","40","800","3645.2700000052573","","","","","6","simple_similar","images/stimuli/spore_stims/simple_16_B_a.gif","right","","","","",""
"","null","html-keyboard-response","118","352882","0.0-26.0-0.1","SS1612929941256","","","null","","","<p><img src= images/blank.png width =""200"" height = ""200"" style = ""float:right""></p><p><img src=images/blank.png width =""800"" height = ""200""></p>","","","","","","","","","","","",""
"","742.4100000062026","sequential-stimulus-presentation","119","354697","0.0-26.0-1.1","SS1612929941256","trial","","40","800","1542.4100000062026","","","","","6","simple_similar","images/stimuli/spore_stims/simple_16_B_a.gif","right","","","","",""
"","null","html-keyboard-response","120","356010","0.0-26.0-0.2","SS1612929941256","","","null","","","<p><img src= images/blank.png width =""200"" height = ""200"" style = ""float:right""></p><p><img src=images/blank.png width =""800"" height = ""200""></p>","","","","","","","","","","","",""
"","1775.3349999984493","sequential-stimulus-presentation","121","358721","0.0-26.0-1.2","SS1612929941256","trial","","40","800","2575.3349999984493","","","","","6","simple_similar","images/stimuli/spore_stims/simple_16_B_a.gif","right","","","","",""
"","null","html-keyboard-response","122","359641","0.0-26.0-0.3","SS1612929941256","","","null","","","<p><img src= images/blank.png width =""200"" height = ""200"" style = ""float:right""></p><p><img src=images/blank.png width =""800"" height = ""200""></p>","","","","","","","","","","","",""
"","1013.7399999948684","sequential-stimulus-presentation","123","361472","0.0-26.0-1.3","SS1612929941256","trial","","40","800","1813.7399999948684","","","","","6","simple_similar","images/stimuli/spore_stims/simple_16_B_a.gif","right","","","","",""
"","null","html-keyboard-response","124","362672","0.0-26.0-0.4","SS1612929941256","","","null","","","<p><img src= images/blank.png width =""200"" height = ""200"" style = ""float:right""></p><p><img src=images/blank.png width =""800"" height = ""200""></p>","","","","","","","","","","","",""
"","1371.1199999961536","sequential-stimulus-presentation","125","365034","0.0-26.0-1.4","SS1612929941256","trial","","40","800","2171.1199999961536","","","","","6","simple_similar","images/stimuli/spore_stims/simple_16_A_a.gif","middle","","","","",""
"","null","html-keyboard-response","126","366327","0.0-26.0-0.5","SS1612929941256","","","null","","","<p><img src= images/blank.png width =""200"" height = ""200"" style = ""float:right""></p><p><img src=images/blank.png width =""800"" height = ""200""></p>","","","","","","","","","","","",""
"","836.3250000111293","sequential-stimulus-presentation","127","368065","0.0-26.0-1.5","SS1612929941256","trial","","40","800","1636.3250000111293","","","","","6","simple_similar","images/stimuli/spore_stims/simple_16_B_a.gif","right","","","","",""
"","null","html-keyboard-response","128","369158","0.0-26.0-0.6","SS1612929941256","","","null","","","<p><img src= images/blank.png width =""200"" height = ""200"" style = ""float:right""></p><p><img src=images/blank.png width =""800"" height = ""200""></p>","","","","","","","","","","","",""
"","1044.4900000002235","sequential-stimulus-presentation","129","371397","0.0-26.0-1.6","SS1612929941256","trial","","40","800","1844.4900000002235","","","","","6","simple_similar","images/stimuli/spore_stims/simple_16_B_a.gif","right","","","","",""
"","null","html-keyboard-response","130","372341","0.0-26.0-0.7","SS1612929941256","","","null","","","<p><img src= images/blank.png width =""200"" height = ""200"" style = ""float:right""></p><p><img src=images/blank.png width =""800"" height = ""200""></p>","","","","","","","","","","","",""
"","690.7600000122329","sequential-stimulus-presentation","131","373948","0.0-26.0-1.7","SS1612929941256","trial","","40","800","1490.760000012233","","","","","6","simple_similar","images/stimuli/spore_stims/simple_16_B_a.gif","right","","","","",""
"","2365.030000000843","html-keyboard-response","132","376321","0.0-27.0","SS1612929941256","pref_question","","99","","","<video width ='960' height = '540' style='padding-top:8%' autoplay muted><source src='images/stimuli/wall_pref.mp4' type='video/mp4'></video>","3","right","66%","6","","","","","","","",""
"","1316.1200000031386","sequential-stimulus-presentation","133","378667","0.0-28.0","SS1612929941256","pref_reveal","","40","800","2116.1200000031386","","","","","6","","","","background","","","",""
"","null","html-keyboard-response","134","379636","0.0-29.0-0.0","SS1612929941256","","","null","","","<p><img src= images/blank.png width =""200"" height = ""200"" style = ""float:right""></p><p><img src=images/blank.png width =""800"" height = ""200""></p>","","","","","","","","","","","",""
"","1664.6449999971082","sequential-stimulus-presentation","135","382328","0.0-29.0-1.0","SS1612929941256","trial","","40","800","2464.6449999971082","","","","","7","complex_dissimilar","images/stimuli/spore_stims/complex_20_B_d.gif","left","","","","",""
"","null","html-keyboard-response","136","383509","0.0-29.0-0.1","SS1612929941256","","","null","","","<p><img src= images/blank.png width =""200"" height = ""200"" style = ""float:right""></p><p><img src=images/blank.png width =""800"" height = ""200""></p>","","","","","","","","","","","",""
"","1496.4550000004238","sequential-stimulus-presentation","137","385846","0.0-29.0-1.1","SS1612929941256","trial","","40","800","2296.4550000004238","","","","","7","complex_dissimilar","images/stimuli/spore_stims/complex_20_B_d.gif","left","","","","",""
"","null","html-keyboard-response","138","386761","0.0-29.0-0.2","SS1612929941256","","","null","","","<p><img src= images/blank.png width =""200"" height = ""200"" style = ""float:right""></p><p><img src=images/blank.png width =""800"" height = ""200""></p>","","","","","","","","","","","",""
"","530.3949999943143","sequential-stimulus-presentation","139","388197","0.0-29.0-1.2","SS1612929941256","trial","","40","800","1330.3949999943143","","","","","7","complex_dissimilar","images/stimuli/spore_stims/complex_20_B_d.gif","left","","","","",""
"","null","html-keyboard-response","140","389015","0.0-29.0-0.3","SS1612929941256","","","null","","","<p><img src= images/blank.png width =""200"" height = ""200"" style = ""float:right""></p><p><img src=images/blank.png width =""800"" height = ""200""></p>","","","","","","","","","","","",""
"","315.9449999948265","sequential-stimulus-presentation","141","390409","0.0-29.0-1.3","SS1612929941256","trial","","40","800","1115.9449999948265","","","","","7","complex_dissimilar","images/stimuli/spore_stims/complex_20_B_d.gif","left","","","","",""
"","null","html-keyboard-response","142","391506","0.0-29.0-0.4","SS1612929941256","","","null","","","<p><img src= images/blank.png width =""200"" height = ""200"" style = ""float:right""></p><p><img src=images/blank.png width =""800"" height = ""200""></p>","","","","","","","","","","","",""
"","1650.5699999979697","sequential-stimulus-presentation","143","394060","0.0-29.0-1.4","SS1612929941256","trial","","40","800","2450.5699999979697","","","","","7","complex_dissimilar","images/stimuli/spore_stims/complex_05_A_d.gif","middle","","","","",""
"","null","html-keyboard-response","144","395546","0.0-29.0-0.5","SS1612929941256","","","null","","","<p><img src= images/blank.png width =""200"" height = ""200"" style = ""float:right""></p><p><img src=images/blank.png width =""800"" height = ""200""></p>","","","","","","","","","","","",""
"","631.1100000020815","sequential-stimulus-presentation","145","397094","0.0-29.0-1.5","SS1612929941256","trial","","40","800","1431.1100000020815","","","","","7","complex_dissimilar","images/stimuli/spore_stims/complex_20_B_d.gif","left","","","","",""
"","null","html-keyboard-response","146","398376","0.0-29.0-0.6","SS1612929941256","","","null","","","<p><img src= images/blank.png width =""200"" height = ""200"" style = ""float:right""></p><p><img src=images/blank.png width =""800"" height = ""200""></p>","","","","","","","","","","","",""
"","1291.6649999970105","sequential-stimulus-presentation","147","400569","0.0-29.0-1.6","SS1612929941256","trial","","40","800","2091.6649999970105","","","","","7","complex_dissimilar","images/stimuli/spore_stims/complex_20_B_d.gif","left","","","","",""
"","null","html-keyboard-response","148","401842","0.0-29.0-0.7","SS1612929941256","","","null","","","<p><img src= images/blank.png width =""200"" height = ""200"" style = ""float:right""></p><p><img src=images/blank.png width =""800"" height = ""200""></p>","","","","","","","","","","","",""
"","1407.8799999988405","sequential-stimulus-presentation","149","404302","0.0-29.0-1.7","SS1612929941256","trial","","40","800","2207.8799999988405","","","","","7","complex_dissimilar","images/stimuli/spore_stims/complex_20_B_d.gif","left","","","","",""
"","1862.280000001192","html-keyboard-response","150","406171","0.0-30.0","SS1612929941256","pref_question","","97","","","<video width ='960' height = '540' style='padding-top:8%' autoplay muted><source src='images/stimuli/wall_pref.mp4' type='video/mp4'></video>","1","left","25%","7","","","","","","","",""
"","1952.7699999889592","sequential-stimulus-presentation","151","409267","0.0-31.0","SS1612929941256","pref_reveal","","40","800","2752.769999988959","","","","","7","","","","background","","","",""
"","null","html-keyboard-response","152","410147","0.0-32.0-0.0","SS1612929941256","","","null","","","<p><img src= images/blank.png width =""200"" height = ""200"" style = ""float:right""></p><p><img src=images/blank.png width =""800"" height = ""200""></p>","","","","","","","","","","","",""
"","3385.500000003958","sequential-stimulus-presentation","153","414395","0.0-32.0-1.0","SS1612929941256","trial","","40","800","4185.500000003958","","","","","8","simple_similar","images/stimuli/spore_stims/simple_19_A_a.gif","middle","","","","",""
"","null","html-keyboard-response","154","415317","0.0-32.0-0.1","SS1612929941256","","","null","","","<p><img src= images/blank.png width =""200"" height = ""200"" style = ""float:right""></p><p><img src=images/blank.png width =""800"" height = ""200""></p>","","","","","","","","","","","",""
"","2259.699999995064","sequential-stimulus-presentation","155","418478","0.0-32.0-1.1","SS1612929941256","trial","","40","800","3059.699999995064","","","","","8","simple_similar","images/stimuli/spore_stims/simple_19_A_a.gif","middle","","","","",""
"","null","html-keyboard-response","156","419598","0.0-32.0-0.2","SS1612929941256","","","null","","","<p><img src= images/blank.png width =""200"" height = ""200"" style = ""float:right""></p><p><img src=images/blank.png width =""800"" height = ""200""></p>","","","","","","","","","","","",""
"","2180.8950000122422","sequential-stimulus-presentation","157","422604","0.0-32.0-1.2","SS1612929941256","trial","","40","800","2980.8950000122422","","","","","8","simple_similar","images/stimuli/spore_stims/simple_19_A_a.gif","middle","","","","",""
"","null","html-keyboard-response","158","423731","0.0-32.0-0.3","SS1612929941256","","","null","","","<p><img src= images/blank.png width =""200"" height = ""200"" style = ""float:right""></p><p><img src=images/blank.png width =""800"" height = ""200""></p>","","","","","","","","","","","",""
"","1878.8749999948777","sequential-stimulus-presentation","159","426542","0.0-32.0-1.3","SS1612929941256","trial","","40","800","2678.8749999948777","","","","","8","simple_similar","images/stimuli/spore_stims/simple_19_A_a.gif","middle","","","","",""
"","null","html-keyboard-response","160","427519","0.0-32.0-0.4","SS1612929941256","","","null","","","<p><img src= images/blank.png width =""200"" height = ""200"" style = ""float:right""></p><p><img src=images/blank.png width =""800"" height = ""200""></p>","","","","","","","","","","","",""
"","1000.2349999995204","sequential-stimulus-presentation","161","429374","0.0-32.0-1.4","SS1612929941256","trial","","40","800","1800.2349999995204","","","","","8","simple_similar","images/stimuli/spore_stims/simple_19_A_a.gif","middle","","","","",""
"","null","html-keyboard-response","162","430692","0.0-32.0-0.5","SS1612929941256","","","null","","","<p><img src= images/blank.png width =""200"" height = ""200"" style = ""float:right""></p><p><img src=images/blank.png width =""800"" height = ""200""></p>","","","","","","","","","","","",""
"","1376.6150000010384","sequential-stimulus-presentation","163","433012","0.0-32.0-1.5","SS1612929941256","trial","","40","800","2176.6150000010384","","","","","8","simple_similar","images/stimuli/spore_stims/simple_19_B_a.gif","right","","","","",""
"","null","html-keyboard-response","164","434026","0.0-32.0-0.6","SS1612929941256","","","null","","","<p><img src= images/blank.png width =""200"" height = ""200"" style = ""float:right""></p><p><img src=images/blank.png width =""800"" height = ""200""></p>","","","","","","","","","","","",""
"","5518.244999999297","sequential-stimulus-presentation","165","440539","0.0-32.0-1.6","SS1612929941256","trial","","40","800","6318.244999999297","","","","","8","simple_similar","images/stimuli/spore_stims/simple_19_A_a.gif","middle","","","","",""
"","null","html-keyboard-response","166","441449","0.0-32.0-0.7","SS1612929941256","","","null","","","<p><img src= images/blank.png width =""200"" height = ""200"" style = ""float:right""></p><p><img src=images/blank.png width =""800"" height = ""200""></p>","","","","","","","","","","","",""
"","1444.0549999999348","sequential-stimulus-presentation","167","443807","0.0-32.0-1.7","SS1612929941256","trial","","40","800","2244.054999999935","","","","","8","simple_similar","images/stimuli/spore_stims/simple_19_A_a.gif","middle","","","","",""
"","11222.915000005742","html-keyboard-response","168","455047","0.0-33.0","SS1612929941256","pref_question","","98","","","<video width ='960' height = '540' style='padding-top:8%' autoplay muted><source src='images/stimuli/wall_pref.mp4' type='video/mp4'></video>","2","middle","45%","8","","","","","","","",""
"","8175.44999999518","sequential-stimulus-presentation","169","464120","0.0-34.0","SS1612929941256","pref_reveal","","40","800","8975.44999999518","","","","","8","","","","background","","","",""
"","null","html-keyboard-response","170","464994","0.0-35.0-0.0","SS1612929941256","","","null","","","<p><img src= images/blank.png width =""200"" height = ""200"" style = ""float:right""></p><p><img src=images/blank.png width =""800"" height = ""200""></p>","","","","","","","","","","","",""
"","1163.124999991851","sequential-stimulus-presentation","171","467104","0.0-35.0-1.0","SS1612929941256","trial","","40","800","1963.124999991851","","","","","9","complex_dissimilar","images/stimuli/spore_stims/complex_09_A_c.gif","right","","","","",""
"","null","html-keyboard-response","172","468395","0.0-35.0-0.1","SS1612929941256","","","null","","","<p><img src= images/blank.png width =""200"" height = ""200"" style = ""float:right""></p><p><img src=images/blank.png width =""800"" height = ""200""></p>","","","","","","","","","","","",""
"","1078.5699999978533","sequential-stimulus-presentation","173","470387","0.0-35.0-1.1","SS1612929941256","trial","","40","800","1878.5699999978533","","","","","9","complex_dissimilar","images/stimuli/spore_stims/complex_09_A_c.gif","right","","","","",""
"","null","html-keyboard-response","174","471345","0.0-35.0-0.2","SS1612929941256","","","null","","","<p><img src= images/blank.png width =""200"" height = ""200"" style = ""float:right""></p><p><img src=images/blank.png width =""800"" height = ""200""></p>","","","","","","","","","","","",""
"","1361.4049999887357","sequential-stimulus-presentation","175","473651","0.0-35.0-1.2","SS1612929941256","trial","","40","800","2161.4049999887357","","","","","9","complex_dissimilar","images/stimuli/spore_stims/complex_09_A_c.gif","right","","","","",""
"","null","html-keyboard-response","176","474824","0.0-35.0-0.3","SS1612929941256","","","null","","","<p><img src= images/blank.png width =""200"" height = ""200"" style = ""float:right""></p><p><img src=images/blank.png width =""800"" height = ""200""></p>","","","","","","","","","","","",""
"","1145.3400000027614","sequential-stimulus-presentation","177","476899","0.0-35.0-1.3","SS1612929941256","trial","","40","800","1945.3400000027614","","","","","9","complex_dissimilar","images/stimuli/spore_stims/complex_09_A_c.gif","right","","","","",""
"","null","html-keyboard-response","178","477817","0.0-35.0-0.4","SS1612929941256","","","null","","","<p><img src= images/blank.png width =""200"" height = ""200"" style = ""float:right""></p><p><img src=images/blank.png width =""800"" height = ""200""></p>","","","","","","","","","","","",""
"","2556.6649999964284","sequential-stimulus-presentation","179","481333","0.0-35.0-1.4","SS1612929941256","trial","","40","800","3356.6649999964284","","","","","9","complex_dissimilar","images/stimuli/spore_stims/complex_09_A_c.gif","right","","","","",""
"","null","html-keyboard-response","180","482602","0.0-35.0-0.5","SS1612929941256","","","null","","","<p><img src= images/blank.png width =""200"" height = ""200"" style = ""float:right""></p><p><img src=images/blank.png width =""800"" height = ""200""></p>","","","","","","","","","","","",""
"","852.7500000054715","sequential-stimulus-presentation","181","484334","0.0-35.0-1.5","SS1612929941256","trial","","40","800","1652.7500000054715","","","","","9","complex_dissimilar","images/stimuli/spore_stims/complex_09_A_c.gif","right","","","","",""
"","null","html-keyboard-response","182","485329","0.0-35.0-0.6","SS1612929941256","","","null","","","<p><img src= images/blank.png width =""200"" height = ""200"" style = ""float:right""></p><p><img src=images/blank.png width =""800"" height = ""200""></p>","","","","","","","","","","","",""
"","1282.5000000011642","sequential-stimulus-presentation","183","487444","0.0-35.0-1.6","SS1612929941256","trial","","40","800","2082.500000001164","","","","","9","complex_dissimilar","images/stimuli/spore_stims/complex_15_A_d.gif","left","","","","",""
"","null","html-keyboard-response","184","488300","0.0-35.0-0.7","SS1612929941256","","","null","","","<p><img src= images/blank.png width =""200"" height = ""200"" style = ""float:right""></p><p><img src=images/blank.png width =""800"" height = ""200""></p>","","","","","","","","","","","",""
"","1035.9000000025844","sequential-stimulus-presentation","185","490267","0.0-35.0-1.7","SS1612929941256","trial","","40","800","1835.9000000025844","","","","","9","complex_dissimilar","images/stimuli/spore_stims/complex_09_A_c.gif","right","","","","",""
"","10646.949999994831","html-keyboard-response","186","500925","0.0-36.0","SS1612929941256","pref_question","","99","","","<video width ='960' height = '540' style='padding-top:8%' autoplay muted><source src='images/stimuli/wall_pref.mp4' type='video/mp4'></video>","3","right","66%","9","","","","","","","",""
"","1824.7600000031525","sequential-stimulus-presentation","187","503793","0.0-37.0","SS1612929941256","pref_reveal","","40","800","2624.7600000031525","","","","","9","","","","background","","","",""
"","null","html-keyboard-response","188","504855","0.0-38.0-0.0","SS1612929941256","","","null","","","<p><img src= images/blank.png width =""200"" height = ""200"" style = ""float:right""></p><p><img src=images/blank.png width =""800"" height = ""200""></p>","","","","","","","","","","","",""
"","905.0600000045961","sequential-stimulus-presentation","189","506692","0.0-38.0-1.0","SS1612929941256","trial","","40","800","1705.060000004596","","","","","10","complex_similar","images/stimuli/spore_stims/complex_11_A_a.gif","left","","","","",""
"","null","html-keyboard-response","190","507685","0.0-38.0-0.1","SS1612929941256","","","null","","","<p><img src= images/blank.png width =""200"" height = ""200"" style = ""float:right""></p><p><img src=images/blank.png width =""800"" height = ""200""></p>","","","","","","","","","","","",""
"","804.6549999999115","sequential-stimulus-presentation","191","509453","0.0-38.0-1.1","SS1612929941256","trial","","40","800","1604.6549999999115","","","","","10","complex_similar","images/stimuli/spore_stims/complex_11_A_a.gif","left","","","","",""
"","null","html-keyboard-response","192","510261","0.0-38.0-0.2","SS1612929941256","","","null","","","<p><img src= images/blank.png width =""200"" height = ""200"" style = ""float:right""></p><p><img src=images/blank.png width =""800"" height = ""200""></p>","","","","","","","","","","","",""
"","1216.6200000065146","sequential-stimulus-presentation","193","512757","0.0-38.0-1.2","SS1612929941256","trial","","40","800","2016.6200000065146","","","","","10","complex_similar","images/stimuli/spore_stims/complex_11_A_a.gif","left","","","","",""
"","null","html-keyboard-response","194","514037","0.0-38.0-0.3","SS1612929941256","","","null","","","<p><img src= images/blank.png width =""200"" height = ""200"" style = ""float:right""></p><p><img src=images/blank.png width =""800"" height = ""200""></p>","","","","","","","","","","","",""
"","1306.4650000014808","sequential-stimulus-presentation","195","516181","0.0-38.0-1.3","SS1612929941256","trial","","40","800","2106.465000001481","","","","","10","complex_similar","images/stimuli/spore_stims/complex_11_B_a.gif","right","","","","",""
"","null","html-keyboard-response","196","517498","0.0-38.0-0.4","SS1612929941256","","","null","","","<p><img src= images/blank.png width =""200"" height = ""200"" style = ""float:right""></p><p><img src=images/blank.png width =""800"" height = ""200""></p>","","","","","","","","","","","",""
"","973.7200000090525","sequential-stimulus-presentation","197","519350","0.0-38.0-1.4","SS1612929941256","trial","","40","800","1773.7200000090525","","","","","10","complex_similar","images/stimuli/spore_stims/complex_11_A_a.gif","left","","","","",""
"","null","html-keyboard-response","198","520294","0.0-38.0-0.5","SS1612929941256","","","null","","","<p><img src= images/blank.png width =""200"" height = ""200"" style = ""float:right""></p><p><img src=images/blank.png width =""800"" height = ""200""></p>","","","","","","","","","","","",""
"","494.2600000067614","sequential-stimulus-presentation","199","521852","0.0-38.0-1.5","SS1612929941256","trial","","40","800","1294.2600000067614","","","","","10","complex_similar","images/stimuli/spore_stims/complex_11_A_a.gif","left","","","","",""
"","null","html-keyboard-response","200","523040","0.0-38.0-0.6","SS1612929941256","","","null","","","<p><img src= images/blank.png width =""200"" height = ""200"" style = ""float:right""></p><p><img src=images/blank.png width =""800"" height = ""200""></p>","","","","","","","","","","","",""
"","675.4250000085449","sequential-stimulus-presentation","201","524591","0.0-38.0-1.6","SS1612929941256","trial","","40","800","1475.4250000085449","","","","","10","complex_similar","images/stimuli/spore_stims/complex_11_A_a.gif","left","","","","",""
"","null","html-keyboard-response","202","525850","0.0-38.0-0.7","SS1612929941256","","","null","","","<p><img src= images/blank.png width =""200"" height = ""200"" style = ""float:right""></p><p><img src=images/blank.png width =""800"" height = ""200""></p>","","","","","","","","","","","",""
"","1049.8800000059418","sequential-stimulus-presentation","203","527796","0.0-38.0-1.7","SS1612929941256","trial","","40","800","1849.8800000059418","","","","","10","complex_similar","images/stimuli/spore_stims/complex_11_A_a.gif","left","","","","",""
"","3885.244999997667","html-keyboard-response","204","531696","0.0-39.0","SS1612929941256","pref_question","","97","","","<video width ='960' height = '540' style='padding-top:8%' autoplay muted><source src='images/stimuli/wall_pref.mp4' type='video/mp4'></video>","1","left","25%","10","","","","","","","",""
"","1822.2749999986263","sequential-stimulus-presentation","205","534348","0.0-40.0","SS1612929941256","pref_reveal","","40","800","2622.2749999986263","","","","","10","","","","background","","","",""
"","null","html-keyboard-response","206","535436","0.0-41.0-0.0","SS1612929941256","","","null","","","<p><img src= images/blank.png width =""200"" height = ""200"" style = ""float:right""></p><p><img src=images/blank.png width =""800"" height = ""200""></p>","","","","","","","","","","","",""
"","1038.8399999937974","sequential-stimulus-presentation","207","537313","0.0-41.0-1.0","SS1612929941256","trial","","40","800","1838.8399999937974","","","","","11","complex_similar","images/stimuli/spore_stims/complex_13_A_c.gif","right","","","","",""
"","null","html-keyboard-response","208","538628","0.0-41.0-0.1","SS1612929941256","","","null","","","<p><img src= images/blank.png width =""200"" height = ""200"" style = ""float:right""></p><p><img src=images/blank.png width =""800"" height = ""200""></p>","","","","","","","","","","","",""
"","2152.0349999918835","sequential-stimulus-presentation","209","541831","0.0-41.0-1.1","SS1612929941256","trial","","40","800","2952.0349999918835","","","","","11","complex_similar","images/stimuli/spore_stims/complex_13_A_c.gif","right","","","","",""
"","null","html-keyboard-response","210","543102","0.0-41.0-0.2","SS1612929941256","","","null","","","<p><img src= images/blank.png width =""200"" height = ""200"" style = ""float:right""></p><p><img src=images/blank.png width =""800"" height = ""200""></p>","","","","","","","","","","","",""
"","1247.124999994412","sequential-stimulus-presentation","211","545184","0.0-41.0-1.2","SS1612929941256","trial","","40","800","2047.124999994412","","","","","11","complex_similar","images/stimuli/spore_stims/complex_13_A_c.gif","right","","","","",""
"","null","html-keyboard-response","212","546229","0.0-41.0-0.3","SS1612929941256","","","null","","","<p><img src= images/blank.png width =""200"" height = ""200"" style = ""float:right""></p><p><img src=images/blank.png width =""800"" height = ""200""></p>","","","","","","","","","","","",""
"","1002.1750000014435","sequential-stimulus-presentation","213","548158","0.0-41.0-1.3","SS1612929941256","trial","","40","800","1802.1750000014435","","","","","11","complex_similar","images/stimuli/spore_stims/complex_13_A_c.gif","right","","","","",""
"","null","html-keyboard-response","214","549290","0.0-41.0-0.4","SS1612929941256","","","null","","","<p><img src= images/blank.png width =""200"" height = ""200"" style = ""float:right""></p><p><img src=images/blank.png width =""800"" height = ""200""></p>","","","","","","","","","","","",""
"","1161.3300000026356","sequential-stimulus-presentation","215","551383","0.0-41.0-1.4","SS1612929941256","trial","","40","800","1961.3300000026356","","","","","11","complex_similar","images/stimuli/spore_stims/complex_13_B_c.gif","middle","","","","",""
"","null","html-keyboard-response","216","552622","0.0-41.0-0.5","SS1612929941256","","","null","","","<p><img src= images/blank.png width =""200"" height = ""200"" style = ""float:right""></p><p><img src=images/blank.png width =""800"" height = ""200""></p>","","","","","","","","","","","",""
"","1107.1300000039628","sequential-stimulus-presentation","217","554586","0.0-41.0-1.5","SS1612929941256","trial","","40","800","1907.1300000039628","","","","","11","complex_similar","images/stimuli/spore_stims/complex_13_A_c.gif","right","","","","",""
"","null","html-keyboard-response","218","555675","0.0-41.0-0.6","SS1612929941256","","","null","","","<p><img src= images/blank.png width =""200"" height = ""200"" style = ""float:right""></p><p><img src=images/blank.png width =""800"" height = ""200""></p>","","","","","","","","","","","",""
"","1475.734999999986","sequential-stimulus-presentation","219","557965","0.0-41.0-1.6","SS1612929941256","trial","","40","800","2275.734999999986","","","","","11","complex_similar","images/stimuli/spore_stims/complex_13_A_c.gif","right","","","","",""
"","null","html-keyboard-response","220","559316","0.0-41.0-0.7","SS1612929941256","","","null","","","<p><img src= images/blank.png width =""200"" height = ""200"" style = ""float:right""></p><p><img src=images/blank.png width =""800"" height = ""200""></p>","","","","","","","","","","","",""
"","3616.8199999956414","sequential-stimulus-presentation","221","563940","0.0-41.0-1.7","SS1612929941256","trial","","40","800","4416.819999995641","","","","","11","complex_similar","images/stimuli/spore_stims/complex_13_A_c.gif","right","","","","",""
"","3045.48000000068","html-keyboard-response","222","566998","0.0-42.0","SS1612929941256","pref_question","","99","","","<video width ='960' height = '540' style='padding-top:8%' autoplay muted><source src='images/stimuli/wall_pref.mp4' type='video/mp4'></video>","3","right","66%","11","","","","","","","",""
"","872.6850000093691","sequential-stimulus-presentation","223","568756","0.0-43.0","SS1612929941256","pref_reveal","","40","800","1672.685000009369","","","","","11","","","","background","","","",""
"","null","html-keyboard-response","224","569766","0.0-44.0-0.0","SS1612929941256","","","null","","","<p><img src= images/blank.png width =""200"" height = ""200"" style = ""float:right""></p><p><img src=images/blank.png width =""800"" height = ""200""></p>","","","","","","","","","","","",""
"","2055.6700000015553","sequential-stimulus-presentation","225","572838","0.0-44.0-1.0","SS1612929941256","trial","","40","800","2855.6700000015553","","","","","12","simple_similar","images/stimuli/spore_stims/simple_12_B_d.gif","right","","","","",""
"","null","html-keyboard-response","226","573839","0.0-44.0-0.1","SS1612929941256","","","null","","","<p><img src= images/blank.png width =""200"" height = ""200"" style = ""float:right""></p><p><img src=images/blank.png width =""800"" height = ""200""></p>","","","","","","","","","","","",""
"","814.5749999966938","sequential-stimulus-presentation","227","575508","0.0-44.0-1.1","SS1612929941256","trial","","40","800","1614.5749999966938","","","","","12","simple_similar","images/stimuli/spore_stims/simple_12_B_d.gif","right","","","","",""
"","null","html-keyboard-response","228","576395","0.0-44.0-0.2","SS1612929941256","","","null","","","<p><img src= images/blank.png width =""200"" height = ""200"" style = ""float:right""></p><p><img src=images/blank.png width =""800"" height = ""200""></p>","","","","","","","","","","","",""
"","1623.090000008233","sequential-stimulus-presentation","229","579042","0.0-44.0-1.2","SS1612929941256","trial","","40","800","2423.090000008233","","","","","12","simple_similar","images/stimuli/spore_stims/simple_12_B_d.gif","right","","","","",""
"","null","html-keyboard-response","230","580112","0.0-44.0-0.3","SS1612929941256","","","null","","","<p><img src= images/blank.png width =""200"" height = ""200"" style = ""float:right""></p><p><img src=images/blank.png width =""800"" height = ""200""></p>","","","","","","","","","","","",""
"","983.3199999993667","sequential-stimulus-presentation","231","581931","0.0-44.0-1.3","SS1612929941256","trial","","40","800","1783.3199999993667","","","","","12","simple_similar","images/stimuli/spore_stims/simple_12_B_d.gif","right","","","","",""
"","null","html-keyboard-response","232","583263","0.0-44.0-0.4","SS1612929941256","","","null","","","<p><img src= images/blank.png width =""200"" height = ""200"" style = ""float:right""></p><p><img src=images/blank.png width =""800"" height = ""200""></p>","","","","","","","","","","","",""
"","5624.4299999962095","sequential-stimulus-presentation","233","589793","0.0-44.0-1.4","SS1612929941256","trial","","40","800","6424.4299999962095","","","","","12","simple_similar","images/stimuli/spore_stims/simple_12_B_d.gif","right","","","","",""
"","null","html-keyboard-response","234","590743","0.0-44.0-0.5","SS1612929941256","","","null","","","<p><img src= images/blank.png width =""200"" height = ""200"" style = ""float:right""></p><p><img src=images/blank.png width =""800"" height = ""200""></p>","","","","","","","","","","","",""
"","357.0449999970151","sequential-stimulus-presentation","235","592618","0.0-44.0-1.5","SS1612929941256","trial","","40","800","1157.044999997015","","","","","12","simple_similar","images/stimuli/spore_stims/simple_12_B_d.gif","right","","","","",""
"","null","html-keyboard-response","236","593677","0.0-44.0-0.6","SS1612929941256","","","null","","","<p><img src= images/blank.png width =""200"" height = ""200"" style = ""float:right""></p><p><img src=images/blank.png width =""800"" height = ""200""></p>","","","","","","","","","","","",""
"","1226.9749999977648","sequential-stimulus-presentation","237","595976","0.0-44.0-1.6","SS1612929941256","trial","","40","800","2026.9749999977648","","","","","12","simple_similar","images/stimuli/spore_stims/simple_12_A_d.gif","middle","","","","",""
"","null","html-keyboard-response","238","597220","0.0-44.0-0.7","SS1612929941256","","","null","","","<p><img src= images/blank.png width =""200"" height = ""200"" style = ""float:right""></p><p><img src=images/blank.png width =""800"" height = ""200""></p>","","","","","","","","","","","",""
"","4023.52499999688","sequential-stimulus-presentation","239","602377","0.0-44.0-1.7","SS1612929941256","trial","","40","800","4823.52499999688","","","","","12","simple_similar","images/stimuli/spore_stims/simple_12_B_d.gif","right","","","","",""
"","2200.895000001765","html-keyboard-response","240","604596","0.0-45.0","SS1612929941256","pref_question","","98","","","<video width ='960' height = '540' style='padding-top:8%' autoplay muted><source src='images/stimuli/wall_pref.mp4' type='video/mp4'></video>","2","middle","45%","12","","","","","","","",""
"","1067.4999999901047","sequential-stimulus-presentation","241","606699","0.0-46.0","SS1612929941256","pref_reveal","","40","800","1867.4999999901047","","","","","12","","","","deviant","","","",""
"","null","html-keyboard-response","242","607713","0.0-47.0-0.0","SS1612929941256","","","null","","","<p><img src= images/blank.png width =""200"" height = ""200"" style = ""float:right""></p><p><img src=images/blank.png width =""800"" height = ""200""></p>","","","","","","","","","","","",""
"","1323.515000010957","sequential-stimulus-presentation","243","610121","0.0-47.0-1.0","SS1612929941256","trial","","40","800","2123.515000010957","","","","","13","complex_dissimilar","images/stimuli/spore_stims/complex_18_A_a.gif","right","","","","",""
"","null","html-keyboard-response","244","611116","0.0-47.0-0.1","SS1612929941256","","","null","","","<p><img src= images/blank.png width =""200"" height = ""200"" style = ""float:right""></p><p><img src=images/blank.png width =""800"" height = ""200""></p>","","","","","","","","","","","",""
"","1151.9800000096438","sequential-stimulus-presentation","245","613282","0.0-47.0-1.1","SS1612929941256","trial","","40","800","1951.9800000096438","","","","","13","complex_dissimilar","images/stimuli/spore_stims/complex_18_A_a.gif","right","","","","",""
"","null","html-keyboard-response","246","614418","0.0-47.0-0.2","SS1612929941256","","","null","","","<p><img src= images/blank.png width =""200"" height = ""200"" style = ""float:right""></p><p><img src=images/blank.png width =""800"" height = ""200""></p>","","","","","","","","","","","",""
"","822.5799999927403","sequential-stimulus-presentation","247","616111","0.0-47.0-1.2","SS1612929941256","trial","","40","800","1622.5799999927403","","","","","13","complex_dissimilar","images/stimuli/spore_stims/complex_18_A_a.gif","right","","","","",""
"","null","html-keyboard-response","248","617148","0.0-47.0-0.3","SS1612929941256","","","null","","","<p><img src= images/blank.png width =""200"" height = ""200"" style = ""float:right""></p><p><img src=images/blank.png width =""800"" height = ""200""></p>","","","","","","","","","","","",""
"","1032.260000007227","sequential-stimulus-presentation","249","619073","0.0-47.0-1.3","SS1612929941256","trial","","40","800","1832.260000007227","","","","","13","complex_dissimilar","images/stimuli/spore_stims/complex_18_A_a.gif","right","","","","",""
"","null","html-keyboard-response","250","620019","0.0-47.0-0.4","SS1612929941256","","","null","","","<p><img src= images/blank.png width =""200"" height = ""200"" style = ""float:right""></p><p><img src=images/blank.png width =""800"" height = ""200""></p>","","","","","","","","","","","",""
"","2350.0349999958416","sequential-stimulus-presentation","251","623496","0.0-47.0-1.4","SS1612929941256","trial","","40","800","3150.0349999958416","","","","","13","complex_dissimilar","images/stimuli/spore_stims/complex_12_A_c.gif","middle","","","","",""
"","null","html-keyboard-response","252","624591","0.0-47.0-0.5","SS1612929941256","","","null","","","<p><img src= images/blank.png width =""200"" height = ""200"" style = ""float:right""></p><p><img src=images/blank.png width =""800"" height = ""200""></p>","","","","","","","","","","","",""
"","1112.3899999947753","sequential-stimulus-presentation","253","626713","0.0-47.0-1.5","SS1612929941256","trial","","40","800","1912.3899999947753","","","","","13","complex_dissimilar","images/stimuli/spore_stims/complex_18_A_a.gif","right","","","","",""
"","null","html-keyboard-response","254","627584","0.0-47.0-0.6","SS1612929941256","","","null","","","<p><img src= images/blank.png width =""200"" height = ""200"" style = ""float:right""></p><p><img src=images/blank.png width =""800"" height = ""200""></p>","","","","","","","","","","","",""
"","907.6050000003306","sequential-stimulus-presentation","255","629390","0.0-47.0-1.6","SS1612929941256","trial","","40","800","1707.6050000003306","","","","","13","complex_dissimilar","images/stimuli/spore_stims/complex_18_A_a.gif","right","","","","",""
"","null","html-keyboard-response","256","630489","0.0-47.0-0.7","SS1612929941256","","","null","","","<p><img src= images/blank.png width =""200"" height = ""200"" style = ""float:right""></p><p><img src=images/blank.png width =""800"" height = ""200""></p>","","","","","","","","","","","",""
"","876.4999999984866","sequential-stimulus-presentation","257","632311","0.0-47.0-1.7","SS1612929941256","trial","","40","800","1676.4999999984866","","","","","13","complex_dissimilar","images/stimuli/spore_stims/complex_18_A_a.gif","right","","","","",""
"","2100.9400000039022","html-keyboard-response","258","634425","0.0-48.0","SS1612929941256","pref_question","","99","","","<video width ='960' height = '540' style='padding-top:8%' autoplay muted><source src='images/stimuli/wall_pref.mp4' type='video/mp4'></video>","3","right","66%","13","","","","","","","",""
"","1165.2400000020862","sequential-stimulus-presentation","259","636522","0.0-49.0","SS1612929941256","pref_reveal","","40","800","1965.2400000020862","","","","","13","","","","background","","","",""
"","null","html-keyboard-response","260","637716","0.0-50.0-0.0","SS1612929941256","","","null","","","<p><img src= images/blank.png width =""200"" height = ""200"" style = ""float:right""></p><p><img src=images/blank.png width =""800"" height = ""200""></p>","","","","","","","","","","","",""
"","984.679999994114","sequential-stimulus-presentation","261","639585","0.0-50.0-1.0","SS1612929941256","trial","","40","800","1784.679999994114","","","","","14","complex_dissimilar","images/stimuli/spore_stims/complex_04_A_c.gif","right","","","","",""
"","null","html-keyboard-response","262","640430","0.0-50.0-0.1","SS1612929941256","","","null","","","<p><img src= images/blank.png width =""200"" height = ""200"" style = ""float:right""></p><p><img src=images/blank.png width =""800"" height = ""200""></p>","","","","","","","","","","","",""
"","710.0749999954132","sequential-stimulus-presentation","263","642047","0.0-50.0-1.1","SS1612929941256","trial","","40","800","1510.0749999954132","","","","","14","complex_dissimilar","images/stimuli/spore_stims/complex_04_A_c.gif","right","","","","",""
"","null","html-keyboard-response","264","643297","0.0-50.0-0.2","SS1612929941256","","","null","","","<p><img src= images/blank.png width =""200"" height = ""200"" style = ""float:right""></p><p><img src=images/blank.png width =""800"" height = ""200""></p>","","","","","","","","","","","",""
"","498.14499999047257","sequential-stimulus-presentation","265","644944","0.0-50.0-1.2","SS1612929941256","trial","","40","800","1298.1449999904726","","","","","14","complex_dissimilar","images/stimuli/spore_stims/complex_04_A_c.gif","right","","","","",""
"","null","html-keyboard-response","266","645826","0.0-50.0-0.3","SS1612929941256","","","null","","","<p><img src= images/blank.png width =""200"" height = ""200"" style = ""float:right""></p><p><img src=images/blank.png width =""800"" height = ""200""></p>","","","","","","","","","","","",""
"","1321.9949999911478","sequential-stimulus-presentation","267","647994","0.0-50.0-1.3","SS1612929941256","trial","","40","800","2121.994999991148","","","","","14","complex_dissimilar","images/stimuli/spore_stims/complex_04_A_c.gif","right","","","","",""
"","null","html-keyboard-response","268","648825","0.0-50.0-0.4","SS1612929941256","","","null","","","<p><img src= images/blank.png width =""200"" height = ""200"" style = ""float:right""></p><p><img src=images/blank.png width =""800"" height = ""200""></p>","","","","","","","","","","","",""
"","7923.9549999911105","sequential-stimulus-presentation","269","657654","0.0-50.0-1.4","SS1612929941256","trial","","40","800","8723.95499999111","","","","","14","complex_dissimilar","images/stimuli/spore_stims/complex_04_A_c.gif","right","","","","",""
"","null","html-keyboard-response","270","658846","0.0-50.0-0.5","SS1612929941256","","","null","","","<p><img src= images/blank.png width =""200"" height = ""200"" style = ""float:right""></p><p><img src=images/blank.png width =""800"" height = ""200""></p>","","","","","","","","","","","",""
"","3922.7050000044983","sequential-stimulus-presentation","271","663810","0.0-50.0-1.5","SS1612929941256","trial","","40","800","4722.705000004498","","","","","14","complex_dissimilar","images/stimuli/spore_stims/complex_10_A_d.gif","middle","","","","",""
"","null","html-keyboard-response","272","665072","0.0-50.0-0.6","SS1612929941256","","","null","","","<p><img src= images/blank.png width =""200"" height = ""200"" style = ""float:right""></p><p><img src=images/blank.png width =""800"" height = ""200""></p>","","","","","","","","","","","",""
"","1554.759999999078","sequential-stimulus-presentation","273","667692","0.0-50.0-1.6","SS1612929941256","trial","","40","800","2354.759999999078","","","","","14","complex_dissimilar","images/stimuli/spore_stims/complex_04_A_c.gif","right","","","","",""
"","null","html-keyboard-response","274","668862","0.0-50.0-0.7","SS1612929941256","","","null","","","<p><img src= images/blank.png width =""200"" height = ""200"" style = ""float:right""></p><p><img src=images/blank.png width =""800"" height = ""200""></p>","","","","","","","","","","","",""
"","4430.600000006962","sequential-stimulus-presentation","275","674202","0.0-50.0-1.7","SS1612929941256","trial","","40","800","5230.600000006962","","","","","14","complex_dissimilar","images/stimuli/spore_stims/complex_04_A_c.gif","right","","","","",""
"","2495.179999998072","html-keyboard-response","276","676708","0.0-51.0","SS1612929941256","pref_question","","99","","","<video width ='960' height = '540' style='padding-top:8%' autoplay muted><source src='images/stimuli/wall_pref.mp4' type='video/mp4'></video>","3","right","66%","14","","","","","","","",""
"","1494.4050000049174","sequential-stimulus-presentation","277","679443","0.0-52.0","SS1612929941256","pref_reveal","","40","800","2294.4050000049174","","","","","14","","","","background","","","",""
"","null","html-keyboard-response","278","680691","0.0-53.0-0.0","SS1612929941256","","","null","","","<p><img src= images/blank.png width =""200"" height = ""200"" style = ""float:right""></p><p><img src=images/blank.png width =""800"" height = ""200""></p>","","","","","","","","","","","",""
"","555.0550000043586","sequential-stimulus-presentation","279","682258","0.0-53.0-1.0","SS1612929941256","trial","","40","800","1355.0550000043586","","","","","15","simple_similar","images/stimuli/spore_stims/simple_17_B_c.gif","right","","","","",""
"","null","html-keyboard-response","280","683547","0.0-53.0-0.1","SS1612929941256","","","null","","","<p><img src= images/blank.png width =""200"" height = ""200"" style = ""float:right""></p><p><img src=images/blank.png width =""800"" height = ""200""></p>","","","","","","","","","","","",""
"","1015.2700000035111","sequential-stimulus-presentation","281","685386","0.0-53.0-1.1","SS1612929941256","trial","","40","800","1815.270000003511","","","","","15","simple_similar","images/stimuli/spore_stims/simple_17_B_c.gif","right","","","","",""
"","null","html-keyboard-response","282","686481","0.0-53.0-0.2","SS1612929941256","","","null","","","<p><img src= images/blank.png width =""200"" height = ""200"" style = ""float:right""></p><p><img src=images/blank.png width =""800"" height = ""200""></p>","","","","","","","","","","","",""
"","791.6750000003958","sequential-stimulus-presentation","283","688242","0.0-53.0-1.2","SS1612929941256","trial","","40","800","1591.6750000003958","","","","","15","simple_similar","images/stimuli/spore_stims/simple_17_A_c.gif","left","","","","",""
"","null","html-keyboard-response","284","689285","0.0-53.0-0.3","SS1612929941256","","","null","","","<p><img src= images/blank.png width =""200"" height = ""200"" style = ""float:right""></p><p><img src=images/blank.png width =""800"" height = ""200""></p>","","","","","","","","","","","",""
"","1538.09000000183","sequential-stimulus-presentation","285","691808","0.0-53.0-1.3","SS1612929941256","trial","","40","800","2338.09000000183","","","","","15","simple_similar","images/stimuli/spore_stims/simple_17_B_c.gif","right","","","","",""
"","null","html-keyboard-response","286","693080","0.0-53.0-0.4","SS1612929941256","","","null","","","<p><img src= images/blank.png width =""200"" height = ""200"" style = ""float:right""></p><p><img src=images/blank.png width =""800"" height = ""200""></p>","","","","","","","","","","","",""
"","1988.3800000097835","sequential-stimulus-presentation","287","695995","0.0-53.0-1.4","SS1612929941256","trial","","40","800","2788.3800000097835","","","","","15","simple_similar","images/stimuli/spore_stims/simple_17_B_c.gif","right","","","","",""
"","null","html-keyboard-response","288","697270","0.0-53.0-0.5","SS1612929941256","","","null","","","<p><img src= images/blank.png width =""200"" height = ""200"" style = ""float:right""></p><p><img src=images/blank.png width =""800"" height = ""200""></p>","","","","","","","","","","","",""
"","11498.579999999492","sequential-stimulus-presentation","289","709698","0.0-53.0-1.5","SS1612929941256","trial","","40","800","12298.579999999492","","","","","15","simple_similar","images/stimuli/spore_stims/simple_17_B_c.gif","right","","","","",""
"","null","html-keyboard-response","290","710630","0.0-53.0-0.6","SS1612929941256","","","null","","","<p><img src= images/blank.png width =""200"" height = ""200"" style = ""float:right""></p><p><img src=images/blank.png width =""800"" height = ""200""></p>","","","","","","","","","","","",""
"","1028.7649999954738","sequential-stimulus-presentation","291","712570","0.0-53.0-1.6","SS1612929941256","trial","","40","800","1828.7649999954738","","","","","15","simple_similar","images/stimuli/spore_stims/simple_17_B_c.gif","right","","","","",""
"","null","html-keyboard-response","292","713541","0.0-53.0-0.7","SS1612929941256","","","null","","","<p><img src= images/blank.png width =""200"" height = ""200"" style = ""float:right""></p><p><img src=images/blank.png width =""800"" height = ""200""></p>","","","","","","","","","","","",""
"","9748.81999999343","sequential-stimulus-presentation","293","724376","0.0-53.0-1.7","SS1612929941256","trial","","40","800","10548.81999999343","","","","","15","simple_similar","images/stimuli/spore_stims/simple_17_B_c.gif","right","","","","",""
"","1954.6899999986636","html-keyboard-response","294","726352","0.0-54.0","SS1612929941256","pref_question","","99","","","<video width ='960' height = '540' style='padding-top:8%' autoplay muted><source src='images/stimuli/wall_pref.mp4' type='video/mp4'></video>","3","right","66%","15","","","","","","","",""
"","941.5799999987939","sequential-stimulus-presentation","295","728284","0.0-55.0","SS1612929941256","pref_reveal","","40","800","1741.579999998794","","","","","15","","","","background","","","",""
"","null","html-keyboard-response","296","729634","0.0-56.0-0.0","SS1612929941256","","","null","","","<p><img src= images/blank.png width =""200"" height = ""200"" style = ""float:right""></p><p><img src=images/blank.png width =""800"" height = ""200""></p>","","","","","","","","","","","",""
"","1023.8749999989523","sequential-stimulus-presentation","297","731638","0.0-56.0-1.0","SS1612929941256","trial","","40","800","1823.8749999989523","","","","","16","simple_dissimilar","images/stimuli/spore_stims/simple_19_B_a.gif","right","","","","",""
"","null","html-keyboard-response","298","732897","0.0-56.0-0.1","SS1612929941256","","","null","","","<p><img src= images/blank.png width =""200"" height = ""200"" style = ""float:right""></p><p><img src=images/blank.png width =""800"" height = ""200""></p>","","","","","","","","","","","",""
"","900.2949999994598","sequential-stimulus-presentation","299","734656","0.0-56.0-1.1","SS1612929941256","trial","","40","800","1700.2949999994598","","","","","16","simple_dissimilar","images/stimuli/spore_stims/simple_19_B_a.gif","right","","","","",""
"","null","html-keyboard-response","300","735734","0.0-56.0-0.2","SS1612929941256","","","null","","","<p><img src= images/blank.png width =""200"" height = ""200"" style = ""float:right""></p><p><img src=images/blank.png width =""800"" height = ""200""></p>","","","","","","","","","","","",""
"","897.9300000064541","sequential-stimulus-presentation","301","737557","0.0-56.0-1.2","SS1612929941256","trial","","40","800","1697.930000006454","","","","","16","simple_dissimilar","images/stimuli/spore_stims/simple_19_B_a.gif","right","","","","",""
"","null","html-keyboard-response","302","738594","0.0-56.0-0.3","SS1612929941256","","","null","","","<p><img src= images/blank.png width =""200"" height = ""200"" style = ""float:right""></p><p><img src=images/blank.png width =""800"" height = ""200""></p>","","","","","","","","","","","",""
"","962.5400000077207","sequential-stimulus-presentation","303","740585","0.0-56.0-1.3","SS1612929941256","trial","","40","800","1762.5400000077207","","","","","16","simple_dissimilar","images/stimuli/spore_stims/simple_07_A_d.gif","left","","","","",""
"","null","html-keyboard-response","304","741830","0.0-56.0-0.4","SS1612929941256","","","null","","","<p><img src= images/blank.png width =""200"" height = ""200"" style = ""float:right""></p><p><img src=images/blank.png width =""800"" height = ""200""></p>","","","","","","","","","","","",""
"","1014.3600000010338","sequential-stimulus-presentation","305","743729","0.0-56.0-1.4","SS1612929941256","trial","","40","800","1814.3600000010338","","","","","16","simple_dissimilar","images/stimuli/spore_stims/simple_19_B_a.gif","right","","","","",""
"","null","html-keyboard-response","306","745041","0.0-56.0-0.5","SS1612929941256","","","null","","","<p><img src= images/blank.png width =""200"" height = ""200"" style = ""float:right""></p><p><img src=images/blank.png width =""800"" height = ""200""></p>","","","","","","","","","","","",""
"","579.2150000052061","sequential-stimulus-presentation","307","746495","0.0-56.0-1.5","SS1612929941256","trial","","40","800","1379.215000005206","","","","","16","simple_dissimilar","images/stimuli/spore_stims/simple_19_B_a.gif","right","","","","",""
"","null","html-keyboard-response","308","747521","0.0-56.0-0.6","SS1612929941256","","","null","","","<p><img src= images/blank.png width =""200"" height = ""200"" style = ""float:right""></p><p><img src=images/blank.png width =""800"" height = ""200""></p>","","","","","","","","","","","",""
"","475.4150000080699","sequential-stimulus-presentation","309","748835","0.0-56.0-1.6","SS1612929941256","trial","","40","800","1275.41500000807","","","","","16","simple_dissimilar","images/stimuli/spore_stims/simple_19_B_a.gif","right","","","","",""
"","null","html-keyboard-response","310","750004","0.0-56.0-0.7","SS1612929941256","","","null","","","<p><img src= images/blank.png width =""200"" height = ""200"" style = ""float:right""></p><p><img src=images/blank.png width =""800"" height = ""200""></p>","","","","","","","","","","","",""
"","623.0849999992643","sequential-stimulus-presentation","311","751608","0.0-56.0-1.7","SS1612929941256","trial","","40","800","1423.0849999992643","","","","","16","simple_dissimilar","images/stimuli/spore_stims/simple_19_B_a.gif","right","","","","",""
"","2015.1550000009593","html-keyboard-response","312","753635","0.0-57.0","SS1612929941256","pref_question","","99","","","<video width ='960' height = '540' style='padding-top:8%' autoplay muted><source src='images/stimuli/wall_pref.mp4' type='video/mp4'></video>","3","right","66%","16","","","","","","","",""
"","599.1250000079162","sequential-stimulus-presentation","313","755170","0.0-58.0","SS1612929941256","pref_reveal","","40","800","1399.1250000079162","","","","","16","","","","background","","","",""
"","null","html-keyboard-response","314","756491","0.0-59.0-0.0","SS1612929941256","","","null","","","<p><img src= images/blank.png width =""200"" height = ""200"" style = ""float:right""></p><p><img src=images/blank.png width =""800"" height = ""200""></p>","","","","","","","","","","","",""
"","284.53999999328516","sequential-stimulus-presentation","315","757839","0.0-59.0-1.0","SS1612929941256","trial","","40","800","1084.5399999932852","","","","","17","simple_similar","images/stimuli/spore_stims/simple_18_B_a.gif","right","","","","",""
"","null","html-keyboard-response","316","758679","0.0-59.0-0.1","SS1612929941256","","","null","","","<p><img src= images/blank.png width =""200"" height = ""200"" style = ""float:right""></p><p><img src=images/blank.png width =""800"" height = ""200""></p>","","","","","","","","","","","",""
"","478.7050000013551","sequential-stimulus-presentation","317","760127","0.0-59.0-1.1","SS1612929941256","trial","","40","800","1278.705000001355","","","","","17","simple_similar","images/stimuli/spore_stims/simple_18_B_a.gif","right","","","","",""
"","null","html-keyboard-response","318","761143","0.0-59.0-0.2","SS1612929941256","","","null","","","<p><img src= images/blank.png width =""200"" height = ""200"" style = ""float:right""></p><p><img src=images/blank.png width =""800"" height = ""200""></p>","","","","","","","","","","","",""
"","1983.059999998659","sequential-stimulus-presentation","319","763960","0.0-59.0-1.2","SS1612929941256","trial","","40","800","2783.059999998659","","","","","17","simple_similar","images/stimuli/spore_stims/simple_18_A_a.gif","left","","","","",""
"","null","html-keyboard-response","320","764813","0.0-59.0-0.3","SS1612929941256","","","null","","","<p><img src= images/blank.png width =""200"" height = ""200"" style = ""float:right""></p><p><img src=images/blank.png width =""800"" height = ""200""></p>","","","","","","","","","","","",""
"","709.6650000021327","sequential-stimulus-presentation","321","766405","0.0-59.0-1.3","SS1612929941256","trial","","40","800","1509.6650000021327","","","","","17","simple_similar","images/stimuli/spore_stims/simple_18_B_a.gif","right","","","","",""
"","null","html-keyboard-response","322","767373","0.0-59.0-0.4","SS1612929941256","","","null","","","<p><img src= images/blank.png width =""200"" height = ""200"" style = ""float:right""></p><p><img src=images/blank.png width =""800"" height = ""200""></p>","","","","","","","","","","","",""
"","3485.5999999999767","sequential-stimulus-presentation","323","771791","0.0-59.0-1.4","SS1612929941256","trial","","40","800","4285.599999999977","","","","","17","simple_similar","images/stimuli/spore_stims/simple_18_B_a.gif","right","","","","",""
"","null","html-keyboard-response","324","772797","0.0-59.0-0.5","SS1612929941256","","","null","","","<p><img src= images/blank.png width =""200"" height = ""200"" style = ""float:right""></p><p><img src=images/blank.png width =""800"" height = ""200""></p>","","","","","","","","","","","",""
"","342.01999999640975","sequential-stimulus-presentation","325","774166","0.0-59.0-1.5","SS1612929941256","trial","","40","800","1142.0199999964098","","","","","17","simple_similar","images/stimuli/spore_stims/simple_18_B_a.gif","right","","","","",""
"","null","html-keyboard-response","326","775356","0.0-59.0-0.6","SS1612929941256","","","null","","","<p><img src= images/blank.png width =""200"" height = ""200"" style = ""float:right""></p><p><img src=images/blank.png width =""800"" height = ""200""></p>","","","","","","","","","","","",""
"","527.1949999878416","sequential-stimulus-presentation","327","776914","0.0-59.0-1.6","SS1612929941256","trial","","40","800","1327.1949999878416","","","","","17","simple_similar","images/stimuli/spore_stims/simple_18_B_a.gif","right","","","","",""
"","null","html-keyboard-response","328","777741","0.0-59.0-0.7","SS1612929941256","","","null","","","<p><img src= images/blank.png width =""200"" height = ""200"" style = ""float:right""></p><p><img src=images/blank.png width =""800"" height = ""200""></p>","","","","","","","","","","","",""
"","1023.1550000025891","sequential-stimulus-presentation","329","780122","0.0-59.0-1.7","SS1612929941256","trial","","40","800","1823.155000002589","","","","","17","simple_similar","images/stimuli/spore_stims/simple_18_B_a.gif","right","","","","",""
"","7698.000000003958","html-keyboard-response","330","787835","0.0-60.0","SS1612929941256","pref_question","","99","","","<video width ='960' height = '540' style='padding-top:8%' autoplay muted><source src='images/stimuli/wall_pref.mp4' type='video/mp4'></video>","3","right","66%","17","","","","","","","",""
"","1161.1100000009174","sequential-stimulus-presentation","331","790320","0.0-61.0","SS1612929941256","pref_reveal","","40","800","1961.1100000009174","","","","","17","","","","background","","","",""
"","null","html-keyboard-response","332","791258","0.0-62.0-0.0","SS1612929941256","","","null","","","<p><img src= images/blank.png width =""200"" height = ""200"" style = ""float:right""></p><p><img src=images/blank.png width =""800"" height = ""200""></p>","","","","","","","","","","","",""
"","998.7449999898672","sequential-stimulus-presentation","333","793190","0.0-62.0-1.0","SS1612929941256","trial","","40","800","1798.7449999898672","","","","","18","complex_similar","images/stimuli/spore_stims/complex_14_A_b.gif","left","","","","",""
"","null","html-keyboard-response","334","794308","0.0-62.0-0.1","SS1612929941256","","","null","","","<p><img src= images/blank.png width =""200"" height = ""200"" style = ""float:right""></p><p><img src=images/blank.png width =""800"" height = ""200""></p>","","","","","","","","","","","",""
"","12795.799999992596","sequential-stimulus-presentation","335","808086","0.0-62.0-1.1","SS1612929941256","trial","","40","800","13595.799999992596","","","","","18","complex_similar","images/stimuli/spore_stims/complex_14_A_b.gif","left","","","","",""
"","null","html-keyboard-response","336","809289","0.0-62.0-0.2","SS1612929941256","","","null","","","<p><img src= images/blank.png width =""200"" height = ""200"" style = ""float:right""></p><p><img src=images/blank.png width =""800"" height = ""200""></p>","","","","","","","","","","","",""
"","408.90999999828637","sequential-stimulus-presentation","337","810605","0.0-62.0-1.2","SS1612929941256","trial","","40","800","1208.9099999982864","","","","","18","complex_similar","images/stimuli/spore_stims/complex_14_A_b.gif","left","","","","",""
"","null","html-keyboard-response","338","811464","0.0-62.0-0.3","SS1612929941256","","","null","","","<p><img src= images/blank.png width =""200"" height = ""200"" style = ""float:right""></p><p><img src=images/blank.png width =""800"" height = ""200""></p>","","","","","","","","","","","",""
"","967.4249999952735","sequential-stimulus-presentation","339","813462","0.0-62.0-1.3","SS1612929941256","trial","","40","800","1767.4249999952735","","","","","18","complex_similar","images/stimuli/spore_stims/complex_14_A_b.gif","left","","","","",""
"","null","html-keyboard-response","340","814429","0.0-62.0-0.4","SS1612929941256","","","null","","","<p><img src= images/blank.png width =""200"" height = ""200"" style = ""float:right""></p><p><img src=images/blank.png width =""800"" height = ""200""></p>","","","","","","","","","","","",""
"","399.5499999873573","sequential-stimulus-presentation","341","815779","0.0-62.0-1.4","SS1612929941256","trial","","40","800","1199.5499999873573","","","","","18","complex_similar","images/stimuli/spore_stims/complex_14_A_b.gif","left","","","","",""
"","null","html-keyboard-response","342","817072","0.0-62.0-0.5","SS1612929941256","","","null","","","<p><img src= images/blank.png width =""200"" height = ""200"" style = ""float:right""></p><p><img src=images/blank.png width =""800"" height = ""200""></p>","","","","","","","","","","","",""
"","454.6799999952782","sequential-stimulus-presentation","343","818365","0.0-62.0-1.5","SS1612929941256","trial","","40","800","1254.6799999952782","","","","","18","complex_similar","images/stimuli/spore_stims/complex_14_A_b.gif","left","","","","",""
"","null","html-keyboard-response","344","819458","0.0-62.0-0.6","SS1612929941256","","","null","","","<p><img src= images/blank.png width =""200"" height = ""200"" style = ""float:right""></p><p><img src=images/blank.png width =""800"" height = ""200""></p>","","","","","","","","","","","",""
"","543.6000000045169","sequential-stimulus-presentation","345","820866","0.0-62.0-1.6","SS1612929941256","trial","","40","800","1343.600000004517","","","","","18","complex_similar","images/stimuli/spore_stims/complex_14_A_b.gif","left","","","","",""
"","null","html-keyboard-response","346","821979","0.0-62.0-0.7","SS1612929941256","","","null","","","<p><img src= images/blank.png width =""200"" height = ""200"" style = ""float:right""></p><p><img src=images/blank.png width =""800"" height = ""200""></p>","","","","","","","","","","","",""
"","989.7750000091037","sequential-stimulus-presentation","347","823802","0.0-62.0-1.7","SS1612929941256","trial","","40","800","1789.7750000091037","","","","","18","complex_similar","images/stimuli/spore_stims/complex_14_B_b.gif","right","","","","",""
"","1982.4999999982538","html-keyboard-response","348","825796","0.0-63.0","SS1612929941256","pref_question","","97","","","<video width ='960' height = '540' style='padding-top:8%' autoplay muted><source src='images/stimuli/wall_pref.mp4' type='video/mp4'></video>","1","left","25%","18","","","","","","","",""
"","1817.9099999979371","sequential-stimulus-presentation","349","828660","0.0-64.0","SS1612929941256","pref_reveal","","40","800","2617.909999997937","","","","","18","","","","background","","","",""
"","null","html-keyboard-response","350","829947","0.0-65.0-0.0","SS1612929941256","","","null","","","<p><img src= images/blank.png width =""200"" height = ""200"" style = ""float:right""></p><p><img src=images/blank.png width =""800"" height = ""200""></p>","","","","","","","","","","","",""
"","1390.8550000051036","sequential-stimulus-presentation","351","832161","0.0-65.0-1.0","SS1612929941256","trial","","40","800","2190.8550000051036","","","","","19","simple_dissimilar","images/stimuli/spore_stims/simple_20_A_c.gif","right","","","","",""
"","null","html-keyboard-response","352","833019","0.0-65.0-0.1","SS1612929941256","","","null","","","<p><img src= images/blank.png width =""200"" height = ""200"" style = ""float:right""></p><p><img src=images/blank.png width =""800"" height = ""200""></p>","","","","","","","","","","","",""
"","775.3200000006473","sequential-stimulus-presentation","353","834845","0.0-65.0-1.1","SS1612929941256","trial","","40","800","1575.3200000006473","","","","","19","simple_dissimilar","images/stimuli/spore_stims/simple_20_A_c.gif","right","","","","",""
"","null","html-keyboard-response","354","835832","0.0-65.0-0.2","SS1612929941256","","","null","","","<p><img src= images/blank.png width =""200"" height = ""200"" style = ""float:right""></p><p><img src=images/blank.png width =""800"" height = ""200""></p>","","","","","","","","","","","",""
"","2651.3299999933224","sequential-stimulus-presentation","355","839380","0.0-65.0-1.2","SS1612929941256","trial","","40","800","3451.3299999933224","","","","","19","simple_dissimilar","images/stimuli/spore_stims/simple_13_A_a.gif","middle","","","","",""
"","null","html-keyboard-response","356","840420","0.0-65.0-0.3","SS1612929941256","","","null","","","<p><img src= images/blank.png width =""200"" height = ""200"" style = ""float:right""></p><p><img src=images/blank.png width =""800"" height = ""200""></p>","","","","","","","","","","","",""
"","1398.9549999969313","sequential-stimulus-presentation","357","842659","0.0-65.0-1.3","SS1612929941256","trial","","40","800","2198.9549999969313","","","","","19","simple_dissimilar","images/stimuli/spore_stims/simple_20_A_c.gif","right","","","","",""
"","null","html-keyboard-response","358","843709","0.0-65.0-0.4","SS1612929941256","","","null","","","<p><img src= images/blank.png width =""200"" height = ""200"" style = ""float:right""></p><p><img src=images/blank.png width =""800"" height = ""200""></p>","","","","","","","","","","","",""
"","1271.9250000081956","sequential-stimulus-presentation","359","846130","0.0-65.0-1.4","SS1612929941256","trial","","40","800","2071.9250000081956","","","","","19","simple_dissimilar","images/stimuli/spore_stims/simple_20_A_c.gif","right","","","","",""
"","null","html-keyboard-response","360","847212","0.0-65.0-0.5","SS1612929941256","","","null","","","<p><img src= images/blank.png width =""200"" height = ""200"" style = ""float:right""></p><p><img src=images/blank.png width =""800"" height = ""200""></p>","","","","","","","","","","","",""
"","6118.309999990743","sequential-stimulus-presentation","361","854224","0.0-65.0-1.5","SS1612929941256","trial","","40","800","6918.309999990743","","","","","19","simple_dissimilar","images/stimuli/spore_stims/simple_20_A_c.gif","right","","","","",""
"","null","html-keyboard-response","362","855473","0.0-65.0-0.6","SS1612929941256","","","null","","","<p><img src= images/blank.png width =""200"" height = ""200"" style = ""float:right""></p><p><img src=images/blank.png width =""800"" height = ""200""></p>","","","","","","","","","","","",""
"","8772.064999997383","sequential-stimulus-presentation","363","865168","0.0-65.0-1.6","SS1612929941256","trial","","40","800","9572.064999997383","","","","","19","simple_dissimilar","images/stimuli/spore_stims/simple_20_A_c.gif","right","","","","",""
