"view_history","rt","trial_type","trial_index","time_elapsed","internal_node_id","subject","stimulus_type","trial_stimulus","key_press","minimum_viewing_duration","trial_looking_time","stimulus","wall_pref","location","location_percent","block_number","block_type","stimulus_displayed","position_displayed","stim_type_selected","responses","question_order","stimulus_left","stimulus_right"
"[{""page_index"":0,""viewing_time"":5912.935000000289}]","5913.424999976996","instructions","0","5915","0.0-0.0","SS1612927684632","","","","","","","","","","","","","","","","","",""
"[{""page_index"":0,""viewing_time"":17788.079999998445},{""page_index"":1,""viewing_time"":8170.049999986077}]","25958.249999996042","instructions","1","33876","0.0-1.0","SS1612927684632","instructions","","","","","","","","","","","","","","","","",""
"","8484.175000019604","sequential-stimulus-presentation","2","43177","0.0-2.0","SS1612927684632","","","40","800","9284.175000019604","","","","","","","","","","","","",""
"","1964.9950000166427","sequential-stimulus-presentation","3","45956","0.0-3.0","SS1612927684632","","","40","800","2764.9950000166427","","","","","","","","","","","","",""
"[{""page_index"":0,""viewing_time"":4908.8599999959115}]","4909.000000014203","instructions","4","50866","0.0-4.0","SS1612927684632","instructions","","","","","","","","","","","","","","","","",""
"","13963.790000008885","html-keyboard-response","5","64832","0.0-5.0","SS1612927684632","instructions","","98","","","<video width ='960' height = '540' autoplay muted><source src='images/stimuli/wall_pref.mp4' type='video/mp4'></video>","2","middle","45%","","","","","","","","",""
"","2668.854999996256","sequential-stimulus-presentation","6","68304","0.0-6.0","SS1612927684632","pref_reveal","","40","800","3468.854999996256","","","","","","","","","","","","",""
"[{""page_index"":0,""viewing_time"":11479.399999981979},{""page_index"":1,""viewing_time"":2549.890000023879},{""page_index"":2,""viewing_time"":1669.8549999855459},{""page_index"":3,""viewing_time"":1320.145000005141}]","17019.484999997076","instructions","7","85325","0.0-7.0","SS1612927684632","instructions","","","","","","","","","","","","","","","","",""
"","null","html-keyboard-response","8","86450","0.0-8.0-0.0","SS1612927684632","","","null","","","<p><img src= images/blank.png width =""200"" height = ""200"" style = ""float:right""></p><p><img src=images/blank.png width =""800"" height = ""200""></p>","","","","","","","","","","","",""
"","4626.915000000736","sequential-stimulus-presentation","9","91885","0.0-8.0-1.0","SS1612927684632","trial","","40","800","5426.915000000736","","","","","0","complex_dissimilar","images/stimuli/spore_stims/complex_02_B_b.gif","middle","","","","",""
"","null","html-keyboard-response","10","92917","0.0-8.0-0.1","SS1612927684632","","","null","","","<p><img src= images/blank.png width =""200"" height = ""200"" style = ""float:right""></p><p><img src=images/blank.png width =""800"" height = ""200""></p>","","","","","","","","","","","",""
"","2486.3550000009127","sequential-stimulus-presentation","11","96214","0.0-8.0-1.1","SS1612927684632","trial","","40","800","3286.3550000009127","","","","","0","complex_dissimilar","images/stimuli/spore_stims/complex_02_B_b.gif","middle","","","","",""
"","null","html-keyboard-response","12","97093","0.0-8.0-0.2","SS1612927684632","","","null","","","<p><img src= images/blank.png width =""200"" height = ""200"" style = ""float:right""></p><p><img src=images/blank.png width =""800"" height = ""200""></p>","","","","","","","","","","","",""
"","2264.2999999807216","sequential-stimulus-presentation","13","100164","0.0-8.0-1.2","SS1612927684632","trial","","40","800","3064.2999999807216","","","","","0","complex_dissimilar","images/stimuli/spore_stims/complex_02_B_b.gif","middle","","","","",""
"","null","html-keyboard-response","14","101272","0.0-8.0-0.3","SS1612927684632","","","null","","","<p><img src= images/blank.png width =""200"" height = ""200"" style = ""float:right""></p><p><img src=images/blank.png width =""800"" height = ""200""></p>","","","","","","","","","","","",""
"","1273.2949999917764","sequential-stimulus-presentation","15","103354","0.0-8.0-1.3","SS1612927684632","trial","","40","800","2073.2949999917764","","","","","0","complex_dissimilar","images/stimuli/spore_stims/complex_02_B_b.gif","middle","","","","",""
"","null","html-keyboard-response","16","104338","0.0-8.0-0.4","SS1612927684632","","","null","","","<p><img src= images/blank.png width =""200"" height = ""200"" style = ""float:right""></p><p><img src=images/blank.png width =""800"" height = ""200""></p>","","","","","","","","","","","",""
"","1706.4299999910872","sequential-stimulus-presentation","17","106853","0.0-8.0-1.4","SS1612927684632","trial","","40","800","2506.4299999910872","","","","","0","complex_dissimilar","images/stimuli/spore_stims/complex_02_B_b.gif","middle","","","","",""
"","null","html-keyboard-response","18","107938","0.0-8.0-0.5","SS1612927684632","","","null","","","<p><img src= images/blank.png width =""200"" height = ""200"" style = ""float:right""></p><p><img src=images/blank.png width =""800"" height = ""200""></p>","","","","","","","","","","","",""
"","2462.570000003325","sequential-stimulus-presentation","19","111214","0.0-8.0-1.5","SS1612927684632","trial","","40","800","3262.570000003325","","","","","0","complex_dissimilar","images/stimuli/spore_stims/complex_02_B_b.gif","middle","","","","",""
"","null","html-keyboard-response","20","112118","0.0-8.0-0.6","SS1612927684632","","","null","","","<p><img src= images/blank.png width =""200"" height = ""200"" style = ""float:right""></p><p><img src=images/blank.png width =""800"" height = ""200""></p>","","","","","","","","","","","",""
"","6265.454999986105","sequential-stimulus-presentation","21","119194","0.0-8.0-1.6","SS1612927684632","trial","","40","800","7065.454999986105","","","","","0","complex_dissimilar","images/stimuli/spore_stims/complex_03_B_d.gif","right","","","","",""
"","null","html-keyboard-response","22","120291","0.0-8.0-0.7","SS1612927684632","","","null","","","<p><img src= images/blank.png width =""200"" height = ""200"" style = ""float:right""></p><p><img src=images/blank.png width =""800"" height = ""200""></p>","","","","","","","","","","","",""
"","1088.7949999887496","sequential-stimulus-presentation","23","122193","0.0-8.0-1.7","SS1612927684632","trial","","40","800","1888.7949999887496","","","","","0","complex_dissimilar","images/stimuli/spore_stims/complex_02_B_b.gif","middle","","","","",""
"","2220.935000019381","html-keyboard-response","24","124416","0.0-9.0","SS1612927684632","pref_question","","97","","","<video width ='960' height = '540' style='padding-top:8%' autoplay muted><source src='images/stimuli/wall_pref.mp4' type='video/mp4'></video>","1","left","25%","0","","","","","","","",""
"","3314.2299999890383","sequential-stimulus-presentation","25","128534","0.0-10.0","SS1612927684632","pref_reveal","","40","800","4114.229999989038","","","","","0","","","","novel","","","",""
"","null","html-keyboard-response","26","129482","0.0-11.0-0.0","SS1612927684632","","","null","","","<p><img src= images/blank.png width =""200"" height = ""200"" style = ""float:right""></p><p><img src=images/blank.png width =""800"" height = ""200""></p>","","","","","","","","","","","",""
"","3599.194999987958","sequential-stimulus-presentation","27","133894","0.0-11.0-1.0","SS1612927684632","trial","","40","800","4399.194999987958","","","","","1","complex_dissimilar","images/stimuli/spore_stims/complex_08_B_a.gif","right","","","","",""
"","null","html-keyboard-response","28","134920","0.0-11.0-0.1","SS1612927684632","","","null","","","<p><img src= images/blank.png width =""200"" height = ""200"" style = ""float:right""></p><p><img src=images/blank.png width =""800"" height = ""200""></p>","","","","","","","","","","","",""
"","2797.465000010561","sequential-stimulus-presentation","29","138524","0.0-11.0-1.1","SS1612927684632","trial","","40","800","3597.465000010561","","","","","1","complex_dissimilar","images/stimuli/spore_stims/complex_08_B_a.gif","right","","","","",""
"","null","html-keyboard-response","30","139735","0.0-11.0-0.2","SS1612927684632","","","null","","","<p><img src= images/blank.png width =""200"" height = ""200"" style = ""float:right""></p><p><img src=images/blank.png width =""800"" height = ""200""></p>","","","","","","","","","","","",""
"","5540.739999996731","sequential-stimulus-presentation","31","146083","0.0-11.0-1.2","SS1612927684632","trial","","40","800","6340.739999996731","","","","","1","complex_dissimilar","images/stimuli/spore_stims/complex_17_B_d.gif","middle","","","","",""
"","null","html-keyboard-response","32","147331","0.0-11.0-0.3","SS1612927684632","","","null","","","<p><img src= images/blank.png width =""200"" height = ""200"" style = ""float:right""></p><p><img src=images/blank.png width =""800"" height = ""200""></p>","","","","","","","","","","","",""
"","1347.0800000068266","sequential-stimulus-presentation","33","149493","0.0-11.0-1.3","SS1612927684632","trial","","40","800","2147.0800000068266","","","","","1","complex_dissimilar","images/stimuli/spore_stims/complex_08_B_a.gif","right","","","","",""
"","null","html-keyboard-response","34","150737","0.0-11.0-0.4","SS1612927684632","","","null","","","<p><img src= images/blank.png width =""200"" height = ""200"" style = ""float:right""></p><p><img src=images/blank.png width =""800"" height = ""200""></p>","","","","","","","","","","","",""
"","1709.5399999816436","sequential-stimulus-presentation","35","153263","0.0-11.0-1.4","SS1612927684632","trial","","40","800","2509.5399999816436","","","","","1","complex_dissimilar","images/stimuli/spore_stims/complex_08_B_a.gif","right","","","","",""
"","null","html-keyboard-response","36","154177","0.0-11.0-0.5","SS1612927684632","","","null","","","<p><img src= images/blank.png width =""200"" height = ""200"" style = ""float:right""></p><p><img src=images/blank.png width =""800"" height = ""200""></p>","","","","","","","","","","","",""
"","1968.7750000157394","sequential-stimulus-presentation","37","156953","0.0-11.0-1.5","SS1612927684632","trial","","40","800","2768.7750000157394","","","","","1","complex_dissimilar","images/stimuli/spore_stims/complex_08_B_a.gif","right","","","","",""
"","null","html-keyboard-response","38","158153","0.0-11.0-0.6","SS1612927684632","","","null","","","<p><img src= images/blank.png width =""200"" height = ""200"" style = ""float:right""></p><p><img src=images/blank.png width =""800"" height = ""200""></p>","","","","","","","","","","","",""
"","2660.0849999813363","sequential-stimulus-presentation","39","161623","0.0-11.0-1.6","SS1612927684632","trial","","40","800","3460.0849999813363","","","","","1","complex_dissimilar","images/stimuli/spore_stims/complex_08_B_a.gif","right","","","","",""
"","null","html-keyboard-response","40","162845","0.0-11.0-0.7","SS1612927684632","","","null","","","<p><img src= images/blank.png width =""200"" height = ""200"" style = ""float:right""></p><p><img src=images/blank.png width =""800"" height = ""200""></p>","","","","","","","","","","","",""
"","2381.8500000052154","sequential-stimulus-presentation","41","166043","0.0-11.0-1.7","SS1612927684632","trial","","40","800","3181.8500000052154","","","","","1","complex_dissimilar","images/stimuli/spore_stims/complex_08_B_a.gif","right","","","","",""
"","2859.4649999868125","html-keyboard-response","42","168905","0.0-12.0","SS1612927684632","pref_question","","97","","","<video width ='960' height = '540' style='padding-top:8%' autoplay muted><source src='images/stimuli/wall_pref.mp4' type='video/mp4'></video>","1","left","25%","1","","","","","","","",""
"","4740.169999975478","sequential-stimulus-presentation","43","174452","0.0-13.0","SS1612927684632","pref_reveal","","40","800","5540.169999975478","","","","","1","","","","novel","","","",""
"","null","html-keyboard-response","44","175662","0.0-14.0-0.0","SS1612927684632","","","null","","","<p><img src= images/blank.png width =""200"" height = ""200"" style = ""float:right""></p><p><img src=images/blank.png width =""800"" height = ""200""></p>","","","","","","","","","","","",""
"","4902.289999998175","sequential-stimulus-presentation","45","181373","0.0-14.0-1.0","SS1612927684632","trial","","40","800","5702.289999998175","","","","","2","simple_dissimilar","images/stimuli/spore_stims/simple_02_B_d.gif","middle","","","","",""
"","null","html-keyboard-response","46","182639","0.0-14.0-0.1","SS1612927684632","","","null","","","<p><img src= images/blank.png width =""200"" height = ""200"" style = ""float:right""></p><p><img src=images/blank.png width =""800"" height = ""200""></p>","","","","","","","","","","","",""
"","2609.744999994291","sequential-stimulus-presentation","47","186061","0.0-14.0-1.1","SS1612927684632","trial","","40","800","3409.744999994291","","","","","2","simple_dissimilar","images/stimuli/spore_stims/simple_02_B_d.gif","middle","","","","",""
"","null","html-keyboard-response","48","187289","0.0-14.0-0.2","SS1612927684632","","","null","","","<p><img src= images/blank.png width =""200"" height = ""200"" style = ""float:right""></p><p><img src=images/blank.png width =""800"" height = ""200""></p>","","","","","","","","","","","",""
"","5394.33999999892","sequential-stimulus-presentation","49","193501","0.0-14.0-1.2","SS1612927684632","trial","","40","800","6194.33999999892","","","","","2","simple_dissimilar","images/stimuli/spore_stims/simple_02_B_d.gif","middle","","","","",""
"","null","html-keyboard-response","50","194688","0.0-14.0-0.3","SS1612927684632","","","null","","","<p><img src= images/blank.png width =""200"" height = ""200"" style = ""float:right""></p><p><img src=images/blank.png width =""800"" height = ""200""></p>","","","","","","","","","","","",""
"","2095.8649999811314","sequential-stimulus-presentation","51","197591","0.0-14.0-1.3","SS1612927684632","trial","","40","800","2895.8649999811314","","","","","2","simple_dissimilar","images/stimuli/spore_stims/simple_02_B_d.gif","middle","","","","",""
"","null","html-keyboard-response","52","198627","0.0-14.0-0.4","SS1612927684632","","","null","","","<p><img src= images/blank.png width =""200"" height = ""200"" style = ""float:right""></p><p><img src=images/blank.png width =""800"" height = ""200""></p>","","","","","","","","","","","",""
"","3840.855000016745","sequential-stimulus-presentation","53","203281","0.0-14.0-1.4","SS1612927684632","trial","","40","800","4640.855000016745","","","","","2","simple_dissimilar","images/stimuli/spore_stims/simple_03_B_a.gif","right","","","","",""
"","null","html-keyboard-response","54","204155","0.0-14.0-0.5","SS1612927684632","","","null","","","<p><img src= images/blank.png width =""200"" height = ""200"" style = ""float:right""></p><p><img src=images/blank.png width =""800"" height = ""200""></p>","","","","","","","","","","","",""
"","1190.245000005234","sequential-stimulus-presentation","55","206161","0.0-14.0-1.5","SS1612927684632","trial","","40","800","1990.245000005234","","","","","2","simple_dissimilar","images/stimuli/spore_stims/simple_02_B_d.gif","middle","","","","",""
"","null","html-keyboard-response","56","207067","0.0-14.0-0.6","SS1612927684632","","","null","","","<p><img src= images/blank.png width =""200"" height = ""200"" style = ""float:right""></p><p><img src=images/blank.png width =""800"" height = ""200""></p>","","","","","","","","","","","",""
"","1952.0500000216998","sequential-stimulus-presentation","57","209831","0.0-14.0-1.6","SS1612927684632","trial","","40","800","2752.0500000217","","","","","2","simple_dissimilar","images/stimuli/spore_stims/simple_02_B_d.gif","middle","","","","",""
"","null","html-keyboard-response","58","210825","0.0-14.0-0.7","SS1612927684632","","","null","","","<p><img src= images/blank.png width =""200"" height = ""200"" style = ""float:right""></p><p><img src=images/blank.png width =""800"" height = ""200""></p>","","","","","","","","","","","",""
"","1493.94499999471","sequential-stimulus-presentation","59","213131","0.0-14.0-1.7","SS1612927684632","trial","","40","800","2293.94499999471","","","","","2","simple_dissimilar","images/stimuli/spore_stims/simple_02_B_d.gif","middle","","","","",""
"","2523.6950000107754","html-keyboard-response","60","215664","0.0-15.0","SS1612927684632","pref_question","","99","","","<video width ='960' height = '540' style='padding-top:8%' autoplay muted><source src='images/stimuli/wall_pref.mp4' type='video/mp4'></video>","3","right","66%","2","","","","","","","",""
"","2433.1400000082795","sequential-stimulus-presentation","61","218901","0.0-16.0","SS1612927684632","pref_reveal","","40","800","3233.1400000082795","","","","","2","","","","deviant","","","",""
"","null","html-keyboard-response","62","220012","0.0-17.0-0.0","SS1612927684632","","","null","","","<p><img src= images/blank.png width =""200"" height = ""200"" style = ""float:right""></p><p><img src=images/blank.png width =""800"" height = ""200""></p>","","","","","","","","","","","",""
"","2810.254999989411","sequential-stimulus-presentation","63","223631","0.0-17.0-1.0","SS1612927684632","trial","","40","800","3610.254999989411","","","","","3","simple_similar","images/stimuli/spore_stims/simple_09_A_c.gif","left","","","","",""
"","null","html-keyboard-response","64","224643","0.0-17.0-0.1","SS1612927684632","","","null","","","<p><img src= images/blank.png width =""200"" height = ""200"" style = ""float:right""></p><p><img src=images/blank.png width =""800"" height = ""200""></p>","","","","","","","","","","","",""
"","1611.2950000097044","sequential-stimulus-presentation","65","227060","0.0-17.0-1.1","SS1612927684632","trial","","40","800","2411.2950000097044","","","","","3","simple_similar","images/stimuli/spore_stims/simple_09_A_c.gif","left","","","","",""
"","null","html-keyboard-response","66","228352","0.0-17.0-0.2","SS1612927684632","","","null","","","<p><img src= images/blank.png width =""200"" height = ""200"" style = ""float:right""></p><p><img src=images/blank.png width =""800"" height = ""200""></p>","","","","","","","","","","","",""
"","2114.9449999793433","sequential-stimulus-presentation","67","231281","0.0-17.0-1.2","SS1612927684632","trial","","40","800","2914.9449999793433","","","","","3","simple_similar","images/stimuli/spore_stims/simple_09_A_c.gif","left","","","","",""
"","null","html-keyboard-response","68","232474","0.0-17.0-0.3","SS1612927684632","","","null","","","<p><img src= images/blank.png width =""200"" height = ""200"" style = ""float:right""></p><p><img src=images/blank.png width =""800"" height = ""200""></p>","","","","","","","","","","","",""
"","2326.484999997774","sequential-stimulus-presentation","69","235611","0.0-17.0-1.3","SS1612927684632","trial","","40","800","3126.484999997774","","","","","3","simple_similar","images/stimuli/spore_stims/simple_09_A_c.gif","left","","","","",""
"","null","html-keyboard-response","70","236551","0.0-17.0-0.4","SS1612927684632","","","null","","","<p><img src= images/blank.png width =""200"" height = ""200"" style = ""float:right""></p><p><img src=images/blank.png width =""800"" height = ""200""></p>","","","","","","","","","","","",""
"","2879.8700000043027","sequential-stimulus-presentation","71","240242","0.0-17.0-1.4","SS1612927684632","trial","","40","800","3679.8700000043027","","","","","3","simple_similar","images/stimuli/spore_stims/simple_09_A_c.gif","left","","","","",""
"","null","html-keyboard-response","72","241325","0.0-17.0-0.5","SS1612927684632","","","null","","","<p><img src= images/blank.png width =""200"" height = ""200"" style = ""float:right""></p><p><img src=images/blank.png width =""800"" height = ""200""></p>","","","","","","","","","","","",""
"","3176.2699999962933","sequential-stimulus-presentation","73","245311","0.0-17.0-1.5","SS1612927684632","trial","","40","800","3976.2699999962933","","","","","3","simple_similar","images/stimuli/spore_stims/simple_09_A_c.gif","left","","","","",""
"","null","html-keyboard-response","74","246370","0.0-17.0-0.6","SS1612927684632","","","null","","","<p><img src= images/blank.png width =""200"" height = ""200"" style = ""float:right""></p><p><img src=images/blank.png width =""800"" height = ""200""></p>","","","","","","","","","","","",""
"","4604.105000005802","sequential-stimulus-presentation","75","251791","0.0-17.0-1.6","SS1612927684632","trial","","40","800","5404.105000005802","","","","","3","simple_similar","images/stimuli/spore_stims/simple_09_B_c.gif","right","","","","",""
"","null","html-keyboard-response","76","252742","0.0-17.0-0.7","SS1612927684632","","","null","","","<p><img src= images/blank.png width =""200"" height = ""200"" style = ""float:right""></p><p><img src=images/blank.png width =""800"" height = ""200""></p>","","","","","","","","","","","",""
"","1261.609999986831","sequential-stimulus-presentation","77","254820","0.0-17.0-1.7","SS1612927684632","trial","","40","800","2061.609999986831","","","","","3","simple_similar","images/stimuli/spore_stims/simple_09_A_c.gif","left","","","","",""
"","2472.6550000195857","html-keyboard-response","78","257297","0.0-18.0","SS1612927684632","pref_question","","98","","","<video width ='960' height = '540' style='padding-top:8%' autoplay muted><source src='images/stimuli/wall_pref.mp4' type='video/mp4'></video>","2","middle","45%","3","","","","","","","",""
"","5006.479999981821","sequential-stimulus-presentation","79","263111","0.0-19.0","SS1612927684632","pref_reveal","","40","800","5806.479999981821","","","","","3","","","","novel","","","",""
"","null","html-keyboard-response","80","264249","0.0-20.0-0.0","SS1612927684632","","","null","","","<p><img src= images/blank.png width =""200"" height = ""200"" style = ""float:right""></p><p><img src=images/blank.png width =""800"" height = ""200""></p>","","","","","","","","","","","",""
"","2669.2799999727868","sequential-stimulus-presentation","81","267731","0.0-20.0-1.0","SS1612927684632","trial","","40","800","3469.2799999727868","","","","","4","complex_dissimilar","images/stimuli/spore_stims/complex_08_A_c.gif","left","","","","",""
"","null","html-keyboard-response","82","268574","0.0-20.0-0.1","SS1612927684632","","","null","","","<p><img src= images/blank.png width =""200"" height = ""200"" style = ""float:right""></p><p><img src=images/blank.png width =""800"" height = ""200""></p>","","","","","","","","","","","",""
"","2765.3799999970943","sequential-stimulus-presentation","83","272151","0.0-20.0-1.1","SS1612927684632","trial","","40","800","3565.3799999970943","","","","","4","complex_dissimilar","images/stimuli/spore_stims/complex_08_A_c.gif","left","","","","",""
"","null","html-keyboard-response","84","273343","0.0-20.0-0.2","SS1612927684632","","","null","","","<p><img src= images/blank.png width =""200"" height = ""200"" style = ""float:right""></p><p><img src=images/blank.png width =""800"" height = ""200""></p>","","","","","","","","","","","",""
"","2458.2200000004377","sequential-stimulus-presentation","85","276610","0.0-20.0-1.2","SS1612927684632","trial","","40","800","3258.2200000004377","","","","","4","complex_dissimilar","images/stimuli/spore_stims/complex_08_A_c.gif","left","","","","",""
"","null","html-keyboard-response","86","277873","0.0-20.0-0.3","SS1612927684632","","","null","","","<p><img src= images/blank.png width =""200"" height = ""200"" style = ""float:right""></p><p><img src=images/blank.png width =""800"" height = ""200""></p>","","","","","","","","","","","",""
"","2639.5049999991897","sequential-stimulus-presentation","87","281320","0.0-20.0-1.3","SS1612927684632","trial","","40","800","3439.5049999991897","","","","","4","complex_dissimilar","images/stimuli/spore_stims/complex_08_A_c.gif","left","","","","",""
"","null","html-keyboard-response","88","282252","0.0-20.0-0.4","SS1612927684632","","","null","","","<p><img src= images/blank.png width =""200"" height = ""200"" style = ""float:right""></p><p><img src=images/blank.png width =""800"" height = ""200""></p>","","","","","","","","","","","",""
"","1542.2399999806657","sequential-stimulus-presentation","89","284600","0.0-20.0-1.4","SS1612927684632","trial","","40","800","2342.2399999806657","","","","","4","complex_dissimilar","images/stimuli/spore_stims/complex_08_A_c.gif","left","","","","",""
"","null","html-keyboard-response","90","285643","0.0-20.0-0.5","SS1612927684632","","","null","","","<p><img src= images/blank.png width =""200"" height = ""200"" style = ""float:right""></p><p><img src=images/blank.png width =""800"" height = ""200""></p>","","","","","","","","","","","",""
"","3936.745000013616","sequential-stimulus-presentation","91","290400","0.0-20.0-1.5","SS1612927684632","trial","","40","800","4736.745000013616","","","","","4","complex_dissimilar","images/stimuli/spore_stims/complex_07_B_d.gif","right","","","","",""
"","null","html-keyboard-response","92","291578","0.0-20.0-0.6","SS1612927684632","","","null","","","<p><img src= images/blank.png width =""200"" height = ""200"" style = ""float:right""></p><p><img src=images/blank.png width =""800"" height = ""200""></p>","","","","","","","","","","","",""
"","1350.460000016028","sequential-stimulus-presentation","93","293740","0.0-20.0-1.6","SS1612927684632","trial","","40","800","2150.460000016028","","","","","4","complex_dissimilar","images/stimuli/spore_stims/complex_08_A_c.gif","left","","","","",""
"","null","html-keyboard-response","94","294612","0.0-20.0-0.7","SS1612927684632","","","null","","","<p><img src= images/blank.png width =""200"" height = ""200"" style = ""float:right""></p><p><img src=images/blank.png width =""800"" height = ""200""></p>","","","","","","","","","","","",""
"","1688.1399999838322","sequential-stimulus-presentation","95","297110","0.0-20.0-1.7","SS1612927684632","trial","","40","800","2488.1399999838322","","","","","4","complex_dissimilar","images/stimuli/spore_stims/complex_08_A_c.gif","left","","","","",""
"","2221.4700000185985","html-keyboard-response","96","299337","0.0-21.0","SS1612927684632","pref_question","","98","","","<video width ='960' height = '540' style='padding-top:8%' autoplay muted><source src='images/stimuli/wall_pref.mp4' type='video/mp4'></video>","2","middle","45%","4","","","","","","","",""
"","3924.460000009276","sequential-stimulus-presentation","97","304070","0.0-22.0","SS1612927684632","pref_reveal","","40","800","4724.460000009276","","","","","4","","","","novel","","","",""
"","null","html-keyboard-response","98","304990","0.0-23.0-0.0","SS1612927684632","","","null","","","<p><img src= images/blank.png width =""200"" height = ""200"" style = ""float:right""></p><p><img src=images/blank.png width =""800"" height = ""200""></p>","","","","","","","","","","","",""
"","3593.014999991283","sequential-stimulus-presentation","99","309390","0.0-23.0-1.0","SS1612927684632","trial","","40","800","4393.014999991283","","","","","5","simple_similar","images/stimuli/spore_stims/simple_15_B_a.gif","right","","","","",""
"","null","html-keyboard-response","100","310636","0.0-23.0-0.1","SS1612927684632","","","null","","","<p><img src= images/blank.png width =""200"" height = ""200"" style = ""float:right""></p><p><img src=images/blank.png width =""800"" height = ""200""></p>","","","","","","","","","","","",""
"","4234.184999979334","sequential-stimulus-presentation","101","315680","0.0-23.0-1.1","SS1612927684632","trial","","40","800","5034.184999979334","","","","","5","simple_similar","images/stimuli/spore_stims/simple_15_B_a.gif","right","","","","",""
"","null","html-keyboard-response","102","316887","0.0-23.0-0.2","SS1612927684632","","","null","","","<p><img src= images/blank.png width =""200"" height = ""200"" style = ""float:right""></p><p><img src=images/blank.png width =""800"" height = ""200""></p>","","","","","","","","","","","",""
"","2432.6299999956973","sequential-stimulus-presentation","103","320140","0.0-23.0-1.2","SS1612927684632","trial","","40","800","3232.6299999956973","","","","","5","simple_similar","images/stimuli/spore_stims/simple_15_B_a.gif","right","","","","",""
"","null","html-keyboard-response","104","321093","0.0-23.0-0.3","SS1612927684632","","","null","","","<p><img src= images/blank.png width =""200"" height = ""200"" style = ""float:right""></p><p><img src=images/blank.png width =""800"" height = ""200""></p>","","","","","","","","","","","",""
"","4594.87000000081","sequential-stimulus-presentation","105","326500","0.0-23.0-1.3","SS1612927684632","trial","","40","800","5394.87000000081","","","","","5","simple_similar","images/stimuli/spore_stims/simple_15_B_a.gif","right","","","","",""
"","null","html-keyboard-response","106","327728","0.0-23.0-0.4","SS1612927684632","","","null","","","<p><img src= images/blank.png width =""200"" height = ""200"" style = ""float:right""></p><p><img src=images/blank.png width =""800"" height = ""200""></p>","","","","","","","","","","","",""
"","1364.354999997886","sequential-stimulus-presentation","107","329910","0.0-23.0-1.4","SS1612927684632","trial","","40","800","2164.354999997886","","","","","5","simple_similar","images/stimuli/spore_stims/simple_15_B_a.gif","right","","","","",""
"","null","html-keyboard-response","108","331070","0.0-23.0-0.5","SS1612927684632","","","null","","","<p><img src= images/blank.png width =""200"" height = ""200"" style = ""float:right""></p><p><img src=images/blank.png width =""800"" height = ""200""></p>","","","","","","","","","","","",""
"","3091.6999999899417","sequential-stimulus-presentation","109","334970","0.0-23.0-1.5","SS1612927684632","trial","","40","800","3891.6999999899417","","","","","5","simple_similar","images/stimuli/spore_stims/simple_15_B_a.gif","right","","","","",""
"","null","html-keyboard-response","110","335849","0.0-23.0-0.6","SS1612927684632","","","null","","","<p><img src= images/blank.png width =""200"" height = ""200"" style = ""float:right""></p><p><img src=images/blank.png width =""800"" height = ""200""></p>","","","","","","","","","","","",""
"","2009.474999998929","sequential-stimulus-presentation","111","338679","0.0-23.0-1.6","SS1612927684632","trial","","40","800","2809.474999998929","","","","","5","simple_similar","images/stimuli/spore_stims/simple_15_B_a.gif","right","","","","",""
"","null","html-keyboard-response","112","339592","0.0-23.0-0.7","SS1612927684632","","","null","","","<p><img src= images/blank.png width =""200"" height = ""200"" style = ""float:right""></p><p><img src=images/blank.png width =""800"" height = ""200""></p>","","","","","","","","","","","",""
"","3382.259999983944","sequential-stimulus-presentation","113","343789","0.0-23.0-1.7","SS1612927684632","trial","","40","800","4182.259999983944","","","","","5","simple_similar","images/stimuli/spore_stims/simple_15_A_a.gif","middle","","","","",""
"","2326.13499998115","html-keyboard-response","114","346121","0.0-24.0","SS1612927684632","pref_question","","97","","","<video width ='960' height = '540' style='padding-top:8%' autoplay muted><source src='images/stimuli/wall_pref.mp4' type='video/mp4'></video>","1","left","25%","5","","","","","","","",""
"","2501.604999997653","sequential-stimulus-presentation","115","349431","0.0-25.0","SS1612927684632","pref_reveal","","40","800","3301.604999997653","","","","","5","","","","novel","","","",""
"","null","html-keyboard-response","116","350282","0.0-26.0-0.0","SS1612927684632","","","null","","","<p><img src= images/blank.png width =""200"" height = ""200"" style = ""float:right""></p><p><img src=images/blank.png width =""800"" height = ""200""></p>","","","","","","","","","","","",""
"","3773.5699999902863","sequential-stimulus-presentation","117","354868","0.0-26.0-1.0","SS1612927684632","trial","","40","800","4573.569999990286","","","","","6","complex_similar","images/stimuli/spore_stims/complex_15_B_a.gif","left","","","","",""
"","null","html-keyboard-response","118","355878","0.0-26.0-0.1","SS1612927684632","","","null","","","<p><img src= images/blank.png width =""200"" height = ""200"" style = ""float:right""></p><p><img src=images/blank.png width =""800"" height = ""200""></p>","","","","","","","","","","","",""
"","3527.9450000089128","sequential-stimulus-presentation","119","360228","0.0-26.0-1.1","SS1612927684632","trial","","40","800","4327.945000008913","","","","","6","complex_similar","images/stimuli/spore_stims/complex_15_B_a.gif","left","","","","",""
"","null","html-keyboard-response","120","361162","0.0-26.0-0.2","SS1612927684632","","","null","","","<p><img src= images/blank.png width =""200"" height = ""200"" style = ""float:right""></p><p><img src=images/blank.png width =""800"" height = ""200""></p>","","","","","","","","","","","",""
"","4205.860000016401","sequential-stimulus-presentation","121","366178","0.0-26.0-1.2","SS1612927684632","trial","","40","800","5005.860000016401","","","","","6","complex_similar","images/stimuli/spore_stims/complex_15_A_a.gif","middle","","","","",""
"","null","html-keyboard-response","122","367286","0.0-26.0-0.3","SS1612927684632","","","null","","","<p><img src= images/blank.png width =""200"" height = ""200"" style = ""float:right""></p><p><img src=images/blank.png width =""800"" height = ""200""></p>","","","","","","","","","","","",""
"","2718.1849999760743","sequential-stimulus-presentation","123","370818","0.0-26.0-1.3","SS1612927684632","trial","","40","800","3518.1849999760743","","","","","6","complex_similar","images/stimuli/spore_stims/complex_15_B_a.gif","left","","","","",""
"","null","html-keyboard-response","124","371820","0.0-26.0-0.4","SS1612927684632","","","null","","","<p><img src= images/blank.png width =""200"" height = ""200"" style = ""float:right""></p><p><img src=images/blank.png width =""800"" height = ""200""></p>","","","","","","","","","","","",""
"","4330.544999975245","sequential-stimulus-presentation","125","376968","0.0-26.0-1.4","SS1612927684632","trial","","40","800","5130.544999975245","","","","","6","complex_similar","images/stimuli/spore_stims/complex_15_B_a.gif","left","","","","",""
"","null","html-keyboard-response","126","377897","0.0-26.0-0.5","SS1612927684632","","","null","","","<p><img src= images/blank.png width =""200"" height = ""200"" style = ""float:right""></p><p><img src=images/blank.png width =""800"" height = ""200""></p>","","","","","","","","","","","",""
"","1112.135000003036","sequential-stimulus-presentation","127","379818","0.0-26.0-1.5","SS1612927684632","trial","","40","800","1912.135000003036","","","","","6","complex_similar","images/stimuli/spore_stims/complex_15_B_a.gif","left","","","","",""
"","null","html-keyboard-response","128","380717","0.0-26.0-0.6","SS1612927684632","","","null","","","<p><img src= images/blank.png width =""200"" height = ""200"" style = ""float:right""></p><p><img src=images/blank.png width =""800"" height = ""200""></p>","","","","","","","","","","","",""
"","577.7100000123028","sequential-stimulus-presentation","129","382108","0.0-26.0-1.6","SS1612927684632","trial","","40","800","1377.7100000123028","","","","","6","complex_similar","images/stimuli/spore_stims/complex_15_B_a.gif","left","","","","",""
"","null","html-keyboard-response","130","383403","0.0-26.0-0.7","SS1612927684632","","","null","","","<p><img src= images/blank.png width =""200"" height = ""200"" style = ""float:right""></p><p><img src=images/blank.png width =""800"" height = ""200""></p>","","","","","","","","","","","",""
"","1225.4549999779556","sequential-stimulus-presentation","131","385438","0.0-26.0-1.7","SS1612927684632","trial","","40","800","2025.4549999779556","","","","","6","complex_similar","images/stimuli/spore_stims/complex_15_B_a.gif","left","","","","",""
"","2499.9400000087917","html-keyboard-response","132","387945","0.0-27.0","SS1612927684632","pref_question","","98","","","<video width ='960' height = '540' style='padding-top:8%' autoplay muted><source src='images/stimuli/wall_pref.mp4' type='video/mp4'></video>","2","middle","45%","6","","","","","","","",""
"","3105.299999995623","sequential-stimulus-presentation","133","391868","0.0-28.0","SS1612927684632","pref_reveal","","40","800","3905.299999995623","","","","","6","","","","deviant","","","",""
"","null","html-keyboard-response","134","392763","0.0-29.0-0.0","SS1612927684632","","","null","","","<p><img src= images/blank.png width =""200"" height = ""200"" style = ""float:right""></p><p><img src=images/blank.png width =""800"" height = ""200""></p>","","","","","","","","","","","",""
"","2846.5050000231713","sequential-stimulus-presentation","135","396419","0.0-29.0-1.0","SS1612927684632","trial","","40","800","3646.5050000231713","","","","","7","complex_similar","images/stimuli/spore_stims/complex_10_B_c.gif","right","","","","",""
"","null","html-keyboard-response","136","397285","0.0-29.0-0.1","SS1612927684632","","","null","","","<p><img src= images/blank.png width =""200"" height = ""200"" style = ""float:right""></p><p><img src=images/blank.png width =""800"" height = ""200""></p>","","","","","","","","","","","",""
"","1570.5899999884423","sequential-stimulus-presentation","137","399667","0.0-29.0-1.1","SS1612927684632","trial","","40","800","2370.5899999884423","","","","","7","complex_similar","images/stimuli/spore_stims/complex_10_B_c.gif","right","","","","",""
"","null","html-keyboard-response","138","400895","0.0-29.0-0.2","SS1612927684632","","","null","","","<p><img src= images/blank.png width =""200"" height = ""200"" style = ""float:right""></p><p><img src=images/blank.png width =""800"" height = ""200""></p>","","","","","","","","","","","",""
"","622.7550000185147","sequential-stimulus-presentation","139","402328","0.0-29.0-1.2","SS1612927684632","trial","","40","800","1422.7550000185147","","","","","7","complex_similar","images/stimuli/spore_stims/complex_10_B_c.gif","right","","","","",""
"","null","html-keyboard-response","140","403270","0.0-29.0-0.3","SS1612927684632","","","null","","","<p><img src= images/blank.png width =""200"" height = ""200"" style = ""float:right""></p><p><img src=images/blank.png width =""800"" height = ""200""></p>","","","","","","","","","","","",""
"","1927.1950000256766","sequential-stimulus-presentation","141","406007","0.0-29.0-1.3","SS1612927684632","trial","","40","800","2727.1950000256766","","","","","7","complex_similar","images/stimuli/spore_stims/complex_10_B_c.gif","right","","","","",""
"","null","html-keyboard-response","142","407181","0.0-29.0-0.4","SS1612927684632","","","null","","","<p><img src= images/blank.png width =""200"" height = ""200"" style = ""float:right""></p><p><img src=images/blank.png width =""800"" height = ""200""></p>","","","","","","","","","","","",""
"","2577.1749999839813","sequential-stimulus-presentation","143","410567","0.0-29.0-1.4","SS1612927684632","trial","","40","800","3377.1749999839813","","","","","7","complex_similar","images/stimuli/spore_stims/complex_10_A_c.gif","middle","","","","",""
"","null","html-keyboard-response","144","411411","0.0-29.0-0.5","SS1612927684632","","","null","","","<p><img src= images/blank.png width =""200"" height = ""200"" style = ""float:right""></p><p><img src=images/blank.png width =""800"" height = ""200""></p>","","","","","","","","","","","",""
"","2386.6399999824353","sequential-stimulus-presentation","145","414607","0.0-29.0-1.5","SS1612927684632","trial","","40","800","3186.6399999824353","","","","","7","complex_similar","images/stimuli/spore_stims/complex_10_B_c.gif","right","","","","",""
"","null","html-keyboard-response","146","415808","0.0-29.0-0.6","SS1612927684632","","","null","","","<p><img src= images/blank.png width =""200"" height = ""200"" style = ""float:right""></p><p><img src=images/blank.png width =""800"" height = ""200""></p>","","","","","","","","","","","",""
"","798.8949999853503","sequential-stimulus-presentation","147","417416","0.0-29.0-1.6","SS1612927684632","trial","","40","800","1598.8949999853503","","","","","7","complex_similar","images/stimuli/spore_stims/complex_10_B_c.gif","right","","","","",""
"","null","html-keyboard-response","148","418675","0.0-29.0-0.7","SS1612927684632","","","null","","","<p><img src= images/blank.png width =""200"" height = ""200"" style = ""float:right""></p><p><img src=images/blank.png width =""800"" height = ""200""></p>","","","","","","","","","","","",""
"","1642.0900000084657","sequential-stimulus-presentation","149","421127","0.0-29.0-1.7","SS1612927684632","trial","","40","800","2442.0900000084657","","","","","7","complex_similar","images/stimuli/spore_stims/complex_10_B_c.gif","right","","","","",""
"","1762.749999994412","html-keyboard-response","150","422897","0.0-30.0","SS1612927684632","pref_question","","97","","","<video width ='960' height = '540' style='padding-top:8%' autoplay muted><source src='images/stimuli/wall_pref.mp4' type='video/mp4'></video>","1","left","25%","7","","","","","","","",""
"","3839.0050000161864","sequential-stimulus-presentation","151","427558","0.0-31.0","SS1612927684632","pref_reveal","","40","800","4639.005000016186","","","","","7","","","","novel","","","",""
"","null","html-keyboard-response","152","428567","0.0-32.0-0.0","SS1612927684632","","","null","","","<p><img src= images/blank.png width =""200"" height = ""200"" style = ""float:right""></p><p><img src=images/blank.png width =""800"" height = ""200""></p>","","","","","","","","","","","",""
"","2593.800000002375","sequential-stimulus-presentation","153","431977","0.0-32.0-1.0","SS1612927684632","trial","","40","800","3393.800000002375","","","","","8","simple_dissimilar","images/stimuli/spore_stims/simple_08_B_b.gif","middle","","","","",""
"","null","html-keyboard-response","154","433274","0.0-32.0-0.1","SS1612927684632","","","null","","","<p><img src= images/blank.png width =""200"" height = ""200"" style = ""float:right""></p><p><img src=images/blank.png width =""800"" height = ""200""></p>","","","","","","","","","","","",""
"","680.8650000020862","sequential-stimulus-presentation","155","434775","0.0-32.0-1.1","SS1612927684632","trial","","40","800","1480.8650000020862","","","","","8","simple_dissimilar","images/stimuli/spore_stims/simple_08_B_b.gif","middle","","","","",""
"","null","html-keyboard-response","156","436042","0.0-32.0-0.2","SS1612927684632","","","null","","","<p><img src= images/blank.png width =""200"" height = ""200"" style = ""float:right""></p><p><img src=images/blank.png width =""800"" height = ""200""></p>","","","","","","","","","","","",""
"","1915.3500000247732","sequential-stimulus-presentation","157","438775","0.0-32.0-1.2","SS1612927684632","trial","","40","800","2715.350000024773","","","","","8","simple_dissimilar","images/stimuli/spore_stims/simple_08_B_b.gif","middle","","","","",""
"","null","html-keyboard-response","158","439850","0.0-32.0-0.3","SS1612927684632","","","null","","","<p><img src= images/blank.png width =""200"" height = ""200"" style = ""float:right""></p><p><img src=images/blank.png width =""800"" height = ""200""></p>","","","","","","","","","","","",""
"","1022.7599999925587","sequential-stimulus-presentation","159","441685","0.0-32.0-1.3","SS1612927684632","trial","","40","800","1822.7599999925587","","","","","8","simple_dissimilar","images/stimuli/spore_stims/simple_08_B_b.gif","middle","","","","",""
"","null","html-keyboard-response","160","442757","0.0-32.0-0.4","SS1612927684632","","","null","","","<p><img src= images/blank.png width =""200"" height = ""200"" style = ""float:right""></p><p><img src=images/blank.png width =""800"" height = ""200""></p>","","","","","","","","","","","",""
"","2429.7350000124425","sequential-stimulus-presentation","161","445996","0.0-32.0-1.4","SS1612927684632","trial","","40","800","3229.7350000124425","","","","","8","simple_dissimilar","images/stimuli/spore_stims/simple_08_B_b.gif","middle","","","","",""
"","null","html-keyboard-response","162","446972","0.0-32.0-0.5","SS1612927684632","","","null","","","<p><img src= images/blank.png width =""200"" height = ""200"" style = ""float:right""></p><p><img src=images/blank.png width =""800"" height = ""200""></p>","","","","","","","","","","","",""
"","2130.7700000179466","sequential-stimulus-presentation","163","449925","0.0-32.0-1.5","SS1612927684632","trial","","40","800","2930.7700000179466","","","","","8","simple_dissimilar","images/stimuli/spore_stims/simple_08_B_b.gif","middle","","","","",""
"","null","html-keyboard-response","164","451180","0.0-32.0-0.6","SS1612927684632","","","null","","","<p><img src= images/blank.png width =""200"" height = ""200"" style = ""float:right""></p><p><img src=images/blank.png width =""800"" height = ""200""></p>","","","","","","","","","","","",""
"","2423.3649999951012","sequential-stimulus-presentation","165","454426","0.0-32.0-1.6","SS1612927684632","trial","","40","800","3223.3649999951012","","","","","8","simple_dissimilar","images/stimuli/spore_stims/simple_08_B_b.gif","middle","","","","",""
"","null","html-keyboard-response","166","455267","0.0-32.0-0.7","SS1612927684632","","","null","","","<p><img src= images/blank.png width =""200"" height = ""200"" style = ""float:right""></p><p><img src=images/blank.png width =""800"" height = ""200""></p>","","","","","","","","","","","",""
"","2357.0900000049733","sequential-stimulus-presentation","167","458446","0.0-32.0-1.7","SS1612927684632","trial","","40","800","3157.0900000049733","","","","","8","simple_dissimilar","images/stimuli/spore_stims/simple_03_A_a.gif","left","","","","",""
"","1746.3699999789242","html-keyboard-response","168","460200","0.0-33.0","SS1612927684632","pref_question","","99","","","<video width ='960' height = '540' style='padding-top:8%' autoplay muted><source src='images/stimuli/wall_pref.mp4' type='video/mp4'></video>","3","right","66%","8","","","","","","","",""
"","3306.4099999901373","sequential-stimulus-presentation","169","464316","0.0-34.0","SS1612927684632","pref_reveal","","40","800","4106.409999990137","","","","","8","","","","novel","","","",""
"","null","html-keyboard-response","170","465627","0.0-35.0-0.0","SS1612927684632","","","null","","","<p><img src= images/blank.png width =""200"" height = ""200"" style = ""float:right""></p><p><img src=images/blank.png width =""800"" height = ""200""></p>","","","","","","","","","","","",""
"","3036.564999987604","sequential-stimulus-presentation","171","469476","0.0-35.0-1.0","SS1612927684632","trial","","40","800","3836.564999987604","","","","","9","complex_similar","images/stimuli/spore_stims/complex_14_B_a.gif","right","","","","",""
"","null","html-keyboard-response","172","470507","0.0-35.0-0.1","SS1612927684632","","","null","","","<p><img src= images/blank.png width =""200"" height = ""200"" style = ""float:right""></p><p><img src=images/blank.png width =""800"" height = ""200""></p>","","","","","","","","","","","",""
"","2608.9999999967404","sequential-stimulus-presentation","173","473935","0.0-35.0-1.1","SS1612927684632","trial","","40","800","3408.9999999967404","","","","","9","complex_similar","images/stimuli/spore_stims/complex_14_B_a.gif","right","","","","",""
"","null","html-keyboard-response","174","475214","0.0-35.0-0.2","SS1612927684632","","","null","","","<p><img src= images/blank.png width =""200"" height = ""200"" style = ""float:right""></p><p><img src=images/blank.png width =""800"" height = ""200""></p>","","","","","","","","","","","",""
"","4927.415000012843","sequential-stimulus-presentation","175","480965","0.0-35.0-1.2","SS1612927684632","trial","","40","800","5727.415000012843","","","","","9","complex_similar","images/stimuli/spore_stims/complex_14_A_a.gif","left","","","","",""
"","null","html-keyboard-response","176","482278","0.0-35.0-0.3","SS1612927684632","","","null","","","<p><img src= images/blank.png width =""200"" height = ""200"" style = ""float:right""></p><p><img src=images/blank.png width =""800"" height = ""200""></p>","","","","","","","","","","","",""
"","3005.5199999769684","sequential-stimulus-presentation","177","486095","0.0-35.0-1.3","SS1612927684632","trial","","40","800","3805.5199999769684","","","","","9","complex_similar","images/stimuli/spore_stims/complex_14_B_a.gif","right","","","","",""
"","null","html-keyboard-response","178","487035","0.0-35.0-0.4","SS1612927684632","","","null","","","<p><img src= images/blank.png width =""200"" height = ""200"" style = ""float:right""></p><p><img src=images/blank.png width =""800"" height = ""200""></p>","","","","","","","","","","","",""
"","3004.6300000103656","sequential-stimulus-presentation","179","490854","0.0-35.0-1.4","SS1612927684632","trial","","40","800","3804.6300000103656","","","","","9","complex_similar","images/stimuli/spore_stims/complex_14_B_a.gif","right","","","","",""
"","null","html-keyboard-response","180","492005","0.0-35.0-0.5","SS1612927684632","","","null","","","<p><img src= images/blank.png width =""200"" height = ""200"" style = ""float:right""></p><p><img src=images/blank.png width =""800"" height = ""200""></p>","","","","","","","","","","","",""
"","1656.1349999974482","sequential-stimulus-presentation","181","494485","0.0-35.0-1.5","SS1612927684632","trial","","40","800","2456.134999997448","","","","","9","complex_similar","images/stimuli/spore_stims/complex_14_B_a.gif","right","","","","",""
"","null","html-keyboard-response","182","495301","0.0-35.0-0.6","SS1612927684632","","","null","","","<p><img src= images/blank.png width =""200"" height = ""200"" style = ""float:right""></p><p><img src=images/blank.png width =""800"" height = ""200""></p>","","","","","","","","","","","",""
"","1543.134999985341","sequential-stimulus-presentation","183","497664","0.0-35.0-1.6","SS1612927684632","trial","","40","800","2343.134999985341","","","","","9","complex_similar","images/stimuli/spore_stims/complex_14_B_a.gif","right","","","","",""
"","null","html-keyboard-response","184","498960","0.0-35.0-0.7","SS1612927684632","","","null","","","<p><img src= images/blank.png width =""200"" height = ""200"" style = ""float:right""></p><p><img src=images/blank.png width =""800"" height = ""200""></p>","","","","","","","","","","","",""
"","832.0899999816902","sequential-stimulus-presentation","185","500604","0.0-35.0-1.7","SS1612927684632","trial","","40","800","1632.0899999816902","","","","","9","complex_similar","images/stimuli/spore_stims/complex_14_B_a.gif","right","","","","",""
"","1547.5350000197068","html-keyboard-response","186","502160","0.0-36.0","SS1612927684632","pref_question","","98","","","<video width ='960' height = '540' style='padding-top:8%' autoplay muted><source src='images/stimuli/wall_pref.mp4' type='video/mp4'></video>","2","middle","45%","9","","","","","","","",""
"","2314.060000004247","sequential-stimulus-presentation","187","505295","0.0-37.0","SS1612927684632","pref_reveal","","40","800","3114.060000004247","","","","","9","","","","novel","","","",""
"","null","html-keyboard-response","188","506235","0.0-38.0-0.0","SS1612927684632","","","null","","","<p><img src= images/blank.png width =""200"" height = ""200"" style = ""float:right""></p><p><img src=images/blank.png width =""800"" height = ""200""></p>","","","","","","","","","","","",""
"","3860.5549999920186","sequential-stimulus-presentation","189","510916","0.0-38.0-1.0","SS1612927684632","trial","","40","800","4660.554999992019","","","","","10","complex_dissimilar","images/stimuli/spore_stims/complex_06_A_b.gif","left","","","","",""
"","null","html-keyboard-response","190","511859","0.0-38.0-0.1","SS1612927684632","","","null","","","<p><img src= images/blank.png width =""200"" height = ""200"" style = ""float:right""></p><p><img src=images/blank.png width =""800"" height = ""200""></p>","","","","","","","","","","","",""
"","2462.1299999998882","sequential-stimulus-presentation","191","515144","0.0-38.0-1.1","SS1612927684632","trial","","40","800","3262.1299999998882","","","","","10","complex_dissimilar","images/stimuli/spore_stims/complex_06_A_b.gif","left","","","","",""
"","null","html-keyboard-response","192","516370","0.0-38.0-0.2","SS1612927684632","","","null","","","<p><img src= images/blank.png width =""200"" height = ""200"" style = ""float:right""></p><p><img src=images/blank.png width =""800"" height = ""200""></p>","","","","","","","","","","","",""
"","4245.890000020154","sequential-stimulus-presentation","193","521434","0.0-38.0-1.2","SS1612927684632","trial","","40","800","5045.890000020154","","","","","10","complex_dissimilar","images/stimuli/spore_stims/complex_09_B_a.gif","middle","","","","",""
"","null","html-keyboard-response","194","522402","0.0-38.0-0.3","SS1612927684632","","","null","","","<p><img src= images/blank.png width =""200"" height = ""200"" style = ""float:right""></p><p><img src=images/blank.png width =""800"" height = ""200""></p>","","","","","","","","","","","",""
"","2566.8149999983143","sequential-stimulus-presentation","195","525783","0.0-38.0-1.3","SS1612927684632","trial","","40","800","3366.8149999983143","","","","","10","complex_dissimilar","images/stimuli/spore_stims/complex_06_A_b.gif","left","","","","",""
"","null","html-keyboard-response","196","526827","0.0-38.0-0.4","SS1612927684632","","","null","","","<p><img src= images/blank.png width =""200"" height = ""200"" style = ""float:right""></p><p><img src=images/blank.png width =""800"" height = ""200""></p>","","","","","","","","","","","",""
"","3165.2799999865238","sequential-stimulus-presentation","197","530813","0.0-38.0-1.4","SS1612927684632","trial","","40","800","3965.2799999865238","","","","","10","complex_dissimilar","images/stimuli/spore_stims/complex_06_A_b.gif","left","","","","",""
"","null","html-keyboard-response","198","531651","0.0-38.0-0.5","SS1612927684632","","","null","","","<p><img src= images/blank.png width =""200"" height = ""200"" style = ""float:right""></p><p><img src=images/blank.png width =""800"" height = ""200""></p>","","","","","","","","","","","",""
"","1763.169999991078","sequential-stimulus-presentation","199","534234","0.0-38.0-1.5","SS1612927684632","trial","","40","800","2563.169999991078","","","","","10","complex_dissimilar","images/stimuli/spore_stims/complex_06_A_b.gif","left","","","","",""
"","null","html-keyboard-response","200","535478","0.0-38.0-0.6","SS1612927684632","","","null","","","<p><img src= images/blank.png width =""200"" height = ""200"" style = ""float:right""></p><p><img src=images/blank.png width =""800"" height = ""200""></p>","","","","","","","","","","","",""
"","2096.19000001112","sequential-stimulus-presentation","201","538384","0.0-38.0-1.6","SS1612927684632","trial","","40","800","2896.19000001112","","","","","10","complex_dissimilar","images/stimuli/spore_stims/complex_06_A_b.gif","left","","","","",""
"","null","html-keyboard-response","202","539365","0.0-38.0-0.7","SS1612927684632","","","null","","","<p><img src= images/blank.png width =""200"" height = ""200"" style = ""float:right""></p><p><img src=images/blank.png width =""800"" height = ""200""></p>","","","","","","","","","","","",""
"","1794.0550000057556","sequential-stimulus-presentation","203","541984","0.0-38.0-1.7","SS1612927684632","trial","","40","800","2594.0550000057556","","","","","10","complex_dissimilar","images/stimuli/spore_stims/complex_06_A_b.gif","left","","","","",""
"","1791.9099999999162","html-keyboard-response","204","543785","0.0-39.0","SS1612927684632","pref_question","","98","","","<video width ='960' height = '540' style='padding-top:8%' autoplay muted><source src='images/stimuli/wall_pref.mp4' type='video/mp4'></video>","2","middle","45%","10","","","","","","","",""
"","3555.2549999847542","sequential-stimulus-presentation","205","548154","0.0-40.0","SS1612927684632","pref_reveal","","40","800","4355.254999984754","","","","","10","","","","deviant","","","",""
"","null","html-keyboard-response","206","549360","0.0-41.0-0.0","SS1612927684632","","","null","","","<p><img src= images/blank.png width =""200"" height = ""200"" style = ""float:right""></p><p><img src=images/blank.png width =""800"" height = ""200""></p>","","","","","","","","","","","",""
"","3603.6049999820534","sequential-stimulus-presentation","207","553774","0.0-41.0-1.0","SS1612927684632","trial","","40","800","4403.604999982053","","","","","11","simple_dissimilar","images/stimuli/spore_stims/simple_13_A_b.gif","middle","","","","",""
"","null","html-keyboard-response","208","554874","0.0-41.0-0.1","SS1612927684632","","","null","","","<p><img src= images/blank.png width =""200"" height = ""200"" style = ""float:right""></p><p><img src=images/blank.png width =""800"" height = ""200""></p>","","","","","","","","","","","",""
"","4002.1949999791104","sequential-stimulus-presentation","209","559693","0.0-41.0-1.1","SS1612927684632","trial","","40","800","4802.19499997911","","","","","11","simple_dissimilar","images/stimuli/spore_stims/simple_13_A_b.gif","middle","","","","",""
"","null","html-keyboard-response","210","560590","0.0-41.0-0.2","SS1612927684632","","","null","","","<p><img src= images/blank.png width =""200"" height = ""200"" style = ""float:right""></p><p><img src=images/blank.png width =""800"" height = ""200""></p>","","","","","","","","","","","",""
"","874.9900000111666","sequential-stimulus-presentation","211","562283","0.0-41.0-1.2","SS1612927684632","trial","","40","800","1674.9900000111666","","","","","11","simple_dissimilar","images/stimuli/spore_stims/simple_13_A_b.gif","middle","","","","",""
"","null","html-keyboard-response","212","563179","0.0-41.0-0.3","SS1612927684632","","","null","","","<p><img src= images/blank.png width =""200"" height = ""200"" style = ""float:right""></p><p><img src=images/blank.png width =""800"" height = ""200""></p>","","","","","","","","","","","",""
"","2536.9550000177696","sequential-stimulus-presentation","213","566533","0.0-41.0-1.3","SS1612927684632","trial","","40","800","3336.9550000177696","","","","","11","simple_dissimilar","images/stimuli/spore_stims/simple_13_A_b.gif","middle","","","","",""
"","null","html-keyboard-response","214","567834","0.0-41.0-0.4","SS1612927684632","","","null","","","<p><img src= images/blank.png width =""200"" height = ""200"" style = ""float:right""></p><p><img src=images/blank.png width =""800"" height = ""200""></p>","","","","","","","","","","","",""
"","2567.7149999828544","sequential-stimulus-presentation","215","571213","0.0-41.0-1.4","SS1612927684632","trial","","40","800","3367.7149999828544","","","","","11","simple_dissimilar","images/stimuli/spore_stims/simple_13_A_b.gif","middle","","","","",""
"","null","html-keyboard-response","216","572246","0.0-41.0-0.5","SS1612927684632","","","null","","","<p><img src= images/blank.png width =""200"" height = ""200"" style = ""float:right""></p><p><img src=images/blank.png width =""800"" height = ""200""></p>","","","","","","","","","","","",""
"","3850.990000006277","sequential-stimulus-presentation","217","576924","0.0-41.0-1.5","SS1612927684632","trial","","40","800","4650.990000006277","","","","","11","simple_dissimilar","images/stimuli/spore_stims/simple_13_B_a.gif","left","","","","",""
"","null","html-keyboard-response","218","578004","0.0-41.0-0.6","SS1612927684632","","","null","","","<p><img src= images/blank.png width =""200"" height = ""200"" style = ""float:right""></p><p><img src=images/blank.png width =""800"" height = ""200""></p>","","","","","","","","","","","",""
"","886.4799999864772","sequential-stimulus-presentation","219","579713","0.0-41.0-1.6","SS1612927684632","trial","","40","800","1686.4799999864772","","","","","11","simple_dissimilar","images/stimuli/spore_stims/simple_13_A_b.gif","middle","","","","",""
"","null","html-keyboard-response","220","580626","0.0-41.0-0.7","SS1612927684632","","","null","","","<p><img src= images/blank.png width =""200"" height = ""200"" style = ""float:right""></p><p><img src=images/blank.png width =""800"" height = ""200""></p>","","","","","","","","","","","",""
"","724.8250000120606","sequential-stimulus-presentation","221","582174","0.0-41.0-1.7","SS1612927684632","trial","","40","800","1524.8250000120606","","","","","11","simple_dissimilar","images/stimuli/spore_stims/simple_13_A_b.gif","middle","","","","",""
"","1817.0950000057928","html-keyboard-response","222","584000","0.0-42.0","SS1612927684632","pref_question","","99","","","<video width ='960' height = '540' style='padding-top:8%' autoplay muted><source src='images/stimuli/wall_pref.mp4' type='video/mp4'></video>","3","right","66%","11","","","","","","","",""
"","2485.6800000125077","sequential-stimulus-presentation","223","587313","0.0-43.0","SS1612927684632","pref_reveal","","40","800","3285.6800000125077","","","","","11","","","","novel","","","",""
"","null","html-keyboard-response","224","588156","0.0-44.0-0.0","SS1612927684632","","","null","","","<p><img src= images/blank.png width =""200"" height = ""200"" style = ""float:right""></p><p><img src=images/blank.png width =""800"" height = ""200""></p>","","","","","","","","","","","",""
"","1147.90000001085","sequential-stimulus-presentation","225","590123","0.0-44.0-1.0","SS1612927684632","trial","","40","800","1947.90000001085","","","","","12","simple_similar","images/stimuli/spore_stims/simple_17_A_c.gif","right","","","","",""
"","null","html-keyboard-response","226","590984","0.0-44.0-0.1","SS1612927684632","","","null","","","<p><img src= images/blank.png width =""200"" height = ""200"" style = ""float:right""></p><p><img src=images/blank.png width =""800"" height = ""200""></p>","","","","","","","","","","","",""
"","1233.1849999900442","sequential-stimulus-presentation","227","593043","0.0-44.0-1.1","SS1612927684632","trial","","40","800","2033.1849999900442","","","","","12","simple_similar","images/stimuli/spore_stims/simple_17_A_c.gif","right","","","","",""
"","null","html-keyboard-response","228","594271","0.0-44.0-0.2","SS1612927684632","","","null","","","<p><img src= images/blank.png width =""200"" height = ""200"" style = ""float:right""></p><p><img src=images/blank.png width =""800"" height = ""200""></p>","","","","","","","","","","","",""
"","868.1799999903888","sequential-stimulus-presentation","229","595963","0.0-44.0-1.2","SS1612927684632","trial","","40","800","1668.1799999903888","","","","","12","simple_similar","images/stimuli/spore_stims/simple_17_A_c.gif","right","","","","",""
"","null","html-keyboard-response","230","597172","0.0-44.0-0.3","SS1612927684632","","","null","","","<p><img src= images/blank.png width =""200"" height = ""200"" style = ""float:right""></p><p><img src=images/blank.png width =""800"" height = ""200""></p>","","","","","","","","","","","",""
"","624.920000002021","sequential-stimulus-presentation","231","598622","0.0-44.0-1.3","SS1612927684632","trial","","40","800","1424.920000002021","","","","","12","simple_similar","images/stimuli/spore_stims/simple_17_A_c.gif","right","","","","",""
"","null","html-keyboard-response","232","599647","0.0-44.0-0.4","SS1612927684632","","","null","","","<p><img src= images/blank.png width =""200"" height = ""200"" style = ""float:right""></p><p><img src=images/blank.png width =""800"" height = ""200""></p>","","","","","","","","","","","",""
"","942.6349999848753","sequential-stimulus-presentation","233","601411","0.0-44.0-1.4","SS1612927684632","trial","","40","800","1742.6349999848753","","","","","12","simple_similar","images/stimuli/spore_stims/simple_17_A_c.gif","right","","","","",""
"","null","html-keyboard-response","234","602670","0.0-44.0-0.5","SS1612927684632","","","null","","","<p><img src= images/blank.png width =""200"" height = ""200"" style = ""float:right""></p><p><img src=images/blank.png width =""800"" height = ""200""></p>","","","","","","","","","","","",""
"","1461.0149999789428","sequential-stimulus-presentation","235","604952","0.0-44.0-1.5","SS1612927684632","trial","","40","800","2261.014999978943","","","","","12","simple_similar","images/stimuli/spore_stims/simple_17_A_c.gif","right","","","","",""
"","null","html-keyboard-response","236","606021","0.0-44.0-0.6","SS1612927684632","","","null","","","<p><img src= images/blank.png width =""200"" height = ""200"" style = ""float:right""></p><p><img src=images/blank.png width =""800"" height = ""200""></p>","","","","","","","","","","","",""
"","1107.174999982817","sequential-stimulus-presentation","237","607951","0.0-44.0-1.6","SS1612927684632","trial","","40","800","1907.174999982817","","","","","12","simple_similar","images/stimuli/spore_stims/simple_17_A_c.gif","right","","","","",""
"","null","html-keyboard-response","238","608961","0.0-44.0-0.7","SS1612927684632","","","null","","","<p><img src= images/blank.png width =""200"" height = ""200"" style = ""float:right""></p><p><img src=images/blank.png width =""800"" height = ""200""></p>","","","","","","","","","","","",""
"","1255.7049999886658","sequential-stimulus-presentation","239","611041","0.0-44.0-1.7","SS1612927684632","trial","","40","800","2055.704999988666","","","","","12","simple_similar","images/stimuli/spore_stims/simple_17_B_c.gif","middle","","","","",""
"","1860.324999986915","html-keyboard-response","240","612912","0.0-45.0","SS1612927684632","pref_question","","97","","","<video width ='960' height = '540' style='padding-top:8%' autoplay muted><source src='images/stimuli/wall_pref.mp4' type='video/mp4'></video>","1","left","25%","12","","","","","","","",""
"","2681.284999998752","sequential-stimulus-presentation","241","616412","0.0-46.0","SS1612927684632","pref_reveal","","40","800","3481.284999998752","","","","","12","","","","novel","","","",""
"","null","html-keyboard-response","242","617514","0.0-47.0-0.0","SS1612927684632","","","null","","","<p><img src= images/blank.png width =""200"" height = ""200"" style = ""float:right""></p><p><img src=images/blank.png width =""800"" height = ""200""></p>","","","","","","","","","","","",""
"","2965.005000005476","sequential-stimulus-presentation","243","621292","0.0-47.0-1.0","SS1612927684632","trial","","40","800","3765.005000005476","","","","","13","simple_similar","images/stimuli/spore_stims/simple_18_B_d.gif","right","","","","",""
"","null","html-keyboard-response","244","622537","0.0-47.0-0.1","SS1612927684632","","","null","","","<p><img src= images/blank.png width =""200"" height = ""200"" style = ""float:right""></p><p><img src=images/blank.png width =""800"" height = ""200""></p>","","","","","","","","","","","",""
"","1972.509999992326","sequential-stimulus-presentation","245","625322","0.0-47.0-1.1","SS1612927684632","trial","","40","800","2772.509999992326","","","","","13","simple_similar","images/stimuli/spore_stims/simple_18_B_d.gif","right","","","","",""
"","null","html-keyboard-response","246","626291","0.0-47.0-0.2","SS1612927684632","","","null","","","<p><img src= images/blank.png width =""200"" height = ""200"" style = ""float:right""></p><p><img src=images/blank.png width =""800"" height = ""200""></p>","","","","","","","","","","","",""
"","1838.080000015907","sequential-stimulus-presentation","247","628953","0.0-47.0-1.2","SS1612927684632","trial","","40","800","2638.080000015907","","","","","13","simple_similar","images/stimuli/spore_stims/simple_18_B_d.gif","right","","","","",""
"","null","html-keyboard-response","248","629956","0.0-47.0-0.3","SS1612927684632","","","null","","","<p><img src= images/blank.png width =""200"" height = ""200"" style = ""float:right""></p><p><img src=images/blank.png width =""800"" height = ""200""></p>","","","","","","","","","","","",""
"","2314.2949999892153","sequential-stimulus-presentation","249","633082","0.0-47.0-1.3","SS1612927684632","trial","","40","800","3114.2949999892153","","","","","13","simple_similar","images/stimuli/spore_stims/simple_18_A_d.gif","left","","","","",""
"","null","html-keyboard-response","250","634038","0.0-47.0-0.4","SS1612927684632","","","null","","","<p><img src= images/blank.png width =""200"" height = ""200"" style = ""float:right""></p><p><img src=images/blank.png width =""800"" height = ""200""></p>","","","","","","","","","","","",""
"","2848.534999997355","sequential-stimulus-presentation","251","637712","0.0-47.0-1.4","SS1612927684632","trial","","40","800","3648.534999997355","","","","","13","simple_similar","images/stimuli/spore_stims/simple_18_B_d.gif","right","","","","",""
"","null","html-keyboard-response","252","638550","0.0-47.0-0.5","SS1612927684632","","","null","","","<p><img src= images/blank.png width =""200"" height = ""200"" style = ""float:right""></p><p><img src=images/blank.png width =""800"" height = ""200""></p>","","","","","","","","","","","",""
"","1556.5449999994598","sequential-stimulus-presentation","253","640931","0.0-47.0-1.5","SS1612927684632","trial","","40","800","2356.54499999946","","","","","13","simple_similar","images/stimuli/spore_stims/simple_18_B_d.gif","right","","","","",""
"","null","html-keyboard-response","254","641808","0.0-47.0-0.6","SS1612927684632","","","null","","","<p><img src= images/blank.png width =""200"" height = ""200"" style = ""float:right""></p><p><img src=images/blank.png width =""800"" height = ""200""></p>","","","","","","","","","","","",""
"","2120.9099999978207","sequential-stimulus-presentation","255","644751","0.0-47.0-1.6","SS1612927684632","trial","","40","800","2920.9099999978207","","","","","13","simple_similar","images/stimuli/spore_stims/simple_18_B_d.gif","right","","","","",""
"","null","html-keyboard-response","256","645850","0.0-47.0-0.7","SS1612927684632","","","null","","","<p><img src= images/blank.png width =""200"" height = ""200"" style = ""float:right""></p><p><img src=images/blank.png width =""800"" height = ""200""></p>","","","","","","","","","","","",""
"","832.5499999918975","sequential-stimulus-presentation","257","647501","0.0-47.0-1.7","SS1612927684632","trial","","40","800","1632.5499999918975","","","","","13","simple_similar","images/stimuli/spore_stims/simple_18_B_d.gif","right","","","","",""
"","1440.455000003567","html-keyboard-response","258","648952","0.0-48.0","SS1612927684632","pref_question","","98","","","<video width ='960' height = '540' style='padding-top:8%' autoplay muted><source src='images/stimuli/wall_pref.mp4' type='video/mp4'></video>","2","middle","45%","13","","","","","","","",""
"","3523.929999995744","sequential-stimulus-presentation","259","653301","0.0-49.0","SS1612927684632","pref_reveal","","40","800","4323.929999995744","","","","","13","","","","novel","","","",""
"","null","html-keyboard-response","260","654399","0.0-50.0-0.0","SS1612927684632","","","null","","","<p><img src= images/blank.png width =""200"" height = ""200"" style = ""float:right""></p><p><img src=images/blank.png width =""800"" height = ""200""></p>","","","","","","","","","","","",""
"","3706.2849999929313","sequential-stimulus-presentation","261","658931","0.0-50.0-1.0","SS1612927684632","trial","","40","800","4506.284999992931","","","","","14","complex_dissimilar","images/stimuli/spore_stims/complex_17_A_c.gif","left","","","","",""
"","null","html-keyboard-response","262","660009","0.0-50.0-0.1","SS1612927684632","","","null","","","<p><img src= images/blank.png width =""200"" height = ""200"" style = ""float:right""></p><p><img src=images/blank.png width =""800"" height = ""200""></p>","","","","","","","","","","","",""
"","1658.8549999869429","sequential-stimulus-presentation","263","662481","0.0-50.0-1.1","SS1612927684632","trial","","40","800","2458.854999986943","","","","","14","complex_dissimilar","images/stimuli/spore_stims/complex_17_A_c.gif","left","","","","",""
"","null","html-keyboard-response","264","663520","0.0-50.0-0.2","SS1612927684632","","","null","","","<p><img src= images/blank.png width =""200"" height = ""200"" style = ""float:right""></p><p><img src=images/blank.png width =""800"" height = ""200""></p>","","","","","","","","","","","",""
"","830.3149999992456","sequential-stimulus-presentation","265","665174","0.0-50.0-1.2","SS1612927684632","trial","","40","800","1630.3149999992456","","","","","14","complex_dissimilar","images/stimuli/spore_stims/complex_17_A_c.gif","left","","","","",""
"","null","html-keyboard-response","266","666191","0.0-50.0-0.3","SS1612927684632","","","null","","","<p><img src= images/blank.png width =""200"" height = ""200"" style = ""float:right""></p><p><img src=images/blank.png width =""800"" height = ""200""></p>","","","","","","","","","","","",""
"","2106.5050000033807","sequential-stimulus-presentation","267","669111","0.0-50.0-1.3","SS1612927684632","trial","","40","800","2906.5050000033807","","","","","14","complex_dissimilar","images/stimuli/spore_stims/complex_17_A_c.gif","left","","","","",""
"","null","html-keyboard-response","268","669996","0.0-50.0-0.4","SS1612927684632","","","null","","","<p><img src= images/blank.png width =""200"" height = ""200"" style = ""float:right""></p><p><img src=images/blank.png width =""800"" height = ""200""></p>","","","","","","","","","","","",""
"","2710.224999987986","sequential-stimulus-presentation","269","673531","0.0-50.0-1.4","SS1612927684632","trial","","40","800","3510.224999987986","","","","","14","complex_dissimilar","images/stimuli/spore_stims/complex_17_A_c.gif","left","","","","",""
"","null","html-keyboard-response","270","674539","0.0-50.0-0.5","SS1612927684632","","","null","","","<p><img src= images/blank.png width =""200"" height = ""200"" style = ""float:right""></p><p><img src=images/blank.png width =""800"" height = ""200""></p>","","","","","","","","","","","",""
"","4150.150000001304","sequential-stimulus-presentation","271","679501","0.0-50.0-1.5","SS1612927684632","trial","","40","800","4950.150000001304","","","","","14","complex_dissimilar","images/stimuli/spore_stims/complex_11_A_b.gif","right","","","","",""
"","null","html-keyboard-response","272","680821","0.0-50.0-0.6","SS1612927684632","","","null","","","<p><img src= images/blank.png width =""200"" height = ""200"" style = ""float:right""></p><p><img src=images/blank.png width =""800"" height = ""200""></p>","","","","","","","","","","","",""
"","945.6800000043586","sequential-stimulus-presentation","273","682581","0.0-50.0-1.6","SS1612927684632","trial","","40","800","1745.6800000043586","","","","","14","complex_dissimilar","images/stimuli/spore_stims/complex_17_A_c.gif","left","","","","",""
"","null","html-keyboard-response","274","683527","0.0-50.0-0.7","SS1612927684632","","","null","","","<p><img src= images/blank.png width =""200"" height = ""200"" style = ""float:right""></p><p><img src=images/blank.png width =""800"" height = ""200""></p>","","","","","","","","","","","",""
"","896.3050000020303","sequential-stimulus-presentation","275","685250","0.0-50.0-1.7","SS1612927684632","trial","","40","800","1696.3050000020303","","","","","14","complex_dissimilar","images/stimuli/spore_stims/complex_17_A_c.gif","left","","","","",""
"","1468.2050000119489","html-keyboard-response","276","686729","0.0-51.0","SS1612927684632","pref_question","","98","","","<video width ='960' height = '540' style='padding-top:8%' autoplay muted><source src='images/stimuli/wall_pref.mp4' type='video/mp4'></video>","2","middle","45%","14","","","","","","","",""
"","1591.6349999897648","sequential-stimulus-presentation","277","689140","0.0-52.0","SS1612927684632","pref_reveal","","40","800","2391.6349999897648","","","","","14","","","","novel","","","",""
"","null","html-keyboard-response","278","690231","0.0-53.0-0.0","SS1612927684632","","","null","","","<p><img src= images/blank.png width =""200"" height = ""200"" style = ""float:right""></p><p><img src=images/blank.png width =""800"" height = ""200""></p>","","","","","","","","","","","",""
"","2477.9799999960233","sequential-stimulus-presentation","279","693531","0.0-53.0-1.0","SS1612927684632","trial","","40","800","3277.9799999960233","","","","","15","complex_similar","images/stimuli/spore_stims/complex_20_B_c.gif","middle","","","","",""
"","null","html-keyboard-response","280","694618","0.0-53.0-0.1","SS1612927684632","","","null","","","<p><img src= images/blank.png width =""200"" height = ""200"" style = ""float:right""></p><p><img src=images/blank.png width =""800"" height = ""200""></p>","","","","","","","","","","","",""
"","685.6550000084098","sequential-stimulus-presentation","281","696130","0.0-53.0-1.1","SS1612927684632","trial","","40","800","1485.6550000084098","","","","","15","complex_similar","images/stimuli/spore_stims/complex_20_B_c.gif","middle","","","","",""
"","null","html-keyboard-response","282","697066","0.0-53.0-0.2","SS1612927684632","","","null","","","<p><img src= images/blank.png width =""200"" height = ""200"" style = ""float:right""></p><p><img src=images/blank.png width =""800"" height = ""200""></p>","","","","","","","","","","","",""
"","916.5099999809172","sequential-stimulus-presentation","283","698810","0.0-53.0-1.2","SS1612927684632","trial","","40","800","1716.5099999809172","","","","","15","complex_similar","images/stimuli/spore_stims/complex_20_B_c.gif","middle","","","","",""
"","null","html-keyboard-response","284","699936","0.0-53.0-0.3","SS1612927684632","","","null","","","<p><img src= images/blank.png width =""200"" height = ""200"" style = ""float:right""></p><p><img src=images/blank.png width =""800"" height = ""200""></p>","","","","","","","","","","","",""
"","1525.6200000003446","sequential-stimulus-presentation","285","702280","0.0-53.0-1.3","SS1612927684632","trial","","40","800","2325.6200000003446","","","","","15","complex_similar","images/stimuli/spore_stims/complex_20_B_c.gif","middle","","","","",""
"","null","html-keyboard-response","286","703478","0.0-53.0-0.4","SS1612927684632","","","null","","","<p><img src= images/blank.png width =""200"" height = ""200"" style = ""float:right""></p><p><img src=images/blank.png width =""800"" height = ""200""></p>","","","","","","","","","","","",""
"","1477.1500000206288","sequential-stimulus-presentation","287","705781","0.0-53.0-1.4","SS1612927684632","trial","","40","800","2277.150000020629","","","","","15","complex_similar","images/stimuli/spore_stims/complex_20_B_c.gif","middle","","","","",""
"","null","html-keyboard-response","288","706666","0.0-53.0-0.5","SS1612927684632","","","null","","","<p><img src= images/blank.png width =""200"" height = ""200"" style = ""float:right""></p><p><img src=images/blank.png width =""800"" height = ""200""></p>","","","","","","","","","","","",""
"","3697.51999998698","sequential-stimulus-presentation","289","711190","0.0-53.0-1.5","SS1612927684632","trial","","40","800","4497.51999998698","","","","","15","complex_similar","images/stimuli/spore_stims/complex_20_A_c.gif","right","","","","",""
"","null","html-keyboard-response","290","712425","0.0-53.0-0.6","SS1612927684632","","","null","","","<p><img src= images/blank.png width =""200"" height = ""200"" style = ""float:right""></p><p><img src=images/blank.png width =""800"" height = ""200""></p>","","","","","","","","","","","",""
"","3120.9450000023935","sequential-stimulus-presentation","291","716360","0.0-53.0-1.6","SS1612927684632","trial","","40","800","3920.9450000023935","","","","","15","complex_similar","images/stimuli/spore_stims/complex_20_B_c.gif","middle","","","","",""
"","null","html-keyboard-response","292","717302","0.0-53.0-0.7","SS1612927684632","","","null","","","<p><img src= images/blank.png width =""200"" height = ""200"" style = ""float:right""></p><p><img src=images/blank.png width =""800"" height = ""200""></p>","","","","","","","","","","","",""
"","2483.559999993304","sequential-stimulus-presentation","293","720620","0.0-53.0-1.7","SS1612927684632","trial","","40","800","3283.559999993304","","","","","15","complex_similar","images/stimuli/spore_stims/complex_20_B_c.gif","middle","","","","",""
"","3184.549999976298","html-keyboard-response","294","723816","0.0-54.0","SS1612927684632","pref_question","","97","","","<video width ='960' height = '540' style='padding-top:8%' autoplay muted><source src='images/stimuli/wall_pref.mp4' type='video/mp4'></video>","1","left","25%","15","","","","","","","",""
"","2418.7650000094436","sequential-stimulus-presentation","295","727060","0.0-55.0","SS1612927684632","pref_reveal","","40","800","3218.7650000094436","","","","","15","","","","novel","","","",""
"","null","html-keyboard-response","296","728373","0.0-56.0-0.0","SS1612927684632","","","null","","","<p><img src= images/blank.png width =""200"" height = ""200"" style = ""float:right""></p><p><img src=images/blank.png width =""800"" height = ""200""></p>","","","","","","","","","","","",""
"","725.8250000013504","sequential-stimulus-presentation","297","729919","0.0-56.0-1.0","SS1612927684632","trial","","40","800","1525.8250000013504","","","","","16","simple_similar","images/stimuli/spore_stims/simple_12_B_d.gif","middle","","","","",""
"","null","html-keyboard-response","298","730875","0.0-56.0-0.1","SS1612927684632","","","null","","","<p><img src= images/blank.png width =""200"" height = ""200"" style = ""float:right""></p><p><img src=images/blank.png width =""800"" height = ""200""></p>","","","","","","","","","","","",""
"","1297.725000011269","sequential-stimulus-presentation","299","732999","0.0-56.0-1.1","SS1612927684632","trial","","40","800","2097.725000011269","","","","","16","simple_similar","images/stimuli/spore_stims/simple_12_B_d.gif","middle","","","","",""
"","null","html-keyboard-response","300","734083","0.0-56.0-0.2","SS1612927684632","","","null","","","<p><img src= images/blank.png width =""200"" height = ""200"" style = ""float:right""></p><p><img src=images/blank.png width =""800"" height = ""200""></p>","","","","","","","","","","","",""
"","1061.809999984689","sequential-stimulus-presentation","301","735969","0.0-56.0-1.2","SS1612927684632","trial","","40","800","1861.809999984689","","","","","16","simple_similar","images/stimuli/spore_stims/simple_12_B_d.gif","middle","","","","",""
"","null","html-keyboard-response","302","736867","0.0-56.0-0.3","SS1612927684632","","","null","","","<p><img src= images/blank.png width =""200"" height = ""200"" style = ""float:right""></p><p><img src=images/blank.png width =""800"" height = ""200""></p>","","","","","","","","","","","",""
"","825.6650000112131","sequential-stimulus-presentation","303","738520","0.0-56.0-1.3","SS1612927684632","trial","","40","800","1625.6650000112131","","","","","16","simple_similar","images/stimuli/spore_stims/simple_12_B_d.gif","middle","","","","",""
"","null","html-keyboard-response","304","739444","0.0-56.0-0.4","SS1612927684632","","","null","","","<p><img src= images/blank.png width =""200"" height = ""200"" style = ""float:right""></p><p><img src=images/blank.png width =""800"" height = ""200""></p>","","","","","","","","","","","",""
"","619.5500000030734","sequential-stimulus-presentation","305","740889","0.0-56.0-1.4","SS1612927684632","trial","","40","800","1419.5500000030734","","","","","16","simple_similar","images/stimuli/spore_stims/simple_12_B_d.gif","middle","","","","",""
"","null","html-keyboard-response","306","742028","0.0-56.0-0.5","SS1612927684632","","","null","","","<p><img src= images/blank.png width =""200"" height = ""200"" style = ""float:right""></p><p><img src=images/blank.png width =""800"" height = ""200""></p>","","","","","","","","","","","",""
"","345.15000000828877","sequential-stimulus-presentation","307","743199","0.0-56.0-1.5","SS1612927684632","trial","","40","800","1145.1500000082888","","","","","16","simple_similar","images/stimuli/spore_stims/simple_12_B_d.gif","middle","","","","",""
"","null","html-keyboard-response","308","744189","0.0-56.0-0.6","SS1612927684632","","","null","","","<p><img src= images/blank.png width =""200"" height = ""200"" style = ""float:right""></p><p><img src=images/blank.png width =""800"" height = ""200""></p>","","","","","","","","","","","",""
"","685.1549999846611","sequential-stimulus-presentation","309","745699","0.0-56.0-1.6","SS1612927684632","trial","","40","800","1485.1549999846611","","","","","16","simple_similar","images/stimuli/spore_stims/simple_12_B_d.gif","middle","","","","",""
"","null","html-keyboard-response","310","746806","0.0-56.0-0.7","SS1612927684632","","","null","","","<p><img src= images/blank.png width =""200"" height = ""200"" style = ""float:right""></p><p><img src=images/blank.png width =""800"" height = ""200""></p>","","","","","","","","","","","",""
"","556.140000000596","sequential-stimulus-presentation","311","748189","0.0-56.0-1.7","SS1612927684632","trial","","40","800","1356.140000000596","","","","","16","simple_similar","images/stimuli/spore_stims/simple_12_A_d.gif","right","","","","",""
"","1680.9350000112318","html-keyboard-response","312","749882","0.0-57.0","SS1612927684632","pref_question","","97","","","<video width ='960' height = '540' style='padding-top:8%' autoplay muted><source src='images/stimuli/wall_pref.mp4' type='video/mp4'></video>","1","left","25%","16","","","","","","","",""
"","1618.9550000126474","sequential-stimulus-presentation","313","752319","0.0-58.0","SS1612927684632","pref_reveal","","40","800","2418.9550000126474","","","","","16","","","","novel","","","",""
"","null","html-keyboard-response","314","753306","0.0-59.0-0.0","SS1612927684632","","","null","","","<p><img src= images/blank.png width =""200"" height = ""200"" style = ""float:right""></p><p><img src=images/blank.png width =""800"" height = ""200""></p>","","","","","","","","","","","",""
"","399.36999999918044","sequential-stimulus-presentation","315","754529","0.0-59.0-1.0","SS1612927684632","trial","","40","800","1199.3699999991804","","","","","17","complex_similar","images/stimuli/spore_stims/complex_12_A_a.gif","middle","","","","",""
"","null","html-keyboard-response","316","755788","0.0-59.0-0.1","SS1612927684632","","","null","","","<p><img src= images/blank.png width =""200"" height = ""200"" style = ""float:right""></p><p><img src=images/blank.png width =""800"" height = ""200""></p>","","","","","","","","","","","",""
"","1037.4449999944773","sequential-stimulus-presentation","317","757639","0.0-59.0-1.1","SS1612927684632","trial","","40","800","1837.4449999944773","","","","","17","complex_similar","images/stimuli/spore_stims/complex_12_A_a.gif","middle","","","","",""
"","null","html-keyboard-response","318","758855","0.0-59.0-0.2","SS1612927684632","","","null","","","<p><img src= images/blank.png width =""200"" height = ""200"" style = ""float:right""></p><p><img src=images/blank.png width =""800"" height = ""200""></p>","","","","","","","","","","","",""
"","835.0500000233296","sequential-stimulus-presentation","319","760510","0.0-59.0-1.2","SS1612927684632","trial","","40","800","1635.0500000233296","","","","","17","complex_similar","images/stimuli/spore_stims/complex_12_A_a.gif","middle","","","","",""
"","null","html-keyboard-response","320","761814","0.0-59.0-0.3","SS1612927684632","","","null","","","<p><img src= images/blank.png width =""200"" height = ""200"" style = ""float:right""></p><p><img src=images/blank.png width =""800"" height = ""200""></p>","","","","","","","","","","","",""
"","925.7700000016484","sequential-stimulus-presentation","321","763579","0.0-59.0-1.3","SS1612927684632","trial","","40","800","1725.7700000016484","","","","","17","complex_similar","images/stimuli/spore_stims/complex_12_A_a.gif","middle","","","","",""
"","null","html-keyboard-response","322","764734","0.0-59.0-0.4","SS1612927684632","","","null","","","<p><img src= images/blank.png width =""200"" height = ""200"" style = ""float:right""></p><p><img src=images/blank.png width =""800"" height = ""200""></p>","","","","","","","","","","","",""
"","439.35500000952743","sequential-stimulus-presentation","323","765998","0.0-59.0-1.4","SS1612927684632","trial","","40","800","1239.3550000095274","","","","","17","complex_similar","images/stimuli/spore_stims/complex_12_A_a.gif","middle","","","","",""
"","null","html-keyboard-response","324","767206","0.0-59.0-0.5","SS1612927684632","","","null","","","<p><img src= images/blank.png width =""200"" height = ""200"" style = ""float:right""></p><p><img src=images/blank.png width =""800"" height = ""200""></p>","","","","","","","","","","","",""
"","329.00500000687316","sequential-stimulus-presentation","325","768358","0.0-59.0-1.5","SS1612927684632","trial","","40","800","1129.0050000068732","","","","","17","complex_similar","images/stimuli/spore_stims/complex_12_A_a.gif","middle","","","","",""
"","null","html-keyboard-response","326","769313","0.0-59.0-0.6","SS1612927684632","","","null","","","<p><img src= images/blank.png width =""200"" height = ""200"" style = ""float:right""></p><p><img src=images/blank.png width =""800"" height = ""200""></p>","","","","","","","","","","","",""
"","1271.3499999954365","sequential-stimulus-presentation","327","771409","0.0-59.0-1.6","SS1612927684632","trial","","40","800","2071.3499999954365","","","","","17","complex_similar","images/stimuli/spore_stims/complex_12_B_a.gif","right","","","","",""
"","null","html-keyboard-response","328","772489","0.0-59.0-0.7","SS1612927684632","","","null","","","<p><img src= images/blank.png width =""200"" height = ""200"" style = ""float:right""></p><p><img src=images/blank.png width =""800"" height = ""200""></p>","","","","","","","","","","","",""
"","725.8499999879859","sequential-stimulus-presentation","329","774028","0.0-59.0-1.7","SS1612927684632","trial","","40","800","1525.849999987986","","","","","17","complex_similar","images/stimuli/spore_stims/complex_12_A_a.gif","middle","","","","",""
"","1472.3750000121072","html-keyboard-response","330","775513","0.0-60.0","SS1612927684632","pref_question","","97","","","<video width ='960' height = '540' style='padding-top:8%' autoplay muted><source src='images/stimuli/wall_pref.mp4' type='video/mp4'></video>","1","left","25%","17","","","","","","","",""
"","1824.8700000112876","sequential-stimulus-presentation","331","778158","0.0-61.0","SS1612927684632","pref_reveal","","40","800","2624.8700000112876","","","","","17","","","","novel","","","",""
"","null","html-keyboard-response","332","779274","0.0-62.0-0.0","SS1612927684632","","","null","","","<p><img src= images/blank.png width =""200"" height = ""200"" style = ""float:right""></p><p><img src=images/blank.png width =""800"" height = ""200""></p>","","","","","","","","","","","",""
"","1523.3249999873806","sequential-stimulus-presentation","333","781618","0.0-62.0-1.0","SS1612927684632","trial","","40","800","2323.3249999873806","","","","","18","simple_dissimilar","images/stimuli/spore_stims/simple_19_B_a.gif","left","","","","",""
"","null","html-keyboard-response","334","782760","0.0-62.0-0.1","SS1612927684632","","","null","","","<p><img src= images/blank.png width =""200"" height = ""200"" style = ""float:right""></p><p><img src=images/blank.png width =""800"" height = ""200""></p>","","","","","","","","","","","",""
"","936.649999988731","sequential-stimulus-presentation","335","784518","0.0-62.0-1.1","SS1612927684632","trial","","40","800","1736.649999988731","","","","","18","simple_dissimilar","images/stimuli/spore_stims/simple_19_B_a.gif","left","","","","",""
"","null","html-keyboard-response","336","785346","0.0-62.0-0.2","SS1612927684632","","","null","","","<p><img src= images/blank.png width =""200"" height = ""200"" style = ""float:right""></p><p><img src=images/blank.png width =""800"" height = ""200""></p>","","","","","","","","","","","",""
"","973.9600000029895","sequential-stimulus-presentation","337","787148","0.0-62.0-1.2","SS1612927684632","trial","","40","800","1773.9600000029895","","","","","18","simple_dissimilar","images/stimuli/spore_stims/simple_06_B_b.gif","right","","","","",""
"","null","html-keyboard-response","338","788112","0.0-62.0-0.3","SS1612927684632","","","null","","","<p><img src= images/blank.png width =""200"" height = ""200"" style = ""float:right""></p><p><img src=images/blank.png width =""800"" height = ""200""></p>","","","","","","","","","","","",""
"","847.9600000136998","sequential-stimulus-presentation","339","789789","0.0-62.0-1.3","SS1612927684632","trial","","40","800","1647.9600000136998","","","","","18","simple_dissimilar","images/stimuli/spore_stims/simple_19_B_a.gif","left","","","","",""
"","null","html-keyboard-response","340","791092","0.0-62.0-0.4","SS1612927684632","","","null","","","<p><img src= images/blank.png width =""200"" height = ""200"" style = ""float:right""></p><p><img src=images/blank.png width =""800"" height = ""200""></p>","","","","","","","","","","","",""
"","402.6300000259653","sequential-stimulus-presentation","341","792319","0.0-62.0-1.4","SS1612927684632","trial","","40","800","1202.6300000259653","","","","","18","simple_dissimilar","images/stimuli/spore_stims/simple_19_B_a.gif","left","","","","",""
"","null","html-keyboard-response","342","793314","0.0-62.0-0.5","SS1612927684632","","","null","","","<p><img src= images/blank.png width =""200"" height = ""200"" style = ""float:right""></p><p><img src=images/blank.png width =""800"" height = ""200""></p>","","","","","","","","","","","",""
"","1185.4599999787752","sequential-stimulus-presentation","343","795318","0.0-62.0-1.5","SS1612927684632","trial","","40","800","1985.4599999787752","","","","","18","simple_dissimilar","images/stimuli/spore_stims/simple_19_B_a.gif","left","","","","",""
"","null","html-keyboard-response","344","796419","0.0-62.0-0.6","SS1612927684632","","","null","","","<p><img src= images/blank.png width =""200"" height = ""200"" style = ""float:right""></p><p><img src=images/blank.png width =""800"" height = ""200""></p>","","","","","","","","","","","",""
"","633.0149999994319","sequential-stimulus-presentation","345","797868","0.0-62.0-1.6","SS1612927684632","trial","","40","800","1433.014999999432","","","","","18","simple_dissimilar","images/stimuli/spore_stims/simple_19_B_a.gif","left","","","","",""
"","null","html-keyboard-response","346","798706","0.0-62.0-0.7","SS1612927684632","","","null","","","<p><img src= images/blank.png width =""200"" height = ""200"" style = ""float:right""></p><p><img src=images/blank.png width =""800"" height = ""200""></p>","","","","","","","","","","","",""
"","1028.3950000011828","sequential-stimulus-presentation","347","800548","0.0-62.0-1.7","SS1612927684632","trial","","40","800","1828.3950000011828","","","","","18","simple_dissimilar","images/stimuli/spore_stims/simple_19_B_a.gif","left","","","","",""
"","1687.2500000172295","html-keyboard-response","348","802248","0.0-63.0","SS1612927684632","pref_question","","98","","","<video width ='960' height = '540' style='padding-top:8%' autoplay muted><source src='images/stimuli/wall_pref.mp4' type='video/mp4'></video>","2","middle","45%","18","","","","","","","",""
"","1976.1599999910686","sequential-stimulus-presentation","349","805038","0.0-64.0","SS1612927684632","pref_reveal","","40","800","2776.1599999910686","","","","","18","","","","novel","","","",""
"","null","html-keyboard-response","350","805986","0.0-65.0-0.0","SS1612927684632","","","null","","","<p><img src= images/blank.png width =""200"" height = ""200"" style = ""float:right""></p><p><img src=images/blank.png width =""800"" height = ""200""></p>","","","","","","","","","","","",""
"","1655.52500000922","sequential-stimulus-presentation","351","808458","0.0-65.0-1.0","SS1612927684632","trial","","40","800","2455.52500000922","","","","","19","simple_dissimilar","images/stimuli/spore_stims/simple_10_A_d.gif","right","","","","",""
"","null","html-keyboard-response","352","809544","0.0-65.0-0.1","SS1612927684632","","","null","","","<p><img src= images/blank.png width =""200"" height = ""200"" style = ""float:right""></p><p><img src=images/blank.png width =""800"" height = ""200""></p>","","","","","","","","","","","",""
"","1596.9249999907333","sequential-stimulus-presentation","353","811967","0.0-65.0-1.1","SS1612927684632","trial","","40","800","2396.9249999907333","","","","","19","simple_dissimilar","images/stimuli/spore_stims/simple_10_A_d.gif","right","","","","",""
"","null","html-keyboard-response","354","813156","0.0-65.0-0.2","SS1612927684632","","","null","","","<p><img src= images/blank.png width =""200"" height = ""200"" style = ""float:right""></p><p><img src=images/blank.png width =""800"" height = ""200""></p>","","","","","","","","","","","",""
"","1054.8349999880884","sequential-stimulus-presentation","355","815037","0.0-65.0-1.2","SS1612927684632","trial","","40","800","1854.8349999880884","","","","","19","simple_dissimilar","images/stimuli/spore_stims/simple_10_A_d.gif","right","","","","",""
"","null","html-keyboard-response","356","816133","0.0-65.0-0.3","SS1612927684632","","","null","","","<p><img src= images/blank.png width =""200"" height = ""200"" style = ""float:right""></p><p><img src=images/blank.png width =""800"" height = ""200""></p>","","","","","","","","","","","",""
"","1318.089999986114","sequential-stimulus-presentation","357","818277","0.0-65.0-1.3","SS1612927684632","trial","","40","800","2118.089999986114","","","","","19","simple_dissimilar","images/stimuli/spore_stims/simple_10_A_d.gif","right","","","","",""
"","null","html-keyboard-response","358","819493","0.0-65.0-0.4","SS1612927684632","","","null","","","<p><img src= images/blank.png width =""200"" height = ""200"" style = ""float:right""></p><p><img src=images/blank.png width =""800"" height = ""200""></p>","","","","","","","","","","","",""
"","1419.2599999951199","sequential-stimulus-presentation","359","821737","0.0-65.0-1.4","SS1612927684632","trial","","40","800","2219.25999999512","","","","","19","simple_dissimilar","images/stimuli/spore_stims/simple_10_A_d.gif","right","","","","",""
"","null","html-keyboard-response","360","822614","0.0-65.0-0.5","SS1612927684632","","","null","","","<p><img src= images/blank.png width =""200"" height = ""200"" style = ""float:right""></p><p><img src=images/blank.png width =""800"" height = ""200""></p>","","","","","","","","","","","",""
"","1662.445000023581","sequential-stimulus-presentation","361","825097","0.0-65.0-1.5","SS1612927684632","trial","","40","800","2462.445000023581","","","","","19","simple_dissimilar","images/stimuli/spore_stims/simple_10_A_d.gif","right","","","","",""
"","null","html-keyboard-response","362","826013","0.0-65.0-0.6","SS1612927684632","","","null","","","<p><img src= images/blank.png width =""200"" height = ""200"" style = ""float:right""></p><p><img src=images/blank.png width =""800"" height = ""200""></p>","","","","","","","","","","","",""
"","629.3949999962933","sequential-stimulus-presentation","363","827458","0.0-65.0-1.6","SS1612927684632","trial","","40","800","1429.3949999962933","","","","","19","simple_dissimilar","images/stimuli/spore_stims/simple_10_A_d.gif","right","","","","",""
