"success","trial_type","trial_index","time_elapsed","internal_node_id","subject","rt","responses","stimulus","key_press","view_history","stimulus_type","trial_stimulus","minimum_viewing_duration","trial_looking_time","condition_num","block_number","block_type","stimulus_displayed","position_displayed"
"true","fullscreen","0","1779","0.0-0.0","SS1620248632898","","","","","","","","","","","","","",""
"","survey-text","1","4269","0.0-1.0","SS1620248632898","2486.9800000160467","{""Age"":""253"",""Gender"":""M""}","","","","","","","","","","","",""
"","audio-keyboard-response","2","5192","0.0-2.0","SS1620248632898","922.164999996312","","stimuli/audio/music_intro.wav","40","","","","","","","","","",""
"","html-keyboard-response","3","5669","0.0-3.0","SS1620248632898","471.7349999991711","","<p><img src=stimuli/intro/intro2.jpeg width ='900' height = '500'></p>","40","","","","","","","","","",""
"","html-keyboard-response","4","121490","0.0-4.0","SS1620248632898","115821.3499999838","","<p><img src=stimuli/intro/intro3.jpeg width ='900' height = '500'></p>","40","","","","","","","","","",""
"","html-keyboard-response","5","157041","0.0-5.0","SS1620248632898","35549.77499999222","","<p><img src=stimuli/intro/intro4.jpeg width ='900' height = '500'></p>","40","","","","","","","","","",""
"","html-keyboard-response","6","171214","0.0-6.0","SS1620248632898","14172.119999973802","","<p><img src=stimuli/intro/intro5.jpeg width ='900' height = '500'></p>","40","","","","","","","","","",""
"","html-keyboard-response","7","182740","0.0-7.0","SS1620248632898","11525.680000020657","","<p><img src=stimuli/intro/intro6.jpeg width ='900' height = '500'></p>","40","","","","","","","","","",""
"","html-keyboard-response","8","193889","0.0-8.0","SS1620248632898","11147.965000011027","","<p><img src=stimuli/intro/intro7.jpeg width ='900' height = '500'></p>","40","","","","","","","","","",""
"","html-keyboard-response","9","204039","0.0-9.0","SS1620248632898","10149.260000005597","","<p><img src=stimuli/intro/intro8.jpeg width ='900' height = '500'></p>","40","","","","","","","","","",""
"","html-keyboard-response","10","204615","0.0-10.0","SS1620248632898","575.1900000032037","","<p><img src=stimuli/intro/intro9.jpeg width ='900' height = '500'></p>","40","","","","","","","","","",""
"","instructions","11","294770","0.0-11.0","SS1620248632898","90153.93500000937","","","","[{""page_index"":0,""viewing_time"":90153.6849999975}]","","","","","","","","",""
"","video-keyboard-response","12","299436","0.0-12.0","SS1620248632898","null","","[""stimuli/images/attngetter_quiet.mp4""]","null","","attention_getter","","","","","","","",""
"","html-keyboard-response","13","301109","0.0-13.0-0.0","SS1620248632898","null","","<p><img src=stimuli/images/blank_fam.png width =""200"" height = ""200"" style=""position:absolute;left:85%""></p><p><img src= stimuli/images/blank.png width =""650"" height = ""650"" style=""border:5px solid black""></p>","null","","","","","","","","","",""
"","sequential-stimulus-presentation","14","307119","0.0-13.0-1.0","SS1620248632898","null","","","null","","trial","","1000","1000","6","0","Std","stimuli/images/spore_stims/simple_01_A.gif","right"
"","html-keyboard-response","15","309315","0.0-13.0-0.1","SS1620248632898","null","","<p><img src=stimuli/images/blank_fam.png width =""200"" height = ""200"" style=""position:absolute;left:85%""></p><p><img src= stimuli/images/blank.png width =""650"" height = ""650"" style=""border:5px solid black""></p>","null","","","","","","","","","",""
"","sequential-stimulus-presentation","16","315318","0.0-13.0-1.1","SS1620248632898","null","","","null","","trial","","1000","1000","6","0","Std","stimuli/images/spore_stims/simple_01_A.gif","right"
"","html-keyboard-response","17","317177","0.0-13.0-0.2","SS1620248632898","null","","<p><img src=stimuli/images/blank_fam.png width =""200"" height = ""200"" style=""position:absolute;left:85%""></p><p><img src= stimuli/images/blank.png width =""650"" height = ""650"" style=""border:5px solid black""></p>","null","","","","","","","","","",""
"","sequential-stimulus-presentation","18","323179","0.0-13.0-1.2","SS1620248632898","null","","","null","","trial","","1000","1000","6","0","Std","stimuli/images/spore_stims/simple_01_A.gif","right"
"","html-keyboard-response","19","325594","0.0-13.0-0.3","SS1620248632898","null","","<p><img src=stimuli/images/blank_test.png width =""200"" height = ""200"" style=""position:absolute;left:85%""></p><p><img src= stimuli/images/blank.png width =""650"" height = ""650"" style=""border:5px solid black""></p>","null","","","","","","","","","",""
"","sequential-stimulus-presentation","20","341621","0.0-13.0-1.3","SS1620248632898","39507.64500000514","","","40","","trial","","1000","40507.64500000514","6","0","Std","stimuli/images/spore_stims/simple_01_A.gif","right"
"","html-keyboard-response","21","342540","0.0-14.0","SS1620248632898","916.7949999973644","","<p><img src=""stimuli/images/attngetter_blank.png"" width =""640"" height = ""490"" ></p>","40","","between_block","","","","","","","",""
"","video-keyboard-response","22","347199","0.0-15.0","SS1620248632898","null","","[""stimuli/images/attngetter_quiet.mp4""]","null","","attention_getter","","","","","","","",""
"","html-keyboard-response","23","348865","0.0-16.0-0.0","SS1620248632898","null","","<p><img src=stimuli/images/blank_fam.png width =""200"" height = ""200"" style=""position:absolute;left:85%""></p><p><img src= stimuli/images/blank.png width =""650"" height = ""650"" style=""border:5px solid black""></p>","null","","","","","","","","","",""
"","sequential-stimulus-presentation","24","354872","0.0-16.0-1.0","SS1620248632898","null","","","null","","trial","","1000","1000","6","1","Dev","stimuli/images/spore_stims/simple_06_A.gif","right"
"","html-keyboard-response","25","356494","0.0-16.0-0.1","SS1620248632898","null","","<p><img src=stimuli/images/blank_fam.png width =""200"" height = ""200"" style=""position:absolute;left:85%""></p><p><img src= stimuli/images/blank.png width =""650"" height = ""650"" style=""border:5px solid black""></p>","null","","","","","","","","","",""
"","sequential-stimulus-presentation","26","362502","0.0-16.0-1.1","SS1620248632898","null","","","null","","trial","","1000","1000","6","1","Dev","stimuli/images/spore_stims/simple_06_A.gif","right"
"","html-keyboard-response","27","364895","0.0-16.0-0.2","SS1620248632898","null","","<p><img src=stimuli/images/blank_fam.png width =""200"" height = ""200"" style=""position:absolute;left:85%""></p><p><img src= stimuli/images/blank.png width =""650"" height = ""650"" style=""border:5px solid black""></p>","null","","","","","","","","","",""
"","sequential-stimulus-presentation","28","370901","0.0-16.0-1.2","SS1620248632898","null","","","null","","trial","","1000","1000","6","1","Dev","stimuli/images/spore_stims/simple_06_A.gif","right"
"","html-keyboard-response","29","372968","0.0-16.0-0.3","SS1620248632898","null","","<p><img src=stimuli/images/blank_fam.png width =""200"" height = ""200"" style=""position:absolute;left:85%""></p><p><img src= stimuli/images/blank.png width =""650"" height = ""650"" style=""border:5px solid black""></p>","null","","","","","","","","","",""
"","sequential-stimulus-presentation","30","378974","0.0-16.0-1.3","SS1620248632898","null","","","null","","trial","","1000","1000","6","1","Dev","stimuli/images/spore_stims/simple_06_A.gif","right"
"","html-keyboard-response","31","379772","0.0-16.0-0.4","SS1620248632898","null","","<p><img src=stimuli/images/blank_fam.png width =""200"" height = ""200"" style=""position:absolute;left:85%""></p><p><img src= stimuli/images/blank.png width =""650"" height = ""650"" style=""border:5px solid black""></p>","null","","","","","","","","","",""
"","sequential-stimulus-presentation","32","385777","0.0-16.0-1.4","SS1620248632898","null","","","null","","trial","","1000","1000","6","1","Dev","stimuli/images/spore_stims/simple_06_A.gif","right"
"","html-keyboard-response","33","387210","0.0-16.0-0.5","SS1620248632898","null","","<p><img src=stimuli/images/blank_fam.png width =""200"" height = ""200"" style=""position:absolute;left:85%""></p><p><img src= stimuli/images/blank.png width =""650"" height = ""650"" style=""border:5px solid black""></p>","null","","","","","","","","","",""
"","sequential-stimulus-presentation","34","393214","0.0-16.0-1.5","SS1620248632898","null","","","null","","trial","","1000","1000","6","1","Dev","stimuli/images/spore_stims/simple_06_A.gif","right"
"","html-keyboard-response","35","394889","0.0-16.0-0.6","SS1620248632898","null","","<p><img src=stimuli/images/blank_fam.png width =""200"" height = ""200"" style=""position:absolute;left:85%""></p><p><img src= stimuli/images/blank.png width =""650"" height = ""650"" style=""border:5px solid black""></p>","null","","","","","","","","","",""
"","sequential-stimulus-presentation","36","400896","0.0-16.0-1.6","SS1620248632898","null","","","null","","trial","","1000","1000","6","1","Dev","stimuli/images/spore_stims/simple_06_A.gif","right"
"","html-keyboard-response","37","402496","0.0-16.0-0.7","SS1620248632898","null","","<p><img src=stimuli/images/blank_test.png width =""200"" height = ""200"" style=""position:absolute;left:85%""></p><p><img src= stimuli/images/blank.png width =""650"" height = ""650"" style=""border:5px solid black""></p>","null","","","","","","","","","",""
"","sequential-stimulus-presentation","38","419685","0.0-16.0-1.7","SS1620248632898","69816.51499998407","","","40","","trial","","1000","70816.51499998407","6","1","Dev","stimuli/images/spore_stims/simple_05_A.gif","left"
"","html-keyboard-response","39","420787","0.0-17.0","SS1620248632898","1100.3550000023097","","<p><img src=""stimuli/images/attngetter_blank.png"" width =""640"" height = ""490"" ></p>","40","","between_block","","","","","","","",""
"","video-keyboard-response","40","425421","0.0-18.0","SS1620248632898","null","","[""stimuli/images/attngetter_quiet.mp4""]","null","","attention_getter","","","","","","","",""
"","html-keyboard-response","41","427204","0.0-19.0-0.0","SS1620248632898","null","","<p><img src=stimuli/images/blank_fam.png width =""200"" height = ""200"" style=""position:absolute;left:85%""></p><p><img src= stimuli/images/blank.png width =""650"" height = ""650"" style=""border:5px solid black""></p>","null","","","","","","","","","",""
"","sequential-stimulus-presentation","42","433213","0.0-19.0-1.0","SS1620248632898","null","","","null","","trial","","1000","1000","6","2","Dev","stimuli/images/spore_stims/simple_12_A.gif","right"
"","html-keyboard-response","43","434028","0.0-19.0-0.1","SS1620248632898","null","","<p><img src=stimuli/images/blank_fam.png width =""200"" height = ""200"" style=""position:absolute;left:85%""></p><p><img src= stimuli/images/blank.png width =""650"" height = ""650"" style=""border:5px solid black""></p>","null","","","","","","","","","",""
"","sequential-stimulus-presentation","44","440036","0.0-19.0-1.1","SS1620248632898","null","","","null","","trial","","1000","1000","6","2","Dev","stimuli/images/spore_stims/simple_12_A.gif","right"
"","html-keyboard-response","45","441839","0.0-19.0-0.2","SS1620248632898","null","","<p><img src=stimuli/images/blank_fam.png width =""200"" height = ""200"" style=""position:absolute;left:85%""></p><p><img src= stimuli/images/blank.png width =""650"" height = ""650"" style=""border:5px solid black""></p>","null","","","","","","","","","",""
"","sequential-stimulus-presentation","46","447845","0.0-19.0-1.2","SS1620248632898","null","","","null","","trial","","1000","1000","6","2","Dev","stimuli/images/spore_stims/simple_12_A.gif","right"
"","html-keyboard-response","47","449944","0.0-19.0-0.3","SS1620248632898","null","","<p><img src=stimuli/images/blank_fam.png width =""200"" height = ""200"" style=""position:absolute;left:85%""></p><p><img src= stimuli/images/blank.png width =""650"" height = ""650"" style=""border:5px solid black""></p>","null","","","","","","","","","",""
"","sequential-stimulus-presentation","48","455951","0.0-19.0-1.3","SS1620248632898","null","","","null","","trial","","1000","1000","6","2","Dev","stimuli/images/spore_stims/simple_12_A.gif","right"
"","html-keyboard-response","49","458251","0.0-19.0-0.4","SS1620248632898","null","","<p><img src=stimuli/images/blank_fam.png width =""200"" height = ""200"" style=""position:absolute;left:85%""></p><p><img src= stimuli/images/blank.png width =""650"" height = ""650"" style=""border:5px solid black""></p>","null","","","","","","","","","",""
"","sequential-stimulus-presentation","50","464257","0.0-19.0-1.4","SS1620248632898","null","","","null","","trial","","1000","1000","6","2","Dev","stimuli/images/spore_stims/simple_12_A.gif","right"
"","html-keyboard-response","51","465589","0.0-19.0-0.5","SS1620248632898","null","","<p><img src=stimuli/images/blank_test.png width =""200"" height = ""200"" style=""position:absolute;left:85%""></p><p><img src= stimuli/images/blank.png width =""650"" height = ""650"" style=""border:5px solid black""></p>","null","","","","","","","","","",""
"","sequential-stimulus-presentation","52","480208","0.0-19.0-1.5","SS1620248632898","51999.68999999692","","","40","","trial","","1000","52999.68999999692","6","2","Dev","stimuli/images/spore_stims/simple_11_A.gif","left"
"","html-keyboard-response","53","485960","0.0-20.0","SS1620248632898","5750.815000006696","","<p><img src=""stimuli/images/attngetter_blank.png"" width =""640"" height = ""490"" ></p>","40","","between_block","","","","","","","",""
"","video-keyboard-response","54","490593","0.0-21.0","SS1620248632898","null","","[""stimuli/images/attngetter_quiet.mp4""]","null","","attention_getter","","","","","","","",""
"","html-keyboard-response","55","492609","0.0-22.0-0.0","SS1620248632898","null","","<p><img src=stimuli/images/blank_fam.png width =""200"" height = ""200"" style=""position:absolute;left:85%""></p><p><img src= stimuli/images/blank.png width =""650"" height = ""650"" style=""border:5px solid black""></p>","null","","","","","","","","","",""
"","sequential-stimulus-presentation","56","498617","0.0-22.0-1.0","SS1620248632898","null","","","null","","trial","","1000","1000","6","3","Std","stimuli/images/spore_stims/simple_09_A.gif","left"
"","html-keyboard-response","57","500884","0.0-22.0-0.1","SS1620248632898","null","","<p><img src=stimuli/images/blank_fam.png width =""200"" height = ""200"" style=""position:absolute;left:85%""></p><p><img src= stimuli/images/blank.png width =""650"" height = ""650"" style=""border:5px solid black""></p>","null","","","","","","","","","",""
"","sequential-stimulus-presentation","58","506888","0.0-22.0-1.1","SS1620248632898","null","","","null","","trial","","1000","1000","6","3","Std","stimuli/images/spore_stims/simple_09_A.gif","left"
"","html-keyboard-response","59","509248","0.0-22.0-0.2","SS1620248632898","null","","<p><img src=stimuli/images/blank_fam.png width =""200"" height = ""200"" style=""position:absolute;left:85%""></p><p><img src= stimuli/images/blank.png width =""650"" height = ""650"" style=""border:5px solid black""></p>","null","","","","","","","","","",""
"","sequential-stimulus-presentation","60","515250","0.0-22.0-1.2","SS1620248632898","null","","","null","","trial","","1000","1000","6","3","Std","stimuli/images/spore_stims/simple_09_A.gif","left"
"","html-keyboard-response","61","516900","0.0-22.0-0.3","SS1620248632898","null","","<p><img src=stimuli/images/blank_fam.png width =""200"" height = ""200"" style=""position:absolute;left:85%""></p><p><img src= stimuli/images/blank.png width =""650"" height = ""650"" style=""border:5px solid black""></p>","null","","","","","","","","","",""
"","sequential-stimulus-presentation","62","522903","0.0-22.0-1.3","SS1620248632898","null","","","null","","trial","","1000","1000","6","3","Std","stimuli/images/spore_stims/simple_09_A.gif","left"
"","html-keyboard-response","63","525395","0.0-22.0-0.4","SS1620248632898","null","","<p><img src=stimuli/images/blank_fam.png width =""200"" height = ""200"" style=""position:absolute;left:85%""></p><p><img src= stimuli/images/blank.png width =""650"" height = ""650"" style=""border:5px solid black""></p>","null","","","","","","","","","",""
"","sequential-stimulus-presentation","64","531400","0.0-22.0-1.4","SS1620248632898","null","","","null","","trial","","1000","1000","6","3","Std","stimuli/images/spore_stims/simple_09_A.gif","left"
"","html-keyboard-response","65","532543","0.0-22.0-0.5","SS1620248632898","null","","<p><img src=stimuli/images/blank_test.png width =""200"" height = ""200"" style=""position:absolute;left:85%""></p><p><img src= stimuli/images/blank.png width =""650"" height = ""650"" style=""border:5px solid black""></p>","null","","","","","","","","","",""
"","sequential-stimulus-presentation","66","542557","0.0-22.0-1.5","SS1620248632898","48944.51999999001","","","40","","trial","","1000","49944.51999999001","6","3","Std","stimuli/images/spore_stims/simple_09_A.gif","left"
"","html-keyboard-response","67","545663","0.0-23.0","SS1620248632898","3104.559999977937","","<p><img src=""stimuli/images/attngetter_blank.png"" width =""640"" height = ""490"" ></p>","40","","between_block","","","","","","","",""
"","video-keyboard-response","68","550319","0.0-24.0","SS1620248632898","null","","[""stimuli/images/attngetter_quiet.mp4""]","null","","attention_getter","","","","","","","",""
"","html-keyboard-response","69","551806","0.0-25.0-0.0","SS1620248632898","null","","<p><img src=stimuli/images/blank_fam.png width =""200"" height = ""200"" style=""position:absolute;left:85%""></p><p><img src= stimuli/images/blank.png width =""650"" height = ""650"" style=""border:5px solid black""></p>","null","","","","","","","","","",""
"","sequential-stimulus-presentation","70","557812","0.0-25.0-1.0","SS1620248632898","null","","","null","","trial","","1000","1000","6","4","Std","stimuli/images/spore_stims/simple_07_A.gif","left"
"","html-keyboard-response","71","558473","0.0-25.0-0.1","SS1620248632898","null","","<p><img src=stimuli/images/blank_fam.png width =""200"" height = ""200"" style=""position:absolute;left:85%""></p><p><img src= stimuli/images/blank.png width =""650"" height = ""650"" style=""border:5px solid black""></p>","null","","","","","","","","","",""
"","sequential-stimulus-presentation","72","564479","0.0-25.0-1.1","SS1620248632898","null","","","null","","trial","","1000","1000","6","4","Std","stimuli/images/spore_stims/simple_07_A.gif","left"
"","html-keyboard-response","73","566435","0.0-25.0-0.2","SS1620248632898","null","","<p><img src=stimuli/images/blank_fam.png width =""200"" height = ""200"" style=""position:absolute;left:85%""></p><p><img src= stimuli/images/blank.png width =""650"" height = ""650"" style=""border:5px solid black""></p>","null","","","","","","","","","",""
"","sequential-stimulus-presentation","74","572439","0.0-25.0-1.2","SS1620248632898","null","","","null","","trial","","1000","1000","6","4","Std","stimuli/images/spore_stims/simple_07_A.gif","left"
"","html-keyboard-response","75","574407","0.0-25.0-0.3","SS1620248632898","null","","<p><img src=stimuli/images/blank_fam.png width =""200"" height = ""200"" style=""position:absolute;left:85%""></p><p><img src= stimuli/images/blank.png width =""650"" height = ""650"" style=""border:5px solid black""></p>","null","","","","","","","","","",""
"","sequential-stimulus-presentation","76","580413","0.0-25.0-1.3","SS1620248632898","null","","","null","","trial","","1000","1000","6","4","Std","stimuli/images/spore_stims/simple_07_A.gif","left"
"","html-keyboard-response","77","582238","0.0-25.0-0.4","SS1620248632898","null","","<p><img src=stimuli/images/blank_fam.png width =""200"" height = ""200"" style=""position:absolute;left:85%""></p><p><img src= stimuli/images/blank.png width =""650"" height = ""650"" style=""border:5px solid black""></p>","null","","","","","","","","","",""
"","sequential-stimulus-presentation","78","588244","0.0-25.0-1.4","SS1620248632898","null","","","null","","trial","","1000","1000","6","4","Std","stimuli/images/spore_stims/simple_07_A.gif","left"
"","html-keyboard-response","79","590417","0.0-25.0-0.5","SS1620248632898","null","","<p><img src=stimuli/images/blank_fam.png width =""200"" height = ""200"" style=""position:absolute;left:85%""></p><p><img src= stimuli/images/blank.png width =""650"" height = ""650"" style=""border:5px solid black""></p>","null","","","","","","","","","",""
"","sequential-stimulus-presentation","80","596422","0.0-25.0-1.5","SS1620248632898","null","","","null","","trial","","1000","1000","6","4","Std","stimuli/images/spore_stims/simple_07_A.gif","left"
"","html-keyboard-response","81","597427","0.0-25.0-0.6","SS1620248632898","null","","<p><img src=stimuli/images/blank_fam.png width =""200"" height = ""200"" style=""position:absolute;left:85%""></p><p><img src= stimuli/images/blank.png width =""650"" height = ""650"" style=""border:5px solid black""></p>","null","","","","","","","","","",""
"","sequential-stimulus-presentation","82","603433","0.0-25.0-1.6","SS1620248632898","null","","","null","","trial","","1000","1000","6","4","Std","stimuli/images/spore_stims/simple_07_A.gif","left"
"","html-keyboard-response","83","605317","0.0-25.0-0.7","SS1620248632898","null","","<p><img src=stimuli/images/blank_test.png width =""200"" height = ""200"" style=""position:absolute;left:85%""></p><p><img src= stimuli/images/blank.png width =""650"" height = ""650"" style=""border:5px solid black""></p>","null","","","","","","","","","",""
"","sequential-stimulus-presentation","84","615984","0.0-25.0-1.7","SS1620248632898","63174.98000001069","","","40","","trial","","1000","64174.98000001069","6","4","Std","stimuli/images/spore_stims/simple_07_A.gif","left"
"","html-keyboard-response","85","619605","0.0-26.0","SS1620248632898","3619.6099999942817","","<p><img src=""stimuli/images/attngetter_blank.png"" width =""640"" height = ""490"" ></p>","40","","between_block","","","","","","","",""
"","video-keyboard-response","86","624248","0.0-27.0","SS1620248632898","null","","[""stimuli/images/attngetter_quiet.mp4""]","null","","attention_getter","","","","","","","",""
"","html-keyboard-response","87","625687","0.0-28.0-0.0","SS1620248632898","null","","<p><img src=stimuli/images/blank_fam.png width =""200"" height = ""200"" style=""position:absolute;left:85%""></p><p><img src= stimuli/images/blank.png width =""650"" height = ""650"" style=""border:5px solid black""></p>","null","","","","","","","","","",""
"","sequential-stimulus-presentation","88","631694","0.0-28.0-1.0","SS1620248632898","null","","","null","","trial","","1000","1000","6","5","Dev","stimuli/images/spore_stims/simple_04_A.gif","right"
"","html-keyboard-response","89","632878","0.0-28.0-0.1","SS1620248632898","null","","<p><img src=stimuli/images/blank_fam.png width =""200"" height = ""200"" style=""position:absolute;left:85%""></p><p><img src= stimuli/images/blank.png width =""650"" height = ""650"" style=""border:5px solid black""></p>","null","","","","","","","","","",""
"","sequential-stimulus-presentation","90","638887","0.0-28.0-1.1","SS1620248632898","null","","","null","","trial","","1000","1000","6","5","Dev","stimuli/images/spore_stims/simple_04_A.gif","right"
"","html-keyboard-response","91","640737","0.0-28.0-0.2","SS1620248632898","null","","<p><img src=stimuli/images/blank_fam.png width =""200"" height = ""200"" style=""position:absolute;left:85%""></p><p><img src= stimuli/images/blank.png width =""650"" height = ""650"" style=""border:5px solid black""></p>","null","","","","","","","","","",""
"","sequential-stimulus-presentation","92","646743","0.0-28.0-1.2","SS1620248632898","null","","","null","","trial","","1000","1000","6","5","Dev","stimuli/images/spore_stims/simple_04_A.gif","right"
"","html-keyboard-response","93","647959","0.0-28.0-0.3","SS1620248632898","null","","<p><img src=stimuli/images/blank_test.png width =""200"" height = ""200"" style=""position:absolute;left:85%""></p><p><img src= stimuli/images/blank.png width =""650"" height = ""650"" style=""border:5px solid black""></p>","null","","","","","","","","","",""
"","sequential-stimulus-presentation","94","654656","0.0-28.0-1.3","SS1620248632898","27965.445000008913","","","40","","trial","","1000","28965.445000008913","6","5","Dev","stimuli/images/spore_stims/simple_03_A.gif","left"
"","html-keyboard-response","95","967599","0.0-29.0","SS1620248632898","312943.3500000159","","<p><span style=""font-family: arial, helvetica, sans-serif; font-size: 48px; color: #993300;""> That's it! Thank you so much for your participation! </span></p>","40","","","","","","","","","",""
