"success","trial_type","trial_index","time_elapsed","internal_node_id","subject","rt","responses","stimulus","key_press","view_history","stimulus_type","trial_stimulus","minimum_viewing_duration","trial_looking_time","condition_num","block_number","block_type","stimulus_displayed","position_displayed"
"true","fullscreen","0","1665","0.0-0.0","SS1619978421239","","","","","","","","","","","","","",""
"","survey-text","1","4891","0.0-1.0","SS1619978421239","3224.2549999937182","{""Age"":""272"",""Gender"":""F""}","","","","","","","","","","","",""
"","audio-keyboard-response","2","12531","0.0-2.0","SS1619978421239","7638.4649999963585","","stimuli/audio/music_intro.wav","40","","","","","","","","","",""
"","html-keyboard-response","3","16805","0.0-3.0","SS1619978421239","4272.515000004205","","<p><img src=stimuli/intro/intro2.jpeg width ='900' height = '500'></p>","40","","","","","","","","","",""
"","html-keyboard-response","4","134433","0.0-4.0","SS1619978421239","117626.60499999765","","<p><img src=stimuli/intro/intro3.jpeg width ='900' height = '500'></p>","40","","","","","","","","","",""
"","html-keyboard-response","5","258230","0.0-5.0","SS1619978421239","123795.53000000305","","<p><img src=stimuli/intro/intro4.jpeg width ='900' height = '500'></p>","40","","","","","","","","","",""
"","html-keyboard-response","6","274404","0.0-6.0","SS1619978421239","16173.364999995101","","<p><img src=stimuli/intro/intro5.jpeg width ='900' height = '500'></p>","40","","","","","","","","","",""
"","html-keyboard-response","7","279399","0.0-7.0","SS1619978421239","4993.875000000116","","<p><img src=stimuli/intro/intro6.jpeg width ='900' height = '500'></p>","40","","","","","","","","","",""
"","html-keyboard-response","8","279917","0.0-8.0","SS1619978421239","517.4800000095274","","<p><img src=stimuli/intro/intro7.jpeg width ='900' height = '500'></p>","40","","","","","","","","","",""
"","html-keyboard-response","9","280281","0.0-9.0","SS1619978421239","363.36499999742955","","<p><img src=stimuli/intro/intro8.jpeg width ='900' height = '500'></p>","40","","","","","","","","","",""
"","html-keyboard-response","10","280795","0.0-10.0","SS1619978421239","513.055000003078","","<p><img src=stimuli/intro/intro9.jpeg width ='900' height = '500'></p>","40","","","","","","","","","",""
"","instructions","11","334087","0.0-11.0","SS1619978421239","53290.500000002794","","","","[{""page_index"":0,""viewing_time"":53290.1300000085}]","","","","","","","","",""
"","video-keyboard-response","12","338733","0.0-12.0","SS1619978421239","null","","[""stimuli/images/attngetter_quiet.mp4""]","null","","attention_getter","","","","","","","",""
"","html-keyboard-response","13","340721","0.0-13.0-0.0","SS1619978421239","null","","<p><img src=stimuli/images/blank_fam.png width =""200"" height = ""200"" style=""position:absolute;left:85%""></p><p><img src= stimuli/images/blank.png width =""650"" height = ""650"" style=""border:5px solid black""></p>","null","","","","","","","","","",""
"","sequential-stimulus-presentation","14","346725","0.0-13.0-1.0","SS1619978421239","null","","","null","","trial","","1000","1000","1","0","Dev","stimuli/images/spore_stims/simple_12_A.gif","right"
"","html-keyboard-response","15","348653","0.0-13.0-0.1","SS1619978421239","null","","<p><img src=stimuli/images/blank_fam.png width =""200"" height = ""200"" style=""position:absolute;left:85%""></p><p><img src= stimuli/images/blank.png width =""650"" height = ""650"" style=""border:5px solid black""></p>","null","","","","","","","","","",""
"","sequential-stimulus-presentation","16","354658","0.0-13.0-1.1","SS1619978421239","null","","","null","","trial","","1000","1000","1","0","Dev","stimuli/images/spore_stims/simple_12_A.gif","right"
"","html-keyboard-response","17","356629","0.0-13.0-0.2","SS1619978421239","null","","<p><img src=stimuli/images/blank_fam.png width =""200"" height = ""200"" style=""position:absolute;left:85%""></p><p><img src= stimuli/images/blank.png width =""650"" height = ""650"" style=""border:5px solid black""></p>","null","","","","","","","","","",""
"","sequential-stimulus-presentation","18","362634","0.0-13.0-1.2","SS1619978421239","null","","","null","","trial","","1000","1000","1","0","Dev","stimuli/images/spore_stims/simple_12_A.gif","right"
"","html-keyboard-response","19","364640","0.0-13.0-0.3","SS1619978421239","null","","<p><img src=stimuli/images/blank_fam.png width =""200"" height = ""200"" style=""position:absolute;left:85%""></p><p><img src= stimuli/images/blank.png width =""650"" height = ""650"" style=""border:5px solid black""></p>","null","","","","","","","","","",""
"","sequential-stimulus-presentation","20","370643","0.0-13.0-1.3","SS1619978421239","null","","","null","","trial","","1000","1000","1","0","Dev","stimuli/images/spore_stims/simple_12_A.gif","right"
"","html-keyboard-response","21","371974","0.0-13.0-0.4","SS1619978421239","null","","<p><img src=stimuli/images/blank_fam.png width =""200"" height = ""200"" style=""position:absolute;left:85%""></p><p><img src= stimuli/images/blank.png width =""650"" height = ""650"" style=""border:5px solid black""></p>","null","","","","","","","","","",""
"","sequential-stimulus-presentation","22","377977","0.0-13.0-1.4","SS1619978421239","null","","","null","","trial","","1000","1000","1","0","Dev","stimuli/images/spore_stims/simple_12_A.gif","right"
"","html-keyboard-response","23","379650","0.0-13.0-0.5","SS1619978421239","null","","<p><img src=stimuli/images/blank_fam.png width =""200"" height = ""200"" style=""position:absolute;left:85%""></p><p><img src= stimuli/images/blank.png width =""650"" height = ""650"" style=""border:5px solid black""></p>","null","","","","","","","","","",""
"","sequential-stimulus-presentation","24","385653","0.0-13.0-1.5","SS1619978421239","null","","","null","","trial","","1000","1000","1","0","Dev","stimuli/images/spore_stims/simple_12_A.gif","right"
"","html-keyboard-response","25","387140","0.0-13.0-0.6","SS1619978421239","null","","<p><img src=stimuli/images/blank_fam.png width =""200"" height = ""200"" style=""position:absolute;left:85%""></p><p><img src= stimuli/images/blank.png width =""650"" height = ""650"" style=""border:5px solid black""></p>","null","","","","","","","","","",""
"","sequential-stimulus-presentation","26","393145","0.0-13.0-1.6","SS1619978421239","null","","","null","","trial","","1000","1000","1","0","Dev","stimuli/images/spore_stims/simple_12_A.gif","right"
"","html-keyboard-response","27","395136","0.0-13.0-0.7","SS1619978421239","null","","<p><img src=stimuli/images/blank_test.png width =""200"" height = ""200"" style=""position:absolute;left:85%""></p><p><img src= stimuli/images/blank.png width =""650"" height = ""650"" style=""border:5px solid black""></p>","null","","","","","","","","","",""
"","sequential-stimulus-presentation","28","413837","0.0-13.0-1.7","SS1619978421239","72112.69999999786","","","40","","trial","","1000","73112.69999999786","1","0","Dev","stimuli/images/spore_stims/simple_11_A.gif","left"
"","html-keyboard-response","29","415547","0.0-14.0","SS1619978421239","1708.454999999958","","<p><img src=""stimuli/images/attngetter_blank.png"" width =""640"" height = ""490"" ></p>","40","","between_block","","","","","","","",""
"","video-keyboard-response","30","420159","0.0-15.0","SS1619978421239","null","","[""stimuli/images/attngetter_quiet.mp4""]","null","","attention_getter","","","","","","","",""
"","html-keyboard-response","31","421212","0.0-16.0-0.0","SS1619978421239","null","","<p><img src=stimuli/images/blank_fam.png width =""200"" height = ""200"" style=""position:absolute;left:85%""></p><p><img src= stimuli/images/blank.png width =""650"" height = ""650"" style=""border:5px solid black""></p>","null","","","","","","","","","",""
"","sequential-stimulus-presentation","32","427218","0.0-16.0-1.0","SS1619978421239","null","","","null","","trial","","1000","1000","1","1","Dev","stimuli/images/spore_stims/simple_04_A.gif","left"
"","html-keyboard-response","33","428053","0.0-16.0-0.1","SS1619978421239","null","","<p><img src=stimuli/images/blank_fam.png width =""200"" height = ""200"" style=""position:absolute;left:85%""></p><p><img src= stimuli/images/blank.png width =""650"" height = ""650"" style=""border:5px solid black""></p>","null","","","","","","","","","",""
"","sequential-stimulus-presentation","34","434060","0.0-16.0-1.1","SS1619978421239","null","","","null","","trial","","1000","1000","1","1","Dev","stimuli/images/spore_stims/simple_04_A.gif","left"
"","html-keyboard-response","35","436401","0.0-16.0-0.2","SS1619978421239","null","","<p><img src=stimuli/images/blank_fam.png width =""200"" height = ""200"" style=""position:absolute;left:85%""></p><p><img src= stimuli/images/blank.png width =""650"" height = ""650"" style=""border:5px solid black""></p>","null","","","","","","","","","",""
"","sequential-stimulus-presentation","36","442406","0.0-16.0-1.2","SS1619978421239","null","","","null","","trial","","1000","1000","1","1","Dev","stimuli/images/spore_stims/simple_04_A.gif","left"
"","html-keyboard-response","37","444894","0.0-16.0-0.3","SS1619978421239","null","","<p><img src=stimuli/images/blank_fam.png width =""200"" height = ""200"" style=""position:absolute;left:85%""></p><p><img src= stimuli/images/blank.png width =""650"" height = ""650"" style=""border:5px solid black""></p>","null","","","","","","","","","",""
"","sequential-stimulus-presentation","38","450899","0.0-16.0-1.3","SS1619978421239","null","","","null","","trial","","1000","1000","1","1","Dev","stimuli/images/spore_stims/simple_04_A.gif","left"
"","html-keyboard-response","39","452075","0.0-16.0-0.4","SS1619978421239","null","","<p><img src=stimuli/images/blank_fam.png width =""200"" height = ""200"" style=""position:absolute;left:85%""></p><p><img src= stimuli/images/blank.png width =""650"" height = ""650"" style=""border:5px solid black""></p>","null","","","","","","","","","",""
"","sequential-stimulus-presentation","40","458080","0.0-16.0-1.4","SS1619978421239","null","","","null","","trial","","1000","1000","1","1","Dev","stimuli/images/spore_stims/simple_04_A.gif","left"
"","html-keyboard-response","41","458586","0.0-16.0-0.5","SS1619978421239","null","","<p><img src=stimuli/images/blank_test.png width =""200"" height = ""200"" style=""position:absolute;left:85%""></p><p><img src= stimuli/images/blank.png width =""650"" height = ""650"" style=""border:5px solid black""></p>","null","","","","","","","","","",""
"","sequential-stimulus-presentation","42","483699","0.0-16.0-1.5","SS1619978421239","61482.969999997295","","","40","","trial","","1000","62482.969999997295","1","1","Dev","stimuli/images/spore_stims/simple_03_A.gif","right"
"","html-keyboard-response","43","485655","0.0-17.0","SS1619978421239","1955.3449999948498","","<p><img src=""stimuli/images/attngetter_blank.png"" width =""640"" height = ""490"" ></p>","40","","between_block","","","","","","","",""
"","video-keyboard-response","44","490274","0.0-18.0","SS1619978421239","null","","[""stimuli/images/attngetter_quiet.mp4""]","null","","attention_getter","","","","","","","",""
"","html-keyboard-response","45","491018","0.0-19.0-0.0","SS1619978421239","null","","<p><img src=stimuli/images/blank_fam.png width =""200"" height = ""200"" style=""position:absolute;left:85%""></p><p><img src= stimuli/images/blank.png width =""650"" height = ""650"" style=""border:5px solid black""></p>","null","","","","","","","","","",""
"","sequential-stimulus-presentation","46","497022","0.0-19.0-1.0","SS1619978421239","null","","","null","","trial","","1000","1000","1","2","Std","stimuli/images/spore_stims/simple_02_A.gif","right"
"","html-keyboard-response","47","497607","0.0-19.0-0.1","SS1619978421239","null","","<p><img src=stimuli/images/blank_fam.png width =""200"" height = ""200"" style=""position:absolute;left:85%""></p><p><img src= stimuli/images/blank.png width =""650"" height = ""650"" style=""border:5px solid black""></p>","null","","","","","","","","","",""
"","sequential-stimulus-presentation","48","503616","0.0-19.0-1.1","SS1619978421239","null","","","null","","trial","","1000","1000","1","2","Std","stimuli/images/spore_stims/simple_02_A.gif","right"
"","html-keyboard-response","49","505106","0.0-19.0-0.2","SS1619978421239","null","","<p><img src=stimuli/images/blank_fam.png width =""200"" height = ""200"" style=""position:absolute;left:85%""></p><p><img src= stimuli/images/blank.png width =""650"" height = ""650"" style=""border:5px solid black""></p>","null","","","","","","","","","",""
"","sequential-stimulus-presentation","50","511115","0.0-19.0-1.2","SS1619978421239","null","","","null","","trial","","1000","1000","1","2","Std","stimuli/images/spore_stims/simple_02_A.gif","right"
"","html-keyboard-response","51","513007","0.0-19.0-0.3","SS1619978421239","null","","<p><img src=stimuli/images/blank_fam.png width =""200"" height = ""200"" style=""position:absolute;left:85%""></p><p><img src= stimuli/images/blank.png width =""650"" height = ""650"" style=""border:5px solid black""></p>","null","","","","","","","","","",""
"","sequential-stimulus-presentation","52","519016","0.0-19.0-1.3","SS1619978421239","null","","","null","","trial","","1000","1000","1","2","Std","stimuli/images/spore_stims/simple_02_A.gif","right"
"","html-keyboard-response","53","519601","0.0-19.0-0.4","SS1619978421239","null","","<p><img src=stimuli/images/blank_fam.png width =""200"" height = ""200"" style=""position:absolute;left:85%""></p><p><img src= stimuli/images/blank.png width =""650"" height = ""650"" style=""border:5px solid black""></p>","null","","","","","","","","","",""
"","sequential-stimulus-presentation","54","525607","0.0-19.0-1.4","SS1619978421239","null","","","null","","trial","","1000","1000","1","2","Std","stimuli/images/spore_stims/simple_02_A.gif","right"
"","html-keyboard-response","55","527572","0.0-19.0-0.5","SS1619978421239","null","","<p><img src=stimuli/images/blank_test.png width =""200"" height = ""200"" style=""position:absolute;left:85%""></p><p><img src= stimuli/images/blank.png width =""650"" height = ""650"" style=""border:5px solid black""></p>","null","","","","","","","","","",""
"","sequential-stimulus-presentation","56","542897","0.0-19.0-1.5","SS1619978421239","50872.61999999464","","","40","","trial","","1000","51872.61999999464","1","2","Std","stimuli/images/spore_stims/simple_02_A.gif","right"
"","html-keyboard-response","57","546743","0.0-20.0","SS1619978421239","3845.450000007986","","<p><img src=""stimuli/images/attngetter_blank.png"" width =""640"" height = ""490"" ></p>","40","","between_block","","","","","","","",""
"","video-keyboard-response","58","551361","0.0-21.0","SS1619978421239","null","","[""stimuli/images/attngetter_quiet.mp4""]","null","","attention_getter","","","","","","","",""
"","html-keyboard-response","59","552655","0.0-22.0-0.0","SS1619978421239","null","","<p><img src=stimuli/images/blank_fam.png width =""200"" height = ""200"" style=""position:absolute;left:85%""></p><p><img src= stimuli/images/blank.png width =""650"" height = ""650"" style=""border:5px solid black""></p>","null","","","","","","","","","",""
"","sequential-stimulus-presentation","60","558663","0.0-22.0-1.0","SS1619978421239","null","","","null","","trial","","1000","1000","1","3","Std","stimuli/images/spore_stims/simple_08_A.gif","right"
"","html-keyboard-response","61","560989","0.0-22.0-0.1","SS1619978421239","null","","<p><img src=stimuli/images/blank_fam.png width =""200"" height = ""200"" style=""position:absolute;left:85%""></p><p><img src= stimuli/images/blank.png width =""650"" height = ""650"" style=""border:5px solid black""></p>","null","","","","","","","","","",""
"","sequential-stimulus-presentation","62","566995","0.0-22.0-1.1","SS1619978421239","null","","","null","","trial","","1000","1000","1","3","Std","stimuli/images/spore_stims/simple_08_A.gif","right"
"","html-keyboard-response","63","568425","0.0-22.0-0.2","SS1619978421239","null","","<p><img src=stimuli/images/blank_fam.png width =""200"" height = ""200"" style=""position:absolute;left:85%""></p><p><img src= stimuli/images/blank.png width =""650"" height = ""650"" style=""border:5px solid black""></p>","null","","","","","","","","","",""
"","sequential-stimulus-presentation","64","574430","0.0-22.0-1.2","SS1619978421239","null","","","null","","trial","","1000","1000","1","3","Std","stimuli/images/spore_stims/simple_08_A.gif","right"
"","html-keyboard-response","65","575944","0.0-22.0-0.3","SS1619978421239","null","","<p><img src=stimuli/images/blank_fam.png width =""200"" height = ""200"" style=""position:absolute;left:85%""></p><p><img src= stimuli/images/blank.png width =""650"" height = ""650"" style=""border:5px solid black""></p>","null","","","","","","","","","",""
"","sequential-stimulus-presentation","66","581949","0.0-22.0-1.3","SS1619978421239","null","","","null","","trial","","1000","1000","1","3","Std","stimuli/images/spore_stims/simple_08_A.gif","right"
"","html-keyboard-response","67","584382","0.0-22.0-0.4","SS1619978421239","null","","<p><img src=stimuli/images/blank_fam.png width =""200"" height = ""200"" style=""position:absolute;left:85%""></p><p><img src= stimuli/images/blank.png width =""650"" height = ""650"" style=""border:5px solid black""></p>","null","","","","","","","","","",""
"","sequential-stimulus-presentation","68","590390","0.0-22.0-1.4","SS1619978421239","null","","","null","","trial","","1000","1000","1","3","Std","stimuli/images/spore_stims/simple_08_A.gif","right"
"","html-keyboard-response","69","591584","0.0-22.0-0.5","SS1619978421239","null","","<p><img src=stimuli/images/blank_fam.png width =""200"" height = ""200"" style=""position:absolute;left:85%""></p><p><img src= stimuli/images/blank.png width =""650"" height = ""650"" style=""border:5px solid black""></p>","null","","","","","","","","","",""
"","sequential-stimulus-presentation","70","597589","0.0-22.0-1.5","SS1619978421239","null","","","null","","trial","","1000","1000","1","3","Std","stimuli/images/spore_stims/simple_08_A.gif","right"
"","html-keyboard-response","71","598159","0.0-22.0-0.6","SS1619978421239","null","","<p><img src=stimuli/images/blank_fam.png width =""200"" height = ""200"" style=""position:absolute;left:85%""></p><p><img src= stimuli/images/blank.png width =""650"" height = ""650"" style=""border:5px solid black""></p>","null","","","","","","","","","",""
"","sequential-stimulus-presentation","72","604162","0.0-22.0-1.6","SS1619978421239","null","","","null","","trial","","1000","1000","1","3","Std","stimuli/images/spore_stims/simple_08_A.gif","right"
"","html-keyboard-response","73","605962","0.0-22.0-0.7","SS1619978421239","null","","<p><img src=stimuli/images/blank_test.png width =""200"" height = ""200"" style=""position:absolute;left:85%""></p><p><img src= stimuli/images/blank.png width =""650"" height = ""650"" style=""border:5px solid black""></p>","null","","","","","","","","","",""
"","sequential-stimulus-presentation","74","618498","0.0-22.0-1.7","SS1619978421239","64837.22499999567","","","40","","trial","","1000","65837.22499999567","1","3","Std","stimuli/images/spore_stims/simple_08_A.gif","right"
"","html-keyboard-response","75","631544","0.0-23.0","SS1619978421239","13044.039999993402","","<p><img src=""stimuli/images/attngetter_blank.png"" width =""640"" height = ""490"" ></p>","40","","between_block","","","","","","","",""
"","video-keyboard-response","76","636159","0.0-24.0","SS1619978421239","null","","[""stimuli/images/attngetter_quiet.mp4""]","null","","attention_getter","","","","","","","",""
"","html-keyboard-response","77","638107","0.0-25.0-0.0","SS1619978421239","null","","<p><img src=stimuli/images/blank_fam.png width =""200"" height = ""200"" style=""position:absolute;left:85%""></p><p><img src= stimuli/images/blank.png width =""650"" height = ""650"" style=""border:5px solid black""></p>","null","","","","","","","","","",""
"","sequential-stimulus-presentation","78","644123","0.0-25.0-1.0","SS1619978421239","null","","","null","","trial","","1000","1000","1","4","Dev","stimuli/images/spore_stims/simple_10_A.gif","right"
"","html-keyboard-response","79","645779","0.0-25.0-0.1","SS1619978421239","null","","<p><img src=stimuli/images/blank_fam.png width =""200"" height = ""200"" style=""position:absolute;left:85%""></p><p><img src= stimuli/images/blank.png width =""650"" height = ""650"" style=""border:5px solid black""></p>","null","","","","","","","","","",""
"","sequential-stimulus-presentation","80","651785","0.0-25.0-1.1","SS1619978421239","null","","","null","","trial","","1000","1000","1","4","Dev","stimuli/images/spore_stims/simple_10_A.gif","right"
"","html-keyboard-response","81","653122","0.0-25.0-0.2","SS1619978421239","null","","<p><img src=stimuli/images/blank_fam.png width =""200"" height = ""200"" style=""position:absolute;left:85%""></p><p><img src= stimuli/images/blank.png width =""650"" height = ""650"" style=""border:5px solid black""></p>","null","","","","","","","","","",""
"","sequential-stimulus-presentation","82","659129","0.0-25.0-1.2","SS1619978421239","null","","","null","","trial","","1000","1000","1","4","Dev","stimuli/images/spore_stims/simple_10_A.gif","right"
"","html-keyboard-response","83","660658","0.0-25.0-0.3","SS1619978421239","null","","<p><img src=stimuli/images/blank_test.png width =""200"" height = ""200"" style=""position:absolute;left:85%""></p><p><img src= stimuli/images/blank.png width =""650"" height = ""650"" style=""border:5px solid black""></p>","null","","","","","","","","","",""
"","sequential-stimulus-presentation","84","674250","0.0-25.0-1.3","SS1619978421239","35125.46999999904","","","40","","trial","","1000","36125.46999999904","1","4","Dev","stimuli/images/spore_stims/simple_09_A.gif","left"
"","html-keyboard-response","85","677939","0.0-26.0","SS1619978421239","3687.335000009625","","<p><img src=""stimuli/images/attngetter_blank.png"" width =""640"" height = ""490"" ></p>","40","","between_block","","","","","","","",""
"","video-keyboard-response","86","682538","0.0-27.0","SS1619978421239","null","","[""stimuli/images/attngetter_quiet.mp4""]","null","","attention_getter","","","","","","","",""
"","html-keyboard-response","87","683535","0.0-28.0-0.0","SS1619978421239","null","","<p><img src=stimuli/images/blank_fam.png width =""200"" height = ""200"" style=""position:absolute;left:85%""></p><p><img src= stimuli/images/blank.png width =""650"" height = ""650"" style=""border:5px solid black""></p>","null","","","","","","","","","",""
"","sequential-stimulus-presentation","88","689541","0.0-28.0-1.0","SS1619978421239","null","","","null","","trial","","1000","1000","1","5","Std","stimuli/images/spore_stims/simple_06_A.gif","left"
"","html-keyboard-response","89","691450","0.0-28.0-0.1","SS1619978421239","null","","<p><img src=stimuli/images/blank_fam.png width =""200"" height = ""200"" style=""position:absolute;left:85%""></p><p><img src= stimuli/images/blank.png width =""650"" height = ""650"" style=""border:5px solid black""></p>","null","","","","","","","","","",""
"","sequential-stimulus-presentation","90","697456","0.0-28.0-1.1","SS1619978421239","null","","","null","","trial","","1000","1000","1","5","Std","stimuli/images/spore_stims/simple_06_A.gif","left"
"","html-keyboard-response","91","699602","0.0-28.0-0.2","SS1619978421239","null","","<p><img src=stimuli/images/blank_fam.png width =""200"" height = ""200"" style=""position:absolute;left:85%""></p><p><img src= stimuli/images/blank.png width =""650"" height = ""650"" style=""border:5px solid black""></p>","null","","","","","","","","","",""
"","sequential-stimulus-presentation","92","705608","0.0-28.0-1.2","SS1619978421239","null","","","null","","trial","","1000","1000","1","5","Std","stimuli/images/spore_stims/simple_06_A.gif","left"
"","html-keyboard-response","93","707562","0.0-28.0-0.3","SS1619978421239","null","","<p><img src=stimuli/images/blank_test.png width =""200"" height = ""200"" style=""position:absolute;left:85%""></p><p><img src= stimuli/images/blank.png width =""650"" height = ""650"" style=""border:5px solid black""></p>","null","","","","","","","","","",""
"","sequential-stimulus-presentation","94","719977","0.0-28.0-1.3","SS1619978421239","35438.38999999571","","","40","","trial","","1000","36438.38999999571","1","5","Std","stimuli/images/spore_stims/simple_06_A.gif","left"
"","html-keyboard-response","95","1022004","0.0-29.0","SS1619978421239","302004.8999999999","","<p><span style=""font-family: arial, helvetica, sans-serif; font-size: 48px; color: #993300;""> That's it! Thank you so much for your participation! </span></p>","40","","","","","","","","","",""
