"success","trial_type","trial_index","time_elapsed","internal_node_id","subject","rt","responses","stimulus","key_press","view_history","stimulus_type","subject_num","condition_num","block_number","block_type","fam_duration","stimulus_displayed","response","question_order"
"true","fullscreen","0","33872","0.0-0.0","SS1679500818583","","","","","","","","","","","","","",""
"","survey-text","1","71451","0.0-1.0","SS1679500818583","37573","{""Age"":""293"",""Gender"":""M""}","","","","","","","","","","","",""
"","audio-keyboard-response","2","76559","0.0-2.0","SS1679500818583","5107","","stimuli/audio/music_intro.wav","39","","","","","","","","","",""
"","html-keyboard-response","3","79366","0.0-3.0","SS1679500818583","2807","","<p><img src=stimuli/intro/intro2.jpeg width ='1200' height = '667'></p>","39","","","","","","","","","",""
"","html-keyboard-response","4","114032","0.0-4.0","SS1679500818583","34665","","<p><img src=stimuli/intro/intro3.jpeg width ='1200' height = '667'></p>","39","","","","","","","","","",""
"","html-keyboard-response","5","137268","0.0-5.0","SS1679500818583","23234","","<p><img src=stimuli/intro/intro4.jpeg width ='1200' height = '667'></p>","39","","","","","","","","","",""
"","html-keyboard-response","6","145057","0.0-6.0","SS1679500818583","7788","","<p><img src=stimuli/intro/intro5.jpeg width ='1200' height = '667'></p>","39","","","","","","","","","",""
"","html-keyboard-response","7","154981","0.0-7.0","SS1679500818583","9925","","<p><img src=stimuli/intro/intro6.jpeg width ='1200' height = '667'></p>","39","","","","","","","","","",""
"","html-keyboard-response","8","188749","0.0-8.0","SS1679500818583","33767","","<p><img src=stimuli/intro/intro7.jpeg width ='1200' height = '667'></p>","39","","","","","","","","","",""
"","html-keyboard-response","9","205147","0.0-9.0","SS1679500818583","16397","","<p><img src=stimuli/intro/intro8.jpeg width ='1200' height = '667'></p>","39","","","","","","","","","",""
"","instructions","10","358501","0.0-10.0","SS1679500818583","153355","","","","[{""page_index"":0,""viewing_time"":153355}]","","","","","","","","",""
"","video-keyboard-response","11","376764","0.0-11.0","SS1679500818583","null","","[""stimuli/images/calibration.mp4""]","null","","calibration","","","","","","","",""
"","video-keyboard-response","12","381443","0.0-12.0","SS1679500818583","null","","[""stimuli/images/attngetter_quiet.mp4""]","null","","attention_getter","","","","","","","",""
"","video-keyboard-response","13","443092","0.0-13.0","SS1679500818583","61649","","[""stimuli/images/unity_stims/unitystims_005_Left_6fam_deviant_1_new.mp4""]","39","","trial","6","6","1","deviant","6","stimuli/images/unity_stims/unitystims_005_Left_6fam_deviant_1_new.mp4","",""
"","html-keyboard-response","14","443819","0.0-14.0","SS1679500818583","727","","<p><img src=""stimuli/images/attngetter_blank.png""></p>","39","","between_block","","","","","","","",""
"","video-keyboard-response","15","448497","0.0-15.0","SS1679500818583","null","","[""stimuli/images/attngetter_quiet.mp4""]","null","","attention_getter","","","","","","","",""
"","video-keyboard-response","16","483030","0.0-16.0","SS1679500818583","34533","","[""stimuli/images/unity_stims/unitystims_004_Right_2fam_background_2_new.mp4""]","39","","trial","6","6","2","background","2","stimuli/images/unity_stims/unitystims_004_Right_2fam_background_2_new.mp4","",""
"","html-keyboard-response","17","483617","0.0-17.0","SS1679500818583","585","","<p><img src=""stimuli/images/attngetter_blank.png""></p>","39","","between_block","","","","","","","",""
"","video-keyboard-response","18","488294","0.0-18.0","SS1679500818583","null","","[""stimuli/images/attngetter_quiet.mp4""]","null","","attention_getter","","","","","","","",""
"","video-keyboard-response","19","527495","0.0-19.0","SS1679500818583","39201","","[""stimuli/images/unity_stims/unitystims_003_Right_6fam_background_2_new.mp4""]","39","","trial","6","6","3","background","6","stimuli/images/unity_stims/unitystims_003_Right_6fam_background_2_new.mp4","",""
"","html-keyboard-response","20","528041","0.0-20.0","SS1679500818583","545","","<p><img src=""stimuli/images/attngetter_blank.png""></p>","39","","between_block","","","","","","","",""
"","video-keyboard-response","21","532716","0.0-21.0","SS1679500818583","null","","[""stimuli/images/attngetter_quiet.mp4""]","null","","attention_getter","","","","","","","",""
"","video-keyboard-response","22","569885","0.0-22.0","SS1679500818583","37170","","[""stimuli/images/unity_stims/unitystims_002_Left_2fam_deviant_2_new.mp4""]","39","","trial","6","6","4","deviant","2","stimuli/images/unity_stims/unitystims_002_Left_2fam_deviant_2_new.mp4","",""
"","html-keyboard-response","23","570515","0.0-23.0","SS1679500818583","629","","<p><img src=""stimuli/images/attngetter_blank.png""></p>","39","","between_block","","","","","","","",""
"","video-keyboard-response","24","575192","0.0-24.0","SS1679500818583","null","","[""stimuli/images/attngetter_quiet.mp4""]","null","","attention_getter","","","","","","","",""
"","video-keyboard-response","25","604461","0.0-25.0","SS1679500818583","29270","","[""stimuli/images/unity_stims/unitystims_001_Right_4fam_deviant_1_new.mp4""]","39","","trial","6","6","5","deviant","4","stimuli/images/unity_stims/unitystims_001_Right_4fam_deviant_1_new.mp4","",""
"","html-keyboard-response","26","605087","0.0-26.0","SS1679500818583","626","","<p><img src=""stimuli/images/attngetter_blank.png""></p>","39","","between_block","","","","","","","",""
"","video-keyboard-response","27","609761","0.0-27.0","SS1679500818583","null","","[""stimuli/images/attngetter_quiet.mp4""]","null","","attention_getter","","","","","","","",""
"","video-keyboard-response","28","655058","0.0-28.0","SS1679500818583","45297","","[""stimuli/images/unity_stims/unitystims_006_Left_4fam_background_1_new.mp4""]","39","","trial","6","6","6","background","4","stimuli/images/unity_stims/unitystims_006_Left_4fam_background_1_new.mp4","",""
"","video-keyboard-response","29","678226","0.0-29.0","SS1679500818583","null","","[""stimuli/images/calibration_end.mp4""]","null","","calibration_end","","","","","","","",""
"","html-keyboard-response","30","703356","0.0-30.0","SS1679500818583","25131","","<p><span style=""font-family: arial, helvetica, sans-serif; font-size: 48px; color: #993300;""> That's it! Thank you so much for your participation! </span></p>","39","","","","","","","","","",""
"","survey-multi-choice","31","872314","0.0-31.0","SS1679500818583","168957","","","","","","","","","","","","{""Consent"":""<b>Option 2 (Scientific and Educational)</b>: You would like to share child’s data with other researchers or students for scientific or educational purposes. </h1>""}","0"
