"view_history","rt","trial_type","trial_index","time_elapsed","internal_node_id","subject","stimulus_type","trial_stimulus","key_press","minimum_viewing_duration","trial_looking_time","block_deviant","block_background","stimulus","block_number","block_type","stimulus_displayed","responses","question_order","math_correct_answer","stimulus_left","stimulus_right"
"[{""page_index"":0,""viewing_time"":2659.545000002254}]","2659.92499999993","instructions","0","2662","0.0-0.0","SS1617819543549","","","","","","","","","","","","","","","",""
"[{""page_index"":0,""viewing_time"":1207.0400000084192},{""page_index"":1,""viewing_time"":1613.180000000284}]","2820.4700000060257","instructions","1","7485","0.0-1.0","SS1617819543549","instructions","","","","","","","","","","","","","","",""
"","1147.7149999991525","sequential-stimulus-presentation-old","2","9235","0.0-2.0","SS1617819543549","","","40","600","1747.7149999991525","null","null","","","","","","","","",""
"","14659.099999989849","sequential-stimulus-presentation-old","3","24397","0.0-3.0","SS1617819543549","","","40","500","15159.099999989849","null","null","","","","","","","","",""
"[{""page_index"":0,""viewing_time"":12788.66000000562}]","12788.904999993974","instructions","4","37187","0.0-4.0","SS1617819543549","instructions","","","","","","","","","","","","","","",""
"","3360.610000003362","sequential-stimulus-presentation","5","41552","0.0-5.0","SS1617819543549","","","40","1000","4360.610000003362","null","null","","","","","","","","",""
"[{""page_index"":0,""viewing_time"":4327.030000000377}]","4327.294999995502","instructions","6","45880","0.0-6.0","SS1617819543549","instructions","","","","","","","","","","","","","","",""
"[{""page_index"":0,""viewing_time"":5693.415000001551},{""page_index"":1,""viewing_time"":9422.440000009374},{""page_index"":2,""viewing_time"":5135.96499999403},{""page_index"":3,""viewing_time"":2378.4900000027847},{""page_index"":4,""viewing_time"":1200.2099999954225}]","23830.770000000484","instructions","7","69713","0.0-7.0","SS1617819543549","instructions","","","","","","","","","","","","","","",""
"","null","html-keyboard-response","8","70959","0.0-8.0-0.0","SS1617819543549","","","null","","","","","<p><img src= images/blank.png width =""600"" height = ""600"" style=""position:fixed;top:50%; left:50%; transform: translate(-50%, -50%); border:5px solid black"">","","","","","","","",""
"","2295.094999994035","sequential-stimulus-presentation","9","74259","0.0-8.0-1.0","SS1617819543549","trial","","40","1000","3295.094999994035","images/stimuli/spore_stims/simple_19_A_a.gif","images/stimuli/spore_stims/simple_07_A_b.gif","","0","simple_dissimilar","images/stimuli/spore_stims/simple_07_A_b.gif","","","","",""
"","null","html-keyboard-response","10","75418","0.0-8.0-0.1","SS1617819543549","","","null","","","","","<p><img src= images/blank.png width =""600"" height = ""600"" style=""position:fixed;top:50%; left:50%; transform: translate(-50%, -50%); border:5px solid black"">","","","","","","","",""
"","3709.2150000098627","sequential-stimulus-presentation","11","80131","0.0-8.0-1.1","SS1617819543549","trial","","40","1000","4709.215000009863","images/stimuli/spore_stims/simple_19_A_a.gif","images/stimuli/spore_stims/simple_07_A_b.gif","","0","simple_dissimilar","images/stimuli/spore_stims/simple_19_A_a.gif","","","","",""
"","null","html-keyboard-response","12","81421","0.0-8.0-0.2","SS1617819543549","","","null","","","","","<p><img src= images/blank.png width =""600"" height = ""600"" style=""position:fixed;top:50%; left:50%; transform: translate(-50%, -50%); border:5px solid black"">","","","","","","","",""
"","2264.2999999952735","sequential-stimulus-presentation","13","84689","0.0-8.0-1.2","SS1617819543549","trial","","40","1000","3264.2999999952735","images/stimuli/spore_stims/simple_19_A_a.gif","images/stimuli/spore_stims/simple_07_A_b.gif","","0","simple_dissimilar","images/stimuli/spore_stims/simple_07_A_b.gif","","","","",""
"","null","html-keyboard-response","14","85728","0.0-8.0-0.3","SS1617819543549","","","null","","","","","<p><img src= images/blank.png width =""600"" height = ""600"" style=""position:fixed;top:50%; left:50%; transform: translate(-50%, -50%); border:5px solid black"">","","","","","","","",""
"","1174.444999996922","sequential-stimulus-presentation","15","87906","0.0-8.0-1.3","SS1617819543549","trial","","40","1000","2174.444999996922","images/stimuli/spore_stims/simple_19_A_a.gif","images/stimuli/spore_stims/simple_07_A_b.gif","","0","simple_dissimilar","images/stimuli/spore_stims/simple_07_A_b.gif","","","","",""
"","null","html-keyboard-response","16","89114","0.0-8.0-0.4","SS1617819543549","","","null","","","","","<p><img src= images/blank.png width =""600"" height = ""600"" style=""position:fixed;top:50%; left:50%; transform: translate(-50%, -50%); border:5px solid black"">","","","","","","","",""
"","1462.6550000102725","sequential-stimulus-presentation","17","91579","0.0-8.0-1.4","SS1617819543549","trial","","40","1000","2462.6550000102725","images/stimuli/spore_stims/simple_19_A_a.gif","images/stimuli/spore_stims/simple_07_A_b.gif","","0","simple_dissimilar","images/stimuli/spore_stims/simple_07_A_b.gif","","","","",""
"","null","html-keyboard-response","18","92694","0.0-8.0-0.5","SS1617819543549","","","null","","","","","<p><img src= images/blank.png width =""600"" height = ""600"" style=""position:fixed;top:50%; left:50%; transform: translate(-50%, -50%); border:5px solid black"">","","","","","","","",""
"","4507.284999999683","sequential-stimulus-presentation","19","98206","0.0-8.0-1.5","SS1617819543549","trial","","40","1000","5507.284999999683","images/stimuli/spore_stims/simple_19_A_a.gif","images/stimuli/spore_stims/simple_07_A_b.gif","","0","simple_dissimilar","images/stimuli/spore_stims/simple_19_A_a.gif","","","","",""
"","3493.879999994533","survey-multi-choice","20","101703","0.0-9.0","SS1617819543549","math_question","","","","","","","","","","","{""Q0"":""9""}","[0]","9","",""
"","null","html-keyboard-response","21","102838","0.0-10.0-0.0","SS1617819543549","","","null","","","","","<p><img src= images/blank.png width =""600"" height = ""600"" style=""position:fixed;top:50%; left:50%; transform: translate(-50%, -50%); border:5px solid black"">","","","","","","","",""
"","6357.709999996587","sequential-stimulus-presentation","22","110199","0.0-10.0-1.0","SS1617819543549","trial","","40","1000","7357.709999996587","images/stimuli/spore_stims/complex_12_A_a.gif","images/stimuli/spore_stims/complex_10_A_b.gif","","1","complex_dissimilar","images/stimuli/spore_stims/complex_10_A_b.gif","","","","",""
"","null","html-keyboard-response","23","111066","0.0-10.0-0.1","SS1617819543549","","","null","","","","","<p><img src= images/blank.png width =""600"" height = ""600"" style=""position:fixed;top:50%; left:50%; transform: translate(-50%, -50%); border:5px solid black"">","","","","","","","",""
"","4594.430000011926","sequential-stimulus-presentation","24","116665","0.0-10.0-1.1","SS1617819543549","trial","","40","1000","5594.430000011926","images/stimuli/spore_stims/complex_12_A_a.gif","images/stimuli/spore_stims/complex_10_A_b.gif","","1","complex_dissimilar","images/stimuli/spore_stims/complex_10_A_b.gif","","","","",""
"","null","html-keyboard-response","25","117951","0.0-10.0-0.2","SS1617819543549","","","null","","","","","<p><img src= images/blank.png width =""600"" height = ""600"" style=""position:fixed;top:50%; left:50%; transform: translate(-50%, -50%); border:5px solid black"">","","","","","","","",""
"","3663.0050000094343","sequential-stimulus-presentation","26","122621","0.0-10.0-1.2","SS1617819543549","trial","","40","1000","4663.005000009434","images/stimuli/spore_stims/complex_12_A_a.gif","images/stimuli/spore_stims/complex_10_A_b.gif","","1","complex_dissimilar","images/stimuli/spore_stims/complex_10_A_b.gif","","","","",""
"","null","html-keyboard-response","27","123541","0.0-10.0-0.3","SS1617819543549","","","null","","","","","<p><img src= images/blank.png width =""600"" height = ""600"" style=""position:fixed;top:50%; left:50%; transform: translate(-50%, -50%); border:5px solid black"">","","","","","","","",""
"","2314.9450000055367","sequential-stimulus-presentation","28","126860","0.0-10.0-1.3","SS1617819543549","trial","","40","1000","3314.9450000055367","images/stimuli/spore_stims/complex_12_A_a.gif","images/stimuli/spore_stims/complex_10_A_b.gif","","1","complex_dissimilar","images/stimuli/spore_stims/complex_10_A_b.gif","","","","",""
"","4078.899999993155","survey-multi-choice","29","130941","0.0-11.0","SS1617819543549","math_question","","","","","","","","","","","{""Q0"":""11""}","[0]","11","",""
"","null","html-keyboard-response","30","131849","0.0-12.0-0.0","SS1617819543549","","","null","","","","","<p><img src= images/blank.png width =""600"" height = ""600"" style=""position:fixed;top:50%; left:50%; transform: translate(-50%, -50%); border:5px solid black"">","","","","","","","",""
"","5664.170000003651","sequential-stimulus-presentation","31","138518","0.0-12.0-1.0","SS1617819543549","trial","","40","1000","6664.170000003651","images/stimuli/spore_stims/simple_17_A_b.gif","images/stimuli/spore_stims/simple_04_A_a.gif","","2","simple_dissimilar","images/stimuli/spore_stims/simple_04_A_a.gif","","","","",""
"","null","html-keyboard-response","32","139766","0.0-12.0-0.1","SS1617819543549","","","null","","","","","<p><img src= images/blank.png width =""600"" height = ""600"" style=""position:fixed;top:50%; left:50%; transform: translate(-50%, -50%); border:5px solid black"">","","","","","","","",""
"","3478.799999997136","sequential-stimulus-presentation","33","144249","0.0-12.0-1.1","SS1617819543549","trial","","40","1000","4478.799999997136","images/stimuli/spore_stims/simple_17_A_b.gif","images/stimuli/spore_stims/simple_04_A_a.gif","","2","simple_dissimilar","images/stimuli/spore_stims/simple_04_A_a.gif","","","","",""
"","null","html-keyboard-response","34","145092","0.0-12.0-0.2","SS1617819543549","","","null","","","","","<p><img src= images/blank.png width =""600"" height = ""600"" style=""position:fixed;top:50%; left:50%; transform: translate(-50%, -50%); border:5px solid black"">","","","","","","","",""
"","1990.315000002738","sequential-stimulus-presentation","35","148087","0.0-12.0-1.2","SS1617819543549","trial","","40","1000","2990.315000002738","images/stimuli/spore_stims/simple_17_A_b.gif","images/stimuli/spore_stims/simple_04_A_a.gif","","2","simple_dissimilar","images/stimuli/spore_stims/simple_04_A_a.gif","","","","",""
"","null","html-keyboard-response","36","148953","0.0-12.0-0.3","SS1617819543549","","","null","","","","","<p><img src= images/blank.png width =""600"" height = ""600"" style=""position:fixed;top:50%; left:50%; transform: translate(-50%, -50%); border:5px solid black"">","","","","","","","",""
"","2140.1550000009593","sequential-stimulus-presentation","37","152098","0.0-12.0-1.3","SS1617819543549","trial","","40","1000","3140.1550000009593","images/stimuli/spore_stims/simple_17_A_b.gif","images/stimuli/spore_stims/simple_04_A_a.gif","","2","simple_dissimilar","images/stimuli/spore_stims/simple_04_A_a.gif","","","","",""
"","null","html-keyboard-response","38","153171","0.0-12.0-0.4","SS1617819543549","","","null","","","","","<p><img src= images/blank.png width =""600"" height = ""600"" style=""position:fixed;top:50%; left:50%; transform: translate(-50%, -50%); border:5px solid black"">","","","","","","","",""
"","2189.3700000073295","sequential-stimulus-presentation","39","156363","0.0-12.0-1.4","SS1617819543549","trial","","40","1000","3189.3700000073295","images/stimuli/spore_stims/simple_17_A_b.gif","images/stimuli/spore_stims/simple_04_A_a.gif","","2","simple_dissimilar","images/stimuli/spore_stims/simple_04_A_a.gif","","","","",""
"","5822.839999993448","survey-multi-choice","40","162188","0.0-13.0","SS1617819543549","math_question","","","","","","","","","","","{""Q0"":""14""}","[0]","14","",""
"","null","html-keyboard-response","41","163323","0.0-14.0-0.0","SS1617819543549","","","null","","","","","<p><img src= images/blank.png width =""600"" height = ""600"" style=""position:fixed;top:50%; left:50%; transform: translate(-50%, -50%); border:5px solid black"">","","","","","","","",""
"","2650.450000001001","sequential-stimulus-presentation","42","166978","0.0-14.0-1.0","SS1617819543549","trial","","40","1000","3650.450000001001","images/stimuli/spore_stims/simple_04_A_b.gif","images/stimuli/spore_stims/simple_02_A_a.gif","","3","simple_dissimilar","images/stimuli/spore_stims/simple_02_A_a.gif","","","","",""
"","null","html-keyboard-response","43","168199","0.0-14.0-0.1","SS1617819543549","","","null","","","","","<p><img src= images/blank.png width =""600"" height = ""600"" style=""position:fixed;top:50%; left:50%; transform: translate(-50%, -50%); border:5px solid black"">","","","","","","","",""
"","4058.245000007446","sequential-stimulus-presentation","44","173262","0.0-14.0-1.1","SS1617819543549","trial","","40","1000","5058.245000007446","images/stimuli/spore_stims/simple_04_A_b.gif","images/stimuli/spore_stims/simple_02_A_a.gif","","3","simple_dissimilar","images/stimuli/spore_stims/simple_04_A_b.gif","","","","",""
"","null","html-keyboard-response","45","174112","0.0-14.0-0.2","SS1617819543549","","","null","","","","","<p><img src= images/blank.png width =""600"" height = ""600"" style=""position:fixed;top:50%; left:50%; transform: translate(-50%, -50%); border:5px solid black"">","","","","","","","",""
"","2023.8249999965774","sequential-stimulus-presentation","46","177142","0.0-14.0-1.2","SS1617819543549","trial","","40","1000","3023.8249999965774","images/stimuli/spore_stims/simple_04_A_b.gif","images/stimuli/spore_stims/simple_02_A_a.gif","","3","simple_dissimilar","images/stimuli/spore_stims/simple_02_A_a.gif","","","","",""
"","null","html-keyboard-response","47","178185","0.0-14.0-0.3","SS1617819543549","","","null","","","","","<p><img src= images/blank.png width =""600"" height = ""600"" style=""position:fixed;top:50%; left:50%; transform: translate(-50%, -50%); border:5px solid black"">","","","","","","","",""
"","1730.8950000006007","sequential-stimulus-presentation","48","180920","0.0-14.0-1.3","SS1617819543549","trial","","40","1000","2730.8950000006007","images/stimuli/spore_stims/simple_04_A_b.gif","images/stimuli/spore_stims/simple_02_A_a.gif","","3","simple_dissimilar","images/stimuli/spore_stims/simple_02_A_a.gif","","","","",""
"","4485.4100000084145","survey-multi-choice","49","185409","0.0-15.0","SS1617819543549","math_question","","","","","","","","","","","{""Q0"":""11""}","[0]","11","",""
"","null","html-keyboard-response","50","186364","0.0-16.0-0.0","SS1617819543549","","","null","","","","","<p><img src= images/blank.png width =""600"" height = ""600"" style=""position:fixed;top:50%; left:50%; transform: translate(-50%, -50%); border:5px solid black"">","","","","","","","",""
"","6512.140000006184","sequential-stimulus-presentation","51","193881","0.0-16.0-1.0","SS1617819543549","trial","","40","1000","7512.140000006184","images/stimuli/spore_stims/complex_15_A_a.gif","images/stimuli/spore_stims/complex_14_A_b.gif","","4","complex_dissimilar","images/stimuli/spore_stims/complex_14_A_b.gif","","","","",""
"","null","html-keyboard-response","52","194807","0.0-16.0-0.1","SS1617819543549","","","null","","","","","<p><img src= images/blank.png width =""600"" height = ""600"" style=""position:fixed;top:50%; left:50%; transform: translate(-50%, -50%); border:5px solid black"">","","","","","","","",""
"","1652.8049999906216","sequential-stimulus-presentation","53","197466","0.0-16.0-1.1","SS1617819543549","trial","","40","1000","2652.8049999906216","images/stimuli/spore_stims/complex_15_A_a.gif","images/stimuli/spore_stims/complex_14_A_b.gif","","4","complex_dissimilar","images/stimuli/spore_stims/complex_14_A_b.gif","","","","",""
"","null","html-keyboard-response","54","198561","0.0-16.0-0.2","SS1617819543549","","","null","","","","","<p><img src= images/blank.png width =""600"" height = ""600"" style=""position:fixed;top:50%; left:50%; transform: translate(-50%, -50%); border:5px solid black"">","","","","","","","",""
"","6039.060000010068","sequential-stimulus-presentation","55","205605","0.0-16.0-1.2","SS1617819543549","trial","","40","1000","7039.060000010068","images/stimuli/spore_stims/complex_15_A_a.gif","images/stimuli/spore_stims/complex_14_A_b.gif","","4","complex_dissimilar","images/stimuli/spore_stims/complex_14_A_b.gif","","","","",""
"","null","html-keyboard-response","56","206577","0.0-16.0-0.3","SS1617819543549","","","null","","","","","<p><img src= images/blank.png width =""600"" height = ""600"" style=""position:fixed;top:50%; left:50%; transform: translate(-50%, -50%); border:5px solid black"">","","","","","","","",""
"","3382.324999998673","sequential-stimulus-presentation","57","210966","0.0-16.0-1.3","SS1617819543549","trial","","40","1000","4382.324999998673","images/stimuli/spore_stims/complex_15_A_a.gif","images/stimuli/spore_stims/complex_14_A_b.gif","","4","complex_dissimilar","images/stimuli/spore_stims/complex_14_A_b.gif","","","","",""
"","null","html-keyboard-response","58","212177","0.0-16.0-0.4","SS1617819543549","","","null","","","","","<p><img src= images/blank.png width =""600"" height = ""600"" style=""position:fixed;top:50%; left:50%; transform: translate(-50%, -50%); border:5px solid black"">","","","","","","","",""
"","7906.969999996363","sequential-stimulus-presentation","59","221089","0.0-16.0-1.4","SS1617819543549","trial","","40","1000","8906.969999996363","images/stimuli/spore_stims/complex_15_A_a.gif","images/stimuli/spore_stims/complex_14_A_b.gif","","4","complex_dissimilar","images/stimuli/spore_stims/complex_15_A_a.gif","","","","",""
"","3498.990000007325","survey-multi-choice","60","224591","0.0-17.0","SS1617819543549","math_question","","","","","","","","","","","{""Q0"":""11""}","[0]","11","",""
"","null","html-keyboard-response","61","225627","0.0-18.0-0.0","SS1617819543549","","","null","","","","","<p><img src= images/blank.png width =""600"" height = ""600"" style=""position:fixed;top:50%; left:50%; transform: translate(-50%, -50%); border:5px solid black"">","","","","","","","",""
"","6360.0250000017695","sequential-stimulus-presentation","62","232993","0.0-18.0-1.0","SS1617819543549","trial","","40","1000","7360.0250000017695","images/stimuli/spore_stims/complex_20_A_a.gif","images/stimuli/spore_stims/complex_15_A_b.gif","","5","complex_dissimilar","images/stimuli/spore_stims/complex_15_A_b.gif","","","","",""
"","null","html-keyboard-response","63","234158","0.0-18.0-0.1","SS1617819543549","","","null","","","","","<p><img src= images/blank.png width =""600"" height = ""600"" style=""position:fixed;top:50%; left:50%; transform: translate(-50%, -50%); border:5px solid black"">","","","","","","","",""
"","3398.8700000045355","sequential-stimulus-presentation","64","238563","0.0-18.0-1.1","SS1617819543549","trial","","40","1000","4398.8700000045355","images/stimuli/spore_stims/complex_20_A_a.gif","images/stimuli/spore_stims/complex_15_A_b.gif","","5","complex_dissimilar","images/stimuli/spore_stims/complex_15_A_b.gif","","","","",""
"","null","html-keyboard-response","65","239486","0.0-18.0-0.2","SS1617819543549","","","null","","","","","<p><img src= images/blank.png width =""600"" height = ""600"" style=""position:fixed;top:50%; left:50%; transform: translate(-50%, -50%); border:5px solid black"">","","","","","","","",""
"","5155.944999991334","sequential-stimulus-presentation","66","245648","0.0-18.0-1.2","SS1617819543549","trial","","40","1000","6155.944999991334","images/stimuli/spore_stims/complex_20_A_a.gif","images/stimuli/spore_stims/complex_15_A_b.gif","","5","complex_dissimilar","images/stimuli/spore_stims/complex_15_A_b.gif","","","","",""
"","null","html-keyboard-response","67","246931","0.0-18.0-0.3","SS1617819543549","","","null","","","","","<p><img src= images/blank.png width =""600"" height = ""600"" style=""position:fixed;top:50%; left:50%; transform: translate(-50%, -50%); border:5px solid black"">","","","","","","","",""
"","3908.9999999996508","sequential-stimulus-presentation","68","251846","0.0-18.0-1.3","SS1617819543549","trial","","40","1000","4908.999999999651","images/stimuli/spore_stims/complex_20_A_a.gif","images/stimuli/spore_stims/complex_15_A_b.gif","","5","complex_dissimilar","images/stimuli/spore_stims/complex_15_A_b.gif","","","","",""
"","null","html-keyboard-response","69","253024","0.0-18.0-0.4","SS1617819543549","","","null","","","","","<p><img src= images/blank.png width =""600"" height = ""600"" style=""position:fixed;top:50%; left:50%; transform: translate(-50%, -50%); border:5px solid black"">","","","","","","","",""
"","6643.630000005942","sequential-stimulus-presentation","70","260673","0.0-18.0-1.4","SS1617819543549","trial","","40","1000","7643.630000005942","images/stimuli/spore_stims/complex_20_A_a.gif","images/stimuli/spore_stims/complex_15_A_b.gif","","5","complex_dissimilar","images/stimuli/spore_stims/complex_20_A_a.gif","","","","",""
"","6282.0950000023","survey-multi-choice","71","266958","0.0-19.0","SS1617819543549","math_question","","","","","","","","","","","{""Q0"":""12""}","[0]","12","",""
"","null","html-keyboard-response","72","267834","0.0-20.0-0.0","SS1617819543549","","","null","","","","","<p><img src= images/blank.png width =""600"" height = ""600"" style=""position:fixed;top:50%; left:50%; transform: translate(-50%, -50%); border:5px solid black"">","","","","","","","",""
"","3002.6399999915157","sequential-stimulus-presentation","73","271844","0.0-20.0-1.0","SS1617819543549","trial","","40","1000","4002.6399999915157","images/stimuli/spore_stims/simple_10_A_a.gif","images/stimuli/spore_stims/simple_06_A_b.gif","","6","simple_dissimilar","images/stimuli/spore_stims/simple_06_A_b.gif","","","","",""
"","null","html-keyboard-response","74","272819","0.0-20.0-0.1","SS1617819543549","","","null","","","","","<p><img src= images/blank.png width =""600"" height = ""600"" style=""position:fixed;top:50%; left:50%; transform: translate(-50%, -50%); border:5px solid black"">","","","","","","","",""
"","2278.569999994943","sequential-stimulus-presentation","75","276103","0.0-20.0-1.1","SS1617819543549","trial","","40","1000","3278.569999994943","images/stimuli/spore_stims/simple_10_A_a.gif","images/stimuli/spore_stims/simple_06_A_b.gif","","6","simple_dissimilar","images/stimuli/spore_stims/simple_06_A_b.gif","","","","",""
"","null","html-keyboard-response","76","277101","0.0-20.0-0.2","SS1617819543549","","","null","","","","","<p><img src= images/blank.png width =""600"" height = ""600"" style=""position:fixed;top:50%; left:50%; transform: translate(-50%, -50%); border:5px solid black"">","","","","","","","",""
"","2041.3450000050943","sequential-stimulus-presentation","77","280147","0.0-20.0-1.2","SS1617819543549","trial","","40","1000","3041.3450000050943","images/stimuli/spore_stims/simple_10_A_a.gif","images/stimuli/spore_stims/simple_06_A_b.gif","","6","simple_dissimilar","images/stimuli/spore_stims/simple_06_A_b.gif","","","","",""
"","null","html-keyboard-response","78","281134","0.0-20.0-0.3","SS1617819543549","","","null","","","","","<p><img src= images/blank.png width =""600"" height = ""600"" style=""position:fixed;top:50%; left:50%; transform: translate(-50%, -50%); border:5px solid black"">","","","","","","","",""
"","1041.960000002291","sequential-stimulus-presentation","79","283181","0.0-20.0-1.3","SS1617819543549","trial","","40","1000","2041.960000002291","images/stimuli/spore_stims/simple_10_A_a.gif","images/stimuli/spore_stims/simple_06_A_b.gif","","6","simple_dissimilar","images/stimuli/spore_stims/simple_06_A_b.gif","","","","",""
"","4591.944999992847","survey-multi-choice","80","287776","0.0-21.0","SS1617819543549","math_question","","","","","","","","","","","{""Q0"":""13""}","[0]","13","",""
"","null","html-keyboard-response","81","288736","0.0-22.0-0.0","SS1617819543549","","","null","","","","","<p><img src= images/blank.png width =""600"" height = ""600"" style=""position:fixed;top:50%; left:50%; transform: translate(-50%, -50%); border:5px solid black"">","","","","","","","",""
"","8999.244999999064","sequential-stimulus-presentation","82","298739","0.0-22.0-1.0","SS1617819543549","trial","","40","1000","9999.244999999064","images/stimuli/spore_stims/complex_11_A_b.gif","images/stimuli/spore_stims/complex_19_A_a.gif","","7","complex_dissimilar","images/stimuli/spore_stims/complex_19_A_a.gif","","","","",""
"","null","html-keyboard-response","83","299883","0.0-22.0-0.1","SS1617819543549","","","null","","","","","<p><img src= images/blank.png width =""600"" height = ""600"" style=""position:fixed;top:50%; left:50%; transform: translate(-50%, -50%); border:5px solid black"">","","","","","","","",""
"","2022.0900000131223","sequential-stimulus-presentation","84","302911","0.0-22.0-1.1","SS1617819543549","trial","","40","1000","3022.0900000131223","images/stimuli/spore_stims/complex_11_A_b.gif","images/stimuli/spore_stims/complex_19_A_a.gif","","7","complex_dissimilar","images/stimuli/spore_stims/complex_19_A_a.gif","","","","",""
"","null","html-keyboard-response","85","303891","0.0-22.0-0.2","SS1617819543549","","","null","","","","","<p><img src= images/blank.png width =""600"" height = ""600"" style=""position:fixed;top:50%; left:50%; transform: translate(-50%, -50%); border:5px solid black"">","","","","","","","",""
"","739.0149999991991","sequential-stimulus-presentation","86","305635","0.0-22.0-1.2","SS1617819543549","trial","","40","1000","1739.014999999199","images/stimuli/spore_stims/complex_11_A_b.gif","images/stimuli/spore_stims/complex_19_A_a.gif","","7","complex_dissimilar","images/stimuli/spore_stims/complex_19_A_a.gif","","","","",""
"","null","html-keyboard-response","87","306594","0.0-22.0-0.3","SS1617819543549","","","null","","","","","<p><img src= images/blank.png width =""600"" height = ""600"" style=""position:fixed;top:50%; left:50%; transform: translate(-50%, -50%); border:5px solid black"">","","","","","","","",""
"","498.7649999966379","sequential-stimulus-presentation","88","308098","0.0-22.0-1.3","SS1617819543549","trial","","40","1000","1498.764999996638","images/stimuli/spore_stims/complex_11_A_b.gif","images/stimuli/spore_stims/complex_19_A_a.gif","","7","complex_dissimilar","images/stimuli/spore_stims/complex_19_A_a.gif","","","","",""
"","null","html-keyboard-response","89","309148","0.0-22.0-0.4","SS1617819543549","","","null","","","","","<p><img src= images/blank.png width =""600"" height = ""600"" style=""position:fixed;top:50%; left:50%; transform: translate(-50%, -50%); border:5px solid black"">","","","","","","","",""
"","7658.544999998412","sequential-stimulus-presentation","90","317812","0.0-22.0-1.4","SS1617819543549","trial","","40","1000","8658.544999998412","images/stimuli/spore_stims/complex_11_A_b.gif","images/stimuli/spore_stims/complex_19_A_a.gif","","7","complex_dissimilar","images/stimuli/spore_stims/complex_19_A_a.gif","","","","",""
"","null","html-keyboard-response","91","318843","0.0-22.0-0.5","SS1617819543549","","","null","","","","","<p><img src= images/blank.png width =""600"" height = ""600"" style=""position:fixed;top:50%; left:50%; transform: translate(-50%, -50%); border:5px solid black"">","","","","","","","",""
"","4803.505000003497","sequential-stimulus-presentation","92","324652","0.0-22.0-1.5","SS1617819543549","trial","","40","1000","5803.505000003497","images/stimuli/spore_stims/complex_11_A_b.gif","images/stimuli/spore_stims/complex_19_A_a.gif","","7","complex_dissimilar","images/stimuli/spore_stims/complex_11_A_b.gif","","","","",""
"","3338.449999995646","survey-multi-choice","93","327994","0.0-23.0","SS1617819543549","math_question","","","","","","","","","","","{""Q0"":""8""}","[0]","8","",""
"","null","html-keyboard-response","94","328939","0.0-24.0-0.0","SS1617819543549","","","null","","","","","<p><img src= images/blank.png width =""600"" height = ""600"" style=""position:fixed;top:50%; left:50%; transform: translate(-50%, -50%); border:5px solid black"">","","","","","","","",""
"","3770.4000000085216","sequential-stimulus-presentation","95","333716","0.0-24.0-1.0","SS1617819543549","trial","","40","1000","4770.400000008522","images/stimuli/spore_stims/complex_18_A_a.gif","images/stimuli/spore_stims/complex_19_A_b.gif","","8","complex_dissimilar","images/stimuli/spore_stims/complex_19_A_b.gif","","","","",""
"","null","html-keyboard-response","96","334888","0.0-24.0-0.1","SS1617819543549","","","null","","","","","<p><img src= images/blank.png width =""600"" height = ""600"" style=""position:fixed;top:50%; left:50%; transform: translate(-50%, -50%); border:5px solid black"">","","","","","","","",""
"","3186.8049999902723","sequential-stimulus-presentation","97","339083","0.0-24.0-1.1","SS1617819543549","trial","","40","1000","4186.804999990272","images/stimuli/spore_stims/complex_18_A_a.gif","images/stimuli/spore_stims/complex_19_A_b.gif","","8","complex_dissimilar","images/stimuli/spore_stims/complex_19_A_b.gif","","","","",""
"","null","html-keyboard-response","98","340358","0.0-24.0-0.2","SS1617819543549","","","null","","","","","<p><img src= images/blank.png width =""600"" height = ""600"" style=""position:fixed;top:50%; left:50%; transform: translate(-50%, -50%); border:5px solid black"">","","","","","","","",""
"","4995.060000001104","sequential-stimulus-presentation","99","346358","0.0-24.0-1.2","SS1617819543549","trial","","40","1000","5995.060000001104","images/stimuli/spore_stims/complex_18_A_a.gif","images/stimuli/spore_stims/complex_19_A_b.gif","","8","complex_dissimilar","images/stimuli/spore_stims/complex_19_A_b.gif","","","","",""
"","null","html-keyboard-response","100","347567","0.0-24.0-0.3","SS1617819543549","","","null","","","","","<p><img src= images/blank.png width =""600"" height = ""600"" style=""position:fixed;top:50%; left:50%; transform: translate(-50%, -50%); border:5px solid black"">","","","","","","","",""
"","312.515000012354","sequential-stimulus-presentation","101","348885","0.0-24.0-1.3","SS1617819543549","trial","","40","1000","1312.515000012354","images/stimuli/spore_stims/complex_18_A_a.gif","images/stimuli/spore_stims/complex_19_A_b.gif","","8","complex_dissimilar","images/stimuli/spore_stims/complex_19_A_b.gif","","","","",""
"","null","html-keyboard-response","102","349725","0.0-24.0-0.4","SS1617819543549","","","null","","","","","<p><img src= images/blank.png width =""600"" height = ""600"" style=""position:fixed;top:50%; left:50%; transform: translate(-50%, -50%); border:5px solid black"">","","","","","","","",""
"","10996.415000001434","sequential-stimulus-presentation","103","361728","0.0-24.0-1.4","SS1617819543549","trial","","40","1000","11996.415000001434","images/stimuli/spore_stims/complex_18_A_a.gif","images/stimuli/spore_stims/complex_19_A_b.gif","","8","complex_dissimilar","images/stimuli/spore_stims/complex_18_A_a.gif","","","","",""
"","4627.999999996973","survey-multi-choice","104","366358","0.0-25.0","SS1617819543549","math_question","","","","","","","","","","","{""Q0"":""8""}","[0]","8","",""
"","null","html-keyboard-response","105","367650","0.0-26.0-0.0","SS1617819543549","","","null","","","","","<p><img src= images/blank.png width =""600"" height = ""600"" style=""position:fixed;top:50%; left:50%; transform: translate(-50%, -50%); border:5px solid black"">","","","","","","","",""
"","4194.900000002235","sequential-stimulus-presentation","106","372852","0.0-26.0-1.0","SS1617819543549","trial","","40","1000","5194.900000002235","images/stimuli/spore_stims/simple_13_A_a.gif","images/stimuli/spore_stims/simple_19_A_b.gif","","9","simple_dissimilar","images/stimuli/spore_stims/simple_19_A_b.gif","","","","",""
"","null","html-keyboard-response","107","374040","0.0-26.0-0.1","SS1617819543549","","","null","","","","","<p><img src= images/blank.png width =""600"" height = ""600"" style=""position:fixed;top:50%; left:50%; transform: translate(-50%, -50%); border:5px solid black"">","","","","","","","",""
"","1128.6700000055134","sequential-stimulus-presentation","108","376175","0.0-26.0-1.1","SS1617819543549","trial","","40","1000","2128.6700000055134","images/stimuli/spore_stims/simple_13_A_a.gif","images/stimuli/spore_stims/simple_19_A_b.gif","","9","simple_dissimilar","images/stimuli/spore_stims/simple_19_A_b.gif","","","","",""
"","null","html-keyboard-response","109","377094","0.0-26.0-0.2","SS1617819543549","","","null","","","","","<p><img src= images/blank.png width =""600"" height = ""600"" style=""position:fixed;top:50%; left:50%; transform: translate(-50%, -50%); border:5px solid black"">","","","","","","","",""
"","3244.055000002845","sequential-stimulus-presentation","110","381346","0.0-26.0-1.2","SS1617819543549","trial","","40","1000","4244.055000002845","images/stimuli/spore_stims/simple_13_A_a.gif","images/stimuli/spore_stims/simple_19_A_b.gif","","9","simple_dissimilar","images/stimuli/spore_stims/simple_13_A_a.gif","","","","",""
"","null","html-keyboard-response","111","382157","0.0-26.0-0.3","SS1617819543549","","","null","","","","","<p><img src= images/blank.png width =""600"" height = ""600"" style=""position:fixed;top:50%; left:50%; transform: translate(-50%, -50%); border:5px solid black"">","","","","","","","",""
"","4576.604999994743","sequential-stimulus-presentation","112","387741","0.0-26.0-1.3","SS1617819543549","trial","","40","1000","5576.604999994743","images/stimuli/spore_stims/simple_13_A_a.gif","images/stimuli/spore_stims/simple_19_A_b.gif","","9","simple_dissimilar","images/stimuli/spore_stims/simple_19_A_b.gif","","","","",""
"","4955.455000002985","survey-multi-choice","113","392701","0.0-27.0","SS1617819543549","math_question","","","","","","","","","","","{""Q0"":""7""}","[0]","7","",""
"","null","html-keyboard-response","114","393772","0.0-28.0-0.0","SS1617819543549","","","null","","","","","<p><img src= images/blank.png width =""600"" height = ""600"" style=""position:fixed;top:50%; left:50%; transform: translate(-50%, -50%); border:5px solid black"">","","","","","","","",""
"","4570.814999999129","sequential-stimulus-presentation","115","399348","0.0-28.0-1.0","SS1617819543549","trial","","40","1000","5570.814999999129","images/stimuli/spore_stims/complex_11_A_a.gif","images/stimuli/spore_stims/complex_18_A_b.gif","","10","complex_dissimilar","images/stimuli/spore_stims/complex_18_A_b.gif","","","","",""
"","null","html-keyboard-response","116","400408","0.0-28.0-0.1","SS1617819543549","","","null","","","","","<p><img src= images/blank.png width =""600"" height = ""600"" style=""position:fixed;top:50%; left:50%; transform: translate(-50%, -50%); border:5px solid black"">","","","","","","","",""
"","2961.8550000013784","sequential-stimulus-presentation","117","404376","0.0-28.0-1.1","SS1617819543549","trial","","40","1000","3961.8550000013784","images/stimuli/spore_stims/complex_11_A_a.gif","images/stimuli/spore_stims/complex_18_A_b.gif","","10","complex_dissimilar","images/stimuli/spore_stims/complex_18_A_b.gif","","","","",""
"","null","html-keyboard-response","118","405309","0.0-28.0-0.2","SS1617819543549","","","null","","","","","<p><img src= images/blank.png width =""600"" height = ""600"" style=""position:fixed;top:50%; left:50%; transform: translate(-50%, -50%); border:5px solid black"">","","","","","","","",""
"","3219.0649999974994","sequential-stimulus-presentation","119","409537","0.0-28.0-1.2","SS1617819543549","trial","","40","1000","4219.064999997499","images/stimuli/spore_stims/complex_11_A_a.gif","images/stimuli/spore_stims/complex_18_A_b.gif","","10","complex_dissimilar","images/stimuli/spore_stims/complex_18_A_b.gif","","","","",""
"","null","html-keyboard-response","120","410342","0.0-28.0-0.3","SS1617819543549","","","null","","","","","<p><img src= images/blank.png width =""600"" height = ""600"" style=""position:fixed;top:50%; left:50%; transform: translate(-50%, -50%); border:5px solid black"">","","","","","","","",""
"","5483.55000000447","sequential-stimulus-presentation","121","416832","0.0-28.0-1.3","SS1617819543549","trial","","40","1000","6483.55000000447","images/stimuli/spore_stims/complex_11_A_a.gif","images/stimuli/spore_stims/complex_18_A_b.gif","","10","complex_dissimilar","images/stimuli/spore_stims/complex_11_A_a.gif","","","","",""
"","null","html-keyboard-response","122","417809","0.0-28.0-0.4","SS1617819543549","","","null","","","","","<p><img src= images/blank.png width =""600"" height = ""600"" style=""position:fixed;top:50%; left:50%; transform: translate(-50%, -50%); border:5px solid black"">","","","","","","","",""
"","828.5849999956554","sequential-stimulus-presentation","123","419645","0.0-28.0-1.4","SS1617819543549","trial","","40","1000","1828.5849999956554","images/stimuli/spore_stims/complex_11_A_a.gif","images/stimuli/spore_stims/complex_18_A_b.gif","","10","complex_dissimilar","images/stimuli/spore_stims/complex_11_A_a.gif","","","","",""
"","4926.81000000448","survey-multi-choice","124","424576","0.0-29.0","SS1617819543549","math_question","","","","","","","","","","","{""Q0"":""13""}","[0]","13","",""
"","null","html-keyboard-response","125","425734","0.0-30.0-0.0","SS1617819543549","","","null","","","","","<p><img src= images/blank.png width =""600"" height = ""600"" style=""position:fixed;top:50%; left:50%; transform: translate(-50%, -50%); border:5px solid black"">","","","","","","","",""
"","2364.8299999913434","sequential-stimulus-presentation","126","429107","0.0-30.0-1.0","SS1617819543549","trial","","40","1000","3364.8299999913434","images/stimuli/spore_stims/simple_15_A_b.gif","images/stimuli/spore_stims/simple_14_A_a.gif","","11","simple_dissimilar","images/stimuli/spore_stims/simple_14_A_a.gif","","","","",""
"","null","html-keyboard-response","127","430280","0.0-30.0-0.1","SS1617819543549","","","null","","","","","<p><img src= images/blank.png width =""600"" height = ""600"" style=""position:fixed;top:50%; left:50%; transform: translate(-50%, -50%); border:5px solid black"">","","","","","","","",""
"","2581.4550000068266","sequential-stimulus-presentation","128","433868","0.0-30.0-1.1","SS1617819543549","trial","","40","1000","3581.4550000068266","images/stimuli/spore_stims/simple_15_A_b.gif","images/stimuli/spore_stims/simple_14_A_a.gif","","11","simple_dissimilar","images/stimuli/spore_stims/simple_14_A_a.gif","","","","",""
"","null","html-keyboard-response","129","434770","0.0-30.0-0.2","SS1617819543549","","","null","","","","","<p><img src= images/blank.png width =""600"" height = ""600"" style=""position:fixed;top:50%; left:50%; transform: translate(-50%, -50%); border:5px solid black"">","","","","","","","",""
"","1101.3200000015786","sequential-stimulus-presentation","130","436878","0.0-30.0-1.2","SS1617819543549","trial","","40","1000","2101.3200000015786","images/stimuli/spore_stims/simple_15_A_b.gif","images/stimuli/spore_stims/simple_14_A_a.gif","","11","simple_dissimilar","images/stimuli/spore_stims/simple_14_A_a.gif","","","","",""
"","null","html-keyboard-response","131","437874","0.0-30.0-0.3","SS1617819543549","","","null","","","","","<p><img src= images/blank.png width =""600"" height = ""600"" style=""position:fixed;top:50%; left:50%; transform: translate(-50%, -50%); border:5px solid black"">","","","","","","","",""
"","219.32000000379048","sequential-stimulus-presentation","132","439099","0.0-30.0-1.3","SS1617819543549","trial","","40","1000","1219.3200000037905","images/stimuli/spore_stims/simple_15_A_b.gif","images/stimuli/spore_stims/simple_14_A_a.gif","","11","simple_dissimilar","images/stimuli/spore_stims/simple_14_A_a.gif","","","","",""
"","null","html-keyboard-response","133","440230","0.0-30.0-0.4","SS1617819543549","","","null","","","","","<p><img src= images/blank.png width =""600"" height = ""600"" style=""position:fixed;top:50%; left:50%; transform: translate(-50%, -50%); border:5px solid black"">","","","","","","","",""
"","2534.3100000027334","sequential-stimulus-presentation","134","443771","0.0-30.0-1.4","SS1617819543549","trial","","40","1000","3534.3100000027334","images/stimuli/spore_stims/simple_15_A_b.gif","images/stimuli/spore_stims/simple_14_A_a.gif","","11","simple_dissimilar","images/stimuli/spore_stims/simple_14_A_a.gif","","","","",""
"","null","html-keyboard-response","135","444793","0.0-30.0-0.5","SS1617819543549","","","null","","","","","<p><img src= images/blank.png width =""600"" height = ""600"" style=""position:fixed;top:50%; left:50%; transform: translate(-50%, -50%); border:5px solid black"">","","","","","","","",""
"","1236.495000004652","sequential-stimulus-presentation","136","447036","0.0-30.0-1.5","SS1617819543549","trial","","40","1000","2236.495000004652","images/stimuli/spore_stims/simple_15_A_b.gif","images/stimuli/spore_stims/simple_14_A_a.gif","","11","simple_dissimilar","images/stimuli/spore_stims/simple_14_A_a.gif","","","","",""
"[{""page_index"":0,""viewing_time"":6785.6899999897}]","6786.135000002105","instructions","137","453826","0.0-31.0","SS1617819543549","instructions","","","","","","","","","","","","","","",""
"","13574.355000004289","survey-likert","138","467405","0.0-32.0","SS1617819543549","similarity_question","","","","","","","","","","","{""Q0"":3}","[0]","","images/stimuli/spore_stims/simple_10_A_a.gif","images/stimuli/spore_stims/simple_06_A_b.gif"
"","4943.9950000087265","survey-likert","139","472354","0.0-33.0","SS1617819543549","similarity_question","","","","","","","","","","","{""Q0"":3}","[0]","","images/stimuli/spore_stims/simple_14_A_a.gif","images/stimuli/spore_stims/simple_15_A_b.gif"
"","7157.70500000508","survey-likert","140","479517","0.0-34.0","SS1617819543549","similarity_question","","","","","","","","","","","{""Q0"":2}","[0]","","images/stimuli/spore_stims/simple_17_A_b.gif","images/stimuli/spore_stims/simple_04_A_a.gif"
"","4204.484999994747","survey-likert","141","483726","0.0-35.0","SS1617819543549","similarity_question","","","","","","","","","","","{""Q0"":2}","[0]","","images/stimuli/spore_stims/simple_13_A_a.gif","images/stimuli/spore_stims/simple_19_A_b.gif"
"","12785.659999994095","survey-likert","142","496516","0.0-36.0","SS1617819543549","similarity_question","","","","","","","","","","","{""Q0"":1}","[0]","","images/stimuli/spore_stims/complex_15_A_a.gif","images/stimuli/spore_stims/complex_14_A_b.gif"
"","5855.960000000778","survey-likert","143","502377","0.0-37.0","SS1617819543549","similarity_question","","","","","","","","","","","{""Q0"":1}","[0]","","images/stimuli/spore_stims/complex_19_A_a.gif","images/stimuli/spore_stims/complex_11_A_b.gif"
"","11086.564999990514","survey-likert","144","513468","0.0-38.0","SS1617819543549","similarity_question","","","","","","","","","","","{""Q0"":4}","[0]","","images/stimuli/spore_stims/complex_19_A_b.gif","images/stimuli/spore_stims/complex_18_A_a.gif"
"","5669.255000000703","survey-likert","145","519142","0.0-39.0","SS1617819543549","similarity_question","","","","","","","","","","","{""Q0"":2}","[0]","","images/stimuli/spore_stims/complex_11_A_a.gif","images/stimuli/spore_stims/complex_18_A_b.gif"
"","3159.685000005993","survey-likert","146","522307","0.0-40.0","SS1617819543549","similarity_question","","","","","","","","","","","{""Q0"":2}","[0]","","images/stimuli/spore_stims/complex_12_A_a.gif","images/stimuli/spore_stims/complex_10_A_b.gif"
"","5993.029999997816","survey-likert","147","528307","0.0-41.0","SS1617819543549","similarity_question","","","","","","","","","","","{""Q0"":2}","[0]","","images/stimuli/spore_stims/simple_07_A_b.gif","images/stimuli/spore_stims/simple_19_A_a.gif"
"","8598.945000005187","survey-likert","148","536911","0.0-42.0","SS1617819543549","similarity_question","","","","","","","","","","","{""Q0"":4}","[0]","","images/stimuli/spore_stims/complex_20_A_a.gif","images/stimuli/spore_stims/complex_15_A_b.gif"
"","7329.724999988684","survey-likert","149","544245","0.0-43.0","SS1617819543549","similarity_question","","","","","","","","","","","{""Q0"":4}","[0]","","images/stimuli/spore_stims/simple_02_A_a.gif","images/stimuli/spore_stims/simple_04_A_b.gif"
"[{""page_index"":0,""viewing_time"":4194.870000006631}]","4195.154999993974","instructions","150","548444","0.0-44.0","SS1617819543549","instructions","","","","","","","","","","","","","","",""
"","7744.049999993877","survey-likert","151","556192","0.0-45.0","SS1617819543549","","","","","","","","images/stimuli/spore_stims/simple_06_A_b.gif","","","","{""Q0"":1}","[0]","","",""
"","2457.3249999957625","survey-likert","152","558655","0.0-46.0","SS1617819543549","","","","","","","","images/stimuli/spore_stims/simple_19_A_a.gif","","","","{""Q0"":2}","[0]","","",""
"","7624.710000003688","survey-likert","153","566284","0.0-47.0","SS1617819543549","","","","","","","","images/stimuli/spore_stims/complex_18_A_b.gif","","","","{""Q0"":5}","[0]","","",""
"","4047.225000002072","survey-likert","154","570337","0.0-48.0","SS1617819543549","","","","","","","","images/stimuli/spore_stims/complex_20_A_a.gif","","","","{""Q0"":5}","[0]","","",""
"","3945.640000005369","survey-likert","155","574288","0.0-49.0","SS1617819543549","","","","","","","","images/stimuli/spore_stims/complex_10_A_b.gif","","","","{""Q0"":5}","[0]","","",""
"","3961.9000000093365","survey-likert","156","578254","0.0-50.0","SS1617819543549","","","","","","","","images/stimuli/spore_stims/complex_19_A_b.gif","","","","{""Q0"":6}","[0]","","",""
"","5225.135000000591","survey-likert","157","583483","0.0-51.0","SS1617819543549","","","","","","","","images/stimuli/spore_stims/complex_15_A_a.gif","","","","{""Q0"":5}","[0]","","",""
"","2995.409999988624","survey-likert","158","586483","0.0-52.0","SS1617819543549","","","","","","","","images/stimuli/spore_stims/simple_13_A_a.gif","","","","{""Q0"":2}","[0]","","",""
"","2076.310000004014","survey-likert","159","588564","0.0-53.0","SS1617819543549","","","","","","","","images/stimuli/spore_stims/simple_15_A_b.gif","","","","{""Q0"":2}","[0]","","",""
"","7008.914999998524","survey-likert","160","595578","0.0-54.0","SS1617819543549","","","","","","","","images/stimuli/spore_stims/complex_11_A_b.gif","","","","{""Q0"":4}","[0]","","",""
"","3058.165000009467","survey-likert","161","598641","0.0-55.0","SS1617819543549","","","","","","","","images/stimuli/spore_stims/simple_04_A_b.gif","","","","{""Q0"":2}","[0]","","",""
"","2479.8749999899883","survey-likert","162","601126","0.0-56.0","SS1617819543549","","","","","","","","images/stimuli/spore_stims/simple_04_A_a.gif","","","","{""Q0"":2}","[0]","","",""
"[{""page_index"":0,""viewing_time"":2793.695000000298}]","2794.110000002547","instructions","163","603923","0.0-57.0","SS1617819543549","instructions","","","","","","","","","","","","","","",""
"","4304.055000000517","demog-age","164","608233","0.0-58.0","SS1617819543549","","","","","","","","","","","","{""age"":""56""}","","","",""
"","4255.829999994603","demog-ethnic-US","165","612496","0.0-59.0","SS1617819543549","","","","","","","","","","","","{""ethnicity"":[""White""]}","[0]","","",""
"","14264.020000002347","demog-gender-and-education","166","626765","0.0-60.0","SS1617819543549","","","","","","","","","","","","{""gender"":""Female"",""education"":""Doctorate/Professional degree""}","[0,1]","","",""
"","9467.485000001034","survey-text","167","636241","0.0-61.0","SS1617819543549","feedback","","","","","","","","","","","{""Q0"":""None""}","","","",""
"[{""page_index"":0,""viewing_time"":2161.3849999994272}]","2161.6499999945518","instructions","168","638406","0.0-62.0","SS1617819543549","instructions","","","","","","","","","","","","","","",""
