"view_history","rt","trial_type","trial_index","time_elapsed","internal_node_id","subject","stimulus_type","trial_stimulus","key_press","minimum_viewing_duration","trial_looking_time","block_deviant","block_background","stimulus","block_number","block_type","stimulus_displayed","responses","question_order","math_correct_answer","stimulus_left","stimulus_right"
"[{""page_index"":0,""viewing_time"":12649.42499999961}]","12649.900000000343","instructions","0","12651","0.0-0.0","SS1617819409100","","","","","","","","","","","","","","","",""
"[{""page_index"":0,""viewing_time"":2647.4699999998847},{""page_index"":1,""viewing_time"":16417.309999998906}]","19064.954999999827","instructions","1","33717","0.0-1.0","SS1617819409100","instructions","","","","","","","","","","","","","","",""
"","5223.524999999427","sequential-stimulus-presentation-old","2","39543","0.0-2.0","SS1617819409100","","","40","600","5823.524999999427","null","null","","","","","","","","",""
"","6773.534999998446","sequential-stimulus-presentation-old","3","46818","0.0-3.0","SS1617819409100","","","40","500","7273.534999998446","null","null","","","","","","","","",""
"[{""page_index"":0,""viewing_time"":409621.11000000004}]","409621.35499999934","instructions","4","456441","0.0-4.0","SS1617819409100","instructions","","","","","","","","","","","","","","",""
"","2405.6700000001583","sequential-stimulus-presentation","5","459848","0.0-5.0","SS1617819409100","","","40","1000","3405.6700000001583","null","null","","","","","","","","",""
"[{""page_index"":0,""viewing_time"":4970.174999998533}]","4970.339999999851","instructions","6","464820","0.0-6.0","SS1617819409100","instructions","","","","","","","","","","","","","","",""
"[{""page_index"":0,""viewing_time"":4583.055000000983},{""page_index"":1,""viewing_time"":3807.3850000000675},{""page_index"":2,""viewing_time"":5152.990000000515},{""page_index"":3,""viewing_time"":1196.8349999987986},{""page_index"":4,""viewing_time"":1010.1549999999115}]","15750.660000001546","instructions","7","480571","0.0-7.0","SS1617819409100","instructions","","","","","","","","","","","","","","",""
"","null","html-keyboard-response","8","481459","0.0-8.0-0.0","SS1617819409100","","","null","","","","","<p><img src= images/blank.png width =""600"" height = ""600"" style=""position:fixed;top:50%; left:50%; transform: translate(-50%, -50%); border:5px solid black"">","","","","","","","",""
"","835.0949999985751","sequential-stimulus-presentation","9","483296","0.0-8.0-1.0","SS1617819409100","trial","","40","1000","1835.094999998575","images/stimuli/spore_stims/complex_18_A_a.gif","images/stimuli/spore_stims/complex_09_A_b.gif","","0","complex_dissimilar","images/stimuli/spore_stims/complex_09_A_b.gif","","","","",""
"","null","html-keyboard-response","10","484282","0.0-8.0-0.1","SS1617819409100","","","null","","","","","<p><img src= images/blank.png width =""600"" height = ""600"" style=""position:fixed;top:50%; left:50%; transform: translate(-50%, -50%); border:5px solid black"">","","","","","","","",""
"","609.440000000177","sequential-stimulus-presentation","11","485893","0.0-8.0-1.1","SS1617819409100","trial","","40","1000","1609.440000000177","images/stimuli/spore_stims/complex_18_A_a.gif","images/stimuli/spore_stims/complex_09_A_b.gif","","0","complex_dissimilar","images/stimuli/spore_stims/complex_09_A_b.gif","","","","",""
"","null","html-keyboard-response","12","487019","0.0-8.0-0.2","SS1617819409100","","","null","","","","","<p><img src= images/blank.png width =""600"" height = ""600"" style=""position:fixed;top:50%; left:50%; transform: translate(-50%, -50%); border:5px solid black"">","","","","","","","",""
"","518.420000000333","sequential-stimulus-presentation","13","488540","0.0-8.0-1.2","SS1617819409100","trial","","40","1000","1518.420000000333","images/stimuli/spore_stims/complex_18_A_a.gif","images/stimuli/spore_stims/complex_09_A_b.gif","","0","complex_dissimilar","images/stimuli/spore_stims/complex_09_A_b.gif","","","","",""
"","null","html-keyboard-response","14","489517","0.0-8.0-0.3","SS1617819409100","","","null","","","","","<p><img src= images/blank.png width =""600"" height = ""600"" style=""position:fixed;top:50%; left:50%; transform: translate(-50%, -50%); border:5px solid black"">","","","","","","","",""
"","434.9249999995809","sequential-stimulus-presentation","15","490954","0.0-8.0-1.3","SS1617819409100","trial","","40","1000","1434.924999999581","images/stimuli/spore_stims/complex_18_A_a.gif","images/stimuli/spore_stims/complex_09_A_b.gif","","0","complex_dissimilar","images/stimuli/spore_stims/complex_09_A_b.gif","","","","",""
"","null","html-keyboard-response","16","491896","0.0-8.0-0.4","SS1617819409100","","","null","","","","","<p><img src= images/blank.png width =""600"" height = ""600"" style=""position:fixed;top:50%; left:50%; transform: translate(-50%, -50%); border:5px solid black"">","","","","","","","",""
"","1272.580000000773","sequential-stimulus-presentation","17","494171","0.0-8.0-1.4","SS1617819409100","trial","","40","1000","2272.580000000773","images/stimuli/spore_stims/complex_18_A_a.gif","images/stimuli/spore_stims/complex_09_A_b.gif","","0","complex_dissimilar","images/stimuli/spore_stims/complex_18_A_a.gif","","","","",""
"","4735.914999999281","survey-multi-choice","18","498909","0.0-9.0","SS1617819409100","math_question","","","","","","","","","","","{""Q0"":""12""}","[0]","12","",""
"","null","html-keyboard-response","19","500107","0.0-10.0-0.0","SS1617819409100","","","null","","","","","<p><img src= images/blank.png width =""600"" height = ""600"" style=""position:fixed;top:50%; left:50%; transform: translate(-50%, -50%); border:5px solid black"">","","","","","","","",""
"","3079.0799999994924","sequential-stimulus-presentation","20","504188","0.0-10.0-1.0","SS1617819409100","trial","","40","1000","4079.0799999994924","images/stimuli/spore_stims/simple_16_A_a.gif","images/stimuli/spore_stims/simple_07_A_b.gif","","1","simple_dissimilar","images/stimuli/spore_stims/simple_07_A_b.gif","","","","",""
"","null","html-keyboard-response","21","505428","0.0-10.0-0.1","SS1617819409100","","","null","","","","","<p><img src= images/blank.png width =""600"" height = ""600"" style=""position:fixed;top:50%; left:50%; transform: translate(-50%, -50%); border:5px solid black"">","","","","","","","",""
"","20.42999999865424","sequential-stimulus-presentation","22","506451","0.0-10.0-1.1","SS1617819409100","trial","","40","1000","1020.4299999986542","images/stimuli/spore_stims/simple_16_A_a.gif","images/stimuli/spore_stims/simple_07_A_b.gif","","1","simple_dissimilar","images/stimuli/spore_stims/simple_07_A_b.gif","","","","",""
"","null","html-keyboard-response","23","507458","0.0-10.0-0.2","SS1617819409100","","","null","","","","","<p><img src= images/blank.png width =""600"" height = ""600"" style=""position:fixed;top:50%; left:50%; transform: translate(-50%, -50%); border:5px solid black"">","","","","","","","",""
"","1257.144999999553","sequential-stimulus-presentation","24","509718","0.0-10.0-1.2","SS1617819409100","trial","","40","1000","2257.144999999553","images/stimuli/spore_stims/simple_16_A_a.gif","images/stimuli/spore_stims/simple_07_A_b.gif","","1","simple_dissimilar","images/stimuli/spore_stims/simple_07_A_b.gif","","","","",""
"","null","html-keyboard-response","25","510545","0.0-10.0-0.3","SS1617819409100","","","null","","","","","<p><img src= images/blank.png width =""600"" height = ""600"" style=""position:fixed;top:50%; left:50%; transform: translate(-50%, -50%); border:5px solid black"">","","","","","","","",""
"","413.9799999992829","sequential-stimulus-presentation","26","511962","0.0-10.0-1.3","SS1617819409100","trial","","40","1000","1413.9799999992829","images/stimuli/spore_stims/simple_16_A_a.gif","images/stimuli/spore_stims/simple_07_A_b.gif","","1","simple_dissimilar","images/stimuli/spore_stims/simple_07_A_b.gif","","","","",""
"","2943.7799999995623","survey-multi-choice","27","514907","0.0-11.0","SS1617819409100","math_question","","","","","","","","","","","{""Q0"":""13""}","[0]","13","",""
"","null","html-keyboard-response","28","515926","0.0-12.0-0.0","SS1617819409100","","","null","","","","","<p><img src= images/blank.png width =""600"" height = ""600"" style=""position:fixed;top:50%; left:50%; transform: translate(-50%, -50%); border:5px solid black"">","","","","","","","",""
"","359.67999999958556","sequential-stimulus-presentation","29","517287","0.0-12.0-1.0","SS1617819409100","trial","","40","1000","1359.6799999995856","images/stimuli/spore_stims/simple_08_A_a.gif","images/stimuli/spore_stims/simple_03_A_b.gif","","2","simple_dissimilar","images/stimuli/spore_stims/simple_03_A_b.gif","","","","",""
"","null","html-keyboard-response","30","518138","0.0-12.0-0.1","SS1617819409100","","","null","","","","","<p><img src= images/blank.png width =""600"" height = ""600"" style=""position:fixed;top:50%; left:50%; transform: translate(-50%, -50%); border:5px solid black"">","","","","","","","",""
"","313.45499999960884","sequential-stimulus-presentation","31","519454","0.0-12.0-1.1","SS1617819409100","trial","","40","1000","1313.4549999996088","images/stimuli/spore_stims/simple_08_A_a.gif","images/stimuli/spore_stims/simple_03_A_b.gif","","2","simple_dissimilar","images/stimuli/spore_stims/simple_03_A_b.gif","","","","",""
"","null","html-keyboard-response","32","520414","0.0-12.0-0.2","SS1617819409100","","","null","","","","","<p><img src= images/blank.png width =""600"" height = ""600"" style=""position:fixed;top:50%; left:50%; transform: translate(-50%, -50%); border:5px solid black"">","","","","","","","",""
"","369.1849999994738","sequential-stimulus-presentation","33","521785","0.0-12.0-1.2","SS1617819409100","trial","","40","1000","1369.1849999994738","images/stimuli/spore_stims/simple_08_A_a.gif","images/stimuli/spore_stims/simple_03_A_b.gif","","2","simple_dissimilar","images/stimuli/spore_stims/simple_03_A_b.gif","","","","",""
"","null","html-keyboard-response","34","522702","0.0-12.0-0.3","SS1617819409100","","","null","","","","","<p><img src= images/blank.png width =""600"" height = ""600"" style=""position:fixed;top:50%; left:50%; transform: translate(-50%, -50%); border:5px solid black"">","","","","","","","",""
"","528.495000000461","sequential-stimulus-presentation","35","524233","0.0-12.0-1.3","SS1617819409100","trial","","40","1000","1528.495000000461","images/stimuli/spore_stims/simple_08_A_a.gif","images/stimuli/spore_stims/simple_03_A_b.gif","","2","simple_dissimilar","images/stimuli/spore_stims/simple_08_A_a.gif","","","","",""
"","null","html-keyboard-response","36","525523","0.0-12.0-0.4","SS1617819409100","","","null","","","","","<p><img src= images/blank.png width =""600"" height = ""600"" style=""position:fixed;top:50%; left:50%; transform: translate(-50%, -50%); border:5px solid black"">","","","","","","","",""
"","352.85000000114087","sequential-stimulus-presentation","37","526879","0.0-12.0-1.4","SS1617819409100","trial","","40","1000","1352.8500000011409","images/stimuli/spore_stims/simple_08_A_a.gif","images/stimuli/spore_stims/simple_03_A_b.gif","","2","simple_dissimilar","images/stimuli/spore_stims/simple_03_A_b.gif","","","","",""
"","null","html-keyboard-response","38","527700","0.0-12.0-0.5","SS1617819409100","","","null","","","","","<p><img src= images/blank.png width =""600"" height = ""600"" style=""position:fixed;top:50%; left:50%; transform: translate(-50%, -50%); border:5px solid black"">","","","","","","","",""
"","324.41499999922235","sequential-stimulus-presentation","39","529026","0.0-12.0-1.5","SS1617819409100","trial","","40","1000","1324.4149999992223","images/stimuli/spore_stims/simple_08_A_a.gif","images/stimuli/spore_stims/simple_03_A_b.gif","","2","simple_dissimilar","images/stimuli/spore_stims/simple_08_A_a.gif","","","","",""
"","2320.2099999998463","survey-multi-choice","40","531348","0.0-13.0","SS1617819409100","math_question","","","","","","","","","","","{""Q0"":""10""}","[0]","10","",""
"","null","html-keyboard-response","41","532259","0.0-14.0-0.0","SS1617819409100","","","null","","","","","<p><img src= images/blank.png width =""600"" height = ""600"" style=""position:fixed;top:50%; left:50%; transform: translate(-50%, -50%); border:5px solid black"">","","","","","","","",""
"","321.26500000047963","sequential-stimulus-presentation","42","533583","0.0-14.0-1.0","SS1617819409100","trial","","40","1000","1321.2650000004796","images/stimuli/spore_stims/complex_10_A_b.gif","images/stimuli/spore_stims/complex_08_A_a.gif","","3","complex_dissimilar","images/stimuli/spore_stims/complex_08_A_a.gif","","","","",""
"","null","html-keyboard-response","43","534843","0.0-14.0-0.1","SS1617819409100","","","null","","","","","<p><img src= images/blank.png width =""600"" height = ""600"" style=""position:fixed;top:50%; left:50%; transform: translate(-50%, -50%); border:5px solid black"">","","","","","","","",""
"","461.69000000006054","sequential-stimulus-presentation","44","536307","0.0-14.0-1.1","SS1617819409100","trial","","40","1000","1461.6900000000605","images/stimuli/spore_stims/complex_10_A_b.gif","images/stimuli/spore_stims/complex_08_A_a.gif","","3","complex_dissimilar","images/stimuli/spore_stims/complex_08_A_a.gif","","","","",""
"","null","html-keyboard-response","45","537211","0.0-14.0-0.2","SS1617819409100","","","null","","","","","<p><img src= images/blank.png width =""600"" height = ""600"" style=""position:fixed;top:50%; left:50%; transform: translate(-50%, -50%); border:5px solid black"">","","","","","","","",""
"","346.6749999988824","sequential-stimulus-presentation","46","538560","0.0-14.0-1.2","SS1617819409100","trial","","40","1000","1346.6749999988824","images/stimuli/spore_stims/complex_10_A_b.gif","images/stimuli/spore_stims/complex_08_A_a.gif","","3","complex_dissimilar","images/stimuli/spore_stims/complex_08_A_a.gif","","","","",""
"","null","html-keyboard-response","47","539382","0.0-14.0-0.3","SS1617819409100","","","null","","","","","<p><img src= images/blank.png width =""600"" height = ""600"" style=""position:fixed;top:50%; left:50%; transform: translate(-50%, -50%); border:5px solid black"">","","","","","","","",""
"","460.75500000000466","sequential-stimulus-presentation","48","540846","0.0-14.0-1.3","SS1617819409100","trial","","40","1000","1460.7550000000047","images/stimuli/spore_stims/complex_10_A_b.gif","images/stimuli/spore_stims/complex_08_A_a.gif","","3","complex_dissimilar","images/stimuli/spore_stims/complex_08_A_a.gif","","","","",""
"","1901.545000000624","survey-multi-choice","49","542749","0.0-15.0","SS1617819409100","math_question","","","","","","","","","","","{""Q0"":""7""}","[0]","7","",""
"","null","html-keyboard-response","50","543854","0.0-16.0-0.0","SS1617819409100","","","null","","","","","<p><img src= images/blank.png width =""600"" height = ""600"" style=""position:fixed;top:50%; left:50%; transform: translate(-50%, -50%); border:5px solid black"">","","","","","","","",""
"","583.4049999993294","sequential-stimulus-presentation","51","545440","0.0-16.0-1.0","SS1617819409100","trial","","40","1000","1583.4049999993294","images/stimuli/spore_stims/simple_01_A_a.gif","images/stimuli/spore_stims/simple_13_A_b.gif","","4","simple_dissimilar","images/stimuli/spore_stims/simple_13_A_b.gif","","","","",""
"","null","html-keyboard-response","52","546260","0.0-16.0-0.1","SS1617819409100","","","null","","","","","<p><img src= images/blank.png width =""600"" height = ""600"" style=""position:fixed;top:50%; left:50%; transform: translate(-50%, -50%); border:5px solid black"">","","","","","","","",""
"","423.76999999943655","sequential-stimulus-presentation","53","547687","0.0-16.0-1.1","SS1617819409100","trial","","40","1000","1423.7699999994365","images/stimuli/spore_stims/simple_01_A_a.gif","images/stimuli/spore_stims/simple_13_A_b.gif","","4","simple_dissimilar","images/stimuli/spore_stims/simple_13_A_b.gif","","","","",""
"","null","html-keyboard-response","54","548740","0.0-16.0-0.2","SS1617819409100","","","null","","","","","<p><img src= images/blank.png width =""600"" height = ""600"" style=""position:fixed;top:50%; left:50%; transform: translate(-50%, -50%); border:5px solid black"">","","","","","","","",""
"","501.3150000013411","sequential-stimulus-presentation","55","550243","0.0-16.0-1.2","SS1617819409100","trial","","40","1000","1501.315000001341","images/stimuli/spore_stims/simple_01_A_a.gif","images/stimuli/spore_stims/simple_13_A_b.gif","","4","simple_dissimilar","images/stimuli/spore_stims/simple_13_A_b.gif","","","","",""
"","null","html-keyboard-response","56","551431","0.0-16.0-0.3","SS1617819409100","","","null","","","","","<p><img src= images/blank.png width =""600"" height = ""600"" style=""position:fixed;top:50%; left:50%; transform: translate(-50%, -50%); border:5px solid black"">","","","","","","","",""
"","657.9999999994179","sequential-stimulus-presentation","57","553092","0.0-16.0-1.3","SS1617819409100","trial","","40","1000","1657.999999999418","images/stimuli/spore_stims/simple_01_A_a.gif","images/stimuli/spore_stims/simple_13_A_b.gif","","4","simple_dissimilar","images/stimuli/spore_stims/simple_01_A_a.gif","","","","",""
"","null","html-keyboard-response","58","554244","0.0-16.0-0.4","SS1617819409100","","","null","","","","","<p><img src= images/blank.png width =""600"" height = ""600"" style=""position:fixed;top:50%; left:50%; transform: translate(-50%, -50%); border:5px solid black"">","","","","","","","",""
"","917.6950000000652","sequential-stimulus-presentation","59","556163","0.0-16.0-1.4","SS1617819409100","trial","","40","1000","1917.6950000000652","images/stimuli/spore_stims/simple_01_A_a.gif","images/stimuli/spore_stims/simple_13_A_b.gif","","4","simple_dissimilar","images/stimuli/spore_stims/simple_01_A_a.gif","","","","",""
"","3983.009999999893","survey-multi-choice","60","560148","0.0-17.0","SS1617819409100","math_question","","","","","","","","","","","{""Q0"":""15""}","[0]","15","",""
"","null","html-keyboard-response","61","561434","0.0-18.0-0.0","SS1617819409100","","","null","","","","","<p><img src= images/blank.png width =""600"" height = ""600"" style=""position:fixed;top:50%; left:50%; transform: translate(-50%, -50%); border:5px solid black"">","","","","","","","",""
"","568.0450000000419","sequential-stimulus-presentation","62","563006","0.0-18.0-1.0","SS1617819409100","trial","","40","1000","1568.045000000042","images/stimuli/spore_stims/complex_05_A_a.gif","images/stimuli/spore_stims/complex_02_A_b.gif","","5","complex_dissimilar","images/stimuli/spore_stims/complex_02_A_b.gif","","","","",""
"","null","html-keyboard-response","63","564174","0.0-18.0-0.1","SS1617819409100","","","null","","","","","<p><img src= images/blank.png width =""600"" height = ""600"" style=""position:fixed;top:50%; left:50%; transform: translate(-50%, -50%); border:5px solid black"">","","","","","","","",""
"","731.6599999994505","sequential-stimulus-presentation","64","565909","0.0-18.0-1.1","SS1617819409100","trial","","40","1000","1731.6599999994505","images/stimuli/spore_stims/complex_05_A_a.gif","images/stimuli/spore_stims/complex_02_A_b.gif","","5","complex_dissimilar","images/stimuli/spore_stims/complex_02_A_b.gif","","","","",""
"","null","html-keyboard-response","65","566725","0.0-18.0-0.2","SS1617819409100","","","null","","","","","<p><img src= images/blank.png width =""600"" height = ""600"" style=""position:fixed;top:50%; left:50%; transform: translate(-50%, -50%); border:5px solid black"">","","","","","","","",""
"","437.4900000002235","sequential-stimulus-presentation","66","568165","0.0-18.0-1.2","SS1617819409100","trial","","40","1000","1437.4900000002235","images/stimuli/spore_stims/complex_05_A_a.gif","images/stimuli/spore_stims/complex_02_A_b.gif","","5","complex_dissimilar","images/stimuli/spore_stims/complex_02_A_b.gif","","","","",""
"","null","html-keyboard-response","67","569337","0.0-18.0-0.3","SS1617819409100","","","null","","","","","<p><img src= images/blank.png width =""600"" height = ""600"" style=""position:fixed;top:50%; left:50%; transform: translate(-50%, -50%); border:5px solid black"">","","","","","","","",""
"","324.8000000003958","sequential-stimulus-presentation","68","570664","0.0-18.0-1.3","SS1617819409100","trial","","40","1000","1324.8000000003958","images/stimuli/spore_stims/complex_05_A_a.gif","images/stimuli/spore_stims/complex_02_A_b.gif","","5","complex_dissimilar","images/stimuli/spore_stims/complex_02_A_b.gif","","","","",""
"","2280.6950000012293","survey-multi-choice","69","572947","0.0-19.0","SS1617819409100","math_question","","","","","","","","","","","{""Q0"":""6""}","[0]","6","",""
"","null","html-keyboard-response","70","574101","0.0-20.0-0.0","SS1617819409100","","","null","","","","","<p><img src= images/blank.png width =""600"" height = ""600"" style=""position:fixed;top:50%; left:50%; transform: translate(-50%, -50%); border:5px solid black"">","","","","","","","",""
"","338.12500000023283","sequential-stimulus-presentation","71","575443","0.0-20.0-1.0","SS1617819409100","trial","","40","1000","1338.1250000002328","images/stimuli/spore_stims/simple_08_A_b.gif","images/stimuli/spore_stims/simple_13_A_a.gif","","6","simple_dissimilar","images/stimuli/spore_stims/simple_13_A_a.gif","","","","",""
"","null","html-keyboard-response","72","576521","0.0-20.0-0.1","SS1617819409100","","","null","","","","","<p><img src= images/blank.png width =""600"" height = ""600"" style=""position:fixed;top:50%; left:50%; transform: translate(-50%, -50%); border:5px solid black"">","","","","","","","",""
"","205.42000000027474","sequential-stimulus-presentation","73","577729","0.0-20.0-1.1","SS1617819409100","trial","","40","1000","1205.4200000002747","images/stimuli/spore_stims/simple_08_A_b.gif","images/stimuli/spore_stims/simple_13_A_a.gif","","6","simple_dissimilar","images/stimuli/spore_stims/simple_13_A_a.gif","","","","",""
"","null","html-keyboard-response","74","578943","0.0-20.0-0.2","SS1617819409100","","","null","","","","","<p><img src= images/blank.png width =""600"" height = ""600"" style=""position:fixed;top:50%; left:50%; transform: translate(-50%, -50%); border:5px solid black"">","","","","","","","",""
"","268.43499999993946","sequential-stimulus-presentation","75","580214","0.0-20.0-1.2","SS1617819409100","trial","","40","1000","1268.4349999999395","images/stimuli/spore_stims/simple_08_A_b.gif","images/stimuli/spore_stims/simple_13_A_a.gif","","6","simple_dissimilar","images/stimuli/spore_stims/simple_13_A_a.gif","","","","",""
"","null","html-keyboard-response","76","581059","0.0-20.0-0.3","SS1617819409100","","","null","","","","","<p><img src= images/blank.png width =""600"" height = ""600"" style=""position:fixed;top:50%; left:50%; transform: translate(-50%, -50%); border:5px solid black"">","","","","","","","",""
"","360.4099999993341","sequential-stimulus-presentation","77","582422","0.0-20.0-1.3","SS1617819409100","trial","","40","1000","1360.409999999334","images/stimuli/spore_stims/simple_08_A_b.gif","images/stimuli/spore_stims/simple_13_A_a.gif","","6","simple_dissimilar","images/stimuli/spore_stims/simple_13_A_a.gif","","","","",""
"","null","html-keyboard-response","78","583272","0.0-20.0-0.4","SS1617819409100","","","null","","","","","<p><img src= images/blank.png width =""600"" height = ""600"" style=""position:fixed;top:50%; left:50%; transform: translate(-50%, -50%); border:5px solid black"">","","","","","","","",""
"","854.6600000008475","sequential-stimulus-presentation","79","585129","0.0-20.0-1.4","SS1617819409100","trial","","40","1000","1854.6600000008475","images/stimuli/spore_stims/simple_08_A_b.gif","images/stimuli/spore_stims/simple_13_A_a.gif","","6","simple_dissimilar","images/stimuli/spore_stims/simple_13_A_a.gif","","","","",""
"","3201.685000000056","survey-multi-choice","80","588333","0.0-21.0","SS1617819409100","math_question","","","","","","","","","","","{""Q0"":""9""}","[0]","9","",""
"","null","html-keyboard-response","81","589343","0.0-22.0-0.0","SS1617819409100","","","null","","","","","<p><img src= images/blank.png width =""600"" height = ""600"" style=""position:fixed;top:50%; left:50%; transform: translate(-50%, -50%); border:5px solid black"">","","","","","","","",""
"","81.62000000081025","sequential-stimulus-presentation","82","590427","0.0-22.0-1.0","SS1617819409100","trial","","40","1000","1081.6200000008103","images/stimuli/spore_stims/complex_11_A_a.gif","images/stimuli/spore_stims/complex_13_A_b.gif","","7","complex_dissimilar","images/stimuli/spore_stims/complex_13_A_b.gif","","","","",""
"","null","html-keyboard-response","83","591384","0.0-22.0-0.1","SS1617819409100","","","null","","","","","<p><img src= images/blank.png width =""600"" height = ""600"" style=""position:fixed;top:50%; left:50%; transform: translate(-50%, -50%); border:5px solid black"">","","","","","","","",""
"","438.82000000122935","sequential-stimulus-presentation","84","592826","0.0-22.0-1.1","SS1617819409100","trial","","40","1000","1438.8200000012293","images/stimuli/spore_stims/complex_11_A_a.gif","images/stimuli/spore_stims/complex_13_A_b.gif","","7","complex_dissimilar","images/stimuli/spore_stims/complex_13_A_b.gif","","","","",""
"","null","html-keyboard-response","85","593872","0.0-22.0-0.2","SS1617819409100","","","null","","","","","<p><img src= images/blank.png width =""600"" height = ""600"" style=""position:fixed;top:50%; left:50%; transform: translate(-50%, -50%); border:5px solid black"">","","","","","","","",""
"","279.26499999919906","sequential-stimulus-presentation","86","595153","0.0-22.0-1.2","SS1617819409100","trial","","40","1000","1279.264999999199","images/stimuli/spore_stims/complex_11_A_a.gif","images/stimuli/spore_stims/complex_13_A_b.gif","","7","complex_dissimilar","images/stimuli/spore_stims/complex_13_A_b.gif","","","","",""
"","null","html-keyboard-response","87","596101","0.0-22.0-0.3","SS1617819409100","","","null","","","","","<p><img src= images/blank.png width =""600"" height = ""600"" style=""position:fixed;top:50%; left:50%; transform: translate(-50%, -50%); border:5px solid black"">","","","","","","","",""
"","380.98999999964144","sequential-stimulus-presentation","88","597484","0.0-22.0-1.3","SS1617819409100","trial","","40","1000","1380.9899999996414","images/stimuli/spore_stims/complex_11_A_a.gif","images/stimuli/spore_stims/complex_13_A_b.gif","","7","complex_dissimilar","images/stimuli/spore_stims/complex_13_A_b.gif","","","","",""
"","null","html-keyboard-response","89","598425","0.0-22.0-0.4","SS1617819409100","","","null","","","","","<p><img src= images/blank.png width =""600"" height = ""600"" style=""position:fixed;top:50%; left:50%; transform: translate(-50%, -50%); border:5px solid black"">","","","","","","","",""
"","383.2250000013737","sequential-stimulus-presentation","90","599811","0.0-22.0-1.4","SS1617819409100","trial","","40","1000","1383.2250000013737","images/stimuli/spore_stims/complex_11_A_a.gif","images/stimuli/spore_stims/complex_13_A_b.gif","","7","complex_dissimilar","images/stimuli/spore_stims/complex_13_A_b.gif","","","","",""
"","null","html-keyboard-response","91","600970","0.0-22.0-0.5","SS1617819409100","","","null","","","","","<p><img src= images/blank.png width =""600"" height = ""600"" style=""position:fixed;top:50%; left:50%; transform: translate(-50%, -50%); border:5px solid black"">","","","","","","","",""
"","348.32999999891035","sequential-stimulus-presentation","92","602321","0.0-22.0-1.5","SS1617819409100","trial","","40","1000","1348.3299999989104","images/stimuli/spore_stims/complex_11_A_a.gif","images/stimuli/spore_stims/complex_13_A_b.gif","","7","complex_dissimilar","images/stimuli/spore_stims/complex_13_A_b.gif","","","","",""
"","1909.8100000011036","survey-multi-choice","93","604233","0.0-23.0","SS1617819409100","math_question","","","","","","","","","","","{""Q0"":""5""}","[0]","5","",""
"","null","html-keyboard-response","94","605086","0.0-24.0-0.0","SS1617819409100","","","null","","","","","<p><img src= images/blank.png width =""600"" height = ""600"" style=""position:fixed;top:50%; left:50%; transform: translate(-50%, -50%); border:5px solid black"">","","","","","","","",""
"","325.32999999972526","sequential-stimulus-presentation","95","606416","0.0-24.0-1.0","SS1617819409100","trial","","40","1000","1325.3299999997253","images/stimuli/spore_stims/simple_10_A_b.gif","images/stimuli/spore_stims/simple_05_A_a.gif","","8","simple_dissimilar","images/stimuli/spore_stims/simple_05_A_a.gif","","","","",""
"","null","html-keyboard-response","96","607698","0.0-24.0-0.1","SS1617819409100","","","null","","","","","<p><img src= images/blank.png width =""600"" height = ""600"" style=""position:fixed;top:50%; left:50%; transform: translate(-50%, -50%); border:5px solid black"">","","","","","","","",""
"","207.1600000000326","sequential-stimulus-presentation","97","608908","0.0-24.0-1.1","SS1617819409100","trial","","40","1000","1207.1600000000326","images/stimuli/spore_stims/simple_10_A_b.gif","images/stimuli/spore_stims/simple_05_A_a.gif","","8","simple_dissimilar","images/stimuli/spore_stims/simple_05_A_a.gif","","","","",""
"","null","html-keyboard-response","98","610017","0.0-24.0-0.2","SS1617819409100","","","null","","","","","<p><img src= images/blank.png width =""600"" height = ""600"" style=""position:fixed;top:50%; left:50%; transform: translate(-50%, -50%); border:5px solid black"">","","","","","","","",""
"","330.7499999990687","sequential-stimulus-presentation","99","611350","0.0-24.0-1.2","SS1617819409100","trial","","40","1000","1330.7499999990687","images/stimuli/spore_stims/simple_10_A_b.gif","images/stimuli/spore_stims/simple_05_A_a.gif","","8","simple_dissimilar","images/stimuli/spore_stims/simple_05_A_a.gif","","","","",""
"","null","html-keyboard-response","100","612326","0.0-24.0-0.3","SS1617819409100","","","null","","","","","<p><img src= images/blank.png width =""600"" height = ""600"" style=""position:fixed;top:50%; left:50%; transform: translate(-50%, -50%); border:5px solid black"">","","","","","","","",""
"","484.9650000014808","sequential-stimulus-presentation","101","613813","0.0-24.0-1.3","SS1617819409100","trial","","40","1000","1484.9650000014808","images/stimuli/spore_stims/simple_10_A_b.gif","images/stimuli/spore_stims/simple_05_A_a.gif","","8","simple_dissimilar","images/stimuli/spore_stims/simple_05_A_a.gif","","","","",""
"","null","html-keyboard-response","102","615006","0.0-24.0-0.4","SS1617819409100","","","null","","","","","<p><img src= images/blank.png width =""600"" height = ""600"" style=""position:fixed;top:50%; left:50%; transform: translate(-50%, -50%); border:5px solid black"">","","","","","","","",""
"","412.01499999989755","sequential-stimulus-presentation","103","616421","0.0-24.0-1.4","SS1617819409100","trial","","40","1000","1412.0149999998976","images/stimuli/spore_stims/simple_10_A_b.gif","images/stimuli/spore_stims/simple_05_A_a.gif","","8","simple_dissimilar","images/stimuli/spore_stims/simple_05_A_a.gif","","","","",""
"","2741.200000000419","survey-multi-choice","104","619164","0.0-25.0","SS1617819409100","math_question","","","","","","","","","","","{""Q0"":""10""}","[0]","10","",""
"","null","html-keyboard-response","105","620062","0.0-26.0-0.0","SS1617819409100","","","null","","","","","<p><img src= images/blank.png width =""600"" height = ""600"" style=""position:fixed;top:50%; left:50%; transform: translate(-50%, -50%); border:5px solid black"">","","","","","","","",""
"","347.3950000007171","sequential-stimulus-presentation","106","621413","0.0-26.0-1.0","SS1617819409100","trial","","40","1000","1347.3950000007171","images/stimuli/spore_stims/simple_02_A_a.gif","images/stimuli/spore_stims/simple_11_A_b.gif","","9","simple_dissimilar","images/stimuli/spore_stims/simple_11_A_b.gif","","","","",""
"","null","html-keyboard-response","107","622463","0.0-26.0-0.1","SS1617819409100","","","null","","","","","<p><img src= images/blank.png width =""600"" height = ""600"" style=""position:fixed;top:50%; left:50%; transform: translate(-50%, -50%); border:5px solid black"">","","","","","","","",""
"","302.3450000000885","sequential-stimulus-presentation","108","623769","0.0-26.0-1.1","SS1617819409100","trial","","40","1000","1302.3450000000885","images/stimuli/spore_stims/simple_02_A_a.gif","images/stimuli/spore_stims/simple_11_A_b.gif","","9","simple_dissimilar","images/stimuli/spore_stims/simple_11_A_b.gif","","","","",""
"","null","html-keyboard-response","109","624790","0.0-26.0-0.2","SS1617819409100","","","null","","","","","<p><img src= images/blank.png width =""600"" height = ""600"" style=""position:fixed;top:50%; left:50%; transform: translate(-50%, -50%); border:5px solid black"">","","","","","","","",""
"","327.9949999996461","sequential-stimulus-presentation","110","626121","0.0-26.0-1.2","SS1617819409100","trial","","40","1000","1327.994999999646","images/stimuli/spore_stims/simple_02_A_a.gif","images/stimuli/spore_stims/simple_11_A_b.gif","","9","simple_dissimilar","images/stimuli/spore_stims/simple_11_A_b.gif","","","","",""
"","null","html-keyboard-response","111","626925","0.0-26.0-0.3","SS1617819409100","","","null","","","","","<p><img src= images/blank.png width =""600"" height = ""600"" style=""position:fixed;top:50%; left:50%; transform: translate(-50%, -50%); border:5px solid black"">","","","","","","","",""
"","566.104999999865","sequential-stimulus-presentation","112","628494","0.0-26.0-1.3","SS1617819409100","trial","","40","1000","1566.104999999865","images/stimuli/spore_stims/simple_02_A_a.gif","images/stimuli/spore_stims/simple_11_A_b.gif","","9","simple_dissimilar","images/stimuli/spore_stims/simple_11_A_b.gif","","","","",""
"","null","html-keyboard-response","113","629778","0.0-26.0-0.4","SS1617819409100","","","null","","","","","<p><img src= images/blank.png width =""600"" height = ""600"" style=""position:fixed;top:50%; left:50%; transform: translate(-50%, -50%); border:5px solid black"">","","","","","","","",""
"","382.364999999525","sequential-stimulus-presentation","114","631164","0.0-26.0-1.4","SS1617819409100","trial","","40","1000","1382.364999999525","images/stimuli/spore_stims/simple_02_A_a.gif","images/stimuli/spore_stims/simple_11_A_b.gif","","9","simple_dissimilar","images/stimuli/spore_stims/simple_11_A_b.gif","","","","",""
"","6897.97499999986","survey-multi-choice","115","638064","0.0-27.0","SS1617819409100","math_question","","","","","","","","","","","{""Q0"":""9""}","[0]","9","",""
"","null","html-keyboard-response","116","639336","0.0-28.0-0.0","SS1617819409100","","","null","","","","","<p><img src= images/blank.png width =""600"" height = ""600"" style=""position:fixed;top:50%; left:50%; transform: translate(-50%, -50%); border:5px solid black"">","","","","","","","",""
"","362.1999999994878","sequential-stimulus-presentation","117","640702","0.0-28.0-1.0","SS1617819409100","trial","","40","1000","1362.1999999994878","images/stimuli/spore_stims/complex_14_A_b.gif","images/stimuli/spore_stims/complex_20_A_a.gif","","10","complex_dissimilar","images/stimuli/spore_stims/complex_20_A_a.gif","","","","",""
"","null","html-keyboard-response","118","641812","0.0-28.0-0.1","SS1617819409100","","","null","","","","","<p><img src= images/blank.png width =""600"" height = ""600"" style=""position:fixed;top:50%; left:50%; transform: translate(-50%, -50%); border:5px solid black"">","","","","","","","",""
"","352.24499999999534","sequential-stimulus-presentation","119","643167","0.0-28.0-1.1","SS1617819409100","trial","","40","1000","1352.2449999999953","images/stimuli/spore_stims/complex_14_A_b.gif","images/stimuli/spore_stims/complex_20_A_a.gif","","10","complex_dissimilar","images/stimuli/spore_stims/complex_20_A_a.gif","","","","",""
"","null","html-keyboard-response","120","644360","0.0-28.0-0.2","SS1617819409100","","","null","","","","","<p><img src= images/blank.png width =""600"" height = ""600"" style=""position:fixed;top:50%; left:50%; transform: translate(-50%, -50%); border:5px solid black"">","","","","","","","",""
"","512.5250000000233","sequential-stimulus-presentation","121","645877","0.0-28.0-1.2","SS1617819409100","trial","","40","1000","1512.5250000000233","images/stimuli/spore_stims/complex_14_A_b.gif","images/stimuli/spore_stims/complex_20_A_a.gif","","10","complex_dissimilar","images/stimuli/spore_stims/complex_20_A_a.gif","","","","",""
"","null","html-keyboard-response","122","646748","0.0-28.0-0.3","SS1617819409100","","","null","","","","","<p><img src= images/blank.png width =""600"" height = ""600"" style=""position:fixed;top:50%; left:50%; transform: translate(-50%, -50%); border:5px solid black"">","","","","","","","",""
"","426.47500000020955","sequential-stimulus-presentation","123","648179","0.0-28.0-1.3","SS1617819409100","trial","","40","1000","1426.4750000002095","images/stimuli/spore_stims/complex_14_A_b.gif","images/stimuli/spore_stims/complex_20_A_a.gif","","10","complex_dissimilar","images/stimuli/spore_stims/complex_20_A_a.gif","","","","",""
"","null","html-keyboard-response","124","649092","0.0-28.0-0.4","SS1617819409100","","","null","","","","","<p><img src= images/blank.png width =""600"" height = ""600"" style=""position:fixed;top:50%; left:50%; transform: translate(-50%, -50%); border:5px solid black"">","","","","","","","",""
"","403.5800000000745","sequential-stimulus-presentation","125","650499","0.0-28.0-1.4","SS1617819409100","trial","","40","1000","1403.5800000000745","images/stimuli/spore_stims/complex_14_A_b.gif","images/stimuli/spore_stims/complex_20_A_a.gif","","10","complex_dissimilar","images/stimuli/spore_stims/complex_20_A_a.gif","","","","",""
"","null","html-keyboard-response","126","651359","0.0-28.0-0.5","SS1617819409100","","","null","","","","","<p><img src= images/blank.png width =""600"" height = ""600"" style=""position:fixed;top:50%; left:50%; transform: translate(-50%, -50%); border:5px solid black"">","","","","","","","",""
"","414.05999999912456","sequential-stimulus-presentation","127","652776","0.0-28.0-1.5","SS1617819409100","trial","","40","1000","1414.0599999991246","images/stimuli/spore_stims/complex_14_A_b.gif","images/stimuli/spore_stims/complex_20_A_a.gif","","10","complex_dissimilar","images/stimuli/spore_stims/complex_20_A_a.gif","","","","",""
"","2136.6500000003725","survey-multi-choice","128","654914","0.0-29.0","SS1617819409100","math_question","","","","","","","","","","","{""Q0"":""10""}","[0]","10","",""
"","null","html-keyboard-response","129","656108","0.0-30.0-0.0","SS1617819409100","","","null","","","","","<p><img src= images/blank.png width =""600"" height = ""600"" style=""position:fixed;top:50%; left:50%; transform: translate(-50%, -50%); border:5px solid black"">","","","","","","","",""
"","238.1299999996554","sequential-stimulus-presentation","130","657350","0.0-30.0-1.0","SS1617819409100","trial","","40","1000","1238.1299999996554","images/stimuli/spore_stims/complex_07_A_a.gif","images/stimuli/spore_stims/complex_05_A_b.gif","","11","complex_dissimilar","images/stimuli/spore_stims/complex_05_A_b.gif","","","","",""
"","null","html-keyboard-response","131","658638","0.0-30.0-0.1","SS1617819409100","","","null","","","","","<p><img src= images/blank.png width =""600"" height = ""600"" style=""position:fixed;top:50%; left:50%; transform: translate(-50%, -50%); border:5px solid black"">","","","","","","","",""
"","143.70500000042375","sequential-stimulus-presentation","132","659785","0.0-30.0-1.1","SS1617819409100","trial","","40","1000","1143.7050000004238","images/stimuli/spore_stims/complex_07_A_a.gif","images/stimuli/spore_stims/complex_05_A_b.gif","","11","complex_dissimilar","images/stimuli/spore_stims/complex_05_A_b.gif","","","","",""
"","null","html-keyboard-response","133","660788","0.0-30.0-0.2","SS1617819409100","","","null","","","","","<p><img src= images/blank.png width =""600"" height = ""600"" style=""position:fixed;top:50%; left:50%; transform: translate(-50%, -50%); border:5px solid black"">","","","","","","","",""
"","671.9300000004005","sequential-stimulus-presentation","134","662464","0.0-30.0-1.2","SS1617819409100","trial","","40","1000","1671.9300000004005","images/stimuli/spore_stims/complex_07_A_a.gif","images/stimuli/spore_stims/complex_05_A_b.gif","","11","complex_dissimilar","images/stimuli/spore_stims/complex_05_A_b.gif","","","","",""
"","null","html-keyboard-response","135","663630","0.0-30.0-0.3","SS1617819409100","","","null","","","","","<p><img src= images/blank.png width =""600"" height = ""600"" style=""position:fixed;top:50%; left:50%; transform: translate(-50%, -50%); border:5px solid black"">","","","","","","","",""
"","157.2350000005681","sequential-stimulus-presentation","136","664791","0.0-30.0-1.3","SS1617819409100","trial","","40","1000","1157.235000000568","images/stimuli/spore_stims/complex_07_A_a.gif","images/stimuli/spore_stims/complex_05_A_b.gif","","11","complex_dissimilar","images/stimuli/spore_stims/complex_05_A_b.gif","","","","",""
"","null","html-keyboard-response","137","665616","0.0-30.0-0.4","SS1617819409100","","","null","","","","","<p><img src= images/blank.png width =""600"" height = ""600"" style=""position:fixed;top:50%; left:50%; transform: translate(-50%, -50%); border:5px solid black"">","","","","","","","",""
"","489.8599999996368","sequential-stimulus-presentation","138","667110","0.0-30.0-1.4","SS1617819409100","trial","","40","1000","1489.8599999996368","images/stimuli/spore_stims/complex_07_A_a.gif","images/stimuli/spore_stims/complex_05_A_b.gif","","11","complex_dissimilar","images/stimuli/spore_stims/complex_05_A_b.gif","","","","",""
"[{""page_index"":0,""viewing_time"":1643.4800000005635}]","1643.674999999348","instructions","139","668755","0.0-31.0","SS1617819409100","instructions","","","","","","","","","","","","","","",""
"","7381.785000001313","survey-likert","140","676140","0.0-32.0","SS1617819409100","similarity_question","","","","","","","","","","","{""Q0"":3}","[0]","","images/stimuli/spore_stims/complex_05_A_b.gif","images/stimuli/spore_stims/complex_07_A_a.gif"
"","102019.75499999942","survey-likert","141","778164","0.0-33.0","SS1617819409100","similarity_question","","","","","","","","","","","{""Q0"":5}","[0]","","images/stimuli/spore_stims/simple_03_A_b.gif","images/stimuli/spore_stims/simple_08_A_a.gif"
"","2869.419999998994","survey-likert","142","781039","0.0-34.0","SS1617819409100","similarity_question","","","","","","","","","","","{""Q0"":4}","[0]","","images/stimuli/spore_stims/simple_02_A_a.gif","images/stimuli/spore_stims/simple_11_A_b.gif"
"","7539.099999999977","survey-likert","143","788583","0.0-35.0","SS1617819409100","similarity_question","","","","","","","","","","","{""Q0"":3}","[0]","","images/stimuli/spore_stims/simple_16_A_a.gif","images/stimuli/spore_stims/simple_07_A_b.gif"
"","4351.800000000279","survey-likert","144","792939","0.0-36.0","SS1617819409100","similarity_question","","","","","","","","","","","{""Q0"":4}","[0]","","images/stimuli/spore_stims/simple_01_A_a.gif","images/stimuli/spore_stims/simple_13_A_b.gif"
"","60749.685000000754","survey-likert","145","853694","0.0-37.0","SS1617819409100","similarity_question","","","","","","","","","","","{""Q0"":2}","[0]","","images/stimuli/spore_stims/complex_11_A_a.gif","images/stimuli/spore_stims/complex_13_A_b.gif"
"","3101.7599999995437","survey-likert","146","856801","0.0-38.0","SS1617819409100","similarity_question","","","","","","","","","","","{""Q0"":6}","[0]","","images/stimuli/spore_stims/simple_05_A_a.gif","images/stimuli/spore_stims/simple_10_A_b.gif"
"","12115.630000000237","survey-likert","147","868922","0.0-39.0","SS1617819409100","similarity_question","","","","","","","","","","","{""Q0"":3}","[0]","","images/stimuli/spore_stims/complex_02_A_b.gif","images/stimuli/spore_stims/complex_05_A_a.gif"
"","8421.870000000112","survey-likert","148","877349","0.0-40.0","SS1617819409100","similarity_question","","","","","","","","","","","{""Q0"":1}","[0]","","images/stimuli/spore_stims/complex_08_A_a.gif","images/stimuli/spore_stims/complex_10_A_b.gif"
"","5158.919999999809","survey-likert","149","882513","0.0-41.0","SS1617819409100","similarity_question","","","","","","","","","","","{""Q0"":4}","[0]","","images/stimuli/spore_stims/complex_18_A_a.gif","images/stimuli/spore_stims/complex_09_A_b.gif"
"","8653.995000000577","survey-likert","150","891172","0.0-42.0","SS1617819409100","similarity_question","","","","","","","","","","","{""Q0"":3}","[0]","","images/stimuli/spore_stims/complex_14_A_b.gif","images/stimuli/spore_stims/complex_20_A_a.gif"
"","3442.5600000013364","survey-likert","151","894619","0.0-43.0","SS1617819409100","similarity_question","","","","","","","","","","","{""Q0"":4}","[0]","","images/stimuli/spore_stims/simple_13_A_a.gif","images/stimuli/spore_stims/simple_08_A_b.gif"
"[{""page_index"":0,""viewing_time"":1094.600000000326}]","1094.8349999998463","instructions","152","895718","0.0-44.0","SS1617819409100","instructions","","","","","","","","","","","","","","",""
"","7029.3849999997765","survey-likert","153","902751","0.0-45.0","SS1617819409100","","","","","","","","images/stimuli/spore_stims/complex_20_A_a.gif","","","","{""Q0"":4}","[0]","","",""
"","6742.134999998612","survey-likert","154","909498","0.0-46.0","SS1617819409100","","","","","","","","images/stimuli/spore_stims/simple_16_A_a.gif","","","","{""Q0"":1}","[0]","","",""
"","8557.509999998729","survey-likert","155","918060","0.0-47.0","SS1617819409100","","","","","","","","images/stimuli/spore_stims/complex_07_A_a.gif","","","","{""Q0"":5}","[0]","","",""
"","3221.5199999990873","survey-likert","156","921286","0.0-48.0","SS1617819409100","","","","","","","","images/stimuli/spore_stims/simple_05_A_a.gif","","","","{""Q0"":0}","[0]","","",""
"","2442.7500000001164","survey-likert","157","923734","0.0-49.0","SS1617819409100","","","","","","","","images/stimuli/spore_stims/complex_13_A_b.gif","","","","{""Q0"":6}","[0]","","",""
"","2343.9099999996834","survey-likert","158","926083","0.0-50.0","SS1617819409100","","","","","","","","images/stimuli/spore_stims/simple_03_A_b.gif","","","","{""Q0"":1}","[0]","","",""
"","3271.500000000815","survey-likert","159","929359","0.0-51.0","SS1617819409100","","","","","","","","images/stimuli/spore_stims/simple_02_A_a.gif","","","","{""Q0"":0}","[0]","","",""
"","2834.3850000000093","survey-likert","160","932199","0.0-52.0","SS1617819409100","","","","","","","","images/stimuli/spore_stims/simple_13_A_a.gif","","","","{""Q0"":0}","[0]","","",""
"","6683.64500000095","survey-likert","161","938889","0.0-53.0","SS1617819409100","","","","","","","","images/stimuli/spore_stims/complex_05_A_a.gif","","","","{""Q0"":3}","[0]","","",""
"","1657.9750000000931","survey-likert","162","940552","0.0-54.0","SS1617819409100","","","","","","","","images/stimuli/spore_stims/simple_13_A_b.gif","","","","{""Q0"":1}","[0]","","",""
"","2361.390000000014","survey-likert","163","942918","0.0-55.0","SS1617819409100","","","","","","","","images/stimuli/spore_stims/complex_18_A_a.gif","","","","{""Q0"":6}","[0]","","",""
"","1776.450000001234","survey-likert","164","944699","0.0-56.0","SS1617819409100","","","","","","","","images/stimuli/spore_stims/complex_08_A_a.gif","","","","{""Q0"":5}","[0]","","",""
"[{""page_index"":0,""viewing_time"":969.6600000006147}]","969.8449999996228","instructions","165","945673","0.0-57.0","SS1617819409100","instructions","","","","","","","","","","","","","","",""
"","3208.4850000010338","demog-age","166","948886","0.0-58.0","SS1617819409100","","","","","","","","","","","","{""age"":""25""}","","","",""
"","3976.1250000010477","demog-ethnic-US","167","952866","0.0-59.0","SS1617819409100","","","","","","","","","","","","{""ethnicity"":[""White""]}","[0]","","",""
"","5421.279999998631","demog-gender-and-education","168","958293","0.0-60.0","SS1617819409100","","","","","","","","","","","","{""gender"":""Male"",""education"":""High school diploma""}","[0,1]","","",""
"","19027.169999999343","survey-text","169","977326","0.0-61.0","SS1617819409100","feedback","","","","","","","","","","","{""Q0"":""no, everything was good""}","","","",""
"[{""page_index"":0,""viewing_time"":1616.9399999999441}]","1617.145000000135","instructions","170","978945","0.0-62.0","SS1617819409100","instructions","","","","","","","","","","","","","","",""
