"view_history","rt","trial_type","trial_index","time_elapsed","internal_node_id","subject","stimulus_type","trial_stimulus","key_press","minimum_viewing_duration","trial_looking_time","block_deviant","block_background","stimulus","block_number","block_type","stimulus_displayed","responses","question_order","math_correct_answer","stimulus_left","stimulus_right"
"[{""page_index"":0,""viewing_time"":33646.50499999698}]","33647.31000000029","instructions","0","33651","0.0-0.0","SS1617819401748","","","","","","","","","","","","","","","",""
"[{""page_index"":0,""viewing_time"":22433.21499999729},{""page_index"":1,""viewing_time"":10709.940000000643}]","33143.4900000022","instructions","1","68801","0.0-1.0","SS1617819401748","instructions","","","","","","","","","","","","","","",""
"","11240.475000013248","sequential-stimulus-presentation-old","2","80646","0.0-2.0","SS1617819401748","","","40","600","11840.475000013248","null","null","","","","","","","","",""
"","17855.179999998654","sequential-stimulus-presentation-old","3","99006","0.0-3.0","SS1617819401748","","","40","500","18355.179999998654","null","null","","","","","","","","",""
"[{""page_index"":0,""viewing_time"":24489.755000002333}]","24490.059999996447","instructions","4","123498","0.0-4.0","SS1617819401748","instructions","","","","","","","","","","","","","","",""
"","2757.5849999993807","sequential-stimulus-presentation","5","127265","0.0-5.0","SS1617819401748","","","40","1000","3757.5849999993807","null","null","","","","","","","","",""
"[{""page_index"":0,""viewing_time"":6645.805000007385}]","6646.17000000726","instructions","6","133913","0.0-6.0","SS1617819401748","instructions","","","","","","","","","","","","","","",""
"[{""page_index"":0,""viewing_time"":9288.670000009006},{""page_index"":1,""viewing_time"":18148.09499999683},{""page_index"":2,""viewing_time"":7485.950000002049},{""page_index"":3,""viewing_time"":3556.1799999995856},{""page_index"":4,""viewing_time"":1487.9050000017742}]","39967.16000000015","instructions","7","173881","0.0-7.0","SS1617819401748","instructions","","","","","","","","","","","","","","",""
"","null","html-keyboard-response","8","174943","0.0-8.0-0.0","SS1617819401748","","","null","","","","","<p><img src= images/blank.png width =""600"" height = ""600"" style=""position:fixed;top:50%; left:50%; transform: translate(-50%, -50%); border:5px solid black"">","","","","","","","",""
"","5386.314999996102","sequential-stimulus-presentation","9","181348","0.0-8.0-1.0","SS1617819401748","trial","","40","1000","6386.314999996102","images/stimuli/spore_stims/simple_17_A_a.gif","images/stimuli/spore_stims/simple_10_A_b.gif","","0","simple_dissimilar","images/stimuli/spore_stims/simple_10_A_b.gif","","","","",""
"","null","html-keyboard-response","10","182522","0.0-8.0-0.1","SS1617819401748","","","null","","","","","<p><img src= images/blank.png width =""600"" height = ""600"" style=""position:fixed;top:50%; left:50%; transform: translate(-50%, -50%); border:5px solid black"">","","","","","","","",""
"","4258.960000006482","sequential-stimulus-presentation","11","187790","0.0-8.0-1.1","SS1617819401748","trial","","40","1000","5258.960000006482","images/stimuli/spore_stims/simple_17_A_a.gif","images/stimuli/spore_stims/simple_10_A_b.gif","","0","simple_dissimilar","images/stimuli/spore_stims/simple_17_A_a.gif","","","","",""
"","null","html-keyboard-response","12","188621","0.0-8.0-0.2","SS1617819401748","","","null","","","","","<p><img src= images/blank.png width =""600"" height = ""600"" style=""position:fixed;top:50%; left:50%; transform: translate(-50%, -50%); border:5px solid black"">","","","","","","","",""
"","2269.6799999976065","sequential-stimulus-presentation","13","191905","0.0-8.0-1.2","SS1617819401748","trial","","40","1000","3269.6799999976065","images/stimuli/spore_stims/simple_17_A_a.gif","images/stimuli/spore_stims/simple_10_A_b.gif","","0","simple_dissimilar","images/stimuli/spore_stims/simple_10_A_b.gif","","","","",""
"","null","html-keyboard-response","14","192965","0.0-8.0-0.3","SS1617819401748","","","null","","","","","<p><img src= images/blank.png width =""600"" height = ""600"" style=""position:fixed;top:50%; left:50%; transform: translate(-50%, -50%); border:5px solid black"">","","","","","","","",""
"","2254.335000005085","sequential-stimulus-presentation","15","196231","0.0-8.0-1.3","SS1617819401748","trial","","40","1000","3254.335000005085","images/stimuli/spore_stims/simple_17_A_a.gif","images/stimuli/spore_stims/simple_10_A_b.gif","","0","simple_dissimilar","images/stimuli/spore_stims/simple_17_A_a.gif","","","","",""
"","10192.410000003292","survey-multi-choice","16","206430","0.0-9.0","SS1617819401748","math_question","","","","","","","","","","","{""Q0"":""12""}","[0]","12","",""
"","null","html-keyboard-response","17","207246","0.0-10.0-0.0","SS1617819401748","","","null","","","","","<p><img src= images/blank.png width =""600"" height = ""600"" style=""position:fixed;top:50%; left:50%; transform: translate(-50%, -50%); border:5px solid black"">","","","","","","","",""
"","4134.969999999157","sequential-stimulus-presentation","18","212408","0.0-10.0-1.0","SS1617819401748","trial","","40","1000","5134.969999999157","images/stimuli/spore_stims/simple_10_A_a.gif","images/stimuli/spore_stims/simple_16_A_b.gif","","1","simple_dissimilar","images/stimuli/spore_stims/simple_16_A_b.gif","","","","",""
"","null","html-keyboard-response","19","213597","0.0-10.0-0.1","SS1617819401748","","","null","","","","","<p><img src= images/blank.png width =""600"" height = ""600"" style=""position:fixed;top:50%; left:50%; transform: translate(-50%, -50%); border:5px solid black"">","","","","","","","",""
"","5400.349999996251","sequential-stimulus-presentation","20","220023","0.0-10.0-1.1","SS1617819401748","trial","","40","1000","6400.349999996251","images/stimuli/spore_stims/simple_10_A_a.gif","images/stimuli/spore_stims/simple_16_A_b.gif","","1","simple_dissimilar","images/stimuli/spore_stims/simple_10_A_a.gif","","","","",""
"","null","html-keyboard-response","21","221141","0.0-10.0-0.2","SS1617819401748","","","null","","","","","<p><img src= images/blank.png width =""600"" height = ""600"" style=""position:fixed;top:50%; left:50%; transform: translate(-50%, -50%); border:5px solid black"">","","","","","","","",""
"","4237.065000008442","sequential-stimulus-presentation","22","226399","0.0-10.0-1.2","SS1617819401748","trial","","40","1000","5237.065000008442","images/stimuli/spore_stims/simple_10_A_a.gif","images/stimuli/spore_stims/simple_16_A_b.gif","","1","simple_dissimilar","images/stimuli/spore_stims/simple_16_A_b.gif","","","","",""
"","null","html-keyboard-response","23","227263","0.0-10.0-0.3","SS1617819401748","","","null","","","","","<p><img src= images/blank.png width =""600"" height = ""600"" style=""position:fixed;top:50%; left:50%; transform: translate(-50%, -50%); border:5px solid black"">","","","","","","","",""
"","3728.965000002063","sequential-stimulus-presentation","24","232001","0.0-10.0-1.3","SS1617819401748","trial","","40","1000","4728.965000002063","images/stimuli/spore_stims/simple_10_A_a.gif","images/stimuli/spore_stims/simple_16_A_b.gif","","1","simple_dissimilar","images/stimuli/spore_stims/simple_16_A_b.gif","","","","",""
"","null","html-keyboard-response","25","232828","0.0-10.0-0.4","SS1617819401748","","","null","","","","","<p><img src= images/blank.png width =""600"" height = ""600"" style=""position:fixed;top:50%; left:50%; transform: translate(-50%, -50%); border:5px solid black"">","","","","","","","",""
"","2801.2500000040745","sequential-stimulus-presentation","26","236638","0.0-10.0-1.4","SS1617819401748","trial","","40","1000","3801.2500000040745","images/stimuli/spore_stims/simple_10_A_a.gif","images/stimuli/spore_stims/simple_16_A_b.gif","","1","simple_dissimilar","images/stimuli/spore_stims/simple_16_A_b.gif","","","","",""
"","null","html-keyboard-response","27","237459","0.0-10.0-0.5","SS1617819401748","","","null","","","","","<p><img src= images/blank.png width =""600"" height = ""600"" style=""position:fixed;top:50%; left:50%; transform: translate(-50%, -50%); border:5px solid black"">","","","","","","","",""
"","2255.279999997583","sequential-stimulus-presentation","28","240736","0.0-10.0-1.5","SS1617819401748","trial","","40","1000","3255.279999997583","images/stimuli/spore_stims/simple_10_A_a.gif","images/stimuli/spore_stims/simple_16_A_b.gif","","1","simple_dissimilar","images/stimuli/spore_stims/simple_10_A_a.gif","","","","",""
"","5778.25999999186","survey-multi-choice","29","246518","0.0-11.0","SS1617819401748","math_question","","","","","","","","","","","{""Q0"":""11""}","[0]","11","",""
"","null","html-keyboard-response","30","247401","0.0-12.0-0.0","SS1617819401748","","","null","","","","","<p><img src= images/blank.png width =""600"" height = ""600"" style=""position:fixed;top:50%; left:50%; transform: translate(-50%, -50%); border:5px solid black"">","","","","","","","",""
"","3666.125000003376","sequential-stimulus-presentation","31","252079","0.0-12.0-1.0","SS1617819401748","trial","","40","1000","4666.125000003376","images/stimuli/spore_stims/simple_20_A_a.gif","images/stimuli/spore_stims/simple_14_A_b.gif","","2","simple_dissimilar","images/stimuli/spore_stims/simple_14_A_b.gif","","","","",""
"","null","html-keyboard-response","32","253059","0.0-12.0-0.1","SS1617819401748","","","null","","","","","<p><img src= images/blank.png width =""600"" height = ""600"" style=""position:fixed;top:50%; left:50%; transform: translate(-50%, -50%); border:5px solid black"">","","","","","","","",""
"","3601.3499999971827","sequential-stimulus-presentation","33","257672","0.0-12.0-1.1","SS1617819401748","trial","","40","1000","4601.349999997183","images/stimuli/spore_stims/simple_20_A_a.gif","images/stimuli/spore_stims/simple_14_A_b.gif","","2","simple_dissimilar","images/stimuli/spore_stims/simple_14_A_b.gif","","","","",""
"","null","html-keyboard-response","34","258981","0.0-12.0-0.2","SS1617819401748","","","null","","","","","<p><img src= images/blank.png width =""600"" height = ""600"" style=""position:fixed;top:50%; left:50%; transform: translate(-50%, -50%); border:5px solid black"">","","","","","","","",""
"","1822.5650000094902","sequential-stimulus-presentation","35","261817","0.0-12.0-1.2","SS1617819401748","trial","","40","1000","2822.56500000949","images/stimuli/spore_stims/simple_20_A_a.gif","images/stimuli/spore_stims/simple_14_A_b.gif","","2","simple_dissimilar","images/stimuli/spore_stims/simple_14_A_b.gif","","","","",""
"","null","html-keyboard-response","36","263052","0.0-12.0-0.3","SS1617819401748","","","null","","","","","<p><img src= images/blank.png width =""600"" height = ""600"" style=""position:fixed;top:50%; left:50%; transform: translate(-50%, -50%); border:5px solid black"">","","","","","","","",""
"","876.5299999940908","sequential-stimulus-presentation","37","264941","0.0-12.0-1.3","SS1617819401748","trial","","40","1000","1876.5299999940908","images/stimuli/spore_stims/simple_20_A_a.gif","images/stimuli/spore_stims/simple_14_A_b.gif","","2","simple_dissimilar","images/stimuli/spore_stims/simple_14_A_b.gif","","","","",""
"","null","html-keyboard-response","38","265762","0.0-12.0-0.4","SS1617819401748","","","null","","","","","<p><img src= images/blank.png width =""600"" height = ""600"" style=""position:fixed;top:50%; left:50%; transform: translate(-50%, -50%); border:5px solid black"">","","","","","","","",""
"","1027.314999999362","sequential-stimulus-presentation","39","267800","0.0-12.0-1.4","SS1617819401748","trial","","40","1000","2027.314999999362","images/stimuli/spore_stims/simple_20_A_a.gif","images/stimuli/spore_stims/simple_14_A_b.gif","","2","simple_dissimilar","images/stimuli/spore_stims/simple_14_A_b.gif","","","","",""
"","3520.7399999926565","survey-multi-choice","40","271324","0.0-13.0","SS1617819401748","math_question","","","","","","","","","","","{""Q0"":""10""}","[0]","10","",""
"","null","html-keyboard-response","41","272284","0.0-14.0-0.0","SS1617819401748","","","null","","","","","<p><img src= images/blank.png width =""600"" height = ""600"" style=""position:fixed;top:50%; left:50%; transform: translate(-50%, -50%); border:5px solid black"">","","","","","","","",""
"","3289.535000003525","sequential-stimulus-presentation","42","276586","0.0-14.0-1.0","SS1617819401748","trial","","40","1000","4289.535000003525","images/stimuli/spore_stims/complex_15_A_a.gif","images/stimuli/spore_stims/complex_06_A_b.gif","","3","complex_dissimilar","images/stimuli/spore_stims/complex_06_A_b.gif","","","","",""
"","null","html-keyboard-response","43","277664","0.0-14.0-0.1","SS1617819401748","","","null","","","","","<p><img src= images/blank.png width =""600"" height = ""600"" style=""position:fixed;top:50%; left:50%; transform: translate(-50%, -50%); border:5px solid black"">","","","","","","","",""
"","4545.499999992899","sequential-stimulus-presentation","44","283226","0.0-14.0-1.1","SS1617819401748","trial","","40","1000","5545.499999992899","images/stimuli/spore_stims/complex_15_A_a.gif","images/stimuli/spore_stims/complex_06_A_b.gif","","3","complex_dissimilar","images/stimuli/spore_stims/complex_06_A_b.gif","","","","",""
"","null","html-keyboard-response","45","284231","0.0-14.0-0.2","SS1617819401748","","","null","","","","","<p><img src= images/blank.png width =""600"" height = ""600"" style=""position:fixed;top:50%; left:50%; transform: translate(-50%, -50%); border:5px solid black"">","","","","","","","",""
"","3974.629999996978","sequential-stimulus-presentation","46","289228","0.0-14.0-1.2","SS1617819401748","trial","","40","1000","4974.629999996978","images/stimuli/spore_stims/complex_15_A_a.gif","images/stimuli/spore_stims/complex_06_A_b.gif","","3","complex_dissimilar","images/stimuli/spore_stims/complex_06_A_b.gif","","","","",""
"","null","html-keyboard-response","47","290487","0.0-14.0-0.3","SS1617819401748","","","null","","","","","<p><img src= images/blank.png width =""600"" height = ""600"" style=""position:fixed;top:50%; left:50%; transform: translate(-50%, -50%); border:5px solid black"">","","","","","","","",""
"","1372.0699999976205","sequential-stimulus-presentation","48","292870","0.0-14.0-1.3","SS1617819401748","trial","","40","1000","2372.0699999976205","images/stimuli/spore_stims/complex_15_A_a.gif","images/stimuli/spore_stims/complex_06_A_b.gif","","3","complex_dissimilar","images/stimuli/spore_stims/complex_06_A_b.gif","","","","",""
"","null","html-keyboard-response","49","294022","0.0-14.0-0.4","SS1617819401748","","","null","","","","","<p><img src= images/blank.png width =""600"" height = ""600"" style=""position:fixed;top:50%; left:50%; transform: translate(-50%, -50%); border:5px solid black"">","","","","","","","",""
"","8281.110000010813","sequential-stimulus-presentation","50","303317","0.0-14.0-1.4","SS1617819401748","trial","","40","1000","9281.110000010813","images/stimuli/spore_stims/complex_15_A_a.gif","images/stimuli/spore_stims/complex_06_A_b.gif","","3","complex_dissimilar","images/stimuli/spore_stims/complex_15_A_a.gif","","","","",""
"","null","html-keyboard-response","51","304533","0.0-14.0-0.5","SS1617819401748","","","null","","","","","<p><img src= images/blank.png width =""600"" height = ""600"" style=""position:fixed;top:50%; left:50%; transform: translate(-50%, -50%); border:5px solid black"">","","","","","","","",""
"","4193.3699999935925","sequential-stimulus-presentation","52","309742","0.0-14.0-1.5","SS1617819401748","trial","","40","1000","5193.3699999935925","images/stimuli/spore_stims/complex_15_A_a.gif","images/stimuli/spore_stims/complex_06_A_b.gif","","3","complex_dissimilar","images/stimuli/spore_stims/complex_06_A_b.gif","","","","",""
"","3945.6549999886192","survey-multi-choice","53","313692","0.0-15.0","SS1617819401748","math_question","","","","","","","","","","","{""Q0"":""14""}","[0]","14","",""
"","null","html-keyboard-response","54","314929","0.0-16.0-0.0","SS1617819401748","","","null","","","","","<p><img src= images/blank.png width =""600"" height = ""600"" style=""position:fixed;top:50%; left:50%; transform: translate(-50%, -50%); border:5px solid black"">","","","","","","","",""
"","3411.2699999968754","sequential-stimulus-presentation","55","319359","0.0-16.0-1.0","SS1617819401748","trial","","40","1000","4411.269999996875","images/stimuli/spore_stims/simple_05_A_a.gif","images/stimuli/spore_stims/simple_20_A_b.gif","","4","simple_dissimilar","images/stimuli/spore_stims/simple_20_A_b.gif","","","","",""
"","null","html-keyboard-response","56","320548","0.0-16.0-0.1","SS1617819401748","","","null","","","","","<p><img src= images/blank.png width =""600"" height = ""600"" style=""position:fixed;top:50%; left:50%; transform: translate(-50%, -50%); border:5px solid black"">","","","","","","","",""
"","3007.710000005318","sequential-stimulus-presentation","57","324565","0.0-16.0-1.1","SS1617819401748","trial","","40","1000","4007.710000005318","images/stimuli/spore_stims/simple_05_A_a.gif","images/stimuli/spore_stims/simple_20_A_b.gif","","4","simple_dissimilar","images/stimuli/spore_stims/simple_20_A_b.gif","","","","",""
"","null","html-keyboard-response","58","325675","0.0-16.0-0.2","SS1617819401748","","","null","","","","","<p><img src= images/blank.png width =""600"" height = ""600"" style=""position:fixed;top:50%; left:50%; transform: translate(-50%, -50%); border:5px solid black"">","","","","","","","",""
"","2623.429999992368","sequential-stimulus-presentation","59","329313","0.0-16.0-1.2","SS1617819401748","trial","","40","1000","3623.429999992368","images/stimuli/spore_stims/simple_05_A_a.gif","images/stimuli/spore_stims/simple_20_A_b.gif","","4","simple_dissimilar","images/stimuli/spore_stims/simple_20_A_b.gif","","","","",""
"","null","html-keyboard-response","60","330282","0.0-16.0-0.3","SS1617819401748","","","null","","","","","<p><img src= images/blank.png width =""600"" height = ""600"" style=""position:fixed;top:50%; left:50%; transform: translate(-50%, -50%); border:5px solid black"">","","","","","","","",""
"","1814.3200000049546","sequential-stimulus-presentation","61","333106","0.0-16.0-1.3","SS1617819401748","trial","","40","1000","2814.3200000049546","images/stimuli/spore_stims/simple_05_A_a.gif","images/stimuli/spore_stims/simple_20_A_b.gif","","4","simple_dissimilar","images/stimuli/spore_stims/simple_20_A_b.gif","","","","",""
"","null","html-keyboard-response","62","334048","0.0-16.0-0.4","SS1617819401748","","","null","","","","","<p><img src= images/blank.png width =""600"" height = ""600"" style=""position:fixed;top:50%; left:50%; transform: translate(-50%, -50%); border:5px solid black"">","","","","","","","",""
"","1254.239999994752","sequential-stimulus-presentation","63","336314","0.0-16.0-1.4","SS1617819401748","trial","","40","1000","2254.239999994752","images/stimuli/spore_stims/simple_05_A_a.gif","images/stimuli/spore_stims/simple_20_A_b.gif","","4","simple_dissimilar","images/stimuli/spore_stims/simple_20_A_b.gif","","","","",""
"","null","html-keyboard-response","64","337436","0.0-16.0-0.5","SS1617819401748","","","null","","","","","<p><img src= images/blank.png width =""600"" height = ""600"" style=""position:fixed;top:50%; left:50%; transform: translate(-50%, -50%); border:5px solid black"">","","","","","","","",""
"","2636.900000012247","sequential-stimulus-presentation","65","341087","0.0-16.0-1.5","SS1617819401748","trial","","40","1000","3636.900000012247","images/stimuli/spore_stims/simple_05_A_a.gif","images/stimuli/spore_stims/simple_20_A_b.gif","","4","simple_dissimilar","images/stimuli/spore_stims/simple_20_A_b.gif","","","","",""
"","3168.789999996079","survey-multi-choice","66","344260","0.0-17.0","SS1617819401748","math_question","","","","","","","","","","","{""Q0"":""5""}","[0]","5","",""
"","null","html-keyboard-response","67","345090","0.0-18.0-0.0","SS1617819401748","","","null","","","","","<p><img src= images/blank.png width =""600"" height = ""600"" style=""position:fixed;top:50%; left:50%; transform: translate(-50%, -50%); border:5px solid black"">","","","","","","","",""
"","6454.430000012508","sequential-stimulus-presentation","68","352570","0.0-18.0-1.0","SS1617819401748","trial","","40","1000","7454.430000012508","images/stimuli/spore_stims/complex_17_A_a.gif","images/stimuli/spore_stims/complex_14_A_b.gif","","5","complex_dissimilar","images/stimuli/spore_stims/complex_14_A_b.gif","","","","",""
"","null","html-keyboard-response","69","353606","0.0-18.0-0.1","SS1617819401748","","","null","","","","","<p><img src= images/blank.png width =""600"" height = ""600"" style=""position:fixed;top:50%; left:50%; transform: translate(-50%, -50%); border:5px solid black"">","","","","","","","",""
"","4716.625000000931","sequential-stimulus-presentation","70","359341","0.0-18.0-1.1","SS1617819401748","trial","","40","1000","5716.625000000931","images/stimuli/spore_stims/complex_17_A_a.gif","images/stimuli/spore_stims/complex_14_A_b.gif","","5","complex_dissimilar","images/stimuli/spore_stims/complex_14_A_b.gif","","","","",""
"","null","html-keyboard-response","71","360452","0.0-18.0-0.2","SS1617819401748","","","null","","","","","<p><img src= images/blank.png width =""600"" height = ""600"" style=""position:fixed;top:50%; left:50%; transform: translate(-50%, -50%); border:5px solid black"">","","","","","","","",""
"","3080.535000000964","sequential-stimulus-presentation","72","364556","0.0-18.0-1.2","SS1617819401748","trial","","40","1000","4080.535000000964","images/stimuli/spore_stims/complex_17_A_a.gif","images/stimuli/spore_stims/complex_14_A_b.gif","","5","complex_dissimilar","images/stimuli/spore_stims/complex_14_A_b.gif","","","","",""
"","null","html-keyboard-response","73","365459","0.0-18.0-0.3","SS1617819401748","","","null","","","","","<p><img src= images/blank.png width =""600"" height = ""600"" style=""position:fixed;top:50%; left:50%; transform: translate(-50%, -50%); border:5px solid black"">","","","","","","","",""
"","1544.449999986682","sequential-stimulus-presentation","74","368027","0.0-18.0-1.3","SS1617819401748","trial","","40","1000","2544.449999986682","images/stimuli/spore_stims/complex_17_A_a.gif","images/stimuli/spore_stims/complex_14_A_b.gif","","5","complex_dissimilar","images/stimuli/spore_stims/complex_14_A_b.gif","","","","",""
"","4104.4200000033015","survey-multi-choice","75","372138","0.0-19.0","SS1617819401748","math_question","","","","","","","","","","","{""Q0"":""8""}","[0]","8","",""
"","null","html-keyboard-response","76","373027","0.0-20.0-0.0","SS1617819401748","","","null","","","","","<p><img src= images/blank.png width =""600"" height = ""600"" style=""position:fixed;top:50%; left:50%; transform: translate(-50%, -50%); border:5px solid black"">","","","","","","","",""
"","3132.3600000032457","sequential-stimulus-presentation","77","377181","0.0-20.0-1.0","SS1617819401748","trial","","40","1000","4132.360000003246","images/stimuli/spore_stims/simple_04_A_b.gif","images/stimuli/spore_stims/simple_13_A_a.gif","","6","simple_dissimilar","images/stimuli/spore_stims/simple_13_A_a.gif","","","","",""
"","null","html-keyboard-response","78","378499","0.0-20.0-0.1","SS1617819401748","","","null","","","","","<p><img src= images/blank.png width =""600"" height = ""600"" style=""position:fixed;top:50%; left:50%; transform: translate(-50%, -50%); border:5px solid black"">","","","","","","","",""
"","1392.3999999969965","sequential-stimulus-presentation","79","380916","0.0-20.0-1.1","SS1617819401748","trial","","40","1000","2392.3999999969965","images/stimuli/spore_stims/simple_04_A_b.gif","images/stimuli/spore_stims/simple_13_A_a.gif","","6","simple_dissimilar","images/stimuli/spore_stims/simple_04_A_b.gif","","","","",""
"","null","html-keyboard-response","80","382041","0.0-20.0-0.2","SS1617819401748","","","null","","","","","<p><img src= images/blank.png width =""600"" height = ""600"" style=""position:fixed;top:50%; left:50%; transform: translate(-50%, -50%); border:5px solid black"">","","","","","","","",""
"","2846.6849999967963","sequential-stimulus-presentation","81","385915","0.0-20.0-1.2","SS1617819401748","trial","","40","1000","3846.6849999967963","images/stimuli/spore_stims/simple_04_A_b.gif","images/stimuli/spore_stims/simple_13_A_a.gif","","6","simple_dissimilar","images/stimuli/spore_stims/simple_13_A_a.gif","","","","",""
"","null","html-keyboard-response","82","387031","0.0-20.0-0.3","SS1617819401748","","","null","","","","","<p><img src= images/blank.png width =""600"" height = ""600"" style=""position:fixed;top:50%; left:50%; transform: translate(-50%, -50%); border:5px solid black"">","","","","","","","",""
"","2677.9499999975087","sequential-stimulus-presentation","83","390736","0.0-20.0-1.3","SS1617819401748","trial","","40","1000","3677.9499999975087","images/stimuli/spore_stims/simple_04_A_b.gif","images/stimuli/spore_stims/simple_13_A_a.gif","","6","simple_dissimilar","images/stimuli/spore_stims/simple_13_A_a.gif","","","","",""
"","null","html-keyboard-response","84","391844","0.0-20.0-0.4","SS1617819401748","","","null","","","","","<p><img src= images/blank.png width =""600"" height = ""600"" style=""position:fixed;top:50%; left:50%; transform: translate(-50%, -50%); border:5px solid black"">","","","","","","","",""
"","4094.539999990957","sequential-stimulus-presentation","85","396957","0.0-20.0-1.4","SS1617819401748","trial","","40","1000","5094.539999990957","images/stimuli/spore_stims/simple_04_A_b.gif","images/stimuli/spore_stims/simple_13_A_a.gif","","6","simple_dissimilar","images/stimuli/spore_stims/simple_04_A_b.gif","","","","",""
"","3233.8999999919906","survey-multi-choice","86","400196","0.0-21.0","SS1617819401748","math_question","","","","","","","","","","","{""Q0"":""15""}","[0]","15","",""
"","null","html-keyboard-response","87","401353","0.0-22.0-0.0","SS1617819401748","","","null","","","","","<p><img src= images/blank.png width =""600"" height = ""600"" style=""position:fixed;top:50%; left:50%; transform: translate(-50%, -50%); border:5px solid black"">","","","","","","","",""
"","3734.1750000050524","sequential-stimulus-presentation","88","406101","0.0-22.0-1.0","SS1617819401748","trial","","40","1000","4734.175000005052","images/stimuli/spore_stims/complex_03_A_b.gif","images/stimuli/spore_stims/complex_14_A_a.gif","","7","complex_dissimilar","images/stimuli/spore_stims/complex_14_A_a.gif","","","","",""
"","null","html-keyboard-response","89","407139","0.0-22.0-0.1","SS1617819401748","","","null","","","","","<p><img src= images/blank.png width =""600"" height = ""600"" style=""position:fixed;top:50%; left:50%; transform: translate(-50%, -50%); border:5px solid black"">","","","","","","","",""
"","866.5500000061002","sequential-stimulus-presentation","90","409018","0.0-22.0-1.1","SS1617819401748","trial","","40","1000","1866.5500000061002","images/stimuli/spore_stims/complex_03_A_b.gif","images/stimuli/spore_stims/complex_14_A_a.gif","","7","complex_dissimilar","images/stimuli/spore_stims/complex_14_A_a.gif","","","","",""
"","null","html-keyboard-response","91","409862","0.0-22.0-0.2","SS1617819401748","","","null","","","","","<p><img src= images/blank.png width =""600"" height = ""600"" style=""position:fixed;top:50%; left:50%; transform: translate(-50%, -50%); border:5px solid black"">","","","","","","","",""
"","2072.5749999983236","sequential-stimulus-presentation","92","412955","0.0-22.0-1.2","SS1617819401748","trial","","40","1000","3072.5749999983236","images/stimuli/spore_stims/complex_03_A_b.gif","images/stimuli/spore_stims/complex_14_A_a.gif","","7","complex_dissimilar","images/stimuli/spore_stims/complex_14_A_a.gif","","","","",""
"","null","html-keyboard-response","93","414100","0.0-22.0-0.3","SS1617819401748","","","null","","","","","<p><img src= images/blank.png width =""600"" height = ""600"" style=""position:fixed;top:50%; left:50%; transform: translate(-50%, -50%); border:5px solid black"">","","","","","","","",""
"","792.6449999940814","sequential-stimulus-presentation","94","415904","0.0-22.0-1.3","SS1617819401748","trial","","40","1000","1792.6449999940814","images/stimuli/spore_stims/complex_03_A_b.gif","images/stimuli/spore_stims/complex_14_A_a.gif","","7","complex_dissimilar","images/stimuli/spore_stims/complex_14_A_a.gif","","","","",""
"","null","html-keyboard-response","95","416950","0.0-22.0-0.4","SS1617819401748","","","null","","","","","<p><img src= images/blank.png width =""600"" height = ""600"" style=""position:fixed;top:50%; left:50%; transform: translate(-50%, -50%); border:5px solid black"">","","","","","","","",""
"","1691.739999994752","sequential-stimulus-presentation","96","419659","0.0-22.0-1.4","SS1617819401748","trial","","40","1000","2691.739999994752","images/stimuli/spore_stims/complex_03_A_b.gif","images/stimuli/spore_stims/complex_14_A_a.gif","","7","complex_dissimilar","images/stimuli/spore_stims/complex_14_A_a.gif","","","","",""
"","4676.514999999199","survey-multi-choice","97","424340","0.0-23.0","SS1617819401748","math_question","","","","","","","","","","","{""Q0"":""11""}","[0]","11","",""
"","null","html-keyboard-response","98","425601","0.0-24.0-0.0","SS1617819401748","","","null","","","","","<p><img src= images/blank.png width =""600"" height = ""600"" style=""position:fixed;top:50%; left:50%; transform: translate(-50%, -50%); border:5px solid black"">","","","","","","","",""
"","6548.714999997173","sequential-stimulus-presentation","99","433166","0.0-24.0-1.0","SS1617819401748","trial","","40","1000","7548.714999997173","images/stimuli/spore_stims/complex_04_A_b.gif","images/stimuli/spore_stims/complex_12_A_a.gif","","8","complex_dissimilar","images/stimuli/spore_stims/complex_12_A_a.gif","","","","",""
"","null","html-keyboard-response","100","434045","0.0-24.0-0.1","SS1617819401748","","","null","","","","","<p><img src= images/blank.png width =""600"" height = ""600"" style=""position:fixed;top:50%; left:50%; transform: translate(-50%, -50%); border:5px solid black"">","","","","","","","",""
"","3684.285000010277","sequential-stimulus-presentation","101","438743","0.0-24.0-1.1","SS1617819401748","trial","","40","1000","4684.285000010277","images/stimuli/spore_stims/complex_04_A_b.gif","images/stimuli/spore_stims/complex_12_A_a.gif","","8","complex_dissimilar","images/stimuli/spore_stims/complex_12_A_a.gif","","","","",""
"","null","html-keyboard-response","102","439982","0.0-24.0-0.2","SS1617819401748","","","null","","","","","<p><img src= images/blank.png width =""600"" height = ""600"" style=""position:fixed;top:50%; left:50%; transform: translate(-50%, -50%); border:5px solid black"">","","","","","","","",""
"","5157.944999999017","sequential-stimulus-presentation","103","446151","0.0-24.0-1.2","SS1617819401748","trial","","40","1000","6157.944999999017","images/stimuli/spore_stims/complex_04_A_b.gif","images/stimuli/spore_stims/complex_12_A_a.gif","","8","complex_dissimilar","images/stimuli/spore_stims/complex_12_A_a.gif","","","","",""
"","null","html-keyboard-response","104","447403","0.0-24.0-0.3","SS1617819401748","","","null","","","","","<p><img src= images/blank.png width =""600"" height = ""600"" style=""position:fixed;top:50%; left:50%; transform: translate(-50%, -50%); border:5px solid black"">","","","","","","","",""
"","1149.7650000092108","sequential-stimulus-presentation","105","449566","0.0-24.0-1.3","SS1617819401748","trial","","40","1000","2149.765000009211","images/stimuli/spore_stims/complex_04_A_b.gif","images/stimuli/spore_stims/complex_12_A_a.gif","","8","complex_dissimilar","images/stimuli/spore_stims/complex_12_A_a.gif","","","","",""
"","null","html-keyboard-response","106","450441","0.0-24.0-0.4","SS1617819401748","","","null","","","","","<p><img src= images/blank.png width =""600"" height = ""600"" style=""position:fixed;top:50%; left:50%; transform: translate(-50%, -50%); border:5px solid black"">","","","","","","","",""
"","2961.0850000026403","sequential-stimulus-presentation","107","454419","0.0-24.0-1.4","SS1617819401748","trial","","40","1000","3961.0850000026403","images/stimuli/spore_stims/complex_04_A_b.gif","images/stimuli/spore_stims/complex_12_A_a.gif","","8","complex_dissimilar","images/stimuli/spore_stims/complex_12_A_a.gif","","","","",""
"","null","html-keyboard-response","108","455632","0.0-24.0-0.5","SS1617819401748","","","null","","","","","<p><img src= images/blank.png width =""600"" height = ""600"" style=""position:fixed;top:50%; left:50%; transform: translate(-50%, -50%); border:5px solid black"">","","","","","","","",""
"","2568.8050000026124","sequential-stimulus-presentation","109","459215","0.0-24.0-1.5","SS1617819401748","trial","","40","1000","3568.8050000026124","images/stimuli/spore_stims/complex_04_A_b.gif","images/stimuli/spore_stims/complex_12_A_a.gif","","8","complex_dissimilar","images/stimuli/spore_stims/complex_12_A_a.gif","","","","",""
"","3157.9150000034133","survey-multi-choice","110","462378","0.0-25.0","SS1617819401748","math_question","","","","","","","","","","","{""Q0"":""7""}","[0]","7","",""
"","null","html-keyboard-response","111","463416","0.0-26.0-0.0","SS1617819401748","","","null","","","","","<p><img src= images/blank.png width =""600"" height = ""600"" style=""position:fixed;top:50%; left:50%; transform: translate(-50%, -50%); border:5px solid black"">","","","","","","","",""
"","3168.2900000014342","sequential-stimulus-presentation","112","467598","0.0-26.0-1.0","SS1617819401748","trial","","40","1000","4168.290000001434","images/stimuli/spore_stims/simple_02_A_a.gif","images/stimuli/spore_stims/simple_06_A_b.gif","","9","simple_dissimilar","images/stimuli/spore_stims/simple_06_A_b.gif","","","","",""
"","null","html-keyboard-response","113","468865","0.0-26.0-0.1","SS1617819401748","","","null","","","","","<p><img src= images/blank.png width =""600"" height = ""600"" style=""position:fixed;top:50%; left:50%; transform: translate(-50%, -50%); border:5px solid black"">","","","","","","","",""
"","345.3050000098301","sequential-stimulus-presentation","114","470225","0.0-26.0-1.1","SS1617819401748","trial","","40","1000","1345.30500000983","images/stimuli/spore_stims/simple_02_A_a.gif","images/stimuli/spore_stims/simple_06_A_b.gif","","9","simple_dissimilar","images/stimuli/spore_stims/simple_06_A_b.gif","","","","",""
"","null","html-keyboard-response","115","471168","0.0-26.0-0.2","SS1617819401748","","","null","","","","","<p><img src= images/blank.png width =""600"" height = ""600"" style=""position:fixed;top:50%; left:50%; transform: translate(-50%, -50%); border:5px solid black"">","","","","","","","",""
"","1697.1099999936996","sequential-stimulus-presentation","116","473886","0.0-26.0-1.2","SS1617819401748","trial","","40","1000","2697.1099999936996","images/stimuli/spore_stims/simple_02_A_a.gif","images/stimuli/spore_stims/simple_06_A_b.gif","","9","simple_dissimilar","images/stimuli/spore_stims/simple_06_A_b.gif","","","","",""
"","null","html-keyboard-response","117","475083","0.0-26.0-0.3","SS1617819401748","","","null","","","","","<p><img src= images/blank.png width =""600"" height = ""600"" style=""position:fixed;top:50%; left:50%; transform: translate(-50%, -50%); border:5px solid black"">","","","","","","","",""
"","1049.7550000000047","sequential-stimulus-presentation","118","477154","0.0-26.0-1.3","SS1617819401748","trial","","40","1000","2049.7550000000047","images/stimuli/spore_stims/simple_02_A_a.gif","images/stimuli/spore_stims/simple_06_A_b.gif","","9","simple_dissimilar","images/stimuli/spore_stims/simple_06_A_b.gif","","","","",""
"","null","html-keyboard-response","119","478137","0.0-26.0-0.4","SS1617819401748","","","null","","","","","<p><img src= images/blank.png width =""600"" height = ""600"" style=""position:fixed;top:50%; left:50%; transform: translate(-50%, -50%); border:5px solid black"">","","","","","","","",""
"","2218.1500000006054","sequential-stimulus-presentation","120","481368","0.0-26.0-1.4","SS1617819401748","trial","","40","1000","3218.1500000006054","images/stimuli/spore_stims/simple_02_A_a.gif","images/stimuli/spore_stims/simple_06_A_b.gif","","9","simple_dissimilar","images/stimuli/spore_stims/simple_06_A_b.gif","","","","",""
"","null","html-keyboard-response","121","482450","0.0-26.0-0.5","SS1617819401748","","","null","","","","","<p><img src= images/blank.png width =""600"" height = ""600"" style=""position:fixed;top:50%; left:50%; transform: translate(-50%, -50%); border:5px solid black"">","","","","","","","",""
"","2202.7349999989383","sequential-stimulus-presentation","122","485670","0.0-26.0-1.5","SS1617819401748","trial","","40","1000","3202.7349999989383","images/stimuli/spore_stims/simple_02_A_a.gif","images/stimuli/spore_stims/simple_06_A_b.gif","","9","simple_dissimilar","images/stimuli/spore_stims/simple_06_A_b.gif","","","","",""
"","4927.469999995083","survey-multi-choice","123","490604","0.0-27.0","SS1617819401748","math_question","","","","","","","","","","","{""Q0"":""11""}","[0]","11","",""
"","null","html-keyboard-response","124","491824","0.0-28.0-0.0","SS1617819401748","","","null","","","","","<p><img src= images/blank.png width =""600"" height = ""600"" style=""position:fixed;top:50%; left:50%; transform: translate(-50%, -50%); border:5px solid black"">","","","","","","","",""
"","4230.454999997164","sequential-stimulus-presentation","125","497085","0.0-28.0-1.0","SS1617819401748","trial","","40","1000","5230.454999997164","images/stimuli/spore_stims/complex_01_A_a.gif","images/stimuli/spore_stims/complex_20_A_b.gif","","10","complex_dissimilar","images/stimuli/spore_stims/complex_20_A_b.gif","","","","",""
"","null","html-keyboard-response","126","498238","0.0-28.0-0.1","SS1617819401748","","","null","","","","","<p><img src= images/blank.png width =""600"" height = ""600"" style=""position:fixed;top:50%; left:50%; transform: translate(-50%, -50%); border:5px solid black"">","","","","","","","",""
"","4249.649999997928","sequential-stimulus-presentation","127","503503","0.0-28.0-1.1","SS1617819401748","trial","","40","1000","5249.649999997928","images/stimuli/spore_stims/complex_01_A_a.gif","images/stimuli/spore_stims/complex_20_A_b.gif","","10","complex_dissimilar","images/stimuli/spore_stims/complex_01_A_a.gif","","","","",""
"","null","html-keyboard-response","128","504610","0.0-28.0-0.2","SS1617819401748","","","null","","","","","<p><img src= images/blank.png width =""600"" height = ""600"" style=""position:fixed;top:50%; left:50%; transform: translate(-50%, -50%); border:5px solid black"">","","","","","","","",""
"","4358.924999993178","sequential-stimulus-presentation","129","509989","0.0-28.0-1.2","SS1617819401748","trial","","40","1000","5358.924999993178","images/stimuli/spore_stims/complex_01_A_a.gif","images/stimuli/spore_stims/complex_20_A_b.gif","","10","complex_dissimilar","images/stimuli/spore_stims/complex_01_A_a.gif","","","","",""
"","null","html-keyboard-response","130","510995","0.0-28.0-0.3","SS1617819401748","","","null","","","","","<p><img src= images/blank.png width =""600"" height = ""600"" style=""position:fixed;top:50%; left:50%; transform: translate(-50%, -50%); border:5px solid black"">","","","","","","","",""
"","2721.514999997453","sequential-stimulus-presentation","131","514741","0.0-28.0-1.3","SS1617819401748","trial","","40","1000","3721.514999997453","images/stimuli/spore_stims/complex_01_A_a.gif","images/stimuli/spore_stims/complex_20_A_b.gif","","10","complex_dissimilar","images/stimuli/spore_stims/complex_20_A_b.gif","","","","",""
"","null","html-keyboard-response","132","516007","0.0-28.0-0.4","SS1617819401748","","","null","","","","","<p><img src= images/blank.png width =""600"" height = ""600"" style=""position:fixed;top:50%; left:50%; transform: translate(-50%, -50%); border:5px solid black"">","","","","","","","",""
"","604.5599999924889","sequential-stimulus-presentation","133","517633","0.0-28.0-1.4","SS1617819401748","trial","","40","1000","1604.5599999924889","images/stimuli/spore_stims/complex_01_A_a.gif","images/stimuli/spore_stims/complex_20_A_b.gif","","10","complex_dissimilar","images/stimuli/spore_stims/complex_20_A_b.gif","","","","",""
"","null","html-keyboard-response","134","518513","0.0-28.0-0.5","SS1617819401748","","","null","","","","","<p><img src= images/blank.png width =""600"" height = ""600"" style=""position:fixed;top:50%; left:50%; transform: translate(-50%, -50%); border:5px solid black"">","","","","","","","",""
"","2503.6349999863887","sequential-stimulus-presentation","135","522036","0.0-28.0-1.5","SS1617819401748","trial","","40","1000","3503.6349999863887","images/stimuli/spore_stims/complex_01_A_a.gif","images/stimuli/spore_stims/complex_20_A_b.gif","","10","complex_dissimilar","images/stimuli/spore_stims/complex_20_A_b.gif","","","","",""
"","3653.344999998808","survey-multi-choice","136","525696","0.0-29.0","SS1617819401748","math_question","","","","","","","","","","","{""Q0"":""11""}","[0]","11","",""
"","null","html-keyboard-response","137","526909","0.0-30.0-0.0","SS1617819401748","","","null","","","","","<p><img src= images/blank.png width =""600"" height = ""600"" style=""position:fixed;top:50%; left:50%; transform: translate(-50%, -50%); border:5px solid black"">","","","","","","","",""
"","5162.645000003977","sequential-stimulus-presentation","138","533092","0.0-30.0-1.0","SS1617819401748","trial","","40","1000","6162.645000003977","images/stimuli/spore_stims/complex_11_A_a.gif","images/stimuli/spore_stims/complex_19_A_b.gif","","11","complex_dissimilar","images/stimuli/spore_stims/complex_19_A_b.gif","","","","",""
"","null","html-keyboard-response","139","534157","0.0-30.0-0.1","SS1617819401748","","","null","","","","","<p><img src= images/blank.png width =""600"" height = ""600"" style=""position:fixed;top:50%; left:50%; transform: translate(-50%, -50%); border:5px solid black"">","","","","","","","",""
"","419.579999987036","sequential-stimulus-presentation","140","535588","0.0-30.0-1.1","SS1617819401748","trial","","40","1000","1419.579999987036","images/stimuli/spore_stims/complex_11_A_a.gif","images/stimuli/spore_stims/complex_19_A_b.gif","","11","complex_dissimilar","images/stimuli/spore_stims/complex_19_A_b.gif","","","","",""
"","null","html-keyboard-response","141","536558","0.0-30.0-0.2","SS1617819401748","","","null","","","","","<p><img src= images/blank.png width =""600"" height = ""600"" style=""position:fixed;top:50%; left:50%; transform: translate(-50%, -50%); border:5px solid black"">","","","","","","","",""
"","992.3100000014529","sequential-stimulus-presentation","142","538564","0.0-30.0-1.2","SS1617819401748","trial","","40","1000","1992.3100000014529","images/stimuli/spore_stims/complex_11_A_a.gif","images/stimuli/spore_stims/complex_19_A_b.gif","","11","complex_dissimilar","images/stimuli/spore_stims/complex_19_A_b.gif","","","","",""
"","null","html-keyboard-response","143","539430","0.0-30.0-0.3","SS1617819401748","","","null","","","","","<p><img src= images/blank.png width =""600"" height = ""600"" style=""position:fixed;top:50%; left:50%; transform: translate(-50%, -50%); border:5px solid black"">","","","","","","","",""
"","2970.900000000256","sequential-stimulus-presentation","144","543416","0.0-30.0-1.3","SS1617819401748","trial","","40","1000","3970.900000000256","images/stimuli/spore_stims/complex_11_A_a.gif","images/stimuli/spore_stims/complex_19_A_b.gif","","11","complex_dissimilar","images/stimuli/spore_stims/complex_19_A_b.gif","","","","",""
"","null","html-keyboard-response","145","544656","0.0-30.0-0.4","SS1617819401748","","","null","","","","","<p><img src= images/blank.png width =""600"" height = ""600"" style=""position:fixed;top:50%; left:50%; transform: translate(-50%, -50%); border:5px solid black"">","","","","","","","",""
"","476.9700000033481","sequential-stimulus-presentation","146","546146","0.0-30.0-1.4","SS1617819401748","trial","","40","1000","1476.970000003348","images/stimuli/spore_stims/complex_11_A_a.gif","images/stimuli/spore_stims/complex_19_A_b.gif","","11","complex_dissimilar","images/stimuli/spore_stims/complex_19_A_b.gif","","","","",""
"","null","html-keyboard-response","147","547376","0.0-30.0-0.5","SS1617819401748","","","null","","","","","<p><img src= images/blank.png width =""600"" height = ""600"" style=""position:fixed;top:50%; left:50%; transform: translate(-50%, -50%); border:5px solid black"">","","","","","","","",""
"","205.66500000131782","sequential-stimulus-presentation","148","548603","0.0-30.0-1.5","SS1617819401748","trial","","40","1000","1205.6650000013178","images/stimuli/spore_stims/complex_11_A_a.gif","images/stimuli/spore_stims/complex_19_A_b.gif","","11","complex_dissimilar","images/stimuli/spore_stims/complex_19_A_b.gif","","","","",""
"[{""page_index"":0,""viewing_time"":17391.254999995}]","17391.640000001644","instructions","149","566000","0.0-31.0","SS1617819401748","instructions","","","","","","","","","","","","","","",""
"","18057.66500000027","survey-likert","150","584062","0.0-32.0","SS1617819401748","similarity_question","","","","","","","","","","","{""Q0"":0}","[0]","","images/stimuli/spore_stims/simple_05_A_a.gif","images/stimuli/spore_stims/simple_20_A_b.gif"
"","19065.27500000084","survey-likert","151","603132","0.0-33.0","SS1617819401748","similarity_question","","","","","","","","","","","{""Q0"":4}","[0]","","images/stimuli/spore_stims/simple_02_A_a.gif","images/stimuli/spore_stims/simple_06_A_b.gif"
"","10689.23000000359","survey-likert","152","613826","0.0-34.0","SS1617819401748","similarity_question","","","","","","","","","","","{""Q0"":0}","[0]","","images/stimuli/spore_stims/simple_10_A_a.gif","images/stimuli/spore_stims/simple_16_A_b.gif"
"","12696.060000002035","survey-likert","153","626527","0.0-35.0","SS1617819401748","similarity_question","","","","","","","","","","","{""Q0"":2}","[0]","","images/stimuli/spore_stims/simple_17_A_a.gif","images/stimuli/spore_stims/simple_10_A_b.gif"
"","11508.894999991753","survey-likert","154","638040","0.0-36.0","SS1617819401748","similarity_question","","","","","","","","","","","{""Q0"":0}","[0]","","images/stimuli/spore_stims/complex_14_A_a.gif","images/stimuli/spore_stims/complex_03_A_b.gif"
"","9546.454999988782","survey-likert","155","647591","0.0-37.0","SS1617819401748","similarity_question","","","","","","","","","","","{""Q0"":1}","[0]","","images/stimuli/spore_stims/complex_20_A_b.gif","images/stimuli/spore_stims/complex_01_A_a.gif"
"","17863.339999996242","survey-likert","156","665458","0.0-38.0","SS1617819401748","similarity_question","","","","","","","","","","","{""Q0"":0}","[0]","","images/stimuli/spore_stims/complex_04_A_b.gif","images/stimuli/spore_stims/complex_12_A_a.gif"
"","8797.510000003967","survey-likert","157","674260","0.0-39.0","SS1617819401748","similarity_question","","","","","","","","","","","{""Q0"":4}","[0]","","images/stimuli/spore_stims/complex_15_A_a.gif","images/stimuli/spore_stims/complex_06_A_b.gif"
"","12595.814999993308","survey-likert","158","686860","0.0-40.0","SS1617819401748","similarity_question","","","","","","","","","","","{""Q0"":0}","[0]","","images/stimuli/spore_stims/complex_19_A_b.gif","images/stimuli/spore_stims/complex_11_A_a.gif"
"","8685.68999999843","survey-likert","159","695550","0.0-41.0","SS1617819401748","similarity_question","","","","","","","","","","","{""Q0"":5}","[0]","","images/stimuli/spore_stims/simple_20_A_a.gif","images/stimuli/spore_stims/simple_14_A_b.gif"
"","5331.824999986566","survey-likert","160","700886","0.0-42.0","SS1617819401748","similarity_question","","","","","","","","","","","{""Q0"":4}","[0]","","images/stimuli/spore_stims/simple_13_A_a.gif","images/stimuli/spore_stims/simple_04_A_b.gif"
"","8661.754999993718","survey-likert","161","709552","0.0-43.0","SS1617819401748","similarity_question","","","","","","","","","","","{""Q0"":0}","[0]","","images/stimuli/spore_stims/complex_14_A_b.gif","images/stimuli/spore_stims/complex_17_A_a.gif"
"[{""page_index"":0,""viewing_time"":8796.085000009043}]","8796.475000010105","instructions","162","718352","0.0-44.0","SS1617819401748","instructions","","","","","","","","","","","","","","",""
"","10259.705000004033","survey-likert","163","728616","0.0-45.0","SS1617819401748","","","","","","","","images/stimuli/spore_stims/complex_04_A_b.gif","","","","{""Q0"":5}","[0]","","",""
"","4822.0149999979185","survey-likert","164","733442","0.0-46.0","SS1617819401748","","","","","","","","images/stimuli/spore_stims/complex_06_A_b.gif","","","","{""Q0"":5}","[0]","","",""
"","5997.89499999315","survey-likert","165","739445","0.0-47.0","SS1617819401748","","","","","","","","images/stimuli/spore_stims/simple_02_A_a.gif","","","","{""Q0"":2}","[0]","","",""
"","3355.294999986654","survey-likert","166","742804","0.0-48.0","SS1617819401748","","","","","","","","images/stimuli/spore_stims/simple_14_A_b.gif","","","","{""Q0"":1}","[0]","","",""
"","2720.5449999892153","survey-likert","167","745529","0.0-49.0","SS1617819401748","","","","","","","","images/stimuli/spore_stims/simple_10_A_a.gif","","","","{""Q0"":1}","[0]","","",""
"","7177.065000010771","survey-likert","168","752710","0.0-50.0","SS1617819401748","","","","","","","","images/stimuli/spore_stims/complex_14_A_b.gif","","","","{""Q0"":5}","[0]","","",""
"","4694.3499999906635","survey-likert","169","757411","0.0-51.0","SS1617819401748","","","","","","","","images/stimuli/spore_stims/simple_10_A_b.gif","","","","{""Q0"":2}","[0]","","",""
"","5988.099999987753","survey-likert","170","763403","0.0-52.0","SS1617819401748","","","","","","","","images/stimuli/spore_stims/complex_20_A_b.gif","","","","{""Q0"":5}","[0]","","",""
"","2621.689999999944","survey-likert","171","766030","0.0-53.0","SS1617819401748","","","","","","","","images/stimuli/spore_stims/complex_14_A_a.gif","","","","{""Q0"":5}","[0]","","",""
"","7511.160000009113","survey-likert","172","773547","0.0-54.0","SS1617819401748","","","","","","","","images/stimuli/spore_stims/complex_19_A_b.gif","","","","{""Q0"":5}","[0]","","",""
"","4087.0799999975134","survey-likert","173","777641","0.0-55.0","SS1617819401748","","","","","","","","images/stimuli/spore_stims/simple_05_A_a.gif","","","","{""Q0"":2}","[0]","","",""
"","1930.9199999988778","survey-likert","174","779578","0.0-56.0","SS1617819401748","","","","","","","","images/stimuli/spore_stims/simple_13_A_a.gif","","","","{""Q0"":2}","[0]","","",""
"[{""page_index"":0,""viewing_time"":4877.880000000005}]","4878.150000004098","instructions","175","784460","0.0-57.0","SS1617819401748","instructions","","","","","","","","","","","","","","",""
"","9371.039999998175","demog-age","176","793837","0.0-58.0","SS1617819401748","","","","","","","","","","","","{""age"":""28""}","","","",""
"","6930.61999999918","demog-ethnic-US","177","800777","0.0-59.0","SS1617819401748","","","","","","","","","","","","{""ethnicity"":[""Hispanic or Latino""]}","[0]","","",""
"","21766.83999999659","demog-gender-and-education","178","822551","0.0-60.0","SS1617819401748","","","","","","","","","","","","{""gender"":""Male"",""education"":""Associate Degree/Technical certification""}","[0,1]","","",""
"","22065.31000000541","survey-text","179","844623","0.0-61.0","SS1617819401748","feedback","","","","","","","","","","","{""Q0"":""no, it was very smoth""}","","","",""
"[{""page_index"":0,""viewing_time"":3045.689999999013}]","3046.040000001085","instructions","180","847672","0.0-62.0","SS1617819401748","instructions","","","","","","","","","","","","","","",""
