"view_history","rt","trial_type","trial_index","time_elapsed","internal_node_id","subject","stimulus_type","trial_stimulus","key_press","minimum_viewing_duration","trial_looking_time","block_deviant","block_background","stimulus","block_number","block_type","stimulus_displayed","responses","question_order","math_correct_answer","stimulus_left","stimulus_right"
"[{""page_index"":0,""viewing_time"":40578.95000000008}]","40581.455","instructions","0","40586","0.0-0.0","SS1617819327581","","","","","","","","","","","","","","","",""
"[{""page_index"":0,""viewing_time"":16853.164999999986},{""page_index"":1,""viewing_time"":8441.94999999991}]","25296.119999999974","instructions","1","67898","0.0-1.0","SS1617819327581","instructions","","","","","","","","","","","","","","",""
"","11757.680000000168","sequential-stimulus-presentation-old","2","80275","0.0-2.0","SS1617819327581","","","40","600","12357.680000000168","null","null","","","","","","","","",""
"","8031.27499999982","sequential-stimulus-presentation-old","3","88835","0.0-3.0","SS1617819327581","","","40","500","8531.27499999982","null","null","","","","","","","","",""
"[{""page_index"":0,""viewing_time"":16058.495000000228}]","16059.385000000024","instructions","4","104906","0.0-4.0","SS1617819327581","instructions","","","","","","","","","","","","","","",""
"","4557.339999999836","sequential-stimulus-presentation","5","110497","0.0-5.0","SS1617819327581","","","40","1000","5557.339999999836","null","null","","","","","","","","",""
"[{""page_index"":0,""viewing_time"":8183.884999999922}]","8184.8599999998405","instructions","6","118688","0.0-6.0","SS1617819327581","instructions","","","","","","","","","","","","","","",""
"[{""page_index"":0,""viewing_time"":7402.780000000348},{""page_index"":1,""viewing_time"":11742.67499999996},{""page_index"":2,""viewing_time"":6378.185000000027},{""page_index"":3,""viewing_time"":1947.2099999998172},{""page_index"":4,""viewing_time"":1389.4549999999872}]","28861.350000000122","instructions","7","147556","0.0-7.0","SS1617819327581","instructions","","","","","","","","","","","","","","",""
"","null","html-keyboard-response","8","148403","0.0-8.0-0.0","SS1617819327581","","","null","","","","","<p><img src= images/blank.png width =""600"" height = ""600"" style=""position:fixed;top:50%; left:50%; transform: translate(-50%, -50%); border:5px solid black"">","","","","","","","",""
"","4309.42499999993","sequential-stimulus-presentation","9","153738","0.0-8.0-1.0","SS1617819327581","trial","","40","1000","5309.42499999993","images/stimuli/spore_stims/complex_07_A_b.gif","images/stimuli/spore_stims/complex_19_A_a.gif","","0","complex_dissimilar","images/stimuli/spore_stims/complex_19_A_a.gif","","","","",""
"","null","html-keyboard-response","10","154786","0.0-8.0-0.1","SS1617819327581","","","null","","","","","<p><img src= images/blank.png width =""600"" height = ""600"" style=""position:fixed;top:50%; left:50%; transform: translate(-50%, -50%); border:5px solid black"">","","","","","","","",""
"","4404.78000000029","sequential-stimulus-presentation","11","160226","0.0-8.0-1.1","SS1617819327581","trial","","40","1000","5404.78000000029","images/stimuli/spore_stims/complex_07_A_b.gif","images/stimuli/spore_stims/complex_19_A_a.gif","","0","complex_dissimilar","images/stimuli/spore_stims/complex_19_A_a.gif","","","","",""
"","null","html-keyboard-response","12","161272","0.0-8.0-0.2","SS1617819327581","","","null","","","","","<p><img src= images/blank.png width =""600"" height = ""600"" style=""position:fixed;top:50%; left:50%; transform: translate(-50%, -50%); border:5px solid black"">","","","","","","","",""
"","3741.704999999929","sequential-stimulus-presentation","13","166072","0.0-8.0-1.2","SS1617819327581","trial","","40","1000","4741.704999999929","images/stimuli/spore_stims/complex_07_A_b.gif","images/stimuli/spore_stims/complex_19_A_a.gif","","0","complex_dissimilar","images/stimuli/spore_stims/complex_19_A_a.gif","","","","",""
"","null","html-keyboard-response","14","167033","0.0-8.0-0.3","SS1617819327581","","","null","","","","","<p><img src= images/blank.png width =""600"" height = ""600"" style=""position:fixed;top:50%; left:50%; transform: translate(-50%, -50%); border:5px solid black"">","","","","","","","",""
"","3010.0049999996554","sequential-stimulus-presentation","15","171055","0.0-8.0-1.3","SS1617819327581","trial","","40","1000","4010.0049999996554","images/stimuli/spore_stims/complex_07_A_b.gif","images/stimuli/spore_stims/complex_19_A_a.gif","","0","complex_dissimilar","images/stimuli/spore_stims/complex_19_A_a.gif","","","","",""
"","null","html-keyboard-response","16","172114","0.0-8.0-0.4","SS1617819327581","","","null","","","","","<p><img src= images/blank.png width =""600"" height = ""600"" style=""position:fixed;top:50%; left:50%; transform: translate(-50%, -50%); border:5px solid black"">","","","","","","","",""
"","3672.6849999999977","sequential-stimulus-presentation","17","176828","0.0-8.0-1.4","SS1617819327581","trial","","40","1000","4672.684999999998","images/stimuli/spore_stims/complex_07_A_b.gif","images/stimuli/spore_stims/complex_19_A_a.gif","","0","complex_dissimilar","images/stimuli/spore_stims/complex_19_A_a.gif","","","","",""
"","5544.620000000112","survey-multi-choice","18","182387","0.0-9.0","SS1617819327581","math_question","","","","","","","","","","","{""Q0"":""8""}","[0]","8","",""
"","null","html-keyboard-response","19","183480","0.0-10.0-0.0","SS1617819327581","","","null","","","","","<p><img src= images/blank.png width =""600"" height = ""600"" style=""position:fixed;top:50%; left:50%; transform: translate(-50%, -50%); border:5px solid black"">","","","","","","","",""
"","2532.249999999738","sequential-stimulus-presentation","20","187051","0.0-10.0-1.0","SS1617819327581","trial","","40","1000","3532.249999999738","images/stimuli/spore_stims/simple_11_A_a.gif","images/stimuli/spore_stims/simple_20_A_b.gif","","1","simple_dissimilar","images/stimuli/spore_stims/simple_20_A_b.gif","","","","",""
"","null","html-keyboard-response","21","188035","0.0-10.0-0.1","SS1617819327581","","","null","","","","","<p><img src= images/blank.png width =""600"" height = ""600"" style=""position:fixed;top:50%; left:50%; transform: translate(-50%, -50%); border:5px solid black"">","","","","","","","",""
"","1396.445000000298","sequential-stimulus-presentation","22","190469","0.0-10.0-1.1","SS1617819327581","trial","","40","1000","2396.445000000298","images/stimuli/spore_stims/simple_11_A_a.gif","images/stimuli/spore_stims/simple_20_A_b.gif","","1","simple_dissimilar","images/stimuli/spore_stims/simple_20_A_b.gif","","","","",""
"","null","html-keyboard-response","23","191403","0.0-10.0-0.2","SS1617819327581","","","null","","","","","<p><img src= images/blank.png width =""600"" height = ""600"" style=""position:fixed;top:50%; left:50%; transform: translate(-50%, -50%); border:5px solid black"">","","","","","","","",""
"","1139.124999999709","sequential-stimulus-presentation","24","193575","0.0-10.0-1.2","SS1617819327581","trial","","40","1000","2139.124999999709","images/stimuli/spore_stims/simple_11_A_a.gif","images/stimuli/spore_stims/simple_20_A_b.gif","","1","simple_dissimilar","images/stimuli/spore_stims/simple_20_A_b.gif","","","","",""
"","null","html-keyboard-response","25","194687","0.0-10.0-0.3","SS1617819327581","","","null","","","","","<p><img src= images/blank.png width =""600"" height = ""600"" style=""position:fixed;top:50%; left:50%; transform: translate(-50%, -50%); border:5px solid black"">","","","","","","","",""
"","957.5550000004296","sequential-stimulus-presentation","26","196669","0.0-10.0-1.3","SS1617819327581","trial","","40","1000","1957.5550000004296","images/stimuli/spore_stims/simple_11_A_a.gif","images/stimuli/spore_stims/simple_20_A_b.gif","","1","simple_dissimilar","images/stimuli/spore_stims/simple_20_A_b.gif","","","","",""
"","null","html-keyboard-response","27","197908","0.0-10.0-0.4","SS1617819327581","","","null","","","","","<p><img src= images/blank.png width =""600"" height = ""600"" style=""position:fixed;top:50%; left:50%; transform: translate(-50%, -50%); border:5px solid black"">","","","","","","","",""
"","1913.2100000001665","sequential-stimulus-presentation","28","200885","0.0-10.0-1.4","SS1617819327581","trial","","40","1000","2913.2100000001665","images/stimuli/spore_stims/simple_11_A_a.gif","images/stimuli/spore_stims/simple_20_A_b.gif","","1","simple_dissimilar","images/stimuli/spore_stims/simple_11_A_a.gif","","","","",""
"","3597.735000000277","survey-multi-choice","29","204494","0.0-11.0","SS1617819327581","math_question","","","","","","","","","","","{""Q0"":""18""}","[0]","18","",""
"","null","html-keyboard-response","30","205356","0.0-12.0-0.0","SS1617819327581","","","null","","","","","<p><img src= images/blank.png width =""600"" height = ""600"" style=""position:fixed;top:50%; left:50%; transform: translate(-50%, -50%); border:5px solid black"">","","","","","","","",""
"","1544.9100000000617","sequential-stimulus-presentation","31","207941","0.0-12.0-1.0","SS1617819327581","trial","","40","1000","2544.9100000000617","images/stimuli/spore_stims/simple_02_A_a.gif","images/stimuli/spore_stims/simple_17_A_b.gif","","2","simple_dissimilar","images/stimuli/spore_stims/simple_17_A_b.gif","","","","",""
"","null","html-keyboard-response","32","209222","0.0-12.0-0.1","SS1617819327581","","","null","","","","","<p><img src= images/blank.png width =""600"" height = ""600"" style=""position:fixed;top:50%; left:50%; transform: translate(-50%, -50%); border:5px solid black"">","","","","","","","",""
"","5628.254999999626","sequential-stimulus-presentation","33","215891","0.0-12.0-1.1","SS1617819327581","trial","","40","1000","6628.254999999626","images/stimuli/spore_stims/simple_02_A_a.gif","images/stimuli/spore_stims/simple_17_A_b.gif","","2","simple_dissimilar","images/stimuli/spore_stims/simple_02_A_a.gif","","","","",""
"","null","html-keyboard-response","34","216907","0.0-12.0-0.2","SS1617819327581","","","null","","","","","<p><img src= images/blank.png width =""600"" height = ""600"" style=""position:fixed;top:50%; left:50%; transform: translate(-50%, -50%); border:5px solid black"">","","","","","","","",""
"","2254.364999999787","sequential-stimulus-presentation","35","220199","0.0-12.0-1.2","SS1617819327581","trial","","40","1000","3254.364999999787","images/stimuli/spore_stims/simple_02_A_a.gif","images/stimuli/spore_stims/simple_17_A_b.gif","","2","simple_dissimilar","images/stimuli/spore_stims/simple_02_A_a.gif","","","","",""
"","null","html-keyboard-response","36","221211","0.0-12.0-0.3","SS1617819327581","","","null","","","","","<p><img src= images/blank.png width =""600"" height = ""600"" style=""position:fixed;top:50%; left:50%; transform: translate(-50%, -50%); border:5px solid black"">","","","","","","","",""
"","3202.225000000006","sequential-stimulus-presentation","37","225465","0.0-12.0-1.3","SS1617819327581","trial","","40","1000","4202.225000000006","images/stimuli/spore_stims/simple_02_A_a.gif","images/stimuli/spore_stims/simple_17_A_b.gif","","2","simple_dissimilar","images/stimuli/spore_stims/simple_17_A_b.gif","","","","",""
"","null","html-keyboard-response","38","226600","0.0-12.0-0.4","SS1617819327581","","","null","","","","","<p><img src= images/blank.png width =""600"" height = ""600"" style=""position:fixed;top:50%; left:50%; transform: translate(-50%, -50%); border:5px solid black"">","","","","","","","",""
"","1054.765000000334","sequential-stimulus-presentation","39","228703","0.0-12.0-1.4","SS1617819327581","trial","","40","1000","2054.765000000334","images/stimuli/spore_stims/simple_02_A_a.gif","images/stimuli/spore_stims/simple_17_A_b.gif","","2","simple_dissimilar","images/stimuli/spore_stims/simple_17_A_b.gif","","","","",""
"","null","html-keyboard-response","40","229622","0.0-12.0-0.5","SS1617819327581","","","null","","","","","<p><img src= images/blank.png width =""600"" height = ""600"" style=""position:fixed;top:50%; left:50%; transform: translate(-50%, -50%); border:5px solid black"">","","","","","","","",""
"","1225.040000000241","sequential-stimulus-presentation","41","231887","0.0-12.0-1.5","SS1617819327581","trial","","40","1000","2225.040000000241","images/stimuli/spore_stims/simple_02_A_a.gif","images/stimuli/spore_stims/simple_17_A_b.gif","","2","simple_dissimilar","images/stimuli/spore_stims/simple_17_A_b.gif","","","","",""
"","3785.6550000001444","survey-multi-choice","42","235694","0.0-13.0","SS1617819327581","math_question","","","","","","","","","","","{""Q0"":""9""}","[0]","9","",""
"","null","html-keyboard-response","43","236569","0.0-14.0-0.0","SS1617819327581","","","null","","","","","<p><img src= images/blank.png width =""600"" height = ""600"" style=""position:fixed;top:50%; left:50%; transform: translate(-50%, -50%); border:5px solid black"">","","","","","","","",""
"","4168.685000000114","sequential-stimulus-presentation","44","241756","0.0-14.0-1.0","SS1617819327581","trial","","40","1000","5168.685000000114","images/stimuli/spore_stims/complex_11_A_b.gif","images/stimuli/spore_stims/complex_04_A_a.gif","","3","complex_dissimilar","images/stimuli/spore_stims/complex_04_A_a.gif","","","","",""
"","null","html-keyboard-response","45","242867","0.0-14.0-0.1","SS1617819327581","","","null","","","","","<p><img src= images/blank.png width =""600"" height = ""600"" style=""position:fixed;top:50%; left:50%; transform: translate(-50%, -50%); border:5px solid black"">","","","","","","","",""
"","1943.2250000000058","sequential-stimulus-presentation","46","245846","0.0-14.0-1.1","SS1617819327581","trial","","40","1000","2943.225000000006","images/stimuli/spore_stims/complex_11_A_b.gif","images/stimuli/spore_stims/complex_04_A_a.gif","","3","complex_dissimilar","images/stimuli/spore_stims/complex_04_A_a.gif","","","","",""
"","null","html-keyboard-response","47","246974","0.0-14.0-0.2","SS1617819327581","","","null","","","","","<p><img src= images/blank.png width =""600"" height = ""600"" style=""position:fixed;top:50%; left:50%; transform: translate(-50%, -50%); border:5px solid black"">","","","","","","","",""
"","3269.8649999997288","sequential-stimulus-presentation","48","251298","0.0-14.0-1.2","SS1617819327581","trial","","40","1000","4269.864999999729","images/stimuli/spore_stims/complex_11_A_b.gif","images/stimuli/spore_stims/complex_04_A_a.gif","","3","complex_dissimilar","images/stimuli/spore_stims/complex_11_A_b.gif","","","","",""
"","null","html-keyboard-response","49","252268","0.0-14.0-0.3","SS1617819327581","","","null","","","","","<p><img src= images/blank.png width =""600"" height = ""600"" style=""position:fixed;top:50%; left:50%; transform: translate(-50%, -50%); border:5px solid black"">","","","","","","","",""
"","599.2700000001932","sequential-stimulus-presentation","50","253913","0.0-14.0-1.3","SS1617819327581","trial","","40","1000","1599.2700000001932","images/stimuli/spore_stims/complex_11_A_b.gif","images/stimuli/spore_stims/complex_04_A_a.gif","","3","complex_dissimilar","images/stimuli/spore_stims/complex_11_A_b.gif","","","","",""
"","null","html-keyboard-response","51","254777","0.0-14.0-0.4","SS1617819327581","","","null","","","","","<p><img src= images/blank.png width =""600"" height = ""600"" style=""position:fixed;top:50%; left:50%; transform: translate(-50%, -50%); border:5px solid black"">","","","","","","","",""
"","1732.2449999997043","sequential-stimulus-presentation","52","257557","0.0-14.0-1.4","SS1617819327581","trial","","40","1000","2732.2449999997043","images/stimuli/spore_stims/complex_11_A_b.gif","images/stimuli/spore_stims/complex_04_A_a.gif","","3","complex_dissimilar","images/stimuli/spore_stims/complex_04_A_a.gif","","","","",""
"","4950.139999999956","survey-multi-choice","53","262531","0.0-15.0","SS1617819327581","math_question","","","","","","","","","","","{""Q0"":""5""}","[0]","5","",""
"","null","html-keyboard-response","54","263607","0.0-16.0-0.0","SS1617819327581","","","null","","","","","<p><img src= images/blank.png width =""600"" height = ""600"" style=""position:fixed;top:50%; left:50%; transform: translate(-50%, -50%); border:5px solid black"">","","","","","","","",""
"","2233.879999999772","sequential-stimulus-presentation","55","266895","0.0-16.0-1.0","SS1617819327581","trial","","40","1000","3233.879999999772","images/stimuli/spore_stims/simple_08_A_b.gif","images/stimuli/spore_stims/simple_18_A_a.gif","","4","simple_dissimilar","images/stimuli/spore_stims/simple_18_A_a.gif","","","","",""
"","null","html-keyboard-response","56","267883","0.0-16.0-0.1","SS1617819327581","","","null","","","","","<p><img src= images/blank.png width =""600"" height = ""600"" style=""position:fixed;top:50%; left:50%; transform: translate(-50%, -50%); border:5px solid black"">","","","","","","","",""
"","1427.975000000035","sequential-stimulus-presentation","57","270374","0.0-16.0-1.1","SS1617819327581","trial","","40","1000","2427.975000000035","images/stimuli/spore_stims/simple_08_A_b.gif","images/stimuli/spore_stims/simple_18_A_a.gif","","4","simple_dissimilar","images/stimuli/spore_stims/simple_18_A_a.gif","","","","",""
"","null","html-keyboard-response","58","271257","0.0-16.0-0.2","SS1617819327581","","","null","","","","","<p><img src= images/blank.png width =""600"" height = ""600"" style=""position:fixed;top:50%; left:50%; transform: translate(-50%, -50%); border:5px solid black"">","","","","","","","",""
"","1616.8700000002864","sequential-stimulus-presentation","59","273916","0.0-16.0-1.2","SS1617819327581","trial","","40","1000","2616.8700000002864","images/stimuli/spore_stims/simple_08_A_b.gif","images/stimuli/spore_stims/simple_18_A_a.gif","","4","simple_dissimilar","images/stimuli/spore_stims/simple_18_A_a.gif","","","","",""
"","null","html-keyboard-response","60","275060","0.0-16.0-0.3","SS1617819327581","","","null","","","","","<p><img src= images/blank.png width =""600"" height = ""600"" style=""position:fixed;top:50%; left:50%; transform: translate(-50%, -50%); border:5px solid black"">","","","","","","","",""
"","1432.5149999999558","sequential-stimulus-presentation","61","277557","0.0-16.0-1.3","SS1617819327581","trial","","40","1000","2432.5149999999558","images/stimuli/spore_stims/simple_08_A_b.gif","images/stimuli/spore_stims/simple_18_A_a.gif","","4","simple_dissimilar","images/stimuli/spore_stims/simple_18_A_a.gif","","","","",""
"","null","html-keyboard-response","62","278847","0.0-16.0-0.4","SS1617819327581","","","null","","","","","<p><img src= images/blank.png width =""600"" height = ""600"" style=""position:fixed;top:50%; left:50%; transform: translate(-50%, -50%); border:5px solid black"">","","","","","","","",""
"","2314.7149999999674","sequential-stimulus-presentation","63","282220","0.0-16.0-1.4","SS1617819327581","trial","","40","1000","3314.7149999999674","images/stimuli/spore_stims/simple_08_A_b.gif","images/stimuli/spore_stims/simple_18_A_a.gif","","4","simple_dissimilar","images/stimuli/spore_stims/simple_18_A_a.gif","","","","",""
"","7512.2849999998","survey-multi-choice","64","289749","0.0-17.0","SS1617819327581","math_question","","","","","","","","","","","{""Q0"":""13""}","[0]","13","",""
"","null","html-keyboard-response","65","290643","0.0-18.0-0.0","SS1617819327581","","","null","","","","","<p><img src= images/blank.png width =""600"" height = ""600"" style=""position:fixed;top:50%; left:50%; transform: translate(-50%, -50%); border:5px solid black"">","","","","","","","",""
"","3238.4799999999814","sequential-stimulus-presentation","66","294927","0.0-18.0-1.0","SS1617819327581","trial","","40","1000","4238.479999999981","images/stimuli/spore_stims/complex_14_A_a.gif","images/stimuli/spore_stims/complex_17_A_b.gif","","5","complex_dissimilar","images/stimuli/spore_stims/complex_17_A_b.gif","","","","",""
"","null","html-keyboard-response","67","295935","0.0-18.0-0.1","SS1617819327581","","","null","","","","","<p><img src= images/blank.png width =""600"" height = ""600"" style=""position:fixed;top:50%; left:50%; transform: translate(-50%, -50%); border:5px solid black"">","","","","","","","",""
"","2223.620000000228","sequential-stimulus-presentation","68","299206","0.0-18.0-1.1","SS1617819327581","trial","","40","1000","3223.620000000228","images/stimuli/spore_stims/complex_14_A_a.gif","images/stimuli/spore_stims/complex_17_A_b.gif","","5","complex_dissimilar","images/stimuli/spore_stims/complex_17_A_b.gif","","","","",""
"","null","html-keyboard-response","69","300176","0.0-18.0-0.2","SS1617819327581","","","null","","","","","<p><img src= images/blank.png width =""600"" height = ""600"" style=""position:fixed;top:50%; left:50%; transform: translate(-50%, -50%); border:5px solid black"">","","","","","","","",""
"","2131.4750000001513","sequential-stimulus-presentation","70","303354","0.0-18.0-1.2","SS1617819327581","trial","","40","1000","3131.4750000001513","images/stimuli/spore_stims/complex_14_A_a.gif","images/stimuli/spore_stims/complex_17_A_b.gif","","5","complex_dissimilar","images/stimuli/spore_stims/complex_17_A_b.gif","","","","",""
"","null","html-keyboard-response","71","304200","0.0-18.0-0.3","SS1617819327581","","","null","","","","","<p><img src= images/blank.png width =""600"" height = ""600"" style=""position:fixed;top:50%; left:50%; transform: translate(-50%, -50%); border:5px solid black"">","","","","","","","",""
"","4239.099999999744","sequential-stimulus-presentation","72","309472","0.0-18.0-1.3","SS1617819327581","trial","","40","1000","5239.099999999744","images/stimuli/spore_stims/complex_14_A_a.gif","images/stimuli/spore_stims/complex_17_A_b.gif","","5","complex_dissimilar","images/stimuli/spore_stims/complex_14_A_a.gif","","","","",""
"","null","html-keyboard-response","73","310379","0.0-18.0-0.4","SS1617819327581","","","null","","","","","<p><img src= images/blank.png width =""600"" height = ""600"" style=""position:fixed;top:50%; left:50%; transform: translate(-50%, -50%); border:5px solid black"">","","","","","","","",""
"","2834.9399999997113","sequential-stimulus-presentation","74","314262","0.0-18.0-1.4","SS1617819327581","trial","","40","1000","3834.9399999997113","images/stimuli/spore_stims/complex_14_A_a.gif","images/stimuli/spore_stims/complex_17_A_b.gif","","5","complex_dissimilar","images/stimuli/spore_stims/complex_14_A_a.gif","","","","",""
"","8200.884999999718","survey-multi-choice","75","322489","0.0-19.0","SS1617819327581","math_question","","","","","","","","","","","{""Q0"":""16""}","[0]","16","",""
"","null","html-keyboard-response","76","323808","0.0-20.0-0.0","SS1617819327581","","","null","","","","","<p><img src= images/blank.png width =""600"" height = ""600"" style=""position:fixed;top:50%; left:50%; transform: translate(-50%, -50%); border:5px solid black"">","","","","","","","",""
"","1773.9999999998836","sequential-stimulus-presentation","77","326639","0.0-20.0-1.0","SS1617819327581","trial","","40","1000","2773.9999999998836","images/stimuli/spore_stims/complex_06_A_b.gif","images/stimuli/spore_stims/complex_02_A_a.gif","","6","complex_dissimilar","images/stimuli/spore_stims/complex_02_A_a.gif","","","","",""
"","null","html-keyboard-response","78","327919","0.0-20.0-0.1","SS1617819327581","","","null","","","","","<p><img src= images/blank.png width =""600"" height = ""600"" style=""position:fixed;top:50%; left:50%; transform: translate(-50%, -50%); border:5px solid black"">","","","","","","","",""
"","1420.0550000000512","sequential-stimulus-presentation","79","330393","0.0-20.0-1.1","SS1617819327581","trial","","40","1000","2420.055000000051","images/stimuli/spore_stims/complex_06_A_b.gif","images/stimuli/spore_stims/complex_02_A_a.gif","","6","complex_dissimilar","images/stimuli/spore_stims/complex_02_A_a.gif","","","","",""
"","null","html-keyboard-response","80","331241","0.0-20.0-0.2","SS1617819327581","","","null","","","","","<p><img src= images/blank.png width =""600"" height = ""600"" style=""position:fixed;top:50%; left:50%; transform: translate(-50%, -50%); border:5px solid black"">","","","","","","","",""
"","1518.4549999998999","sequential-stimulus-presentation","81","333813","0.0-20.0-1.2","SS1617819327581","trial","","40","1000","2518.4549999999","images/stimuli/spore_stims/complex_06_A_b.gif","images/stimuli/spore_stims/complex_02_A_a.gif","","6","complex_dissimilar","images/stimuli/spore_stims/complex_02_A_a.gif","","","","",""
"","null","html-keyboard-response","82","334814","0.0-20.0-0.3","SS1617819327581","","","null","","","","","<p><img src= images/blank.png width =""600"" height = ""600"" style=""position:fixed;top:50%; left:50%; transform: translate(-50%, -50%); border:5px solid black"">","","","","","","","",""
"","1166.894999999844","sequential-stimulus-presentation","83","337017","0.0-20.0-1.3","SS1617819327581","trial","","40","1000","2166.894999999844","images/stimuli/spore_stims/complex_06_A_b.gif","images/stimuli/spore_stims/complex_02_A_a.gif","","6","complex_dissimilar","images/stimuli/spore_stims/complex_02_A_a.gif","","","","",""
"","null","html-keyboard-response","84","338297","0.0-20.0-0.4","SS1617819327581","","","null","","","","","<p><img src= images/blank.png width =""600"" height = ""600"" style=""position:fixed;top:50%; left:50%; transform: translate(-50%, -50%); border:5px solid black"">","","","","","","","",""
"","1439.4300000003423","sequential-stimulus-presentation","85","340788","0.0-20.0-1.4","SS1617819327581","trial","","40","1000","2439.4300000003423","images/stimuli/spore_stims/complex_06_A_b.gif","images/stimuli/spore_stims/complex_02_A_a.gif","","6","complex_dissimilar","images/stimuli/spore_stims/complex_06_A_b.gif","","","","",""
"","2951.1400000001304","survey-multi-choice","86","343778","0.0-21.0","SS1617819327581","math_question","","","","","","","","","","","{""Q0"":""2""}","[0]","2","",""
"","null","html-keyboard-response","87","345084","0.0-22.0-0.0","SS1617819327581","","","null","","","","","<p><img src= images/blank.png width =""600"" height = ""600"" style=""position:fixed;top:50%; left:50%; transform: translate(-50%, -50%); border:5px solid black"">","","","","","","","",""
"","2803.550000000105","sequential-stimulus-presentation","88","348937","0.0-22.0-1.0","SS1617819327581","trial","","40","1000","3803.550000000105","images/stimuli/spore_stims/simple_06_A_b.gif","images/stimuli/spore_stims/simple_14_A_a.gif","","7","simple_dissimilar","images/stimuli/spore_stims/simple_14_A_a.gif","","","","",""
"","null","html-keyboard-response","89","350109","0.0-22.0-0.1","SS1617819327581","","","null","","","","","<p><img src= images/blank.png width =""600"" height = ""600"" style=""position:fixed;top:50%; left:50%; transform: translate(-50%, -50%); border:5px solid black"">","","","","","","","",""
"","2992.8800000002375","sequential-stimulus-presentation","90","354149","0.0-22.0-1.1","SS1617819327581","trial","","40","1000","3992.8800000002375","images/stimuli/spore_stims/simple_06_A_b.gif","images/stimuli/spore_stims/simple_14_A_a.gif","","7","simple_dissimilar","images/stimuli/spore_stims/simple_14_A_a.gif","","","","",""
"","null","html-keyboard-response","91","355258","0.0-22.0-0.2","SS1617819327581","","","null","","","","","<p><img src= images/blank.png width =""600"" height = ""600"" style=""position:fixed;top:50%; left:50%; transform: translate(-50%, -50%); border:5px solid black"">","","","","","","","",""
"","1921.5499999999884","sequential-stimulus-presentation","92","358216","0.0-22.0-1.2","SS1617819327581","trial","","40","1000","2921.5499999999884","images/stimuli/spore_stims/simple_06_A_b.gif","images/stimuli/spore_stims/simple_14_A_a.gif","","7","simple_dissimilar","images/stimuli/spore_stims/simple_14_A_a.gif","","","","",""
"","null","html-keyboard-response","93","359231","0.0-22.0-0.3","SS1617819327581","","","null","","","","","<p><img src= images/blank.png width =""600"" height = ""600"" style=""position:fixed;top:50%; left:50%; transform: translate(-50%, -50%); border:5px solid black"">","","","","","","","",""
"","1322.7200000000885","sequential-stimulus-presentation","94","361608","0.0-22.0-1.3","SS1617819327581","trial","","40","1000","2322.7200000000885","images/stimuli/spore_stims/simple_06_A_b.gif","images/stimuli/spore_stims/simple_14_A_a.gif","","7","simple_dissimilar","images/stimuli/spore_stims/simple_14_A_a.gif","","","","",""
"","2504.920000000333","survey-multi-choice","95","364146","0.0-23.0","SS1617819327581","math_question","","","","","","","","","","","{""Q0"":""16""}","[0]","16","",""
"","null","html-keyboard-response","96","365434","0.0-24.0-0.0","SS1617819327581","","","null","","","","","<p><img src= images/blank.png width =""600"" height = ""600"" style=""position:fixed;top:50%; left:50%; transform: translate(-50%, -50%); border:5px solid black"">","","","","","","","",""
"","3325.2300000003306","sequential-stimulus-presentation","97","369822","0.0-24.0-1.0","SS1617819327581","trial","","40","1000","4325.230000000331","images/stimuli/spore_stims/complex_06_A_a.gif","images/stimuli/spore_stims/complex_04_A_b.gif","","8","complex_dissimilar","images/stimuli/spore_stims/complex_04_A_b.gif","","","","",""
"","null","html-keyboard-response","98","370674","0.0-24.0-0.1","SS1617819327581","","","null","","","","","<p><img src= images/blank.png width =""600"" height = ""600"" style=""position:fixed;top:50%; left:50%; transform: translate(-50%, -50%); border:5px solid black"">","","","","","","","",""
"","1147.904999999795","sequential-stimulus-presentation","99","372875","0.0-24.0-1.1","SS1617819327581","trial","","40","1000","2147.904999999795","images/stimuli/spore_stims/complex_06_A_a.gif","images/stimuli/spore_stims/complex_04_A_b.gif","","8","complex_dissimilar","images/stimuli/spore_stims/complex_04_A_b.gif","","","","",""
"","null","html-keyboard-response","100","373924","0.0-24.0-0.2","SS1617819327581","","","null","","","","","<p><img src= images/blank.png width =""600"" height = ""600"" style=""position:fixed;top:50%; left:50%; transform: translate(-50%, -50%); border:5px solid black"">","","","","","","","",""
"","845.9699999998556","sequential-stimulus-presentation","101","375796","0.0-24.0-1.2","SS1617819327581","trial","","40","1000","1845.9699999998556","images/stimuli/spore_stims/complex_06_A_a.gif","images/stimuli/spore_stims/complex_04_A_b.gif","","8","complex_dissimilar","images/stimuli/spore_stims/complex_04_A_b.gif","","","","",""
"","null","html-keyboard-response","102","376669","0.0-24.0-0.3","SS1617819327581","","","null","","","","","<p><img src= images/blank.png width =""600"" height = ""600"" style=""position:fixed;top:50%; left:50%; transform: translate(-50%, -50%); border:5px solid black"">","","","","","","","",""
"","1439.744999999646","sequential-stimulus-presentation","103","379191","0.0-24.0-1.3","SS1617819327581","trial","","40","1000","2439.744999999646","images/stimuli/spore_stims/complex_06_A_a.gif","images/stimuli/spore_stims/complex_04_A_b.gif","","8","complex_dissimilar","images/stimuli/spore_stims/complex_06_A_a.gif","","","","",""
"","null","html-keyboard-response","104","380025","0.0-24.0-0.4","SS1617819327581","","","null","","","","","<p><img src= images/blank.png width =""600"" height = ""600"" style=""position:fixed;top:50%; left:50%; transform: translate(-50%, -50%); border:5px solid black"">","","","","","","","",""
"","856.6049999999814","sequential-stimulus-presentation","105","381929","0.0-24.0-1.4","SS1617819327581","trial","","40","1000","1856.6049999999814","images/stimuli/spore_stims/complex_06_A_a.gif","images/stimuli/spore_stims/complex_04_A_b.gif","","8","complex_dissimilar","images/stimuli/spore_stims/complex_06_A_a.gif","","","","",""
"","null","html-keyboard-response","106","383224","0.0-24.0-0.5","SS1617819327581","","","null","","","","","<p><img src= images/blank.png width =""600"" height = ""600"" style=""position:fixed;top:50%; left:50%; transform: translate(-50%, -50%); border:5px solid black"">","","","","","","","",""
"","773.3349999998463","sequential-stimulus-presentation","107","385029","0.0-24.0-1.5","SS1617819327581","trial","","40","1000","1773.3349999998463","images/stimuli/spore_stims/complex_06_A_a.gif","images/stimuli/spore_stims/complex_04_A_b.gif","","8","complex_dissimilar","images/stimuli/spore_stims/complex_04_A_b.gif","","","","",""
"","2432.4599999999627","survey-multi-choice","108","387483","0.0-25.0","SS1617819327581","math_question","","","","","","","","","","","{""Q0"":""8""}","[0]","8","",""
"","null","html-keyboard-response","109","388358","0.0-26.0-0.0","SS1617819327581","","","null","","","","","<p><img src= images/blank.png width =""600"" height = ""600"" style=""position:fixed;top:50%; left:50%; transform: translate(-50%, -50%); border:5px solid black"">","","","","","","","",""
"","637.1800000001676","sequential-stimulus-presentation","110","390056","0.0-26.0-1.0","SS1617819327581","trial","","40","1000","1637.1800000001676","images/stimuli/spore_stims/simple_07_A_a.gif","images/stimuli/spore_stims/simple_10_A_b.gif","","9","simple_dissimilar","images/stimuli/spore_stims/simple_10_A_b.gif","","","","",""
"","null","html-keyboard-response","111","391236","0.0-26.0-0.1","SS1617819327581","","","null","","","","","<p><img src= images/blank.png width =""600"" height = ""600"" style=""position:fixed;top:50%; left:50%; transform: translate(-50%, -50%); border:5px solid black"">","","","","","","","",""
"","1839.2750000002561","sequential-stimulus-presentation","112","394147","0.0-26.0-1.1","SS1617819327581","trial","","40","1000","2839.275000000256","images/stimuli/spore_stims/simple_07_A_a.gif","images/stimuli/spore_stims/simple_10_A_b.gif","","9","simple_dissimilar","images/stimuli/spore_stims/simple_10_A_b.gif","","","","",""
"","null","html-keyboard-response","113","395115","0.0-26.0-0.2","SS1617819327581","","","null","","","","","<p><img src= images/blank.png width =""600"" height = ""600"" style=""position:fixed;top:50%; left:50%; transform: translate(-50%, -50%); border:5px solid black"">","","","","","","","",""
"","1480.6600000002072","sequential-stimulus-presentation","114","397642","0.0-26.0-1.2","SS1617819327581","trial","","40","1000","2480.660000000207","images/stimuli/spore_stims/simple_07_A_a.gif","images/stimuli/spore_stims/simple_10_A_b.gif","","9","simple_dissimilar","images/stimuli/spore_stims/simple_07_A_a.gif","","","","",""
"","null","html-keyboard-response","115","398893","0.0-26.0-0.3","SS1617819327581","","","null","","","","","<p><img src= images/blank.png width =""600"" height = ""600"" style=""position:fixed;top:50%; left:50%; transform: translate(-50%, -50%); border:5px solid black"">","","","","","","","",""
"","1161.689999999886","sequential-stimulus-presentation","116","401139","0.0-26.0-1.3","SS1617819327581","trial","","40","1000","2161.689999999886","images/stimuli/spore_stims/simple_07_A_a.gif","images/stimuli/spore_stims/simple_10_A_b.gif","","9","simple_dissimilar","images/stimuli/spore_stims/simple_10_A_b.gif","","","","",""
"","null","html-keyboard-response","117","402426","0.0-26.0-0.4","SS1617819327581","","","null","","","","","<p><img src= images/blank.png width =""600"" height = ""600"" style=""position:fixed;top:50%; left:50%; transform: translate(-50%, -50%); border:5px solid black"">","","","","","","","",""
"","1176.2699999999022","sequential-stimulus-presentation","118","404666","0.0-26.0-1.4","SS1617819327581","trial","","40","1000","2176.269999999902","images/stimuli/spore_stims/simple_07_A_a.gif","images/stimuli/spore_stims/simple_10_A_b.gif","","9","simple_dissimilar","images/stimuli/spore_stims/simple_10_A_b.gif","","","","",""
"","2377.3400000000256","survey-multi-choice","119","407073","0.0-27.0","SS1617819327581","math_question","","","","","","","","","","","{""Q0"":""2""}","[0]","2","",""
"","null","html-keyboard-response","120","408014","0.0-28.0-0.0","SS1617819327581","","","null","","","","","<p><img src= images/blank.png width =""600"" height = ""600"" style=""position:fixed;top:50%; left:50%; transform: translate(-50%, -50%); border:5px solid black"">","","","","","","","",""
"","1434.5549999998184","sequential-stimulus-presentation","121","410529","0.0-28.0-1.0","SS1617819327581","trial","","40","1000","2434.5549999998184","images/stimuli/spore_stims/simple_08_A_a.gif","images/stimuli/spore_stims/simple_16_A_b.gif","","10","simple_dissimilar","images/stimuli/spore_stims/simple_16_A_b.gif","","","","",""
"","null","html-keyboard-response","122","411827","0.0-28.0-0.1","SS1617819327581","","","null","","","","","<p><img src= images/blank.png width =""600"" height = ""600"" style=""position:fixed;top:50%; left:50%; transform: translate(-50%, -50%); border:5px solid black"">","","","","","","","",""
"","1493.8449999999139","sequential-stimulus-presentation","123","414373","0.0-28.0-1.1","SS1617819327581","trial","","40","1000","2493.844999999914","images/stimuli/spore_stims/simple_08_A_a.gif","images/stimuli/spore_stims/simple_16_A_b.gif","","10","simple_dissimilar","images/stimuli/spore_stims/simple_16_A_b.gif","","","","",""
"","null","html-keyboard-response","124","415283","0.0-28.0-0.2","SS1617819327581","","","null","","","","","<p><img src= images/blank.png width =""600"" height = ""600"" style=""position:fixed;top:50%; left:50%; transform: translate(-50%, -50%); border:5px solid black"">","","","","","","","",""
"","1222.7450000000536","sequential-stimulus-presentation","125","417578","0.0-28.0-1.2","SS1617819327581","trial","","40","1000","2222.7450000000536","images/stimuli/spore_stims/simple_08_A_a.gif","images/stimuli/spore_stims/simple_16_A_b.gif","","10","simple_dissimilar","images/stimuli/spore_stims/simple_16_A_b.gif","","","","",""
"","null","html-keyboard-response","126","418503","0.0-28.0-0.3","SS1617819327581","","","null","","","","","<p><img src= images/blank.png width =""600"" height = ""600"" style=""position:fixed;top:50%; left:50%; transform: translate(-50%, -50%); border:5px solid black"">","","","","","","","",""
"","1355.5650000002934","sequential-stimulus-presentation","127","420896","0.0-28.0-1.3","SS1617819327581","trial","","40","1000","2355.5650000002934","images/stimuli/spore_stims/simple_08_A_a.gif","images/stimuli/spore_stims/simple_16_A_b.gif","","10","simple_dissimilar","images/stimuli/spore_stims/simple_08_A_a.gif","","","","",""
"","null","html-keyboard-response","128","421737","0.0-28.0-0.4","SS1617819327581","","","null","","","","","<p><img src= images/blank.png width =""600"" height = ""600"" style=""position:fixed;top:50%; left:50%; transform: translate(-50%, -50%); border:5px solid black"">","","","","","","","",""
"","1438.9949999999953","sequential-stimulus-presentation","129","424224","0.0-28.0-1.4","SS1617819327581","trial","","40","1000","2438.9949999999953","images/stimuli/spore_stims/simple_08_A_a.gif","images/stimuli/spore_stims/simple_16_A_b.gif","","10","simple_dissimilar","images/stimuli/spore_stims/simple_08_A_a.gif","","","","",""
"","null","html-keyboard-response","130","425338","0.0-28.0-0.5","SS1617819327581","","","null","","","","","<p><img src= images/blank.png width =""600"" height = ""600"" style=""position:fixed;top:50%; left:50%; transform: translate(-50%, -50%); border:5px solid black"">","","","","","","","",""
"","1717.609999999695","sequential-stimulus-presentation","131","428096","0.0-28.0-1.5","SS1617819327581","trial","","40","1000","2717.609999999695","images/stimuli/spore_stims/simple_08_A_a.gif","images/stimuli/spore_stims/simple_16_A_b.gif","","10","simple_dissimilar","images/stimuli/spore_stims/simple_16_A_b.gif","","","","",""
"","2750.4549999998417","survey-multi-choice","132","430890","0.0-29.0","SS1617819327581","math_question","","","","","","","","","","","{""Q0"":""6""}","[0]","6","",""
"","null","html-keyboard-response","133","432054","0.0-30.0-0.0","SS1617819327581","","","null","","","","","<p><img src= images/blank.png width =""600"" height = ""600"" style=""position:fixed;top:50%; left:50%; transform: translate(-50%, -50%); border:5px solid black"">","","","","","","","",""
"","1341.2250000000931","sequential-stimulus-presentation","134","434463","0.0-30.0-1.0","SS1617819327581","trial","","40","1000","2341.225000000093","images/stimuli/spore_stims/complex_19_A_b.gif","images/stimuli/spore_stims/complex_20_A_a.gif","","11","complex_dissimilar","images/stimuli/spore_stims/complex_20_A_a.gif","","","","",""
"","null","html-keyboard-response","135","435470","0.0-30.0-0.1","SS1617819327581","","","null","","","","","<p><img src= images/blank.png width =""600"" height = ""600"" style=""position:fixed;top:50%; left:50%; transform: translate(-50%, -50%); border:5px solid black"">","","","","","","","",""
"","1082.5849999996717","sequential-stimulus-presentation","136","437612","0.0-30.0-1.1","SS1617819327581","trial","","40","1000","2082.5849999996717","images/stimuli/spore_stims/complex_19_A_b.gif","images/stimuli/spore_stims/complex_20_A_a.gif","","11","complex_dissimilar","images/stimuli/spore_stims/complex_20_A_a.gif","","","","",""
"","null","html-keyboard-response","137","438580","0.0-30.0-0.2","SS1617819327581","","","null","","","","","<p><img src= images/blank.png width =""600"" height = ""600"" style=""position:fixed;top:50%; left:50%; transform: translate(-50%, -50%); border:5px solid black"">","","","","","","","",""
"","1006.1650000002119","sequential-stimulus-presentation","138","440644","0.0-30.0-1.2","SS1617819327581","trial","","40","1000","2006.1650000002119","images/stimuli/spore_stims/complex_19_A_b.gif","images/stimuli/spore_stims/complex_20_A_a.gif","","11","complex_dissimilar","images/stimuli/spore_stims/complex_19_A_b.gif","","","","",""
"","null","html-keyboard-response","139","441488","0.0-30.0-0.3","SS1617819327581","","","null","","","","","<p><img src= images/blank.png width =""600"" height = ""600"" style=""position:fixed;top:50%; left:50%; transform: translate(-50%, -50%); border:5px solid black"">","","","","","","","",""
"","1387.784999999858","sequential-stimulus-presentation","140","443944","0.0-30.0-1.3","SS1617819327581","trial","","40","1000","2387.784999999858","images/stimuli/spore_stims/complex_19_A_b.gif","images/stimuli/spore_stims/complex_20_A_a.gif","","11","complex_dissimilar","images/stimuli/spore_stims/complex_20_A_a.gif","","","","",""
"","null","html-keyboard-response","141","445056","0.0-30.0-0.4","SS1617819327581","","","null","","","","","<p><img src= images/blank.png width =""600"" height = ""600"" style=""position:fixed;top:50%; left:50%; transform: translate(-50%, -50%); border:5px solid black"">","","","","","","","",""
"","785.5549999999348","sequential-stimulus-presentation","142","446906","0.0-30.0-1.4","SS1617819327581","trial","","40","1000","1785.5549999999348","images/stimuli/spore_stims/complex_19_A_b.gif","images/stimuli/spore_stims/complex_20_A_a.gif","","11","complex_dissimilar","images/stimuli/spore_stims/complex_20_A_a.gif","","","","",""
"","null","html-keyboard-response","143","448208","0.0-30.0-0.5","SS1617819327581","","","null","","","","","<p><img src= images/blank.png width =""600"" height = ""600"" style=""position:fixed;top:50%; left:50%; transform: translate(-50%, -50%); border:5px solid black"">","","","","","","","",""
"","940.3699999998207","sequential-stimulus-presentation","144","450208","0.0-30.0-1.5","SS1617819327581","trial","","40","1000","1940.3699999998207","images/stimuli/spore_stims/complex_19_A_b.gif","images/stimuli/spore_stims/complex_20_A_a.gif","","11","complex_dissimilar","images/stimuli/spore_stims/complex_19_A_b.gif","","","","",""
"[{""page_index"":0,""viewing_time"":6306.4549999999}]","6307.485000000219","instructions","145","456526","0.0-31.0","SS1617819327581","instructions","","","","","","","","","","","","","","",""
"","12672.529999999795","survey-likert","146","469222","0.0-32.0","SS1617819327581","similarity_question","","","","","","","","","","","{""Q0"":4}","[0]","","images/stimuli/spore_stims/simple_11_A_a.gif","images/stimuli/spore_stims/simple_20_A_b.gif"
"","3254.275000000256","survey-likert","147","472512","0.0-33.0","SS1617819327581","similarity_question","","","","","","","","","","","{""Q0"":4}","[0]","","images/stimuli/spore_stims/simple_02_A_a.gif","images/stimuli/spore_stims/simple_17_A_b.gif"
"","4257.759999999951","survey-likert","148","476806","0.0-34.0","SS1617819327581","similarity_question","","","","","","","","","","","{""Q0"":4}","[0]","","images/stimuli/spore_stims/simple_07_A_a.gif","images/stimuli/spore_stims/simple_10_A_b.gif"
"","3752.315000000177","survey-likert","149","480598","0.0-35.0","SS1617819327581","similarity_question","","","","","","","","","","","{""Q0"":4}","[0]","","images/stimuli/spore_stims/complex_06_A_a.gif","images/stimuli/spore_stims/complex_04_A_b.gif"
"","2558.2650000001304","survey-likert","150","483192","0.0-36.0","SS1617819327581","similarity_question","","","","","","","","","","","{""Q0"":4}","[0]","","images/stimuli/spore_stims/complex_06_A_b.gif","images/stimuli/spore_stims/complex_02_A_a.gif"
"","2481.0900000002584","survey-likert","151","485721","0.0-37.0","SS1617819327581","similarity_question","","","","","","","","","","","{""Q0"":4}","[0]","","images/stimuli/spore_stims/simple_06_A_b.gif","images/stimuli/spore_stims/simple_14_A_a.gif"
"","1647.9750000002678","survey-likert","152","487415","0.0-38.0","SS1617819327581","similarity_question","","","","","","","","","","","{""Q0"":4}","[0]","","images/stimuli/spore_stims/simple_08_A_a.gif","images/stimuli/spore_stims/simple_16_A_b.gif"
"","3031.980000000156","survey-likert","153","490487","0.0-39.0","SS1617819327581","similarity_question","","","","","","","","","","","{""Q0"":4}","[0]","","images/stimuli/spore_stims/complex_19_A_b.gif","images/stimuli/spore_stims/complex_20_A_a.gif"
"","1795.0550000000512","survey-likert","154","492330","0.0-40.0","SS1617819327581","similarity_question","","","","","","","","","","","{""Q0"":4}","[0]","","images/stimuli/spore_stims/complex_14_A_a.gif","images/stimuli/spore_stims/complex_17_A_b.gif"
"","1593.4600000000792","survey-likert","155","493967","0.0-41.0","SS1617819327581","similarity_question","","","","","","","","","","","{""Q0"":4}","[0]","","images/stimuli/spore_stims/simple_18_A_a.gif","images/stimuli/spore_stims/simple_08_A_b.gif"
"","1958.8149999999441","survey-likert","156","495967","0.0-42.0","SS1617819327581","similarity_question","","","","","","","","","","","{""Q0"":4}","[0]","","images/stimuli/spore_stims/complex_19_A_a.gif","images/stimuli/spore_stims/complex_07_A_b.gif"
"","1615.6949999999488","survey-likert","157","497630","0.0-43.0","SS1617819327581","similarity_question","","","","","","","","","","","{""Q0"":4}","[0]","","images/stimuli/spore_stims/complex_11_A_b.gif","images/stimuli/spore_stims/complex_04_A_a.gif"
"[{""page_index"":0,""viewing_time"":7712.72499999986}]","7713.729999999923","instructions","158","505382","0.0-44.0","SS1617819327581","instructions","","","","","","","","","","","","","","",""
"","4315.990000000049","survey-likert","159","509719","0.0-45.0","SS1617819327581","","","","","","","","images/stimuli/spore_stims/simple_06_A_b.gif","","","","{""Q0"":1}","[0]","","",""
"","2663.6250000001164","survey-likert","160","512431","0.0-46.0","SS1617819327581","","","","","","","","images/stimuli/spore_stims/simple_07_A_a.gif","","","","{""Q0"":1}","[0]","","",""
"","3125.1750000000466","survey-likert","161","515583","0.0-47.0","SS1617819327581","","","","","","","","images/stimuli/spore_stims/complex_19_A_a.gif","","","","{""Q0"":5}","[0]","","",""
"","4141.9550000000745","survey-likert","162","519762","0.0-48.0","SS1617819327581","","","","","","","","images/stimuli/spore_stims/simple_02_A_a.gif","","","","{""Q0"":1}","[0]","","",""
"","1939.800000000163","survey-likert","163","521747","0.0-49.0","SS1617819327581","","","","","","","","images/stimuli/spore_stims/complex_06_A_a.gif","","","","{""Q0"":5}","[0]","","",""
"","1987.0300000002608","survey-likert","164","523778","0.0-50.0","SS1617819327581","","","","","","","","images/stimuli/spore_stims/simple_16_A_b.gif","","","","{""Q0"":1}","[0]","","",""
"","1984","survey-likert","165","525801","0.0-51.0","SS1617819327581","","","","","","","","images/stimuli/spore_stims/simple_11_A_a.gif","","","","{""Q0"":1}","[0]","","",""
"","2360.2849999996834","survey-likert","166","528199","0.0-52.0","SS1617819327581","","","","","","","","images/stimuli/spore_stims/complex_04_A_a.gif","","","","{""Q0"":5}","[0]","","",""
"","1746.410000000149","survey-likert","167","529985","0.0-53.0","SS1617819327581","","","","","","","","images/stimuli/spore_stims/simple_18_A_a.gif","","","","{""Q0"":1}","[0]","","",""
"","2416.8300000000745","survey-likert","168","532452","0.0-54.0","SS1617819327581","","","","","","","","images/stimuli/spore_stims/complex_06_A_b.gif","","","","{""Q0"":5}","[0]","","",""
"","2579.2099999998463","survey-likert","169","535069","0.0-55.0","SS1617819327581","","","","","","","","images/stimuli/spore_stims/complex_20_A_a.gif","","","","{""Q0"":5}","[0]","","",""
"","1695.5250000000233","survey-likert","170","536808","0.0-56.0","SS1617819327581","","","","","","","","images/stimuli/spore_stims/complex_14_A_a.gif","","","","{""Q0"":5}","[0]","","",""
"[{""page_index"":0,""viewing_time"":3094.1999999999534}]","3095.399999999674","instructions","171","539946","0.0-57.0","SS1617819327581","instructions","","","","","","","","","","","","","","",""
"","4601.275000000023","demog-age","172","544586","0.0-58.0","SS1617819327581","","","","","","","","","","","","{""age"":""26""}","","","",""
"","6726.395000000135","demog-ethnic-US","173","551348","0.0-59.0","SS1617819327581","","","","","","","","","","","","{""ethnicity"":[""White""]}","[0]","","",""
"","7782.869999999995","demog-gender-and-education","174","559171","0.0-60.0","SS1617819327581","","","","","","","","","","","","{""gender"":""Male"",""education"":""Bachelor's Degree""}","[0,1]","","",""
"","16480.149999999907","survey-text","175","575701","0.0-61.0","SS1617819327581","feedback","","","","","","","","","","","{""Q0"":""Nothing to mention""}","","","",""
"[{""page_index"":0,""viewing_time"":3545.605000000214}]","3546.5950000003213","instructions","176","579265","0.0-62.0","SS1617819327581","instructions","","","","","","","","","","","","","","",""
