"view_history","rt","trial_type","trial_index","time_elapsed","internal_node_id","subject","stimulus_type","trial_stimulus","key_press","minimum_viewing_duration","trial_looking_time","block_deviant","block_background","stimulus","block_number","block_type","stimulus_displayed","responses","question_order","math_correct_answer","stimulus_left","stimulus_right"
"[{""page_index"":0,""viewing_time"":25877.45000000359}]","25878.375000000233","instructions","0","25880","0.0-0.0","SS1617819279925","","","","","","","","","","","","","","","",""
"[{""page_index"":0,""viewing_time"":13611.400000001595},{""page_index"":1,""viewing_time"":14799.979999999778}]","28411.61000000284","instructions","1","56295","0.0-1.0","SS1617819279925","instructions","","","","","","","","","","","","","","",""
"","10174.560000003112","sequential-stimulus-presentation-old","2","67075","0.0-2.0","SS1617819279925","","","40","600","10774.560000003112","null","null","","","","","","","","",""
"","7103.909999997995","sequential-stimulus-presentation-old","3","74682","0.0-3.0","SS1617819279925","","","40","500","7603.909999997995","null","null","","","","","","","","",""
"[{""page_index"":0,""viewing_time"":28515.369999997347}]","28515.595000000758","instructions","4","103199","0.0-4.0","SS1617819279925","instructions","","","","","","","","","","","","","","",""
"","4029.2149999986577","sequential-stimulus-presentation","5","108232","0.0-5.0","SS1617819279925","","","40","1000","5029.214999998658","null","null","","","","","","","","",""
"[{""page_index"":0,""viewing_time"":5205.949999999575}]","5206.175000002986","instructions","6","113439","0.0-6.0","SS1617819279925","instructions","","","","","","","","","","","","","","",""
"[{""page_index"":0,""viewing_time"":10974.63499999867},{""page_index"":1,""viewing_time"":14720.024999998714},{""page_index"":2,""viewing_time"":4143.990000000485},{""page_index"":3,""viewing_time"":1464.060000002064},{""page_index"":4,""viewing_time"":1159.990000000107}]","32462.93499999956","instructions","7","145903","0.0-7.0","SS1617819279925","instructions","","","","","","","","","","","","","","",""
"","null","html-keyboard-response","8","146800","0.0-8.0-0.0","SS1617819279925","","","null","","","","","<p><img src= images/blank.png width =""600"" height = ""600"" style=""position:fixed;top:50%; left:50%; transform: translate(-50%, -50%); border:5px solid black"">","","","","","","","",""
"","4397.820000001957","sequential-stimulus-presentation","9","152204","0.0-8.0-1.0","SS1617819279925","trial","","40","1000","5397.820000001957","images/stimuli/spore_stims/simple_18_A_a.gif","images/stimuli/spore_stims/simple_16_A_b.gif","","0","simple_dissimilar","images/stimuli/spore_stims/simple_16_A_b.gif","","","","",""
"","null","html-keyboard-response","10","153506","0.0-8.0-0.1","SS1617819279925","","","null","","","","","<p><img src= images/blank.png width =""600"" height = ""600"" style=""position:fixed;top:50%; left:50%; transform: translate(-50%, -50%); border:5px solid black"">","","","","","","","",""
"","2909.2099999979837","sequential-stimulus-presentation","11","157418","0.0-8.0-1.1","SS1617819279925","trial","","40","1000","3909.2099999979837","images/stimuli/spore_stims/simple_18_A_a.gif","images/stimuli/spore_stims/simple_16_A_b.gif","","0","simple_dissimilar","images/stimuli/spore_stims/simple_16_A_b.gif","","","","",""
"","null","html-keyboard-response","12","158495","0.0-8.0-0.2","SS1617819279925","","","null","","","","","<p><img src= images/blank.png width =""600"" height = ""600"" style=""position:fixed;top:50%; left:50%; transform: translate(-50%, -50%); border:5px solid black"">","","","","","","","",""
"","2809.290000001056","sequential-stimulus-presentation","13","162309","0.0-8.0-1.2","SS1617819279925","trial","","40","1000","3809.290000001056","images/stimuli/spore_stims/simple_18_A_a.gif","images/stimuli/spore_stims/simple_16_A_b.gif","","0","simple_dissimilar","images/stimuli/spore_stims/simple_16_A_b.gif","","","","",""
"","null","html-keyboard-response","14","163522","0.0-8.0-0.3","SS1617819279925","","","null","","","","","<p><img src= images/blank.png width =""600"" height = ""600"" style=""position:fixed;top:50%; left:50%; transform: translate(-50%, -50%); border:5px solid black"">","","","","","","","",""
"","2462.48999999807","sequential-stimulus-presentation","15","166988","0.0-8.0-1.3","SS1617819279925","trial","","40","1000","3462.48999999807","images/stimuli/spore_stims/simple_18_A_a.gif","images/stimuli/spore_stims/simple_16_A_b.gif","","0","simple_dissimilar","images/stimuli/spore_stims/simple_16_A_b.gif","","","","",""
"","null","html-keyboard-response","16","168245","0.0-8.0-0.4","SS1617819279925","","","null","","","","","<p><img src= images/blank.png width =""600"" height = ""600"" style=""position:fixed;top:50%; left:50%; transform: translate(-50%, -50%); border:5px solid black"">","","","","","","","",""
"","2066.4250000008906","sequential-stimulus-presentation","17","171315","0.0-8.0-1.4","SS1617819279925","trial","","40","1000","3066.4250000008906","images/stimuli/spore_stims/simple_18_A_a.gif","images/stimuli/spore_stims/simple_16_A_b.gif","","0","simple_dissimilar","images/stimuli/spore_stims/simple_16_A_b.gif","","","","",""
"","4505.519999998796","survey-multi-choice","18","175823","0.0-9.0","SS1617819279925","math_question","","","","","","","","","","","{""Q0"":""12""}","[0]","12","",""
"","null","html-keyboard-response","19","176949","0.0-10.0-0.0","SS1617819279925","","","null","","","","","<p><img src= images/blank.png width =""600"" height = ""600"" style=""position:fixed;top:50%; left:50%; transform: translate(-50%, -50%); border:5px solid black"">","","","","","","","",""
"","5020.479999999225","sequential-stimulus-presentation","20","182973","0.0-10.0-1.0","SS1617819279925","trial","","40","1000","6020.479999999225","images/stimuli/spore_stims/complex_12_A_a.gif","images/stimuli/spore_stims/complex_10_A_b.gif","","1","complex_dissimilar","images/stimuli/spore_stims/complex_10_A_b.gif","","","","",""
"","null","html-keyboard-response","21","184046","0.0-10.0-0.1","SS1617819279925","","","null","","","","","<p><img src= images/blank.png width =""600"" height = ""600"" style=""position:fixed;top:50%; left:50%; transform: translate(-50%, -50%); border:5px solid black"">","","","","","","","",""
"","4836.235000002489","sequential-stimulus-presentation","22","189887","0.0-10.0-1.1","SS1617819279925","trial","","40","1000","5836.235000002489","images/stimuli/spore_stims/complex_12_A_a.gif","images/stimuli/spore_stims/complex_10_A_b.gif","","1","complex_dissimilar","images/stimuli/spore_stims/complex_12_A_a.gif","","","","",""
"","null","html-keyboard-response","23","190859","0.0-10.0-0.2","SS1617819279925","","","null","","","","","<p><img src= images/blank.png width =""600"" height = ""600"" style=""position:fixed;top:50%; left:50%; transform: translate(-50%, -50%); border:5px solid black"">","","","","","","","",""
"","3691.1399999989953","sequential-stimulus-presentation","24","195555","0.0-10.0-1.2","SS1617819279925","trial","","40","1000","4691.139999998995","images/stimuli/spore_stims/complex_12_A_a.gif","images/stimuli/spore_stims/complex_10_A_b.gif","","1","complex_dissimilar","images/stimuli/spore_stims/complex_10_A_b.gif","","","","",""
"","null","html-keyboard-response","25","196667","0.0-10.0-0.3","SS1617819279925","","","null","","","","","<p><img src= images/blank.png width =""600"" height = ""600"" style=""position:fixed;top:50%; left:50%; transform: translate(-50%, -50%); border:5px solid black"">","","","","","","","",""
"","3179.9800000007963","sequential-stimulus-presentation","26","200850","0.0-10.0-1.3","SS1617819279925","trial","","40","1000","4179.980000000796","images/stimuli/spore_stims/complex_12_A_a.gif","images/stimuli/spore_stims/complex_10_A_b.gif","","1","complex_dissimilar","images/stimuli/spore_stims/complex_10_A_b.gif","","","","",""
"","null","html-keyboard-response","27","201806","0.0-10.0-0.4","SS1617819279925","","","null","","","","","<p><img src= images/blank.png width =""600"" height = ""600"" style=""position:fixed;top:50%; left:50%; transform: translate(-50%, -50%); border:5px solid black"">","","","","","","","",""
"","3552.915000000212","sequential-stimulus-presentation","28","206362","0.0-10.0-1.4","SS1617819279925","trial","","40","1000","4552.915000000212","images/stimuli/spore_stims/complex_12_A_a.gif","images/stimuli/spore_stims/complex_10_A_b.gif","","1","complex_dissimilar","images/stimuli/spore_stims/complex_12_A_a.gif","","","","",""
"","3706.334999998944","survey-multi-choice","29","210071","0.0-11.0","SS1617819279925","math_question","","","","","","","","","","","{""Q0"":""11""}","[0]","11","",""
"","null","html-keyboard-response","30","211225","0.0-12.0-0.0","SS1617819279925","","","null","","","","","<p><img src= images/blank.png width =""600"" height = ""600"" style=""position:fixed;top:50%; left:50%; transform: translate(-50%, -50%); border:5px solid black"">","","","","","","","",""
"","1862.6750000003085","sequential-stimulus-presentation","31","214091","0.0-12.0-1.0","SS1617819279925","trial","","40","1000","2862.6750000003085","images/stimuli/spore_stims/simple_15_A_a.gif","images/stimuli/spore_stims/simple_01_A_b.gif","","2","simple_dissimilar","images/stimuli/spore_stims/simple_01_A_b.gif","","","","",""
"","null","html-keyboard-response","32","215188","0.0-12.0-0.1","SS1617819279925","","","null","","","","","<p><img src= images/blank.png width =""600"" height = ""600"" style=""position:fixed;top:50%; left:50%; transform: translate(-50%, -50%); border:5px solid black"">","","","","","","","",""
"","1995.4900000011548","sequential-stimulus-presentation","33","218188","0.0-12.0-1.1","SS1617819279925","trial","","40","1000","2995.490000001155","images/stimuli/spore_stims/simple_15_A_a.gif","images/stimuli/spore_stims/simple_01_A_b.gif","","2","simple_dissimilar","images/stimuli/spore_stims/simple_01_A_b.gif","","","","",""
"","null","html-keyboard-response","34","219482","0.0-12.0-0.2","SS1617819279925","","","null","","","","","<p><img src= images/blank.png width =""600"" height = ""600"" style=""position:fixed;top:50%; left:50%; transform: translate(-50%, -50%); border:5px solid black"">","","","","","","","",""
"","1979.6649999989313","sequential-stimulus-presentation","35","222466","0.0-12.0-1.2","SS1617819279925","trial","","40","1000","2979.6649999989313","images/stimuli/spore_stims/simple_15_A_a.gif","images/stimuli/spore_stims/simple_01_A_b.gif","","2","simple_dissimilar","images/stimuli/spore_stims/simple_01_A_b.gif","","","","",""
"","null","html-keyboard-response","36","223551","0.0-12.0-0.3","SS1617819279925","","","null","","","","","<p><img src= images/blank.png width =""600"" height = ""600"" style=""position:fixed;top:50%; left:50%; transform: translate(-50%, -50%); border:5px solid black"">","","","","","","","",""
"","2515.8599999995204","sequential-stimulus-presentation","37","227071","0.0-12.0-1.3","SS1617819279925","trial","","40","1000","3515.8599999995204","images/stimuli/spore_stims/simple_15_A_a.gif","images/stimuli/spore_stims/simple_01_A_b.gif","","2","simple_dissimilar","images/stimuli/spore_stims/simple_01_A_b.gif","","","","",""
"","null","html-keyboard-response","38","228231","0.0-12.0-0.4","SS1617819279925","","","null","","","","","<p><img src= images/blank.png width =""600"" height = ""600"" style=""position:fixed;top:50%; left:50%; transform: translate(-50%, -50%); border:5px solid black"">","","","","","","","",""
"","1094.665000000532","sequential-stimulus-presentation","39","230330","0.0-12.0-1.4","SS1617819279925","trial","","40","1000","2094.665000000532","images/stimuli/spore_stims/simple_15_A_a.gif","images/stimuli/spore_stims/simple_01_A_b.gif","","2","simple_dissimilar","images/stimuli/spore_stims/simple_01_A_b.gif","","","","",""
"","null","html-keyboard-response","40","231243","0.0-12.0-0.5","SS1617819279925","","","null","","","","","<p><img src= images/blank.png width =""600"" height = ""600"" style=""position:fixed;top:50%; left:50%; transform: translate(-50%, -50%); border:5px solid black"">","","","","","","","",""
"","3445.7599999986996","sequential-stimulus-presentation","41","235694","0.0-12.0-1.5","SS1617819279925","trial","","40","1000","4445.7599999987","images/stimuli/spore_stims/simple_15_A_a.gif","images/stimuli/spore_stims/simple_01_A_b.gif","","2","simple_dissimilar","images/stimuli/spore_stims/simple_15_A_a.gif","","","","",""
"","3319.7800000016287","survey-multi-choice","42","239015","0.0-13.0","SS1617819279925","math_question","","","","","","","","","","","{""Q0"":""8""}","[0]","8","",""
"","null","html-keyboard-response","43","240024","0.0-14.0-0.0","SS1617819279925","","","null","","","","","<p><img src= images/blank.png width =""600"" height = ""600"" style=""position:fixed;top:50%; left:50%; transform: translate(-50%, -50%); border:5px solid black"">","","","","","","","",""
"","4380.044999998063","sequential-stimulus-presentation","44","245413","0.0-14.0-1.0","SS1617819279925","trial","","40","1000","5380.044999998063","images/stimuli/spore_stims/complex_11_A_a.gif","images/stimuli/spore_stims/complex_02_A_b.gif","","3","complex_dissimilar","images/stimuli/spore_stims/complex_02_A_b.gif","","","","",""
"","null","html-keyboard-response","45","246410","0.0-14.0-0.1","SS1617819279925","","","null","","","","","<p><img src= images/blank.png width =""600"" height = ""600"" style=""position:fixed;top:50%; left:50%; transform: translate(-50%, -50%); border:5px solid black"">","","","","","","","",""
"","4329.125000000175","sequential-stimulus-presentation","46","251744","0.0-14.0-1.1","SS1617819279925","trial","","40","1000","5329.125000000175","images/stimuli/spore_stims/complex_11_A_a.gif","images/stimuli/spore_stims/complex_02_A_b.gif","","3","complex_dissimilar","images/stimuli/spore_stims/complex_11_A_a.gif","","","","",""
"","null","html-keyboard-response","47","252548","0.0-14.0-0.2","SS1617819279925","","","null","","","","","<p><img src= images/blank.png width =""600"" height = ""600"" style=""position:fixed;top:50%; left:50%; transform: translate(-50%, -50%); border:5px solid black"">","","","","","","","",""
"","6063.510000000009","sequential-stimulus-presentation","48","259616","0.0-14.0-1.2","SS1617819279925","trial","","40","1000","7063.510000000009","images/stimuli/spore_stims/complex_11_A_a.gif","images/stimuli/spore_stims/complex_02_A_b.gif","","3","complex_dissimilar","images/stimuli/spore_stims/complex_02_A_b.gif","","","","",""
"","null","html-keyboard-response","49","260536","0.0-14.0-0.3","SS1617819279925","","","null","","","","","<p><img src= images/blank.png width =""600"" height = ""600"" style=""position:fixed;top:50%; left:50%; transform: translate(-50%, -50%); border:5px solid black"">","","","","","","","",""
"","2824.9849999992875","sequential-stimulus-presentation","50","264367","0.0-14.0-1.3","SS1617819279925","trial","","40","1000","3824.9849999992875","images/stimuli/spore_stims/complex_11_A_a.gif","images/stimuli/spore_stims/complex_02_A_b.gif","","3","complex_dissimilar","images/stimuli/spore_stims/complex_02_A_b.gif","","","","",""
"","null","html-keyboard-response","51","265254","0.0-14.0-0.4","SS1617819279925","","","null","","","","","<p><img src= images/blank.png width =""600"" height = ""600"" style=""position:fixed;top:50%; left:50%; transform: translate(-50%, -50%); border:5px solid black"">","","","","","","","",""
"","2472.09500000102","sequential-stimulus-presentation","52","268731","0.0-14.0-1.4","SS1617819279925","trial","","40","1000","3472.09500000102","images/stimuli/spore_stims/complex_11_A_a.gif","images/stimuli/spore_stims/complex_02_A_b.gif","","3","complex_dissimilar","images/stimuli/spore_stims/complex_02_A_b.gif","","","","",""
"","null","html-keyboard-response","53","270017","0.0-14.0-0.5","SS1617819279925","","","null","","","","","<p><img src= images/blank.png width =""600"" height = ""600"" style=""position:fixed;top:50%; left:50%; transform: translate(-50%, -50%); border:5px solid black"">","","","","","","","",""
"","3414.4450000021607","sequential-stimulus-presentation","54","274436","0.0-14.0-1.5","SS1617819279925","trial","","40","1000","4414.445000002161","images/stimuli/spore_stims/complex_11_A_a.gif","images/stimuli/spore_stims/complex_02_A_b.gif","","3","complex_dissimilar","images/stimuli/spore_stims/complex_11_A_a.gif","","","","",""
"","2889.870000002673","survey-multi-choice","55","277327","0.0-15.0","SS1617819279925","math_question","","","","","","","","","","","{""Q0"":""8""}","[0]","8","",""
"","null","html-keyboard-response","56","278193","0.0-16.0-0.0","SS1617819279925","","","null","","","","","<p><img src= images/blank.png width =""600"" height = ""600"" style=""position:fixed;top:50%; left:50%; transform: translate(-50%, -50%); border:5px solid black"">","","","","","","","",""
"","2753.044999997597","sequential-stimulus-presentation","57","281951","0.0-16.0-1.0","SS1617819279925","trial","","40","1000","3753.044999997597","images/stimuli/spore_stims/simple_13_A_b.gif","images/stimuli/spore_stims/simple_08_A_a.gif","","4","simple_dissimilar","images/stimuli/spore_stims/simple_08_A_a.gif","","","","",""
"","null","html-keyboard-response","58","283216","0.0-16.0-0.1","SS1617819279925","","","null","","","","","<p><img src= images/blank.png width =""600"" height = ""600"" style=""position:fixed;top:50%; left:50%; transform: translate(-50%, -50%); border:5px solid black"">","","","","","","","",""
"","939.954999997979","sequential-stimulus-presentation","59","285160","0.0-16.0-1.1","SS1617819279925","trial","","40","1000","1939.954999997979","images/stimuli/spore_stims/simple_13_A_b.gif","images/stimuli/spore_stims/simple_08_A_a.gif","","4","simple_dissimilar","images/stimuli/spore_stims/simple_08_A_a.gif","","","","",""
"","null","html-keyboard-response","60","286397","0.0-16.0-0.2","SS1617819279925","","","null","","","","","<p><img src= images/blank.png width =""600"" height = ""600"" style=""position:fixed;top:50%; left:50%; transform: translate(-50%, -50%); border:5px solid black"">","","","","","","","",""
"","2539.910000003176","sequential-stimulus-presentation","61","289941","0.0-16.0-1.2","SS1617819279925","trial","","40","1000","3539.910000003176","images/stimuli/spore_stims/simple_13_A_b.gif","images/stimuli/spore_stims/simple_08_A_a.gif","","4","simple_dissimilar","images/stimuli/spore_stims/simple_08_A_a.gif","","","","",""
"","null","html-keyboard-response","62","290786","0.0-16.0-0.3","SS1617819279925","","","null","","","","","<p><img src= images/blank.png width =""600"" height = ""600"" style=""position:fixed;top:50%; left:50%; transform: translate(-50%, -50%); border:5px solid black"">","","","","","","","",""
"","1401.8600000017905","sequential-stimulus-presentation","63","293191","0.0-16.0-1.3","SS1617819279925","trial","","40","1000","2401.8600000017905","images/stimuli/spore_stims/simple_13_A_b.gif","images/stimuli/spore_stims/simple_08_A_a.gif","","4","simple_dissimilar","images/stimuli/spore_stims/simple_08_A_a.gif","","","","",""
"","null","html-keyboard-response","64","294064","0.0-16.0-0.4","SS1617819279925","","","null","","","","","<p><img src= images/blank.png width =""600"" height = ""600"" style=""position:fixed;top:50%; left:50%; transform: translate(-50%, -50%); border:5px solid black"">","","","","","","","",""
"","367.7399999978952","sequential-stimulus-presentation","65","295436","0.0-16.0-1.4","SS1617819279925","trial","","40","1000","1367.7399999978952","images/stimuli/spore_stims/simple_13_A_b.gif","images/stimuli/spore_stims/simple_08_A_a.gif","","4","simple_dissimilar","images/stimuli/spore_stims/simple_08_A_a.gif","","","","",""
"","2936.9249999981257","survey-multi-choice","66","298375","0.0-17.0","SS1617819279925","math_question","","","","","","","","","","","{""Q0"":""6""}","[0]","6","",""
"","null","html-keyboard-response","67","299449","0.0-18.0-0.0","SS1617819279925","","","null","","","","","<p><img src= images/blank.png width =""600"" height = ""600"" style=""position:fixed;top:50%; left:50%; transform: translate(-50%, -50%); border:5px solid black"">","","","","","","","",""
"","6463.465000000666","sequential-stimulus-presentation","68","306918","0.0-18.0-1.0","SS1617819279925","trial","","40","1000","7463.465000000666","images/stimuli/spore_stims/complex_20_A_a.gif","images/stimuli/spore_stims/complex_05_A_b.gif","","5","complex_dissimilar","images/stimuli/spore_stims/complex_05_A_b.gif","","","","",""
"","null","html-keyboard-response","69","307897","0.0-18.0-0.1","SS1617819279925","","","null","","","","","<p><img src= images/blank.png width =""600"" height = ""600"" style=""position:fixed;top:50%; left:50%; transform: translate(-50%, -50%); border:5px solid black"">","","","","","","","",""
"","4460.399999999965","sequential-stimulus-presentation","70","313363","0.0-18.0-1.1","SS1617819279925","trial","","40","1000","5460.399999999965","images/stimuli/spore_stims/complex_20_A_a.gif","images/stimuli/spore_stims/complex_05_A_b.gif","","5","complex_dissimilar","images/stimuli/spore_stims/complex_05_A_b.gif","","","","",""
"","null","html-keyboard-response","71","314427","0.0-18.0-0.2","SS1617819279925","","","null","","","","","<p><img src= images/blank.png width =""600"" height = ""600"" style=""position:fixed;top:50%; left:50%; transform: translate(-50%, -50%); border:5px solid black"">","","","","","","","",""
"","5781.764999999781","sequential-stimulus-presentation","72","321214","0.0-18.0-1.2","SS1617819279925","trial","","40","1000","6781.764999999781","images/stimuli/spore_stims/complex_20_A_a.gif","images/stimuli/spore_stims/complex_05_A_b.gif","","5","complex_dissimilar","images/stimuli/spore_stims/complex_20_A_a.gif","","","","",""
"","null","html-keyboard-response","73","322026","0.0-18.0-0.3","SS1617819279925","","","null","","","","","<p><img src= images/blank.png width =""600"" height = ""600"" style=""position:fixed;top:50%; left:50%; transform: translate(-50%, -50%); border:5px solid black"">","","","","","","","",""
"","5464.820000001055","sequential-stimulus-presentation","74","328496","0.0-18.0-1.3","SS1617819279925","trial","","40","1000","6464.820000001055","images/stimuli/spore_stims/complex_20_A_a.gif","images/stimuli/spore_stims/complex_05_A_b.gif","","5","complex_dissimilar","images/stimuli/spore_stims/complex_05_A_b.gif","","","","",""
"","null","html-keyboard-response","75","329711","0.0-18.0-0.4","SS1617819279925","","","null","","","","","<p><img src= images/blank.png width =""600"" height = ""600"" style=""position:fixed;top:50%; left:50%; transform: translate(-50%, -50%); border:5px solid black"">","","","","","","","",""
"","3678.4200000002165","sequential-stimulus-presentation","76","334394","0.0-18.0-1.4","SS1617819279925","trial","","40","1000","4678.4200000002165","images/stimuli/spore_stims/complex_20_A_a.gif","images/stimuli/spore_stims/complex_05_A_b.gif","","5","complex_dissimilar","images/stimuli/spore_stims/complex_05_A_b.gif","","","","",""
"","5794.59499999939","survey-multi-choice","77","340191","0.0-19.0","SS1617819279925","math_question","","","","","","","","","","","{""Q0"":""11""}","[0]","11","",""
"","null","html-keyboard-response","78","341165","0.0-20.0-0.0","SS1617819279925","","","null","","","","","<p><img src= images/blank.png width =""600"" height = ""600"" style=""position:fixed;top:50%; left:50%; transform: translate(-50%, -50%); border:5px solid black"">","","","","","","","",""
"","5197.280000000377","sequential-stimulus-presentation","79","347367","0.0-20.0-1.0","SS1617819279925","trial","","40","1000","6197.280000000377","images/stimuli/spore_stims/simple_07_A_b.gif","images/stimuli/spore_stims/simple_11_A_a.gif","","6","simple_dissimilar","images/stimuli/spore_stims/simple_11_A_a.gif","","","","",""
"","null","html-keyboard-response","80","348635","0.0-20.0-0.1","SS1617819279925","","","null","","","","","<p><img src= images/blank.png width =""600"" height = ""600"" style=""position:fixed;top:50%; left:50%; transform: translate(-50%, -50%); border:5px solid black"">","","","","","","","",""
"","2649.395000000368","sequential-stimulus-presentation","81","352288","0.0-20.0-1.1","SS1617819279925","trial","","40","1000","3649.395000000368","images/stimuli/spore_stims/simple_07_A_b.gif","images/stimuli/spore_stims/simple_11_A_a.gif","","6","simple_dissimilar","images/stimuli/spore_stims/simple_07_A_b.gif","","","","",""
"","null","html-keyboard-response","82","353377","0.0-20.0-0.2","SS1617819279925","","","null","","","","","<p><img src= images/blank.png width =""600"" height = ""600"" style=""position:fixed;top:50%; left:50%; transform: translate(-50%, -50%); border:5px solid black"">","","","","","","","",""
"","4340.649999998277","sequential-stimulus-presentation","83","358721","0.0-20.0-1.2","SS1617819279925","trial","","40","1000","5340.649999998277","images/stimuli/spore_stims/simple_07_A_b.gif","images/stimuli/spore_stims/simple_11_A_a.gif","","6","simple_dissimilar","images/stimuli/spore_stims/simple_11_A_a.gif","","","","",""
"","null","html-keyboard-response","84","359839","0.0-20.0-0.3","SS1617819279925","","","null","","","","","<p><img src= images/blank.png width =""600"" height = ""600"" style=""position:fixed;top:50%; left:50%; transform: translate(-50%, -50%); border:5px solid black"">","","","","","","","",""
"","1931.980000001262","sequential-stimulus-presentation","85","363352","0.0-20.0-1.3","SS1617819279925","trial","","40","1000","2931.980000001262","images/stimuli/spore_stims/simple_07_A_b.gif","images/stimuli/spore_stims/simple_11_A_a.gif","","6","simple_dissimilar","images/stimuli/spore_stims/simple_11_A_a.gif","","","","",""
"","null","html-keyboard-response","86","364156","0.0-20.0-0.4","SS1617819279925","","","null","","","","","<p><img src= images/blank.png width =""600"" height = ""600"" style=""position:fixed;top:50%; left:50%; transform: translate(-50%, -50%); border:5px solid black"">","","","","","","","",""
"","1255.2299999988172","sequential-stimulus-presentation","87","366417","0.0-20.0-1.4","SS1617819279925","trial","","40","1000","2255.229999998817","images/stimuli/spore_stims/simple_07_A_b.gif","images/stimuli/spore_stims/simple_11_A_a.gif","","6","simple_dissimilar","images/stimuli/spore_stims/simple_07_A_b.gif","","","","",""
"","3163.5150000001886","survey-multi-choice","88","369583","0.0-21.0","SS1617819279925","math_question","","","","","","","","","","","{""Q0"":""2""}","[0]","2","",""
"","null","html-keyboard-response","89","370466","0.0-22.0-0.0","SS1617819279925","","","null","","","","","<p><img src= images/blank.png width =""600"" height = ""600"" style=""position:fixed;top:50%; left:50%; transform: translate(-50%, -50%); border:5px solid black"">","","","","","","","",""
"","5012.904999999562","sequential-stimulus-presentation","90","376485","0.0-22.0-1.0","SS1617819279925","trial","","40","1000","6012.904999999562","images/stimuli/spore_stims/complex_08_A_a.gif","images/stimuli/spore_stims/complex_14_A_b.gif","","7","complex_dissimilar","images/stimuli/spore_stims/complex_14_A_b.gif","","","","",""
"","null","html-keyboard-response","91","377734","0.0-22.0-0.1","SS1617819279925","","","null","","","","","<p><img src= images/blank.png width =""600"" height = ""600"" style=""position:fixed;top:50%; left:50%; transform: translate(-50%, -50%); border:5px solid black"">","","","","","","","",""
"","6963.144999997923","sequential-stimulus-presentation","92","385703","0.0-22.0-1.1","SS1617819279925","trial","","40","1000","7963.144999997923","images/stimuli/spore_stims/complex_08_A_a.gif","images/stimuli/spore_stims/complex_14_A_b.gif","","7","complex_dissimilar","images/stimuli/spore_stims/complex_08_A_a.gif","","","","",""
"","null","html-keyboard-response","93","386533","0.0-22.0-0.2","SS1617819279925","","","null","","","","","<p><img src= images/blank.png width =""600"" height = ""600"" style=""position:fixed;top:50%; left:50%; transform: translate(-50%, -50%); border:5px solid black"">","","","","","","","",""
"","2346.3450000017765","sequential-stimulus-presentation","94","389886","0.0-22.0-1.2","SS1617819279925","trial","","40","1000","3346.3450000017765","images/stimuli/spore_stims/complex_08_A_a.gif","images/stimuli/spore_stims/complex_14_A_b.gif","","7","complex_dissimilar","images/stimuli/spore_stims/complex_14_A_b.gif","","","","",""
"","null","html-keyboard-response","95","391090","0.0-22.0-0.3","SS1617819279925","","","null","","","","","<p><img src= images/blank.png width =""600"" height = ""600"" style=""position:fixed;top:50%; left:50%; transform: translate(-50%, -50%); border:5px solid black"">","","","","","","","",""
"","1987.345000001369","sequential-stimulus-presentation","96","394083","0.0-22.0-1.3","SS1617819279925","trial","","40","1000","2987.345000001369","images/stimuli/spore_stims/complex_08_A_a.gif","images/stimuli/spore_stims/complex_14_A_b.gif","","7","complex_dissimilar","images/stimuli/spore_stims/complex_14_A_b.gif","","","","",""
"","null","html-keyboard-response","97","395162","0.0-22.0-0.4","SS1617819279925","","","null","","","","","<p><img src= images/blank.png width =""600"" height = ""600"" style=""position:fixed;top:50%; left:50%; transform: translate(-50%, -50%); border:5px solid black"">","","","","","","","",""
"","1888.07000000088","sequential-stimulus-presentation","98","398056","0.0-22.0-1.4","SS1617819279925","trial","","40","1000","2888.07000000088","images/stimuli/spore_stims/complex_08_A_a.gif","images/stimuli/spore_stims/complex_14_A_b.gif","","7","complex_dissimilar","images/stimuli/spore_stims/complex_14_A_b.gif","","","","",""
"","null","html-keyboard-response","99","398969","0.0-22.0-0.5","SS1617819279925","","","null","","","","","<p><img src= images/blank.png width =""600"" height = ""600"" style=""position:fixed;top:50%; left:50%; transform: translate(-50%, -50%); border:5px solid black"">","","","","","","","",""
"","4405.3600000006845","sequential-stimulus-presentation","100","404380","0.0-22.0-1.5","SS1617819279925","trial","","40","1000","5405.3600000006845","images/stimuli/spore_stims/complex_08_A_a.gif","images/stimuli/spore_stims/complex_14_A_b.gif","","7","complex_dissimilar","images/stimuli/spore_stims/complex_08_A_a.gif","","","","",""
"","8664.520000002114","survey-multi-choice","101","413047","0.0-23.0","SS1617819279925","math_question","","","","","","","","","","","{""Q0"":""17""}","[0]","17","",""
"","null","html-keyboard-response","102","414310","0.0-24.0-0.0","SS1617819279925","","","null","","","","","<p><img src= images/blank.png width =""600"" height = ""600"" style=""position:fixed;top:50%; left:50%; transform: translate(-50%, -50%); border:5px solid black"">","","","","","","","",""
"","3220.5099999991944","sequential-stimulus-presentation","103","418536","0.0-24.0-1.0","SS1617819279925","trial","","40","1000","4220.509999999194","images/stimuli/spore_stims/simple_13_A_a.gif","images/stimuli/spore_stims/simple_17_A_b.gif","","8","simple_dissimilar","images/stimuli/spore_stims/simple_17_A_b.gif","","","","",""
"","null","html-keyboard-response","104","419358","0.0-24.0-0.1","SS1617819279925","","","null","","","","","<p><img src= images/blank.png width =""600"" height = ""600"" style=""position:fixed;top:50%; left:50%; transform: translate(-50%, -50%); border:5px solid black"">","","","","","","","",""
"","269.51000000193017","sequential-stimulus-presentation","105","420633","0.0-24.0-1.1","SS1617819279925","trial","","40","1000","1269.5100000019302","images/stimuli/spore_stims/simple_13_A_a.gif","images/stimuli/spore_stims/simple_17_A_b.gif","","8","simple_dissimilar","images/stimuli/spore_stims/simple_17_A_b.gif","","","","",""
"","null","html-keyboard-response","106","421795","0.0-24.0-0.2","SS1617819279925","","","null","","","","","<p><img src= images/blank.png width =""600"" height = ""600"" style=""position:fixed;top:50%; left:50%; transform: translate(-50%, -50%); border:5px solid black"">","","","","","","","",""
"","2429.6100000028964","sequential-stimulus-presentation","107","425230","0.0-24.0-1.2","SS1617819279925","trial","","40","1000","3429.6100000028964","images/stimuli/spore_stims/simple_13_A_a.gif","images/stimuli/spore_stims/simple_17_A_b.gif","","8","simple_dissimilar","images/stimuli/spore_stims/simple_13_A_a.gif","","","","",""
"","null","html-keyboard-response","108","426512","0.0-24.0-0.3","SS1617819279925","","","null","","","","","<p><img src= images/blank.png width =""600"" height = ""600"" style=""position:fixed;top:50%; left:50%; transform: translate(-50%, -50%); border:5px solid black"">","","","","","","","",""
"","817.0549999995856","sequential-stimulus-presentation","109","428334","0.0-24.0-1.3","SS1617819279925","trial","","40","1000","1817.0549999995856","images/stimuli/spore_stims/simple_13_A_a.gif","images/stimuli/spore_stims/simple_17_A_b.gif","","8","simple_dissimilar","images/stimuli/spore_stims/simple_13_A_a.gif","","","","",""
"","3479.0050000010524","survey-multi-choice","110","431815","0.0-25.0","SS1617819279925","math_question","","","","","","","","","","","{""Q0"":""15""}","[0]","15","",""
"","null","html-keyboard-response","111","433070","0.0-26.0-0.0","SS1617819279925","","","null","","","","","<p><img src= images/blank.png width =""600"" height = ""600"" style=""position:fixed;top:50%; left:50%; transform: translate(-50%, -50%); border:5px solid black"">","","","","","","","",""
"","5319.649999997579","sequential-stimulus-presentation","112","439395","0.0-26.0-1.0","SS1617819279925","trial","","40","1000","6319.649999997579","images/stimuli/spore_stims/complex_11_A_b.gif","images/stimuli/spore_stims/complex_16_A_a.gif","","9","complex_dissimilar","images/stimuli/spore_stims/complex_16_A_a.gif","","","","",""
"","null","html-keyboard-response","113","440280","0.0-26.0-0.1","SS1617819279925","","","null","","","","","<p><img src= images/blank.png width =""600"" height = ""600"" style=""position:fixed;top:50%; left:50%; transform: translate(-50%, -50%); border:5px solid black"">","","","","","","","",""
"","5118.105000001378","sequential-stimulus-presentation","114","446403","0.0-26.0-1.1","SS1617819279925","trial","","40","1000","6118.105000001378","images/stimuli/spore_stims/complex_11_A_b.gif","images/stimuli/spore_stims/complex_16_A_a.gif","","9","complex_dissimilar","images/stimuli/spore_stims/complex_11_A_b.gif","","","","",""
"","null","html-keyboard-response","115","447227","0.0-26.0-0.2","SS1617819279925","","","null","","","","","<p><img src= images/blank.png width =""600"" height = ""600"" style=""position:fixed;top:50%; left:50%; transform: translate(-50%, -50%); border:5px solid black"">","","","","","","","",""
"","4055.589999999909","sequential-stimulus-presentation","116","452289","0.0-26.0-1.2","SS1617819279925","trial","","40","1000","5055.589999999909","images/stimuli/spore_stims/complex_11_A_b.gif","images/stimuli/spore_stims/complex_16_A_a.gif","","9","complex_dissimilar","images/stimuli/spore_stims/complex_16_A_a.gif","","","","",""
"","null","html-keyboard-response","117","453132","0.0-26.0-0.3","SS1617819279925","","","null","","","","","<p><img src= images/blank.png width =""600"" height = ""600"" style=""position:fixed;top:50%; left:50%; transform: translate(-50%, -50%); border:5px solid black"">","","","","","","","",""
"","3129.259999997914","sequential-stimulus-presentation","118","457266","0.0-26.0-1.3","SS1617819279925","trial","","40","1000","4129.259999997914","images/stimuli/spore_stims/complex_11_A_b.gif","images/stimuli/spore_stims/complex_16_A_a.gif","","9","complex_dissimilar","images/stimuli/spore_stims/complex_16_A_a.gif","","","","",""
"","null","html-keyboard-response","119","458494","0.0-26.0-0.4","SS1617819279925","","","null","","","","","<p><img src= images/blank.png width =""600"" height = ""600"" style=""position:fixed;top:50%; left:50%; transform: translate(-50%, -50%); border:5px solid black"">","","","","","","","",""
"","4682.724999998754","sequential-stimulus-presentation","120","464183","0.0-26.0-1.4","SS1617819279925","trial","","40","1000","5682.724999998754","images/stimuli/spore_stims/complex_11_A_b.gif","images/stimuli/spore_stims/complex_16_A_a.gif","","9","complex_dissimilar","images/stimuli/spore_stims/complex_11_A_b.gif","","","","",""
"","186757.91000000032","survey-multi-choice","121","650943","0.0-27.0","SS1617819279925","math_question","","","","","","","","","","","{""Q0"":""9""}","[0]","9","",""
"","null","html-keyboard-response","122","651918","0.0-28.0-0.0","SS1617819279925","","","null","","","","","<p><img src= images/blank.png width =""600"" height = ""600"" style=""position:fixed;top:50%; left:50%; transform: translate(-50%, -50%); border:5px solid black"">","","","","","","","",""
"","4150.424999999814","sequential-stimulus-presentation","123","657073","0.0-28.0-1.0","SS1617819279925","trial","","40","1000","5150.424999999814","images/stimuli/spore_stims/complex_19_A_a.gif","images/stimuli/spore_stims/complex_09_A_b.gif","","10","complex_dissimilar","images/stimuli/spore_stims/complex_09_A_b.gif","","","","",""
"","null","html-keyboard-response","124","658122","0.0-28.0-0.1","SS1617819279925","","","null","","","","","<p><img src= images/blank.png width =""600"" height = ""600"" style=""position:fixed;top:50%; left:50%; transform: translate(-50%, -50%); border:5px solid black"">","","","","","","","",""
"","5355.690000000293","sequential-stimulus-presentation","125","664482","0.0-28.0-1.1","SS1617819279925","trial","","40","1000","6355.690000000293","images/stimuli/spore_stims/complex_19_A_a.gif","images/stimuli/spore_stims/complex_09_A_b.gif","","10","complex_dissimilar","images/stimuli/spore_stims/complex_19_A_a.gif","","","","",""
"","null","html-keyboard-response","126","665646","0.0-28.0-0.2","SS1617819279925","","","null","","","","","<p><img src= images/blank.png width =""600"" height = ""600"" style=""position:fixed;top:50%; left:50%; transform: translate(-50%, -50%); border:5px solid black"">","","","","","","","",""
"","4332.72500000021","sequential-stimulus-presentation","127","670983","0.0-28.0-1.2","SS1617819279925","trial","","40","1000","5332.72500000021","images/stimuli/spore_stims/complex_19_A_a.gif","images/stimuli/spore_stims/complex_09_A_b.gif","","10","complex_dissimilar","images/stimuli/spore_stims/complex_09_A_b.gif","","","","",""
"","null","html-keyboard-response","128","671865","0.0-28.0-0.3","SS1617819279925","","","null","","","","","<p><img src= images/blank.png width =""600"" height = ""600"" style=""position:fixed;top:50%; left:50%; transform: translate(-50%, -50%); border:5px solid black"">","","","","","","","",""
"","3904.6349999989616","sequential-stimulus-presentation","129","676775","0.0-28.0-1.3","SS1617819279925","trial","","40","1000","4904.634999998962","images/stimuli/spore_stims/complex_19_A_a.gif","images/stimuli/spore_stims/complex_09_A_b.gif","","10","complex_dissimilar","images/stimuli/spore_stims/complex_09_A_b.gif","","","","",""
"","5051.649999997695","survey-multi-choice","130","681831","0.0-29.0","SS1617819279925","math_question","","","","","","","","","","","{""Q0"":""16""}","[0]","16","",""
"","null","html-keyboard-response","131","682846","0.0-30.0-0.0","SS1617819279925","","","null","","","","","<p><img src= images/blank.png width =""600"" height = ""600"" style=""position:fixed;top:50%; left:50%; transform: translate(-50%, -50%); border:5px solid black"">","","","","","","","",""
"","1555.9949999988312","sequential-stimulus-presentation","132","685408","0.0-30.0-1.0","SS1617819279925","trial","","40","1000","2555.994999998831","images/stimuli/spore_stims/simple_17_A_a.gif","images/stimuli/spore_stims/simple_11_A_b.gif","","11","simple_dissimilar","images/stimuli/spore_stims/simple_11_A_b.gif","","","","",""
"","null","html-keyboard-response","133","686514","0.0-30.0-0.1","SS1617819279925","","","null","","","","","<p><img src= images/blank.png width =""600"" height = ""600"" style=""position:fixed;top:50%; left:50%; transform: translate(-50%, -50%); border:5px solid black"">","","","","","","","",""
"","496.4349999972619","sequential-stimulus-presentation","134","688015","0.0-30.0-1.1","SS1617819279925","trial","","40","1000","1496.434999997262","images/stimuli/spore_stims/simple_17_A_a.gif","images/stimuli/spore_stims/simple_11_A_b.gif","","11","simple_dissimilar","images/stimuli/spore_stims/simple_11_A_b.gif","","","","",""
"","null","html-keyboard-response","135","689307","0.0-30.0-0.2","SS1617819279925","","","null","","","","","<p><img src= images/blank.png width =""600"" height = ""600"" style=""position:fixed;top:50%; left:50%; transform: translate(-50%, -50%); border:5px solid black"">","","","","","","","",""
"","2471.994999999879","sequential-stimulus-presentation","136","692785","0.0-30.0-1.2","SS1617819279925","trial","","40","1000","3471.994999999879","images/stimuli/spore_stims/simple_17_A_a.gif","images/stimuli/spore_stims/simple_11_A_b.gif","","11","simple_dissimilar","images/stimuli/spore_stims/simple_11_A_b.gif","","","","",""
"","null","html-keyboard-response","137","694016","0.0-30.0-0.3","SS1617819279925","","","null","","","","","<p><img src= images/blank.png width =""600"" height = ""600"" style=""position:fixed;top:50%; left:50%; transform: translate(-50%, -50%); border:5px solid black"">","","","","","","","",""
"","779.774999999092","sequential-stimulus-presentation","138","695803","0.0-30.0-1.3","SS1617819279925","trial","","40","1000","1779.774999999092","images/stimuli/spore_stims/simple_17_A_a.gif","images/stimuli/spore_stims/simple_11_A_b.gif","","11","simple_dissimilar","images/stimuli/spore_stims/simple_11_A_b.gif","","","","",""
"[{""page_index"":0,""viewing_time"":6105.4650000005495}]","6106.070000001695","instructions","139","701911","0.0-31.0","SS1617819279925","instructions","","","","","","","","","","","","","","",""
"","36489.65500000119","survey-likert","140","738407","0.0-32.0","SS1617819279925","similarity_question","","","","","","","","","","","{""Q0"":2}","[0]","","images/stimuli/spore_stims/complex_09_A_b.gif","images/stimuli/spore_stims/complex_19_A_a.gif"
"","6835.845000001369","survey-likert","141","745247","0.0-33.0","SS1617819279925","similarity_question","","","","","","","","","","","{""Q0"":0}","[0]","","images/stimuli/spore_stims/complex_05_A_b.gif","images/stimuli/spore_stims/complex_20_A_a.gif"
"","10907.139999999432","survey-likert","142","756159","0.0-34.0","SS1617819279925","similarity_question","","","","","","","","","","","{""Q0"":2}","[0]","","images/stimuli/spore_stims/complex_12_A_a.gif","images/stimuli/spore_stims/complex_10_A_b.gif"
"","7035.454999997397","survey-likert","143","763199","0.0-35.0","SS1617819279925","similarity_question","","","","","","","","","","","{""Q0"":0}","[0]","","images/stimuli/spore_stims/complex_16_A_a.gif","images/stimuli/spore_stims/complex_11_A_b.gif"
"","5164.329999999609","survey-likert","144","768367","0.0-36.0","SS1617819279925","similarity_question","","","","","","","","","","","{""Q0"":4}","[0]","","images/stimuli/spore_stims/simple_18_A_a.gif","images/stimuli/spore_stims/simple_16_A_b.gif"
"","4300.204999999609","survey-likert","145","772671","0.0-37.0","SS1617819279925","similarity_question","","","","","","","","","","","{""Q0"":5}","[0]","","images/stimuli/spore_stims/simple_11_A_b.gif","images/stimuli/spore_stims/simple_17_A_a.gif"
"","4338.524999999208","survey-likert","146","777015","0.0-38.0","SS1617819279925","similarity_question","","","","","","","","","","","{""Q0"":6}","[0]","","images/stimuli/spore_stims/simple_15_A_a.gif","images/stimuli/spore_stims/simple_01_A_b.gif"
"","6876.035000001197","survey-likert","147","783895","0.0-39.0","SS1617819279925","similarity_question","","","","","","","","","","","{""Q0"":5}","[0]","","images/stimuli/spore_stims/simple_17_A_b.gif","images/stimuli/spore_stims/simple_13_A_a.gif"
"","4194.219999997644","survey-likert","148","788095","0.0-40.0","SS1617819279925","similarity_question","","","","","","","","","","","{""Q0"":4}","[0]","","images/stimuli/spore_stims/simple_13_A_b.gif","images/stimuli/spore_stims/simple_08_A_a.gif"
"","4236.250000001746","survey-likert","149","792335","0.0-41.0","SS1617819279925","similarity_question","","","","","","","","","","","{""Q0"":4}","[0]","","images/stimuli/spore_stims/simple_11_A_a.gif","images/stimuli/spore_stims/simple_07_A_b.gif"
"","6747.780000001541","survey-likert","150","799087","0.0-42.0","SS1617819279925","similarity_question","","","","","","","","","","","{""Q0"":0}","[0]","","images/stimuli/spore_stims/complex_08_A_a.gif","images/stimuli/spore_stims/complex_14_A_b.gif"
"","7395.795000000391","survey-likert","151","806487","0.0-43.0","SS1617819279925","similarity_question","","","","","","","","","","","{""Q0"":0}","[0]","","images/stimuli/spore_stims/complex_02_A_b.gif","images/stimuli/spore_stims/complex_11_A_a.gif"
"[{""page_index"":0,""viewing_time"":10268.359999998123}]","10268.579999999842","instructions","152","816759","0.0-44.0","SS1617819279925","instructions","","","","","","","","","","","","","","",""
"","16085.484999999637","survey-likert","153","832847","0.0-45.0","SS1617819279925","","","","","","","","images/stimuli/spore_stims/complex_19_A_a.gif","","","","{""Q0"":4}","[0]","","",""
"","3027.0949999976438","survey-likert","154","835879","0.0-46.0","SS1617819279925","","","","","","","","images/stimuli/spore_stims/simple_18_A_a.gif","","","","{""Q0"":0}","[0]","","",""
"","3994.8699999985984","survey-likert","155","839879","0.0-47.0","SS1617819279925","","","","","","","","images/stimuli/spore_stims/simple_13_A_b.gif","","","","{""Q0"":0}","[0]","","",""
"","3867.7199999983422","survey-likert","156","843750","0.0-48.0","SS1617819279925","","","","","","","","images/stimuli/spore_stims/simple_11_A_b.gif","","","","{""Q0"":0}","[0]","","",""
"","5155.699999999371","survey-likert","157","848911","0.0-49.0","SS1617819279925","","","","","","","","images/stimuli/spore_stims/complex_11_A_b.gif","","","","{""Q0"":4}","[0]","","",""
"","3011.525000001653","survey-likert","158","851926","0.0-50.0","SS1617819279925","","","","","","","","images/stimuli/spore_stims/simple_11_A_a.gif","","","","{""Q0"":0}","[0]","","",""
"","3019.8400000008987","survey-likert","159","854950","0.0-51.0","SS1617819279925","","","","","","","","images/stimuli/spore_stims/simple_15_A_a.gif","","","","{""Q0"":0}","[0]","","",""
"","6684.389999998501","survey-likert","160","861638","0.0-52.0","SS1617819279925","","","","","","","","images/stimuli/spore_stims/complex_11_A_a.gif","","","","{""Q0"":4}","[0]","","",""
"","4003.4850000010338","survey-likert","161","865646","0.0-53.0","SS1617819279925","","","","","","","","images/stimuli/spore_stims/complex_20_A_a.gif","","","","{""Q0"":5}","[0]","","",""
"","5324.08000000217","survey-likert","162","870975","0.0-54.0","SS1617819279925","","","","","","","","images/stimuli/spore_stims/complex_10_A_b.gif","","","","{""Q0"":5}","[0]","","",""
"","2442.964999998454","survey-likert","163","873423","0.0-55.0","SS1617819279925","","","","","","","","images/stimuli/spore_stims/simple_13_A_a.gif","","","","{""Q0"":0}","[0]","","",""
"","5579.129999998258","survey-likert","164","879007","0.0-56.0","SS1617819279925","","","","","","","","images/stimuli/spore_stims/complex_08_A_a.gif","","","","{""Q0"":6}","[0]","","",""
"[{""page_index"":0,""viewing_time"":4259.855000000214}]","4260.070000000298","instructions","165","883270","0.0-57.0","SS1617819279925","instructions","","","","","","","","","","","","","","",""
"","2168.8649999996414","demog-age","166","885446","0.0-58.0","SS1617819279925","","","","","","","","","","","","{""age"":""21""}","","","",""
"","3697.97000000102","demog-ethnic-US","167","889151","0.0-59.0","SS1617819279925","","","","","","","","","","","","{""ethnicity"":[""White""]}","[0]","","",""
"","12121.469999998226","demog-gender-and-education","168","901279","0.0-60.0","SS1617819279925","","","","","","","","","","","","{""gender"":""Female"",""education"":""Bachelor's Degree""}","[0,1]","","",""
"","11480.795000003069","survey-text","169","912767","0.0-61.0","SS1617819279925","feedback","","","","","","","","","","","{""Q0"":""/""}","","","",""
"[{""page_index"":0,""viewing_time"":2171.1250000006985}]","2171.3400000007823","instructions","170","914942","0.0-62.0","SS1617819279925","instructions","","","","","","","","","","","","","","",""
