"view_history","rt","trial_type","trial_index","time_elapsed","internal_node_id","subject","stimulus_type","trial_stimulus","key_press","minimum_viewing_duration","trial_looking_time","block_deviant","block_background","stimulus","block_number","block_type","stimulus_displayed","responses","question_order","math_correct_answer","stimulus_left","stimulus_right"
"[{""page_index"":0,""viewing_time"":3053.4500000067055}]","3053.779999987455","instructions","0","3056","0.0-0.0","SS1617819916752","","","","","","","","","","","","","","","",""
"[{""page_index"":0,""viewing_time"":10524.62499999092},{""page_index"":1,""viewing_time"":11142.389999993611}]","21667.264999996405","instructions","1","26725","0.0-1.0","SS1617819916752","instructions","","","","","","","","","","","","","","",""
"","6906.374999991385","sequential-stimulus-presentation-old","2","34236","0.0-2.0","SS1617819916752","","","40","600","7506.374999991385","null","null","","","","","","","","",""
"","4192.5849999825","sequential-stimulus-presentation-old","3","38932","0.0-3.0","SS1617819916752","","","40","500","4692.5849999825","null","null","","","","","","","","",""
"[{""page_index"":0,""viewing_time"":24518.23499999591}]","24519.104999984847","instructions","4","63453","0.0-4.0","SS1617819916752","instructions","","","","","","","","","","","","","","",""
"","510.2400000032503","sequential-stimulus-presentation","5","64978","0.0-5.0","SS1617819916752","","","40","1000","1510.2400000032503","null","null","","","","","","","","",""
"[{""page_index"":0,""viewing_time"":5963.374999992084}]","5963.725000008708","instructions","6","70943","0.0-6.0","SS1617819916752","instructions","","","","","","","","","","","","","","",""
"[{""page_index"":0,""viewing_time"":9144.44000000367},{""page_index"":1,""viewing_time"":12411.009999981616},{""page_index"":2,""viewing_time"":5273.190000007162},{""page_index"":3,""viewing_time"":1746.725000004517},{""page_index"":4,""viewing_time"":1127.0999999833293}]","29702.7099999832","instructions","7","100647","0.0-7.0","SS1617819916752","instructions","","","","","","","","","","","","","","",""
"","null","html-keyboard-response","8","101825","0.0-8.0-0.0","SS1617819916752","","","null","","","","","<p><img src= images/blank.png width =""600"" height = ""600"" style=""position:fixed;top:50%; left:50%; transform: translate(-50%, -50%); border:5px solid black"">","","","","","","","",""
"","431.205000000773","sequential-stimulus-presentation","9","103270","0.0-8.0-1.0","SS1617819916752","trial","","40","1000","1431.205000000773","images/stimuli/spore_stims/complex_11_A_b.gif","images/stimuli/spore_stims/complex_10_A_a.gif","","0","complex_dissimilar","images/stimuli/spore_stims/complex_10_A_a.gif","","","","",""
"","null","html-keyboard-response","10","104354","0.0-8.0-0.1","SS1617819916752","","","null","","","","","<p><img src= images/blank.png width =""600"" height = ""600"" style=""position:fixed;top:50%; left:50%; transform: translate(-50%, -50%); border:5px solid black"">","","","","","","","",""
"","331.29999999073334","sequential-stimulus-presentation","11","105689","0.0-8.0-1.1","SS1617819916752","trial","","40","1000","1331.2999999907333","images/stimuli/spore_stims/complex_11_A_b.gif","images/stimuli/spore_stims/complex_10_A_a.gif","","0","complex_dissimilar","images/stimuli/spore_stims/complex_11_A_b.gif","","","","",""
"","null","html-keyboard-response","12","106614","0.0-8.0-0.2","SS1617819916752","","","null","","","","","<p><img src= images/blank.png width =""600"" height = ""600"" style=""position:fixed;top:50%; left:50%; transform: translate(-50%, -50%); border:5px solid black"">","","","","","","","",""
"","340.72000000742264","sequential-stimulus-presentation","13","107978","0.0-8.0-1.2","SS1617819916752","trial","","40","1000","1340.7200000074226","images/stimuli/spore_stims/complex_11_A_b.gif","images/stimuli/spore_stims/complex_10_A_a.gif","","0","complex_dissimilar","images/stimuli/spore_stims/complex_10_A_a.gif","","","","",""
"","null","html-keyboard-response","14","109043","0.0-8.0-0.3","SS1617819916752","","","null","","","","","<p><img src= images/blank.png width =""600"" height = ""600"" style=""position:fixed;top:50%; left:50%; transform: translate(-50%, -50%); border:5px solid black"">","","","","","","","",""
"","328.3649999939371","sequential-stimulus-presentation","15","110383","0.0-8.0-1.3","SS1617819916752","trial","","40","1000","1328.364999993937","images/stimuli/spore_stims/complex_11_A_b.gif","images/stimuli/spore_stims/complex_10_A_a.gif","","0","complex_dissimilar","images/stimuli/spore_stims/complex_10_A_a.gif","","","","",""
"","2849.435000010999","survey-multi-choice","16","113239","0.0-9.0","SS1617819916752","math_question","","","","","","","","","","","{""Q0"":""6""}","[0]","6","",""
"","null","html-keyboard-response","17","114387","0.0-10.0-0.0","SS1617819916752","","","null","","","","","<p><img src= images/blank.png width =""600"" height = ""600"" style=""position:fixed;top:50%; left:50%; transform: translate(-50%, -50%); border:5px solid black"">","","","","","","","",""
"","334.9400000006426","sequential-stimulus-presentation","18","115729","0.0-10.0-1.0","SS1617819916752","trial","","40","1000","1334.9400000006426","images/stimuli/spore_stims/simple_15_A_b.gif","images/stimuli/spore_stims/simple_18_A_a.gif","","1","simple_dissimilar","images/stimuli/spore_stims/simple_18_A_a.gif","","","","",""
"","null","html-keyboard-response","19","116637","0.0-10.0-0.1","SS1617819916752","","","null","","","","","<p><img src= images/blank.png width =""600"" height = ""600"" style=""position:fixed;top:50%; left:50%; transform: translate(-50%, -50%); border:5px solid black"">","","","","","","","",""
"","340.92499999678694","sequential-stimulus-presentation","20","117988","0.0-10.0-1.1","SS1617819916752","trial","","40","1000","1340.924999996787","images/stimuli/spore_stims/simple_15_A_b.gif","images/stimuli/spore_stims/simple_18_A_a.gif","","1","simple_dissimilar","images/stimuli/spore_stims/simple_15_A_b.gif","","","","",""
"","null","html-keyboard-response","21","119053","0.0-10.0-0.2","SS1617819916752","","","null","","","","","<p><img src= images/blank.png width =""600"" height = ""600"" style=""position:fixed;top:50%; left:50%; transform: translate(-50%, -50%); border:5px solid black"">","","","","","","","",""
"","303.4449999977369","sequential-stimulus-presentation","22","120363","0.0-10.0-1.2","SS1617819916752","trial","","40","1000","1303.4449999977369","images/stimuli/spore_stims/simple_15_A_b.gif","images/stimuli/spore_stims/simple_18_A_a.gif","","1","simple_dissimilar","images/stimuli/spore_stims/simple_18_A_a.gif","","","","",""
"","null","html-keyboard-response","23","121309","0.0-10.0-0.3","SS1617819916752","","","null","","","","","<p><img src= images/blank.png width =""600"" height = ""600"" style=""position:fixed;top:50%; left:50%; transform: translate(-50%, -50%); border:5px solid black"">","","","","","","","",""
"","308.90000000363216","sequential-stimulus-presentation","24","122623","0.0-10.0-1.3","SS1617819916752","trial","","40","1000","1308.9000000036322","images/stimuli/spore_stims/simple_15_A_b.gif","images/stimuli/spore_stims/simple_18_A_a.gif","","1","simple_dissimilar","images/stimuli/spore_stims/simple_15_A_b.gif","","","","",""
"","null","html-keyboard-response","25","123815","0.0-10.0-0.4","SS1617819916752","","","null","","","","","<p><img src= images/blank.png width =""600"" height = ""600"" style=""position:fixed;top:50%; left:50%; transform: translate(-50%, -50%); border:5px solid black"">","","","","","","","",""
"","342.88999999989755","sequential-stimulus-presentation","26","125170","0.0-10.0-1.4","SS1617819916752","trial","","40","1000","1342.8899999998976","images/stimuli/spore_stims/simple_15_A_b.gif","images/stimuli/spore_stims/simple_18_A_a.gif","","1","simple_dissimilar","images/stimuli/spore_stims/simple_18_A_a.gif","","","","",""
"","null","html-keyboard-response","27","126280","0.0-10.0-0.5","SS1617819916752","","","null","","","","","<p><img src= images/blank.png width =""600"" height = ""600"" style=""position:fixed;top:50%; left:50%; transform: translate(-50%, -50%); border:5px solid black"">","","","","","","","",""
"","336.4799999981187","sequential-stimulus-presentation","28","127624","0.0-10.0-1.5","SS1617819916752","trial","","40","1000","1336.4799999981187","images/stimuli/spore_stims/simple_15_A_b.gif","images/stimuli/spore_stims/simple_18_A_a.gif","","1","simple_dissimilar","images/stimuli/spore_stims/simple_18_A_a.gif","","","","",""
"","2167.6950000110082","survey-multi-choice","29","129793","0.0-11.0","SS1617819916752","math_question","","","","","","","","","","","{""Q0"":""7""}","[0]","7","",""
"","null","html-keyboard-response","30","130789","0.0-12.0-0.0","SS1617819916752","","","null","","","","","<p><img src= images/blank.png width =""600"" height = ""600"" style=""position:fixed;top:50%; left:50%; transform: translate(-50%, -50%); border:5px solid black"">","","","","","","","",""
"","326.5499999979511","sequential-stimulus-presentation","31","132132","0.0-12.0-1.0","SS1617819916752","trial","","40","1000","1326.549999997951","images/stimuli/spore_stims/complex_17_A_b.gif","images/stimuli/spore_stims/complex_06_A_a.gif","","2","complex_dissimilar","images/stimuli/spore_stims/complex_06_A_a.gif","","","","",""
"","null","html-keyboard-response","32","132958","0.0-12.0-0.1","SS1617819916752","","","null","","","","","<p><img src= images/blank.png width =""600"" height = ""600"" style=""position:fixed;top:50%; left:50%; transform: translate(-50%, -50%); border:5px solid black"">","","","","","","","",""
"","422.62500000651926","sequential-stimulus-presentation","33","134392","0.0-12.0-1.1","SS1617819916752","trial","","40","1000","1422.6250000065193","images/stimuli/spore_stims/complex_17_A_b.gif","images/stimuli/spore_stims/complex_06_A_a.gif","","2","complex_dissimilar","images/stimuli/spore_stims/complex_06_A_a.gif","","","","",""
"","null","html-keyboard-response","34","135410","0.0-12.0-0.2","SS1617819916752","","","null","","","","","<p><img src= images/blank.png width =""600"" height = ""600"" style=""position:fixed;top:50%; left:50%; transform: translate(-50%, -50%); border:5px solid black"">","","","","","","","",""
"","339.52000000863336","sequential-stimulus-presentation","35","136757","0.0-12.0-1.2","SS1617819916752","trial","","40","1000","1339.5200000086334","images/stimuli/spore_stims/complex_17_A_b.gif","images/stimuli/spore_stims/complex_06_A_a.gif","","2","complex_dissimilar","images/stimuli/spore_stims/complex_06_A_a.gif","","","","",""
"","null","html-keyboard-response","36","137638","0.0-12.0-0.3","SS1617819916752","","","null","","","","","<p><img src= images/blank.png width =""600"" height = ""600"" style=""position:fixed;top:50%; left:50%; transform: translate(-50%, -50%); border:5px solid black"">","","","","","","","",""
"","349.61000000475906","sequential-stimulus-presentation","37","139004","0.0-12.0-1.3","SS1617819916752","trial","","40","1000","1349.610000004759","images/stimuli/spore_stims/complex_17_A_b.gif","images/stimuli/spore_stims/complex_06_A_a.gif","","2","complex_dissimilar","images/stimuli/spore_stims/complex_06_A_a.gif","","","","",""
"","null","html-keyboard-response","38","139975","0.0-12.0-0.4","SS1617819916752","","","null","","","","","<p><img src= images/blank.png width =""600"" height = ""600"" style=""position:fixed;top:50%; left:50%; transform: translate(-50%, -50%); border:5px solid black"">","","","","","","","",""
"","367.5400000065565","sequential-stimulus-presentation","39","141347","0.0-12.0-1.4","SS1617819916752","trial","","40","1000","1367.5400000065565","images/stimuli/spore_stims/complex_17_A_b.gif","images/stimuli/spore_stims/complex_06_A_a.gif","","2","complex_dissimilar","images/stimuli/spore_stims/complex_06_A_a.gif","","","","",""
"","null","html-keyboard-response","40","142384","0.0-12.0-0.5","SS1617819916752","","","null","","","","","<p><img src= images/blank.png width =""600"" height = ""600"" style=""position:fixed;top:50%; left:50%; transform: translate(-50%, -50%); border:5px solid black"">","","","","","","","",""
"","304.17499999748543","sequential-stimulus-presentation","41","143698","0.0-12.0-1.5","SS1617819916752","trial","","40","1000","1304.1749999974854","images/stimuli/spore_stims/complex_17_A_b.gif","images/stimuli/spore_stims/complex_06_A_a.gif","","2","complex_dissimilar","images/stimuli/spore_stims/complex_06_A_a.gif","","","","",""
"","2239.5499999984168","survey-multi-choice","42","145939","0.0-13.0","SS1617819916752","math_question","","","","","","","","","","","{""Q0"":""7""}","[0]","7","",""
"","null","html-keyboard-response","43","146992","0.0-14.0-0.0","SS1617819916752","","","null","","","","","<p><img src= images/blank.png width =""600"" height = ""600"" style=""position:fixed;top:50%; left:50%; transform: translate(-50%, -50%); border:5px solid black"">","","","","","","","",""
"","377.95999998343177","sequential-stimulus-presentation","44","148382","0.0-14.0-1.0","SS1617819916752","trial","","40","1000","1377.9599999834318","images/stimuli/spore_stims/simple_17_A_b.gif","images/stimuli/spore_stims/simple_13_A_a.gif","","3","simple_dissimilar","images/stimuli/spore_stims/simple_13_A_a.gif","","","","",""
"","null","html-keyboard-response","45","149674","0.0-14.0-0.1","SS1617819916752","","","null","","","","","<p><img src= images/blank.png width =""600"" height = ""600"" style=""position:fixed;top:50%; left:50%; transform: translate(-50%, -50%); border:5px solid black"">","","","","","","","",""
"","314.19500001356937","sequential-stimulus-presentation","46","150992","0.0-14.0-1.1","SS1617819916752","trial","","40","1000","1314.1950000135694","images/stimuli/spore_stims/simple_17_A_b.gif","images/stimuli/spore_stims/simple_13_A_a.gif","","3","simple_dissimilar","images/stimuli/spore_stims/simple_13_A_a.gif","","","","",""
"","null","html-keyboard-response","47","151804","0.0-14.0-0.2","SS1617819916752","","","null","","","","","<p><img src= images/blank.png width =""600"" height = ""600"" style=""position:fixed;top:50%; left:50%; transform: translate(-50%, -50%); border:5px solid black"">","","","","","","","",""
"","332.18999998643994","sequential-stimulus-presentation","48","153147","0.0-14.0-1.2","SS1617819916752","trial","","40","1000","1332.18999998644","images/stimuli/spore_stims/simple_17_A_b.gif","images/stimuli/spore_stims/simple_13_A_a.gif","","3","simple_dissimilar","images/stimuli/spore_stims/simple_13_A_a.gif","","","","",""
"","null","html-keyboard-response","49","154405","0.0-14.0-0.3","SS1617819916752","","","null","","","","","<p><img src= images/blank.png width =""600"" height = ""600"" style=""position:fixed;top:50%; left:50%; transform: translate(-50%, -50%); border:5px solid black"">","","","","","","","",""
"","360.1499999931548","sequential-stimulus-presentation","50","155777","0.0-14.0-1.3","SS1617819916752","trial","","40","1000","1360.1499999931548","images/stimuli/spore_stims/simple_17_A_b.gif","images/stimuli/spore_stims/simple_13_A_a.gif","","3","simple_dissimilar","images/stimuli/spore_stims/simple_17_A_b.gif","","","","",""
"","null","html-keyboard-response","51","156739","0.0-14.0-0.4","SS1617819916752","","","null","","","","","<p><img src= images/blank.png width =""600"" height = ""600"" style=""position:fixed;top:50%; left:50%; transform: translate(-50%, -50%); border:5px solid black"">","","","","","","","",""
"","313.72999999439344","sequential-stimulus-presentation","52","158058","0.0-14.0-1.4","SS1617819916752","trial","","40","1000","1313.7299999943934","images/stimuli/spore_stims/simple_17_A_b.gif","images/stimuli/spore_stims/simple_13_A_a.gif","","3","simple_dissimilar","images/stimuli/spore_stims/simple_17_A_b.gif","","","","",""
"","3564.345000020694","survey-multi-choice","53","161625","0.0-15.0","SS1617819916752","math_question","","","","","","","","","","","{""Q0"":""10""}","[0]","10","",""
"","null","html-keyboard-response","54","162792","0.0-16.0-0.0","SS1617819916752","","","null","","","","","<p><img src= images/blank.png width =""600"" height = ""600"" style=""position:fixed;top:50%; left:50%; transform: translate(-50%, -50%); border:5px solid black"">","","","","","","","",""
"","344.42499998840503","sequential-stimulus-presentation","55","164142","0.0-16.0-1.0","SS1617819916752","trial","","40","1000","1344.424999988405","images/stimuli/spore_stims/simple_11_A_b.gif","images/stimuli/spore_stims/simple_05_A_a.gif","","4","simple_dissimilar","images/stimuli/spore_stims/simple_05_A_a.gif","","","","",""
"","null","html-keyboard-response","56","165408","0.0-16.0-0.1","SS1617819916752","","","null","","","","","<p><img src= images/blank.png width =""600"" height = ""600"" style=""position:fixed;top:50%; left:50%; transform: translate(-50%, -50%); border:5px solid black"">","","","","","","","",""
"","303.2850000017788","sequential-stimulus-presentation","57","166717","0.0-16.0-1.1","SS1617819916752","trial","","40","1000","1303.2850000017788","images/stimuli/spore_stims/simple_11_A_b.gif","images/stimuli/spore_stims/simple_05_A_a.gif","","4","simple_dissimilar","images/stimuli/spore_stims/simple_05_A_a.gif","","","","",""
"","null","html-keyboard-response","58","167706","0.0-16.0-0.2","SS1617819916752","","","null","","","","","<p><img src= images/blank.png width =""600"" height = ""600"" style=""position:fixed;top:50%; left:50%; transform: translate(-50%, -50%); border:5px solid black"">","","","","","","","",""
"","322.5749999983236","sequential-stimulus-presentation","59","169032","0.0-16.0-1.2","SS1617819916752","trial","","40","1000","1322.5749999983236","images/stimuli/spore_stims/simple_11_A_b.gif","images/stimuli/spore_stims/simple_05_A_a.gif","","4","simple_dissimilar","images/stimuli/spore_stims/simple_05_A_a.gif","","","","",""
"","null","html-keyboard-response","60","170224","0.0-16.0-0.3","SS1617819916752","","","null","","","","","<p><img src= images/blank.png width =""600"" height = ""600"" style=""position:fixed;top:50%; left:50%; transform: translate(-50%, -50%); border:5px solid black"">","","","","","","","",""
"","349.6500000183005","sequential-stimulus-presentation","61","171577","0.0-16.0-1.3","SS1617819916752","trial","","40","1000","1349.6500000183005","images/stimuli/spore_stims/simple_11_A_b.gif","images/stimuli/spore_stims/simple_05_A_a.gif","","4","simple_dissimilar","images/stimuli/spore_stims/simple_05_A_a.gif","","","","",""
"","null","html-keyboard-response","62","172786","0.0-16.0-0.4","SS1617819916752","","","null","","","","","<p><img src= images/blank.png width =""600"" height = ""600"" style=""position:fixed;top:50%; left:50%; transform: translate(-50%, -50%); border:5px solid black"">","","","","","","","",""
"","357.9050000116695","sequential-stimulus-presentation","63","174156","0.0-16.0-1.4","SS1617819916752","trial","","40","1000","1357.9050000116695","images/stimuli/spore_stims/simple_11_A_b.gif","images/stimuli/spore_stims/simple_05_A_a.gif","","4","simple_dissimilar","images/stimuli/spore_stims/simple_11_A_b.gif","","","","",""
"","null","html-keyboard-response","64","175218","0.0-16.0-0.5","SS1617819916752","","","null","","","","","<p><img src= images/blank.png width =""600"" height = ""600"" style=""position:fixed;top:50%; left:50%; transform: translate(-50%, -50%); border:5px solid black"">","","","","","","","",""
"","482.56999999284744","sequential-stimulus-presentation","65","176712","0.0-16.0-1.5","SS1617819916752","trial","","40","1000","1482.5699999928474","images/stimuli/spore_stims/simple_11_A_b.gif","images/stimuli/spore_stims/simple_05_A_a.gif","","4","simple_dissimilar","images/stimuli/spore_stims/simple_11_A_b.gif","","","","",""
"","2576.4300000155345","survey-multi-choice","66","179291","0.0-17.0","SS1617819916752","math_question","","","","","","","","","","","{""Q0"":""11""}","[0]","11","",""
"","null","html-keyboard-response","67","180591","0.0-18.0-0.0","SS1617819916752","","","null","","","","","<p><img src= images/blank.png width =""600"" height = ""600"" style=""position:fixed;top:50%; left:50%; transform: translate(-50%, -50%); border:5px solid black"">","","","","","","","",""
"","402.6550000126008","sequential-stimulus-presentation","68","182001","0.0-18.0-1.0","SS1617819916752","trial","","40","1000","1402.6550000126008","images/stimuli/spore_stims/complex_15_A_b.gif","images/stimuli/spore_stims/complex_18_A_a.gif","","5","complex_dissimilar","images/stimuli/spore_stims/complex_18_A_a.gif","","","","",""
"","null","html-keyboard-response","69","182971","0.0-18.0-0.1","SS1617819916752","","","null","","","","","<p><img src= images/blank.png width =""600"" height = ""600"" style=""position:fixed;top:50%; left:50%; transform: translate(-50%, -50%); border:5px solid black"">","","","","","","","",""
"","402.3049999959767","sequential-stimulus-presentation","70","184392","0.0-18.0-1.1","SS1617819916752","trial","","40","1000","1402.3049999959767","images/stimuli/spore_stims/complex_15_A_b.gif","images/stimuli/spore_stims/complex_18_A_a.gif","","5","complex_dissimilar","images/stimuli/spore_stims/complex_15_A_b.gif","","","","",""
"","null","html-keyboard-response","71","185673","0.0-18.0-0.2","SS1617819916752","","","null","","","","","<p><img src= images/blank.png width =""600"" height = ""600"" style=""position:fixed;top:50%; left:50%; transform: translate(-50%, -50%); border:5px solid black"">","","","","","","","",""
"","349.5600000023842","sequential-stimulus-presentation","72","187026","0.0-18.0-1.2","SS1617819916752","trial","","40","1000","1349.5600000023842","images/stimuli/spore_stims/complex_15_A_b.gif","images/stimuli/spore_stims/complex_18_A_a.gif","","5","complex_dissimilar","images/stimuli/spore_stims/complex_18_A_a.gif","","","","",""
"","null","html-keyboard-response","73","187971","0.0-18.0-0.3","SS1617819916752","","","null","","","","","<p><img src= images/blank.png width =""600"" height = ""600"" style=""position:fixed;top:50%; left:50%; transform: translate(-50%, -50%); border:5px solid black"">","","","","","","","",""
"","345.4900000069756","sequential-stimulus-presentation","74","189330","0.0-18.0-1.3","SS1617819916752","trial","","40","1000","1345.4900000069756","images/stimuli/spore_stims/complex_15_A_b.gif","images/stimuli/spore_stims/complex_18_A_a.gif","","5","complex_dissimilar","images/stimuli/spore_stims/complex_15_A_b.gif","","","","",""
"","2542.9600000206847","survey-multi-choice","75","191876","0.0-19.0","SS1617819916752","math_question","","","","","","","","","","","{""Q0"":""15""}","[0]","15","",""
"","null","html-keyboard-response","76","192706","0.0-20.0-0.0","SS1617819916752","","","null","","","","","<p><img src= images/blank.png width =""600"" height = ""600"" style=""position:fixed;top:50%; left:50%; transform: translate(-50%, -50%); border:5px solid black"">","","","","","","","",""
"","328.20499999797903","sequential-stimulus-presentation","77","194041","0.0-20.0-1.0","SS1617819916752","trial","","40","1000","1328.204999997979","images/stimuli/spore_stims/complex_13_A_a.gif","images/stimuli/spore_stims/complex_05_A_b.gif","","6","complex_dissimilar","images/stimuli/spore_stims/complex_05_A_b.gif","","","","",""
"","null","html-keyboard-response","78","195178","0.0-20.0-0.1","SS1617819916752","","","null","","","","","<p><img src= images/blank.png width =""600"" height = ""600"" style=""position:fixed;top:50%; left:50%; transform: translate(-50%, -50%); border:5px solid black"">","","","","","","","",""
"","319.1299999889452","sequential-stimulus-presentation","79","196510","0.0-20.0-1.1","SS1617819916752","trial","","40","1000","1319.1299999889452","images/stimuli/spore_stims/complex_13_A_a.gif","images/stimuli/spore_stims/complex_05_A_b.gif","","6","complex_dissimilar","images/stimuli/spore_stims/complex_13_A_a.gif","","","","",""
"","null","html-keyboard-response","80","197356","0.0-20.0-0.2","SS1617819916752","","","null","","","","","<p><img src= images/blank.png width =""600"" height = ""600"" style=""position:fixed;top:50%; left:50%; transform: translate(-50%, -50%); border:5px solid black"">","","","","","","","",""
"","222.1750000026077","sequential-stimulus-presentation","81","198585","0.0-20.0-1.2","SS1617819916752","trial","","40","1000","1222.1750000026077","images/stimuli/spore_stims/complex_13_A_a.gif","images/stimuli/spore_stims/complex_05_A_b.gif","","6","complex_dissimilar","images/stimuli/spore_stims/complex_05_A_b.gif","","","","",""
"","null","html-keyboard-response","82","199703","0.0-20.0-0.3","SS1617819916752","","","null","","","","","<p><img src= images/blank.png width =""600"" height = ""600"" style=""position:fixed;top:50%; left:50%; transform: translate(-50%, -50%); border:5px solid black"">","","","","","","","",""
"","353.9450000098441","sequential-stimulus-presentation","83","201071","0.0-20.0-1.3","SS1617819916752","trial","","40","1000","1353.945000009844","images/stimuli/spore_stims/complex_13_A_a.gif","images/stimuli/spore_stims/complex_05_A_b.gif","","6","complex_dissimilar","images/stimuli/spore_stims/complex_05_A_b.gif","","","","",""
"","null","html-keyboard-response","84","201957","0.0-20.0-0.4","SS1617819916752","","","null","","","","","<p><img src= images/blank.png width =""600"" height = ""600"" style=""position:fixed;top:50%; left:50%; transform: translate(-50%, -50%); border:5px solid black"">","","","","","","","",""
"","383.44999999389984","sequential-stimulus-presentation","85","203360","0.0-20.0-1.4","SS1617819916752","trial","","40","1000","1383.4499999938998","images/stimuli/spore_stims/complex_13_A_a.gif","images/stimuli/spore_stims/complex_05_A_b.gif","","6","complex_dissimilar","images/stimuli/spore_stims/complex_05_A_b.gif","","","","",""
"","null","html-keyboard-response","86","204250","0.0-20.0-0.5","SS1617819916752","","","null","","","","","<p><img src= images/blank.png width =""600"" height = ""600"" style=""position:fixed;top:50%; left:50%; transform: translate(-50%, -50%); border:5px solid black"">","","","","","","","",""
"","414.27499998826534","sequential-stimulus-presentation","87","205676","0.0-20.0-1.5","SS1617819916752","trial","","40","1000","1414.2749999882653","images/stimuli/spore_stims/complex_13_A_a.gif","images/stimuli/spore_stims/complex_05_A_b.gif","","6","complex_dissimilar","images/stimuli/spore_stims/complex_05_A_b.gif","","","","",""
"","2569.45499998983","survey-multi-choice","88","208248","0.0-21.0","SS1617819916752","math_question","","","","","","","","","","","{""Q0"":""10""}","[0]","10","",""
"","null","html-keyboard-response","89","209062","0.0-22.0-0.0","SS1617819916752","","","null","","","","","<p><img src= images/blank.png width =""600"" height = ""600"" style=""position:fixed;top:50%; left:50%; transform: translate(-50%, -50%); border:5px solid black"">","","","","","","","",""
"","354.4300000066869","sequential-stimulus-presentation","90","210428","0.0-22.0-1.0","SS1617819916752","trial","","40","1000","1354.430000006687","images/stimuli/spore_stims/simple_09_A_a.gif","images/stimuli/spore_stims/simple_02_A_b.gif","","7","simple_dissimilar","images/stimuli/spore_stims/simple_02_A_b.gif","","","","",""
"","null","html-keyboard-response","91","211642","0.0-22.0-0.1","SS1617819916752","","","null","","","","","<p><img src= images/blank.png width =""600"" height = ""600"" style=""position:fixed;top:50%; left:50%; transform: translate(-50%, -50%); border:5px solid black"">","","","","","","","",""
"","300.53000000771135","sequential-stimulus-presentation","92","212948","0.0-22.0-1.1","SS1617819916752","trial","","40","1000","1300.5300000077114","images/stimuli/spore_stims/simple_09_A_a.gif","images/stimuli/spore_stims/simple_02_A_b.gif","","7","simple_dissimilar","images/stimuli/spore_stims/simple_02_A_b.gif","","","","",""
"","null","html-keyboard-response","93","214263","0.0-22.0-0.2","SS1617819916752","","","null","","","","","<p><img src= images/blank.png width =""600"" height = ""600"" style=""position:fixed;top:50%; left:50%; transform: translate(-50%, -50%); border:5px solid black"">","","","","","","","",""
"","250.43000001460314","sequential-stimulus-presentation","94","215518","0.0-22.0-1.2","SS1617819916752","trial","","40","1000","1250.4300000146031","images/stimuli/spore_stims/simple_09_A_a.gif","images/stimuli/spore_stims/simple_02_A_b.gif","","7","simple_dissimilar","images/stimuli/spore_stims/simple_02_A_b.gif","","","","",""
"","null","html-keyboard-response","95","216533","0.0-22.0-0.3","SS1617819916752","","","null","","","","","<p><img src= images/blank.png width =""600"" height = ""600"" style=""position:fixed;top:50%; left:50%; transform: translate(-50%, -50%); border:5px solid black"">","","","","","","","",""
"","589.4400000106543","sequential-stimulus-presentation","96","218133","0.0-22.0-1.3","SS1617819916752","trial","","40","1000","1589.4400000106543","images/stimuli/spore_stims/simple_09_A_a.gif","images/stimuli/spore_stims/simple_02_A_b.gif","","7","simple_dissimilar","images/stimuli/spore_stims/simple_09_A_a.gif","","","","",""
"","null","html-keyboard-response","97","219274","0.0-22.0-0.4","SS1617819916752","","","null","","","","","<p><img src= images/blank.png width =""600"" height = ""600"" style=""position:fixed;top:50%; left:50%; transform: translate(-50%, -50%); border:5px solid black"">","","","","","","","",""
"","360.67999998340383","sequential-stimulus-presentation","98","220640","0.0-22.0-1.4","SS1617819916752","trial","","40","1000","1360.6799999834038","images/stimuli/spore_stims/simple_09_A_a.gif","images/stimuli/spore_stims/simple_02_A_b.gif","","7","simple_dissimilar","images/stimuli/spore_stims/simple_02_A_b.gif","","","","",""
"","null","html-keyboard-response","99","221703","0.0-22.0-0.5","SS1617819916752","","","null","","","","","<p><img src= images/blank.png width =""600"" height = ""600"" style=""position:fixed;top:50%; left:50%; transform: translate(-50%, -50%); border:5px solid black"">","","","","","","","",""
"","351.4849999919534","sequential-stimulus-presentation","100","223062","0.0-22.0-1.5","SS1617819916752","trial","","40","1000","1351.4849999919534","images/stimuli/spore_stims/simple_09_A_a.gif","images/stimuli/spore_stims/simple_02_A_b.gif","","7","simple_dissimilar","images/stimuli/spore_stims/simple_09_A_a.gif","","","","",""
"","2333.3350000029895","survey-multi-choice","101","225398","0.0-23.0","SS1617819916752","math_question","","","","","","","","","","","{""Q0"":""12""}","[0]","12","",""
"","null","html-keyboard-response","102","226701","0.0-24.0-0.0","SS1617819916752","","","null","","","","","<p><img src= images/blank.png width =""600"" height = ""600"" style=""position:fixed;top:50%; left:50%; transform: translate(-50%, -50%); border:5px solid black"">","","","","","","","",""
"","333.2550000050105","sequential-stimulus-presentation","103","228043","0.0-24.0-1.0","SS1617819916752","trial","","40","1000","1333.2550000050105","images/stimuli/spore_stims/simple_12_A_b.gif","images/stimuli/spore_stims/simple_16_A_a.gif","","8","simple_dissimilar","images/stimuli/spore_stims/simple_16_A_a.gif","","","","",""
"","null","html-keyboard-response","104","229244","0.0-24.0-0.1","SS1617819916752","","","null","","","","","<p><img src= images/blank.png width =""600"" height = ""600"" style=""position:fixed;top:50%; left:50%; transform: translate(-50%, -50%); border:5px solid black"">","","","","","","","",""
"","359.38000000896864","sequential-stimulus-presentation","105","230613","0.0-24.0-1.1","SS1617819916752","trial","","40","1000","1359.3800000089686","images/stimuli/spore_stims/simple_12_A_b.gif","images/stimuli/spore_stims/simple_16_A_a.gif","","8","simple_dissimilar","images/stimuli/spore_stims/simple_16_A_a.gif","","","","",""
"","null","html-keyboard-response","106","231883","0.0-24.0-0.2","SS1617819916752","","","null","","","","","<p><img src= images/blank.png width =""600"" height = ""600"" style=""position:fixed;top:50%; left:50%; transform: translate(-50%, -50%); border:5px solid black"">","","","","","","","",""
"","343.3599999989383","sequential-stimulus-presentation","107","233236","0.0-24.0-1.2","SS1617819916752","trial","","40","1000","1343.3599999989383","images/stimuli/spore_stims/simple_12_A_b.gif","images/stimuli/spore_stims/simple_16_A_a.gif","","8","simple_dissimilar","images/stimuli/spore_stims/simple_16_A_a.gif","","","","",""
"","null","html-keyboard-response","108","234097","0.0-24.0-0.3","SS1617819916752","","","null","","","","","<p><img src= images/blank.png width =""600"" height = ""600"" style=""position:fixed;top:50%; left:50%; transform: translate(-50%, -50%); border:5px solid black"">","","","","","","","",""
"","403.4199999878183","sequential-stimulus-presentation","109","235516","0.0-24.0-1.3","SS1617819916752","trial","","40","1000","1403.4199999878183","images/stimuli/spore_stims/simple_12_A_b.gif","images/stimuli/spore_stims/simple_16_A_a.gif","","8","simple_dissimilar","images/stimuli/spore_stims/simple_12_A_b.gif","","","","",""
"","null","html-keyboard-response","110","236431","0.0-24.0-0.4","SS1617819916752","","","null","","","","","<p><img src= images/blank.png width =""600"" height = ""600"" style=""position:fixed;top:50%; left:50%; transform: translate(-50%, -50%); border:5px solid black"">","","","","","","","",""
"","374.4099999894388","sequential-stimulus-presentation","111","237816","0.0-24.0-1.4","SS1617819916752","trial","","40","1000","1374.4099999894388","images/stimuli/spore_stims/simple_12_A_b.gif","images/stimuli/spore_stims/simple_16_A_a.gif","","8","simple_dissimilar","images/stimuli/spore_stims/simple_12_A_b.gif","","","","",""
"","3149.6599999954924","survey-multi-choice","112","240968","0.0-25.0","SS1617819916752","math_question","","","","","","","","","","","{""Q0"":""14""}","[0]","14","",""
"","null","html-keyboard-response","113","241996","0.0-26.0-0.0","SS1617819916752","","","null","","","","","<p><img src= images/blank.png width =""600"" height = ""600"" style=""position:fixed;top:50%; left:50%; transform: translate(-50%, -50%); border:5px solid black"">","","","","","","","",""
"","355.5650000052992","sequential-stimulus-presentation","114","243357","0.0-26.0-1.0","SS1617819916752","trial","","40","1000","1355.5650000052992","images/stimuli/spore_stims/complex_15_A_a.gif","images/stimuli/spore_stims/complex_03_A_b.gif","","9","complex_dissimilar","images/stimuli/spore_stims/complex_03_A_b.gif","","","","",""
"","null","html-keyboard-response","115","244514","0.0-26.0-0.1","SS1617819916752","","","null","","","","","<p><img src= images/blank.png width =""600"" height = ""600"" style=""position:fixed;top:50%; left:50%; transform: translate(-50%, -50%); border:5px solid black"">","","","","","","","",""
"","342.40500000305474","sequential-stimulus-presentation","116","245861","0.0-26.0-1.1","SS1617819916752","trial","","40","1000","1342.4050000030547","images/stimuli/spore_stims/complex_15_A_a.gif","images/stimuli/spore_stims/complex_03_A_b.gif","","9","complex_dissimilar","images/stimuli/spore_stims/complex_03_A_b.gif","","","","",""
"","null","html-keyboard-response","117","247108","0.0-26.0-0.2","SS1617819916752","","","null","","","","","<p><img src= images/blank.png width =""600"" height = ""600"" style=""position:fixed;top:50%; left:50%; transform: translate(-50%, -50%); border:5px solid black"">","","","","","","","",""
"","322.91000001714565","sequential-stimulus-presentation","118","248450","0.0-26.0-1.2","SS1617819916752","trial","","40","1000","1322.9100000171456","images/stimuli/spore_stims/complex_15_A_a.gif","images/stimuli/spore_stims/complex_03_A_b.gif","","9","complex_dissimilar","images/stimuli/spore_stims/complex_03_A_b.gif","","","","",""
"","null","html-keyboard-response","119","249309","0.0-26.0-0.3","SS1617819916752","","","null","","","","","<p><img src= images/blank.png width =""600"" height = ""600"" style=""position:fixed;top:50%; left:50%; transform: translate(-50%, -50%); border:5px solid black"">","","","","","","","",""
"","333.7699999974575","sequential-stimulus-presentation","120","250651","0.0-26.0-1.3","SS1617819916752","trial","","40","1000","1333.7699999974575","images/stimuli/spore_stims/complex_15_A_a.gif","images/stimuli/spore_stims/complex_03_A_b.gif","","9","complex_dissimilar","images/stimuli/spore_stims/complex_03_A_b.gif","","","","",""
"","null","html-keyboard-response","121","251876","0.0-26.0-0.4","SS1617819916752","","","null","","","","","<p><img src= images/blank.png width =""600"" height = ""600"" style=""position:fixed;top:50%; left:50%; transform: translate(-50%, -50%); border:5px solid black"">","","","","","","","",""
"","358.77500000060536","sequential-stimulus-presentation","122","253242","0.0-26.0-1.4","SS1617819916752","trial","","40","1000","1358.7750000006054","images/stimuli/spore_stims/complex_15_A_a.gif","images/stimuli/spore_stims/complex_03_A_b.gif","","9","complex_dissimilar","images/stimuli/spore_stims/complex_03_A_b.gif","","","","",""
"","2130.6150000018533","survey-multi-choice","123","255378","0.0-27.0","SS1617819916752","math_question","","","","","","","","","","","{""Q0"":""12""}","[0]","12","",""
"","null","html-keyboard-response","124","256475","0.0-28.0-0.0","SS1617819916752","","","null","","","","","<p><img src= images/blank.png width =""600"" height = ""600"" style=""position:fixed;top:50%; left:50%; transform: translate(-50%, -50%); border:5px solid black"">","","","","","","","",""
"","391.22000001952983","sequential-stimulus-presentation","125","257885","0.0-28.0-1.0","SS1617819916752","trial","","40","1000","1391.2200000195298","images/stimuli/spore_stims/complex_05_A_a.gif","images/stimuli/spore_stims/complex_18_A_b.gif","","10","complex_dissimilar","images/stimuli/spore_stims/complex_18_A_b.gif","","","","",""
"","null","html-keyboard-response","126","258933","0.0-28.0-0.1","SS1617819916752","","","null","","","","","<p><img src= images/blank.png width =""600"" height = ""600"" style=""position:fixed;top:50%; left:50%; transform: translate(-50%, -50%); border:5px solid black"">","","","","","","","",""
"","407.85499999765307","sequential-stimulus-presentation","127","260345","0.0-28.0-1.1","SS1617819916752","trial","","40","1000","1407.854999997653","images/stimuli/spore_stims/complex_05_A_a.gif","images/stimuli/spore_stims/complex_18_A_b.gif","","10","complex_dissimilar","images/stimuli/spore_stims/complex_18_A_b.gif","","","","",""
"","null","html-keyboard-response","128","261642","0.0-28.0-0.2","SS1617819916752","","","null","","","","","<p><img src= images/blank.png width =""600"" height = ""600"" style=""position:fixed;top:50%; left:50%; transform: translate(-50%, -50%); border:5px solid black"">","","","","","","","",""
"","443.4999999939464","sequential-stimulus-presentation","129","263105","0.0-28.0-1.2","SS1617819916752","trial","","40","1000","1443.4999999939464","images/stimuli/spore_stims/complex_05_A_a.gif","images/stimuli/spore_stims/complex_18_A_b.gif","","10","complex_dissimilar","images/stimuli/spore_stims/complex_18_A_b.gif","","","","",""
"","null","html-keyboard-response","130","264346","0.0-28.0-0.3","SS1617819916752","","","null","","","","","<p><img src= images/blank.png width =""600"" height = ""600"" style=""position:fixed;top:50%; left:50%; transform: translate(-50%, -50%); border:5px solid black"">","","","","","","","",""
"","336.5150000026915","sequential-stimulus-presentation","131","265700","0.0-28.0-1.3","SS1617819916752","trial","","40","1000","1336.5150000026915","images/stimuli/spore_stims/complex_05_A_a.gif","images/stimuli/spore_stims/complex_18_A_b.gif","","10","complex_dissimilar","images/stimuli/spore_stims/complex_18_A_b.gif","","","","",""
"","null","html-keyboard-response","132","266883","0.0-28.0-0.4","SS1617819916752","","","null","","","","","<p><img src= images/blank.png width =""600"" height = ""600"" style=""position:fixed;top:50%; left:50%; transform: translate(-50%, -50%); border:5px solid black"">","","","","","","","",""
"","322.80000002356246","sequential-stimulus-presentation","133","268211","0.0-28.0-1.4","SS1617819916752","trial","","40","1000","1322.8000000235625","images/stimuli/spore_stims/complex_05_A_a.gif","images/stimuli/spore_stims/complex_18_A_b.gif","","10","complex_dissimilar","images/stimuli/spore_stims/complex_18_A_b.gif","","","","",""
"","null","html-keyboard-response","134","269236","0.0-28.0-0.5","SS1617819916752","","","null","","","","","<p><img src= images/blank.png width =""600"" height = ""600"" style=""position:fixed;top:50%; left:50%; transform: translate(-50%, -50%); border:5px solid black"">","","","","","","","",""
"","359.9650000105612","sequential-stimulus-presentation","135","270620","0.0-28.0-1.5","SS1617819916752","trial","","40","1000","1359.9650000105612","images/stimuli/spore_stims/complex_05_A_a.gif","images/stimuli/spore_stims/complex_18_A_b.gif","","10","complex_dissimilar","images/stimuli/spore_stims/complex_18_A_b.gif","","","","",""
"","2588.4599999990314","survey-multi-choice","136","273214","0.0-29.0","SS1617819916752","math_question","","","","","","","","","","","{""Q0"":""10""}","[0]","10","",""
"","null","html-keyboard-response","137","274226","0.0-30.0-0.0","SS1617819916752","","","null","","","","","<p><img src= images/blank.png width =""600"" height = ""600"" style=""position:fixed;top:50%; left:50%; transform: translate(-50%, -50%); border:5px solid black"">","","","","","","","",""
"","351.18499997770414","sequential-stimulus-presentation","138","275584","0.0-30.0-1.0","SS1617819916752","trial","","40","1000","1351.1849999777041","images/stimuli/spore_stims/simple_06_A_b.gif","images/stimuli/spore_stims/simple_01_A_a.gif","","11","simple_dissimilar","images/stimuli/spore_stims/simple_01_A_a.gif","","","","",""
"","null","html-keyboard-response","139","276495","0.0-30.0-0.1","SS1617819916752","","","null","","","","","<p><img src= images/blank.png width =""600"" height = ""600"" style=""position:fixed;top:50%; left:50%; transform: translate(-50%, -50%); border:5px solid black"">","","","","","","","",""
"","293.0750000232365","sequential-stimulus-presentation","140","277795","0.0-30.0-1.1","SS1617819916752","trial","","40","1000","1293.0750000232365","images/stimuli/spore_stims/simple_06_A_b.gif","images/stimuli/spore_stims/simple_01_A_a.gif","","11","simple_dissimilar","images/stimuli/spore_stims/simple_06_A_b.gif","","","","",""
"","null","html-keyboard-response","141","278811","0.0-30.0-0.2","SS1617819916752","","","null","","","","","<p><img src= images/blank.png width =""600"" height = ""600"" style=""position:fixed;top:50%; left:50%; transform: translate(-50%, -50%); border:5px solid black"">","","","","","","","",""
"","345.94999998807907","sequential-stimulus-presentation","142","280177","0.0-30.0-1.2","SS1617819916752","trial","","40","1000","1345.949999988079","images/stimuli/spore_stims/simple_06_A_b.gif","images/stimuli/spore_stims/simple_01_A_a.gif","","11","simple_dissimilar","images/stimuli/spore_stims/simple_06_A_b.gif","","","","",""
"","null","html-keyboard-response","143","281098","0.0-30.0-0.3","SS1617819916752","","","null","","","","","<p><img src= images/blank.png width =""600"" height = ""600"" style=""position:fixed;top:50%; left:50%; transform: translate(-50%, -50%); border:5px solid black"">","","","","","","","",""
"","309.8549999995157","sequential-stimulus-presentation","144","282419","0.0-30.0-1.3","SS1617819916752","trial","","40","1000","1309.8549999995157","images/stimuli/spore_stims/simple_06_A_b.gif","images/stimuli/spore_stims/simple_01_A_a.gif","","11","simple_dissimilar","images/stimuli/spore_stims/simple_01_A_a.gif","","","","",""
"[{""page_index"":0,""viewing_time"":7342.849999986356}]","7343.070000002626","instructions","145","289764","0.0-31.0","SS1617819916752","instructions","","","","","","","","","","","","","","",""
"","10498.87999999919","survey-likert","146","300267","0.0-32.0","SS1617819916752","similarity_question","","","","","","","","","","","{""Q0"":3}","[0]","","images/stimuli/spore_stims/complex_17_A_b.gif","images/stimuli/spore_stims/complex_06_A_a.gif"
"","4190.904999995837","survey-likert","147","304467","0.0-33.0","SS1617819916752","similarity_question","","","","","","","","","","","{""Q0"":2}","[0]","","images/stimuli/spore_stims/simple_12_A_b.gif","images/stimuli/spore_stims/simple_16_A_a.gif"
"","4433.584999991581","survey-likert","148","308907","0.0-34.0","SS1617819916752","similarity_question","","","","","","","","","","","{""Q0"":3}","[0]","","images/stimuli/spore_stims/complex_18_A_a.gif","images/stimuli/spore_stims/complex_15_A_b.gif"
"","5358.854999998584","survey-likert","149","314279","0.0-35.0","SS1617819916752","similarity_question","","","","","","","","","","","{""Q0"":3}","[0]","","images/stimuli/spore_stims/complex_05_A_a.gif","images/stimuli/spore_stims/complex_18_A_b.gif"
"","7094.9949999921955","survey-likert","150","321381","0.0-36.0","SS1617819916752","similarity_question","","","","","","","","","","","{""Q0"":6}","[0]","","images/stimuli/spore_stims/simple_01_A_a.gif","images/stimuli/spore_stims/simple_06_A_b.gif"
"","4311.365000001388","survey-likert","151","325699","0.0-37.0","SS1617819916752","similarity_question","","","","","","","","","","","{""Q0"":2}","[0]","","images/stimuli/spore_stims/complex_10_A_a.gif","images/stimuli/spore_stims/complex_11_A_b.gif"
"","2683.874999987893","survey-likert","152","328391","0.0-38.0","SS1617819916752","similarity_question","","","","","","","","","","","{""Q0"":0}","[0]","","images/stimuli/spore_stims/simple_15_A_b.gif","images/stimuli/spore_stims/simple_18_A_a.gif"
"","2938.075000012759","survey-likert","153","331341","0.0-39.0","SS1617819916752","similarity_question","","","","","","","","","","","{""Q0"":0}","[0]","","images/stimuli/spore_stims/simple_17_A_b.gif","images/stimuli/spore_stims/simple_13_A_a.gif"
"","3806.6450000042096","survey-likert","154","335159","0.0-40.0","SS1617819916752","similarity_question","","","","","","","","","","","{""Q0"":1}","[0]","","images/stimuli/spore_stims/simple_05_A_a.gif","images/stimuli/spore_stims/simple_11_A_b.gif"
"","3265.320000005886","survey-likert","155","338435","0.0-41.0","SS1617819916752","similarity_question","","","","","","","","","","","{""Q0"":1}","[0]","","images/stimuli/spore_stims/simple_02_A_b.gif","images/stimuli/spore_stims/simple_09_A_a.gif"
"","3547.359999996843","survey-likert","156","341989","0.0-42.0","SS1617819916752","similarity_question","","","","","","","","","","","{""Q0"":1}","[0]","","images/stimuli/spore_stims/complex_03_A_b.gif","images/stimuli/spore_stims/complex_15_A_a.gif"
"","3628.4100000048056","survey-likert","157","345631","0.0-43.0","SS1617819916752","similarity_question","","","","","","","","","","","{""Q0"":1}","[0]","","images/stimuli/spore_stims/complex_13_A_a.gif","images/stimuli/spore_stims/complex_05_A_b.gif"
"[{""page_index"":0,""viewing_time"":6575.400000001537}]","6576.035000005504","instructions","158","352214","0.0-44.0","SS1617819916752","instructions","","","","","","","","","","","","","","",""
"","3236.239999998361","survey-likert","159","355455","0.0-45.0","SS1617819916752","","","","","","","","images/stimuli/spore_stims/simple_06_A_b.gif","","","","{""Q0"":0}","[0]","","",""
"","4682.159999996657","survey-likert","160","360149","0.0-46.0","SS1617819916752","","","","","","","","images/stimuli/spore_stims/complex_11_A_b.gif","","","","{""Q0"":5}","[0]","","",""
"","3018.769999995129","survey-likert","161","363175","0.0-47.0","SS1617819916752","","","","","","","","images/stimuli/spore_stims/simple_11_A_b.gif","","","","{""Q0"":0}","[0]","","",""
"","2954.47499997681","survey-likert","162","366141","0.0-48.0","SS1617819916752","","","","","","","","images/stimuli/spore_stims/complex_17_A_b.gif","","","","{""Q0"":5}","[0]","","",""
"","2683.53500001831","survey-likert","163","368837","0.0-49.0","SS1617819916752","","","","","","","","images/stimuli/spore_stims/complex_18_A_a.gif","","","","{""Q0"":6}","[0]","","",""
"","2316.034999996191","survey-likert","164","371165","0.0-50.0","SS1617819916752","","","","","","","","images/stimuli/spore_stims/complex_05_A_a.gif","","","","{""Q0"":4}","[0]","","",""
"","2331.3449999841396","survey-likert","165","373505","0.0-51.0","SS1617819916752","","","","","","","","images/stimuli/spore_stims/simple_12_A_b.gif","","","","{""Q0"":0}","[0]","","",""
"","1982.2750000166707","survey-likert","166","375500","0.0-52.0","SS1617819916752","","","","","","","","images/stimuli/spore_stims/simple_15_A_b.gif","","","","{""Q0"":0}","[0]","","",""
"","1503.869999985909","survey-likert","167","377013","0.0-53.0","SS1617819916752","","","","","","","","images/stimuli/spore_stims/simple_13_A_a.gif","","","","{""Q0"":0}","[0]","","",""
"","2546.1749999958556","survey-likert","168","379567","0.0-54.0","SS1617819916752","","","","","","","","images/stimuli/spore_stims/complex_15_A_a.gif","","","","{""Q0"":6}","[0]","","",""
"","1879.9399999843445","survey-likert","169","381455","0.0-55.0","SS1617819916752","","","","","","","","images/stimuli/spore_stims/simple_02_A_b.gif","","","","{""Q0"":0}","[0]","","",""
"","4617.514999990817","survey-likert","170","386084","0.0-56.0","SS1617819916752","","","","","","","","images/stimuli/spore_stims/complex_05_A_b.gif","","","","{""Q0"":4}","[0]","","",""
"[{""page_index"":0,""viewing_time"":3378.1350000062957}]","3378.7650000012945","instructions","171","389469","0.0-57.0","SS1617819916752","instructions","","","","","","","","","","","","","","",""
"","2475.410000013653","demog-age","172","391951","0.0-58.0","SS1617819916752","","","","","","","","","","","","{""age"":""20""}","","","",""
"","8393.179999984568","demog-ethnic-US","173","400351","0.0-59.0","SS1617819916752","","","","","","","","","","","","{""ethnicity"":[""Other""]}","[0]","","",""
"","6308.789999980945","demog-gender-and-education","174","406668","0.0-60.0","SS1617819916752","","","","","","","","","","","","{""gender"":""Male"",""education"":""High school diploma""}","[0,1]","","",""
"","13113.825000007637","survey-text","175","419791","0.0-61.0","SS1617819916752","feedback","","","","","","","","","","","{""Q0"":""no""}","","","",""
"[{""page_index"":0,""viewing_time"":2175.5899999989197}]","2175.7849999994505","instructions","176","421970","0.0-62.0","SS1617819916752","instructions","","","","","","","","","","","","","","",""
