"view_history","rt","trial_type","trial_index","time_elapsed","internal_node_id","subject","stimulus_type","trial_stimulus","key_press","minimum_viewing_duration","trial_looking_time","block_deviant","block_background","stimulus","block_number","block_type","stimulus_displayed","responses","question_order","math_correct_answer","stimulus_left","stimulus_right"
"[{""page_index"":0,""viewing_time"":42024.24500000052}]","42025.064999997994","instructions","0","42027","0.0-0.0","SS1617819306516","","","","","","","","","","","","","","","",""
"[{""page_index"":0,""viewing_time"":143437.91500000225},{""page_index"":1,""viewing_time"":16454.99999999811}]","159893.16500000132","instructions","1","203924","0.0-1.0","SS1617819306516","instructions","","","","","","","","","","","","","","",""
"","8087.429999999586","sequential-stimulus-presentation-old","2","212615","0.0-2.0","SS1617819306516","","","40","600","8687.429999999586","null","null","","","","","","","","",""
"","4936.954999997397","sequential-stimulus-presentation-old","3","218054","0.0-3.0","SS1617819306516","","","40","500","5436.954999997397","null","null","","","","","","","","",""
"[{""page_index"":0,""viewing_time"":15480.390000000625}]","15480.64499999964","instructions","4","233536","0.0-4.0","SS1617819306516","instructions","","","","","","","","","","","","","","",""
"","3377.9600000016217","sequential-stimulus-presentation","5","237918","0.0-5.0","SS1617819306516","","","40","1000","4377.960000001622","null","null","","","","","","","","",""
"[{""page_index"":0,""viewing_time"":7611.8400000013935}]","7612.075000000914","instructions","6","245530","0.0-6.0","SS1617819306516","instructions","","","","","","","","","","","","","","",""
"[{""page_index"":0,""viewing_time"":8533.755000000383},{""page_index"":1,""viewing_time"":13501.04999999897},{""page_index"":2,""viewing_time"":15960.129999999423},{""page_index"":3,""viewing_time"":2666.755000002042},{""page_index"":4,""viewing_time"":1164.0000000006403}]","41825.93999999878","instructions","7","287357","0.0-7.0","SS1617819306516","instructions","","","","","","","","","","","","","","",""
"","null","html-keyboard-response","8","288659","0.0-8.0-0.0","SS1617819306516","","","null","","","","","<p><img src= images/blank.png width =""600"" height = ""600"" style=""position:fixed;top:50%; left:50%; transform: translate(-50%, -50%); border:5px solid black"">","","","","","","","",""
"","2951.100000002014","sequential-stimulus-presentation","9","292613","0.0-8.0-1.0","SS1617819306516","trial","","40","1000","3951.100000002014","images/stimuli/spore_stims/complex_15_A_b.gif","images/stimuli/spore_stims/complex_17_A_a.gif","","0","complex_dissimilar","images/stimuli/spore_stims/complex_17_A_a.gif","","","","",""
"","null","html-keyboard-response","10","293788","0.0-8.0-0.1","SS1617819306516","","","null","","","","","<p><img src= images/blank.png width =""600"" height = ""600"" style=""position:fixed;top:50%; left:50%; transform: translate(-50%, -50%); border:5px solid black"">","","","","","","","",""
"","783.9549999989686","sequential-stimulus-presentation","11","295582","0.0-8.0-1.1","SS1617819306516","trial","","40","1000","1783.9549999989686","images/stimuli/spore_stims/complex_15_A_b.gif","images/stimuli/spore_stims/complex_17_A_a.gif","","0","complex_dissimilar","images/stimuli/spore_stims/complex_17_A_a.gif","","","","",""
"","null","html-keyboard-response","12","296474","0.0-8.0-0.2","SS1617819306516","","","null","","","","","<p><img src= images/blank.png width =""600"" height = ""600"" style=""position:fixed;top:50%; left:50%; transform: translate(-50%, -50%); border:5px solid black"">","","","","","","","",""
"","1136.1649999998626","sequential-stimulus-presentation","13","298613","0.0-8.0-1.2","SS1617819306516","trial","","40","1000","2136.1649999998626","images/stimuli/spore_stims/complex_15_A_b.gif","images/stimuli/spore_stims/complex_17_A_a.gif","","0","complex_dissimilar","images/stimuli/spore_stims/complex_15_A_b.gif","","","","",""
"","null","html-keyboard-response","14","299732","0.0-8.0-0.3","SS1617819306516","","","null","","","","","<p><img src= images/blank.png width =""600"" height = ""600"" style=""position:fixed;top:50%; left:50%; transform: translate(-50%, -50%); border:5px solid black"">","","","","","","","",""
"","816.3600000006845","sequential-stimulus-presentation","15","301557","0.0-8.0-1.3","SS1617819306516","trial","","40","1000","1816.3600000006845","images/stimuli/spore_stims/complex_15_A_b.gif","images/stimuli/spore_stims/complex_17_A_a.gif","","0","complex_dissimilar","images/stimuli/spore_stims/complex_17_A_a.gif","","","","",""
"","4033.180000002205","survey-multi-choice","16","305594","0.0-9.0","SS1617819306516","math_question","","","","","","","","","","","{""Q0"":""9""}","[0]","9","",""
"","null","html-keyboard-response","17","306477","0.0-10.0-0.0","SS1617819306516","","","null","","","","","<p><img src= images/blank.png width =""600"" height = ""600"" style=""position:fixed;top:50%; left:50%; transform: translate(-50%, -50%); border:5px solid black"">","","","","","","","",""
"","2717.5050000005285","sequential-stimulus-presentation","18","310198","0.0-10.0-1.0","SS1617819306516","trial","","40","1000","3717.5050000005285","images/stimuli/spore_stims/simple_20_A_b.gif","images/stimuli/spore_stims/simple_19_A_a.gif","","1","simple_dissimilar","images/stimuli/spore_stims/simple_19_A_a.gif","","","","",""
"","null","html-keyboard-response","19","311483","0.0-10.0-0.1","SS1617819306516","","","null","","","","","<p><img src= images/blank.png width =""600"" height = ""600"" style=""position:fixed;top:50%; left:50%; transform: translate(-50%, -50%); border:5px solid black"">","","","","","","","",""
"","675.1399999993155","sequential-stimulus-presentation","20","313166","0.0-10.0-1.1","SS1617819306516","trial","","40","1000","1675.1399999993155","images/stimuli/spore_stims/simple_20_A_b.gif","images/stimuli/spore_stims/simple_19_A_a.gif","","1","simple_dissimilar","images/stimuli/spore_stims/simple_19_A_a.gif","","","","",""
"","null","html-keyboard-response","21","314009","0.0-10.0-0.2","SS1617819306516","","","null","","","","","<p><img src= images/blank.png width =""600"" height = ""600"" style=""position:fixed;top:50%; left:50%; transform: translate(-50%, -50%); border:5px solid black"">","","","","","","","",""
"","352.98499999777414","sequential-stimulus-presentation","22","315366","0.0-10.0-1.2","SS1617819306516","trial","","40","1000","1352.9849999977741","images/stimuli/spore_stims/simple_20_A_b.gif","images/stimuli/spore_stims/simple_19_A_a.gif","","1","simple_dissimilar","images/stimuli/spore_stims/simple_19_A_a.gif","","","","",""
"","null","html-keyboard-response","23","316392","0.0-10.0-0.3","SS1617819306516","","","null","","","","","<p><img src= images/blank.png width =""600"" height = ""600"" style=""position:fixed;top:50%; left:50%; transform: translate(-50%, -50%); border:5px solid black"">","","","","","","","",""
"","586.0150000007125","sequential-stimulus-presentation","24","317982","0.0-10.0-1.3","SS1617819306516","trial","","40","1000","1586.0150000007125","images/stimuli/spore_stims/simple_20_A_b.gif","images/stimuli/spore_stims/simple_19_A_a.gif","","1","simple_dissimilar","images/stimuli/spore_stims/simple_20_A_b.gif","","","","",""
"","null","html-keyboard-response","25","318994","0.0-10.0-0.4","SS1617819306516","","","null","","","","","<p><img src= images/blank.png width =""600"" height = ""600"" style=""position:fixed;top:50%; left:50%; transform: translate(-50%, -50%); border:5px solid black"">","","","","","","","",""
"","386.11999999923864","sequential-stimulus-presentation","26","320390","0.0-10.0-1.4","SS1617819306516","trial","","40","1000","1386.1199999992386","images/stimuli/spore_stims/simple_20_A_b.gif","images/stimuli/spore_stims/simple_19_A_a.gif","","1","simple_dissimilar","images/stimuli/spore_stims/simple_20_A_b.gif","","","","",""
"","3635.6049999995157","survey-multi-choice","27","324027","0.0-11.0","SS1617819306516","math_question","","","","","","","","","","","{""Q0"":""11""}","[0]","11","",""
"","null","html-keyboard-response","28","324846","0.0-12.0-0.0","SS1617819306516","","","null","","","","","<p><img src= images/blank.png width =""600"" height = ""600"" style=""position:fixed;top:50%; left:50%; transform: translate(-50%, -50%); border:5px solid black"">","","","","","","","",""
"","356.4599999990314","sequential-stimulus-presentation","29","326206","0.0-12.0-1.0","SS1617819306516","trial","","40","1000","1356.4599999990314","images/stimuli/spore_stims/simple_15_A_b.gif","images/stimuli/spore_stims/simple_20_A_a.gif","","2","simple_dissimilar","images/stimuli/spore_stims/simple_20_A_a.gif","","","","",""
"","null","html-keyboard-response","30","327322","0.0-12.0-0.1","SS1617819306516","","","null","","","","","<p><img src= images/blank.png width =""600"" height = ""600"" style=""position:fixed;top:50%; left:50%; transform: translate(-50%, -50%); border:5px solid black"">","","","","","","","",""
"","503.75999999960186","sequential-stimulus-presentation","31","328830","0.0-12.0-1.1","SS1617819306516","trial","","40","1000","1503.7599999996019","images/stimuli/spore_stims/simple_15_A_b.gif","images/stimuli/spore_stims/simple_20_A_a.gif","","2","simple_dissimilar","images/stimuli/spore_stims/simple_20_A_a.gif","","","","",""
"","null","html-keyboard-response","32","329675","0.0-12.0-0.2","SS1617819306516","","","null","","","","","<p><img src= images/blank.png width =""600"" height = ""600"" style=""position:fixed;top:50%; left:50%; transform: translate(-50%, -50%); border:5px solid black"">","","","","","","","",""
"","327.78999999933876","sequential-stimulus-presentation","33","331006","0.0-12.0-1.2","SS1617819306516","trial","","40","1000","1327.7899999993388","images/stimuli/spore_stims/simple_15_A_b.gif","images/stimuli/spore_stims/simple_20_A_a.gif","","2","simple_dissimilar","images/stimuli/spore_stims/simple_15_A_b.gif","","","","",""
"","null","html-keyboard-response","34","332284","0.0-12.0-0.3","SS1617819306516","","","null","","","","","<p><img src= images/blank.png width =""600"" height = ""600"" style=""position:fixed;top:50%; left:50%; transform: translate(-50%, -50%); border:5px solid black"">","","","","","","","",""
"","261.6999999991385","sequential-stimulus-presentation","35","333550","0.0-12.0-1.3","SS1617819306516","trial","","40","1000","1261.6999999991385","images/stimuli/spore_stims/simple_15_A_b.gif","images/stimuli/spore_stims/simple_20_A_a.gif","","2","simple_dissimilar","images/stimuli/spore_stims/simple_15_A_b.gif","","","","",""
"","2539.6099999998114","survey-multi-choice","36","336091","0.0-13.0","SS1617819306516","math_question","","","","","","","","","","","{""Q0"":""7""}","[0]","7","",""
"","null","html-keyboard-response","37","337019","0.0-14.0-0.0","SS1617819306516","","","null","","","","","<p><img src= images/blank.png width =""600"" height = ""600"" style=""position:fixed;top:50%; left:50%; transform: translate(-50%, -50%); border:5px solid black"">","","","","","","","",""
"","398.75000000029104","sequential-stimulus-presentation","38","338422","0.0-14.0-1.0","SS1617819306516","trial","","40","1000","1398.750000000291","images/stimuli/spore_stims/simple_07_A_a.gif","images/stimuli/spore_stims/simple_17_A_b.gif","","3","simple_dissimilar","images/stimuli/spore_stims/simple_17_A_b.gif","","","","",""
"","null","html-keyboard-response","39","339504","0.0-14.0-0.1","SS1617819306516","","","null","","","","","<p><img src= images/blank.png width =""600"" height = ""600"" style=""position:fixed;top:50%; left:50%; transform: translate(-50%, -50%); border:5px solid black"">","","","","","","","",""
"","386.46499999955995","sequential-stimulus-presentation","40","340894","0.0-14.0-1.1","SS1617819306516","trial","","40","1000","1386.46499999956","images/stimuli/spore_stims/simple_07_A_a.gif","images/stimuli/spore_stims/simple_17_A_b.gif","","3","simple_dissimilar","images/stimuli/spore_stims/simple_17_A_b.gif","","","","",""
"","null","html-keyboard-response","41","341983","0.0-14.0-0.2","SS1617819306516","","","null","","","","","<p><img src= images/blank.png width =""600"" height = ""600"" style=""position:fixed;top:50%; left:50%; transform: translate(-50%, -50%); border:5px solid black"">","","","","","","","",""
"","319.86999999929685","sequential-stimulus-presentation","42","343310","0.0-14.0-1.2","SS1617819306516","trial","","40","1000","1319.8699999992969","images/stimuli/spore_stims/simple_07_A_a.gif","images/stimuli/spore_stims/simple_17_A_b.gif","","3","simple_dissimilar","images/stimuli/spore_stims/simple_17_A_b.gif","","","","",""
"","null","html-keyboard-response","43","344457","0.0-14.0-0.3","SS1617819306516","","","null","","","","","<p><img src= images/blank.png width =""600"" height = ""600"" style=""position:fixed;top:50%; left:50%; transform: translate(-50%, -50%); border:5px solid black"">","","","","","","","",""
"","432.94500000047265","sequential-stimulus-presentation","44","345894","0.0-14.0-1.3","SS1617819306516","trial","","40","1000","1432.9450000004726","images/stimuli/spore_stims/simple_07_A_a.gif","images/stimuli/spore_stims/simple_17_A_b.gif","","3","simple_dissimilar","images/stimuli/spore_stims/simple_17_A_b.gif","","","","",""
"","null","html-keyboard-response","45","346751","0.0-14.0-0.4","SS1617819306516","","","null","","","","","<p><img src= images/blank.png width =""600"" height = ""600"" style=""position:fixed;top:50%; left:50%; transform: translate(-50%, -50%); border:5px solid black"">","","","","","","","",""
"","495.0699999972712","sequential-stimulus-presentation","46","348254","0.0-14.0-1.4","SS1617819306516","trial","","40","1000","1495.0699999972712","images/stimuli/spore_stims/simple_07_A_a.gif","images/stimuli/spore_stims/simple_17_A_b.gif","","3","simple_dissimilar","images/stimuli/spore_stims/simple_07_A_a.gif","","","","",""
"","null","html-keyboard-response","47","349523","0.0-14.0-0.5","SS1617819306516","","","null","","","","","<p><img src= images/blank.png width =""600"" height = ""600"" style=""position:fixed;top:50%; left:50%; transform: translate(-50%, -50%); border:5px solid black"">","","","","","","","",""
"","494.56999999890104","sequential-stimulus-presentation","48","351022","0.0-14.0-1.5","SS1617819306516","trial","","40","1000","1494.569999998901","images/stimuli/spore_stims/simple_07_A_a.gif","images/stimuli/spore_stims/simple_17_A_b.gif","","3","simple_dissimilar","images/stimuli/spore_stims/simple_17_A_b.gif","","","","",""
"","4198.4100000008475","survey-multi-choice","49","355222","0.0-15.0","SS1617819306516","math_question","","","","","","","","","","","{""Q0"":""13""}","[0]","13","",""
"","null","html-keyboard-response","50","356472","0.0-16.0-0.0","SS1617819306516","","","null","","","","","<p><img src= images/blank.png width =""600"" height = ""600"" style=""position:fixed;top:50%; left:50%; transform: translate(-50%, -50%); border:5px solid black"">","","","","","","","",""
"","2622.670000000624","sequential-stimulus-presentation","51","360102","0.0-16.0-1.0","SS1617819306516","trial","","40","1000","3622.670000000624","images/stimuli/spore_stims/complex_12_A_b.gif","images/stimuli/spore_stims/complex_05_A_a.gif","","4","complex_dissimilar","images/stimuli/spore_stims/complex_05_A_a.gif","","","","",""
"","null","html-keyboard-response","52","361017","0.0-16.0-0.1","SS1617819306516","","","null","","","","","<p><img src= images/blank.png width =""600"" height = ""600"" style=""position:fixed;top:50%; left:50%; transform: translate(-50%, -50%); border:5px solid black"">","","","","","","","",""
"","968.769999999553","sequential-stimulus-presentation","53","362990","0.0-16.0-1.1","SS1617819306516","trial","","40","1000","1968.769999999553","images/stimuli/spore_stims/complex_12_A_b.gif","images/stimuli/spore_stims/complex_05_A_a.gif","","4","complex_dissimilar","images/stimuli/spore_stims/complex_05_A_a.gif","","","","",""
"","null","html-keyboard-response","54","364057","0.0-16.0-0.2","SS1617819306516","","","null","","","","","<p><img src= images/blank.png width =""600"" height = ""600"" style=""position:fixed;top:50%; left:50%; transform: translate(-50%, -50%); border:5px solid black"">","","","","","","","",""
"","353.93000000109896","sequential-stimulus-presentation","55","365422","0.0-16.0-1.2","SS1617819306516","trial","","40","1000","1353.930000001099","images/stimuli/spore_stims/complex_12_A_b.gif","images/stimuli/spore_stims/complex_05_A_a.gif","","4","complex_dissimilar","images/stimuli/spore_stims/complex_05_A_a.gif","","","","",""
"","null","html-keyboard-response","56","366367","0.0-16.0-0.3","SS1617819306516","","","null","","","","","<p><img src= images/blank.png width =""600"" height = ""600"" style=""position:fixed;top:50%; left:50%; transform: translate(-50%, -50%); border:5px solid black"">","","","","","","","",""
"","675.4550000005402","sequential-stimulus-presentation","57","368046","0.0-16.0-1.3","SS1617819306516","trial","","40","1000","1675.4550000005402","images/stimuli/spore_stims/complex_12_A_b.gif","images/stimuli/spore_stims/complex_05_A_a.gif","","4","complex_dissimilar","images/stimuli/spore_stims/complex_05_A_a.gif","","","","",""
"","null","html-keyboard-response","58","369246","0.0-16.0-0.4","SS1617819306516","","","null","","","","","<p><img src= images/blank.png width =""600"" height = ""600"" style=""position:fixed;top:50%; left:50%; transform: translate(-50%, -50%); border:5px solid black"">","","","","","","","",""
"","438.6950000007637","sequential-stimulus-presentation","59","370694","0.0-16.0-1.4","SS1617819306516","trial","","40","1000","1438.6950000007637","images/stimuli/spore_stims/complex_12_A_b.gif","images/stimuli/spore_stims/complex_05_A_a.gif","","4","complex_dissimilar","images/stimuli/spore_stims/complex_05_A_a.gif","","","","",""
"","3073.2950000019628","survey-multi-choice","60","373769","0.0-17.0","SS1617819306516","math_question","","","","","","","","","","","{""Q0"":""12""}","[0]","12","",""
"","null","html-keyboard-response","61","375043","0.0-18.0-0.0","SS1617819306516","","","null","","","","","<p><img src= images/blank.png width =""600"" height = ""600"" style=""position:fixed;top:50%; left:50%; transform: translate(-50%, -50%); border:5px solid black"">","","","","","","","",""
"","1455.6850000008708","sequential-stimulus-presentation","62","377502","0.0-18.0-1.0","SS1617819306516","trial","","40","1000","2455.685000000871","images/stimuli/spore_stims/complex_11_A_b.gif","images/stimuli/spore_stims/complex_07_A_a.gif","","5","complex_dissimilar","images/stimuli/spore_stims/complex_07_A_a.gif","","","","",""
"","null","html-keyboard-response","63","378389","0.0-18.0-0.1","SS1617819306516","","","null","","","","","<p><img src= images/blank.png width =""600"" height = ""600"" style=""position:fixed;top:50%; left:50%; transform: translate(-50%, -50%); border:5px solid black"">","","","","","","","",""
"","451.9749999999767","sequential-stimulus-presentation","64","379846","0.0-18.0-1.1","SS1617819306516","trial","","40","1000","1451.9749999999767","images/stimuli/spore_stims/complex_11_A_b.gif","images/stimuli/spore_stims/complex_07_A_a.gif","","5","complex_dissimilar","images/stimuli/spore_stims/complex_07_A_a.gif","","","","",""
"","null","html-keyboard-response","65","380964","0.0-18.0-0.2","SS1617819306516","","","null","","","","","<p><img src= images/blank.png width =""600"" height = ""600"" style=""position:fixed;top:50%; left:50%; transform: translate(-50%, -50%); border:5px solid black"">","","","","","","","",""
"","401.669999999227","sequential-stimulus-presentation","66","382374","0.0-18.0-1.2","SS1617819306516","trial","","40","1000","1401.669999999227","images/stimuli/spore_stims/complex_11_A_b.gif","images/stimuli/spore_stims/complex_07_A_a.gif","","5","complex_dissimilar","images/stimuli/spore_stims/complex_07_A_a.gif","","","","",""
"","null","html-keyboard-response","67","383307","0.0-18.0-0.3","SS1617819306516","","","null","","","","","<p><img src= images/blank.png width =""600"" height = ""600"" style=""position:fixed;top:50%; left:50%; transform: translate(-50%, -50%); border:5px solid black"">","","","","","","","",""
"","494.07499999867287","sequential-stimulus-presentation","68","384806","0.0-18.0-1.3","SS1617819306516","trial","","40","1000","1494.0749999986729","images/stimuli/spore_stims/complex_11_A_b.gif","images/stimuli/spore_stims/complex_07_A_a.gif","","5","complex_dissimilar","images/stimuli/spore_stims/complex_07_A_a.gif","","","","",""
"","null","html-keyboard-response","69","385649","0.0-18.0-0.4","SS1617819306516","","","null","","","","","<p><img src= images/blank.png width =""600"" height = ""600"" style=""position:fixed;top:50%; left:50%; transform: translate(-50%, -50%); border:5px solid black"">","","","","","","","",""
"","1983.8000000017928","sequential-stimulus-presentation","70","388638","0.0-18.0-1.4","SS1617819306516","trial","","40","1000","2983.800000001793","images/stimuli/spore_stims/complex_11_A_b.gif","images/stimuli/spore_stims/complex_07_A_a.gif","","5","complex_dissimilar","images/stimuli/spore_stims/complex_11_A_b.gif","","","","",""
"","2796.105000001262","survey-multi-choice","71","391436","0.0-19.0","SS1617819306516","math_question","","","","","","","","","","","{""Q0"":""8""}","[0]","8","",""
"","null","html-keyboard-response","72","392287","0.0-20.0-0.0","SS1617819306516","","","null","","","","","<p><img src= images/blank.png width =""600"" height = ""600"" style=""position:fixed;top:50%; left:50%; transform: translate(-50%, -50%); border:5px solid black"">","","","","","","","",""
"","1193.9500000007683","sequential-stimulus-presentation","73","394485","0.0-20.0-1.0","SS1617819306516","trial","","40","1000","2193.9500000007683","images/stimuli/spore_stims/complex_16_A_b.gif","images/stimuli/spore_stims/complex_12_A_a.gif","","6","complex_dissimilar","images/stimuli/spore_stims/complex_12_A_a.gif","","","","",""
"","null","html-keyboard-response","74","395333","0.0-20.0-0.1","SS1617819306516","","","null","","","","","<p><img src= images/blank.png width =""600"" height = ""600"" style=""position:fixed;top:50%; left:50%; transform: translate(-50%, -50%); border:5px solid black"">","","","","","","","",""
"","835.9450000025681","sequential-stimulus-presentation","75","397174","0.0-20.0-1.1","SS1617819306516","trial","","40","1000","1835.9450000025681","images/stimuli/spore_stims/complex_16_A_b.gif","images/stimuli/spore_stims/complex_12_A_a.gif","","6","complex_dissimilar","images/stimuli/spore_stims/complex_12_A_a.gif","","","","",""
"","null","html-keyboard-response","76","398479","0.0-20.0-0.2","SS1617819306516","","","null","","","","","<p><img src= images/blank.png width =""600"" height = ""600"" style=""position:fixed;top:50%; left:50%; transform: translate(-50%, -50%); border:5px solid black"">","","","","","","","",""
"","563.1700000012643","sequential-stimulus-presentation","77","400046","0.0-20.0-1.2","SS1617819306516","trial","","40","1000","1563.1700000012643","images/stimuli/spore_stims/complex_16_A_b.gif","images/stimuli/spore_stims/complex_12_A_a.gif","","6","complex_dissimilar","images/stimuli/spore_stims/complex_12_A_a.gif","","","","",""
"","null","html-keyboard-response","78","400967","0.0-20.0-0.3","SS1617819306516","","","null","","","","","<p><img src= images/blank.png width =""600"" height = ""600"" style=""position:fixed;top:50%; left:50%; transform: translate(-50%, -50%); border:5px solid black"">","","","","","","","",""
"","1044.754999998957","sequential-stimulus-presentation","79","403022","0.0-20.0-1.3","SS1617819306516","trial","","40","1000","2044.754999998957","images/stimuli/spore_stims/complex_16_A_b.gif","images/stimuli/spore_stims/complex_12_A_a.gif","","6","complex_dissimilar","images/stimuli/spore_stims/complex_16_A_b.gif","","","","",""
"","null","html-keyboard-response","80","404059","0.0-20.0-0.4","SS1617819306516","","","null","","","","","<p><img src= images/blank.png width =""600"" height = ""600"" style=""position:fixed;top:50%; left:50%; transform: translate(-50%, -50%); border:5px solid black"">","","","","","","","",""
"","741.8699999980163","sequential-stimulus-presentation","81","405806","0.0-20.0-1.4","SS1617819306516","trial","","40","1000","1741.8699999980163","images/stimuli/spore_stims/complex_16_A_b.gif","images/stimuli/spore_stims/complex_12_A_a.gif","","6","complex_dissimilar","images/stimuli/spore_stims/complex_12_A_a.gif","","","","",""
"","null","html-keyboard-response","82","406902","0.0-20.0-0.5","SS1617819306516","","","null","","","","","<p><img src= images/blank.png width =""600"" height = ""600"" style=""position:fixed;top:50%; left:50%; transform: translate(-50%, -50%); border:5px solid black"">","","","","","","","",""
"","530.2049999991432","sequential-stimulus-presentation","83","408438","0.0-20.0-1.5","SS1617819306516","trial","","40","1000","1530.2049999991432","images/stimuli/spore_stims/complex_16_A_b.gif","images/stimuli/spore_stims/complex_12_A_a.gif","","6","complex_dissimilar","images/stimuli/spore_stims/complex_16_A_b.gif","","","","",""
"","2437.1050000008545","survey-multi-choice","84","410877","0.0-21.0","SS1617819306516","math_question","","","","","","","","","","","{""Q0"":""5""}","[0]","5","",""
"","null","html-keyboard-response","85","412128","0.0-22.0-0.0","SS1617819306516","","","null","","","","","<p><img src= images/blank.png width =""600"" height = ""600"" style=""position:fixed;top:50%; left:50%; transform: translate(-50%, -50%); border:5px solid black"">","","","","","","","",""
"","545.7999999998719","sequential-stimulus-presentation","86","413685","0.0-22.0-1.0","SS1617819306516","trial","","40","1000","1545.799999999872","images/stimuli/spore_stims/simple_08_A_b.gif","images/stimuli/spore_stims/simple_03_A_a.gif","","7","simple_dissimilar","images/stimuli/spore_stims/simple_03_A_a.gif","","","","",""
"","null","html-keyboard-response","87","414795","0.0-22.0-0.1","SS1617819306516","","","null","","","","","<p><img src= images/blank.png width =""600"" height = ""600"" style=""position:fixed;top:50%; left:50%; transform: translate(-50%, -50%); border:5px solid black"">","","","","","","","",""
"","310.97500000032596","sequential-stimulus-presentation","88","416110","0.0-22.0-1.1","SS1617819306516","trial","","40","1000","1310.975000000326","images/stimuli/spore_stims/simple_08_A_b.gif","images/stimuli/spore_stims/simple_03_A_a.gif","","7","simple_dissimilar","images/stimuli/spore_stims/simple_03_A_a.gif","","","","",""
"","null","html-keyboard-response","89","417182","0.0-22.0-0.2","SS1617819306516","","","null","","","","","<p><img src= images/blank.png width =""600"" height = ""600"" style=""position:fixed;top:50%; left:50%; transform: translate(-50%, -50%); border:5px solid black"">","","","","","","","",""
"","444.73999999900116","sequential-stimulus-presentation","90","418638","0.0-22.0-1.2","SS1617819306516","trial","","40","1000","1444.7399999990012","images/stimuli/spore_stims/simple_08_A_b.gif","images/stimuli/spore_stims/simple_03_A_a.gif","","7","simple_dissimilar","images/stimuli/spore_stims/simple_03_A_a.gif","","","","",""
"","null","html-keyboard-response","91","419886","0.0-22.0-0.3","SS1617819306516","","","null","","","","","<p><img src= images/blank.png width =""600"" height = ""600"" style=""position:fixed;top:50%; left:50%; transform: translate(-50%, -50%); border:5px solid black"">","","","","","","","",""
"","211.77499999973224","sequential-stimulus-presentation","92","421102","0.0-22.0-1.3","SS1617819306516","trial","","40","1000","1211.7749999997322","images/stimuli/spore_stims/simple_08_A_b.gif","images/stimuli/spore_stims/simple_03_A_a.gif","","7","simple_dissimilar","images/stimuli/spore_stims/simple_03_A_a.gif","","","","",""
"","null","html-keyboard-response","93","422070","0.0-22.0-0.4","SS1617819306516","","","null","","","","","<p><img src= images/blank.png width =""600"" height = ""600"" style=""position:fixed;top:50%; left:50%; transform: translate(-50%, -50%); border:5px solid black"">","","","","","","","",""
"","459.92000000120606","sequential-stimulus-presentation","94","423534","0.0-22.0-1.4","SS1617819306516","trial","","40","1000","1459.920000001206","images/stimuli/spore_stims/simple_08_A_b.gif","images/stimuli/spore_stims/simple_03_A_a.gif","","7","simple_dissimilar","images/stimuli/spore_stims/simple_08_A_b.gif","","","","",""
"","null","html-keyboard-response","95","424551","0.0-22.0-0.5","SS1617819306516","","","null","","","","","<p><img src= images/blank.png width =""600"" height = ""600"" style=""position:fixed;top:50%; left:50%; transform: translate(-50%, -50%); border:5px solid black"">","","","","","","","",""
"","427.62500000029104","sequential-stimulus-presentation","96","425982","0.0-22.0-1.5","SS1617819306516","trial","","40","1000","1427.625000000291","images/stimuli/spore_stims/simple_08_A_b.gif","images/stimuli/spore_stims/simple_03_A_a.gif","","7","simple_dissimilar","images/stimuli/spore_stims/simple_03_A_a.gif","","","","",""
"","2509.9000000008964","survey-multi-choice","97","428494","0.0-23.0","SS1617819306516","math_question","","","","","","","","","","","{""Q0"":""7""}","[0]","7","",""
"","null","html-keyboard-response","98","429715","0.0-24.0-0.0","SS1617819306516","","","null","","","","","<p><img src= images/blank.png width =""600"" height = ""600"" style=""position:fixed;top:50%; left:50%; transform: translate(-50%, -50%); border:5px solid black"">","","","","","","","",""
"","297.25999999942724","sequential-stimulus-presentation","99","431022","0.0-24.0-1.0","SS1617819306516","trial","","40","1000","1297.2599999994272","images/stimuli/spore_stims/simple_03_A_b.gif","images/stimuli/spore_stims/simple_10_A_a.gif","","8","simple_dissimilar","images/stimuli/spore_stims/simple_10_A_a.gif","","","","",""
"","null","html-keyboard-response","100","431867","0.0-24.0-0.1","SS1617819306516","","","null","","","","","<p><img src= images/blank.png width =""600"" height = ""600"" style=""position:fixed;top:50%; left:50%; transform: translate(-50%, -50%); border:5px solid black"">","","","","","","","",""
"","294.69500000053085","sequential-stimulus-presentation","101","433166","0.0-24.0-1.1","SS1617819306516","trial","","40","1000","1294.6950000005309","images/stimuli/spore_stims/simple_03_A_b.gif","images/stimuli/spore_stims/simple_10_A_a.gif","","8","simple_dissimilar","images/stimuli/spore_stims/simple_03_A_b.gif","","","","",""
"","null","html-keyboard-response","102","434393","0.0-24.0-0.2","SS1617819306516","","","null","","","","","<p><img src= images/blank.png width =""600"" height = ""600"" style=""position:fixed;top:50%; left:50%; transform: translate(-50%, -50%); border:5px solid black"">","","","","","","","",""
"","344.3299999998999","sequential-stimulus-presentation","103","435741","0.0-24.0-1.2","SS1617819306516","trial","","40","1000","1344.3299999998999","images/stimuli/spore_stims/simple_03_A_b.gif","images/stimuli/spore_stims/simple_10_A_a.gif","","8","simple_dissimilar","images/stimuli/spore_stims/simple_03_A_b.gif","","","","",""
"","null","html-keyboard-response","104","436674","0.0-24.0-0.3","SS1617819306516","","","null","","","","","<p><img src= images/blank.png width =""600"" height = ""600"" style=""position:fixed;top:50%; left:50%; transform: translate(-50%, -50%); border:5px solid black"">","","","","","","","",""
"","311.0999999989872","sequential-stimulus-presentation","105","437990","0.0-24.0-1.3","SS1617819306516","trial","","40","1000","1311.0999999989872","images/stimuli/spore_stims/simple_03_A_b.gif","images/stimuli/spore_stims/simple_10_A_a.gif","","8","simple_dissimilar","images/stimuli/spore_stims/simple_10_A_a.gif","","","","",""
"","null","html-keyboard-response","106","439168","0.0-24.0-0.4","SS1617819306516","","","null","","","","","<p><img src= images/blank.png width =""600"" height = ""600"" style=""position:fixed;top:50%; left:50%; transform: translate(-50%, -50%); border:5px solid black"">","","","","","","","",""
"","155.51000000047497","sequential-stimulus-presentation","107","440333","0.0-24.0-1.4","SS1617819306516","trial","","40","1000","1155.510000000475","images/stimuli/spore_stims/simple_03_A_b.gif","images/stimuli/spore_stims/simple_10_A_a.gif","","8","simple_dissimilar","images/stimuli/spore_stims/simple_10_A_a.gif","","","","",""
"","null","html-keyboard-response","108","441198","0.0-24.0-0.5","SS1617819306516","","","null","","","","","<p><img src= images/blank.png width =""600"" height = ""600"" style=""position:fixed;top:50%; left:50%; transform: translate(-50%, -50%); border:5px solid black"">","","","","","","","",""
"","268.0350000009639","sequential-stimulus-presentation","109","442470","0.0-24.0-1.5","SS1617819306516","trial","","40","1000","1268.035000000964","images/stimuli/spore_stims/simple_03_A_b.gif","images/stimuli/spore_stims/simple_10_A_a.gif","","8","simple_dissimilar","images/stimuli/spore_stims/simple_10_A_a.gif","","","","",""
"","8837.765000000247","survey-multi-choice","110","451310","0.0-25.0","SS1617819306516","math_question","","","","","","","","","","","{""Q0"":""11""}","[0]","11","",""
"","null","html-keyboard-response","111","452298","0.0-26.0-0.0","SS1617819306516","","","null","","","","","<p><img src= images/blank.png width =""600"" height = ""600"" style=""position:fixed;top:50%; left:50%; transform: translate(-50%, -50%); border:5px solid black"">","","","","","","","",""
"","92935.30000000104","sequential-stimulus-presentation","112","546238","0.0-26.0-1.0","SS1617819306516","trial","","40","1000","93935.30000000104","images/stimuli/spore_stims/simple_05_A_b.gif","images/stimuli/spore_stims/simple_16_A_a.gif","","9","simple_dissimilar","images/stimuli/spore_stims/simple_16_A_a.gif","","","","",""
"","null","html-keyboard-response","113","547171","0.0-26.0-0.1","SS1617819306516","","","null","","","","","<p><img src= images/blank.png width =""600"" height = ""600"" style=""position:fixed;top:50%; left:50%; transform: translate(-50%, -50%); border:5px solid black"">","","","","","","","",""
"","214.07999999797903","sequential-stimulus-presentation","114","548389","0.0-26.0-1.1","SS1617819306516","trial","","40","1000","1214.079999997979","images/stimuli/spore_stims/simple_05_A_b.gif","images/stimuli/spore_stims/simple_16_A_a.gif","","9","simple_dissimilar","images/stimuli/spore_stims/simple_16_A_a.gif","","","","",""
"","null","html-keyboard-response","115","549326","0.0-26.0-0.2","SS1617819306516","","","null","","","","","<p><img src= images/blank.png width =""600"" height = ""600"" style=""position:fixed;top:50%; left:50%; transform: translate(-50%, -50%); border:5px solid black"">","","","","","","","",""
"","289.72000000067055","sequential-stimulus-presentation","116","550621","0.0-26.0-1.2","SS1617819306516","trial","","40","1000","1289.7200000006706","images/stimuli/spore_stims/simple_05_A_b.gif","images/stimuli/spore_stims/simple_16_A_a.gif","","9","simple_dissimilar","images/stimuli/spore_stims/simple_05_A_b.gif","","","","",""
"","null","html-keyboard-response","117","551742","0.0-26.0-0.3","SS1617819306516","","","null","","","","","<p><img src= images/blank.png width =""600"" height = ""600"" style=""position:fixed;top:50%; left:50%; transform: translate(-50%, -50%); border:5px solid black"">","","","","","","","",""
"","339.41499999852385","sequential-stimulus-presentation","118","553085","0.0-26.0-1.3","SS1617819306516","trial","","40","1000","1339.4149999985239","images/stimuli/spore_stims/simple_05_A_b.gif","images/stimuli/spore_stims/simple_16_A_a.gif","","9","simple_dissimilar","images/stimuli/spore_stims/simple_05_A_b.gif","","","","",""
"","null","html-keyboard-response","119","554037","0.0-26.0-0.4","SS1617819306516","","","null","","","","","<p><img src= images/blank.png width =""600"" height = ""600"" style=""position:fixed;top:50%; left:50%; transform: translate(-50%, -50%); border:5px solid black"">","","","","","","","",""
"","267.79999999771826","sequential-stimulus-presentation","120","555309","0.0-26.0-1.4","SS1617819306516","trial","","40","1000","1267.7999999977183","images/stimuli/spore_stims/simple_05_A_b.gif","images/stimuli/spore_stims/simple_16_A_a.gif","","9","simple_dissimilar","images/stimuli/spore_stims/simple_16_A_a.gif","","","","",""
"","null","html-keyboard-response","121","556362","0.0-26.0-0.5","SS1617819306516","","","null","","","","","<p><img src= images/blank.png width =""600"" height = ""600"" style=""position:fixed;top:50%; left:50%; transform: translate(-50%, -50%); border:5px solid black"">","","","","","","","",""
"","334.09000000031665","sequential-stimulus-presentation","122","557702","0.0-26.0-1.5","SS1617819306516","trial","","40","1000","1334.0900000003166","images/stimuli/spore_stims/simple_05_A_b.gif","images/stimuli/spore_stims/simple_16_A_a.gif","","9","simple_dissimilar","images/stimuli/spore_stims/simple_16_A_a.gif","","","","",""
"","3848.484999998589","survey-multi-choice","123","561553","0.0-27.0","SS1617819306516","math_question","","","","","","","","","","","{""Q0"":""17""}","[0]","17","",""
"","null","html-keyboard-response","124","562384","0.0-28.0-0.0","SS1617819306516","","","null","","","","","<p><img src= images/blank.png width =""600"" height = ""600"" style=""position:fixed;top:50%; left:50%; transform: translate(-50%, -50%); border:5px solid black"">","","","","","","","",""
"","543.5450000003912","sequential-stimulus-presentation","125","563933","0.0-28.0-1.0","SS1617819306516","trial","","40","1000","1543.5450000003912","images/stimuli/spore_stims/complex_18_A_b.gif","images/stimuli/spore_stims/complex_09_A_a.gif","","10","complex_dissimilar","images/stimuli/spore_stims/complex_09_A_a.gif","","","","",""
"","null","html-keyboard-response","126","564999","0.0-28.0-0.1","SS1617819306516","","","null","","","","","<p><img src= images/blank.png width =""600"" height = ""600"" style=""position:fixed;top:50%; left:50%; transform: translate(-50%, -50%); border:5px solid black"">","","","","","","","",""
"","505.86499999905936","sequential-stimulus-presentation","127","566509","0.0-28.0-1.1","SS1617819306516","trial","","40","1000","1505.8649999990594","images/stimuli/spore_stims/complex_18_A_b.gif","images/stimuli/spore_stims/complex_09_A_a.gif","","10","complex_dissimilar","images/stimuli/spore_stims/complex_09_A_a.gif","","","","",""
"","null","html-keyboard-response","128","567351","0.0-28.0-0.2","SS1617819306516","","","null","","","","","<p><img src= images/blank.png width =""600"" height = ""600"" style=""position:fixed;top:50%; left:50%; transform: translate(-50%, -50%); border:5px solid black"">","","","","","","","",""
"","733.9450000000652","sequential-stimulus-presentation","129","569094","0.0-28.0-1.2","SS1617819306516","trial","","40","1000","1733.9450000000652","images/stimuli/spore_stims/complex_18_A_b.gif","images/stimuli/spore_stims/complex_09_A_a.gif","","10","complex_dissimilar","images/stimuli/spore_stims/complex_18_A_b.gif","","","","",""
"","null","html-keyboard-response","130","570067","0.0-28.0-0.3","SS1617819306516","","","null","","","","","<p><img src= images/blank.png width =""600"" height = ""600"" style=""position:fixed;top:50%; left:50%; transform: translate(-50%, -50%); border:5px solid black"">","","","","","","","",""
"","502.05500000086613","sequential-stimulus-presentation","131","571573","0.0-28.0-1.3","SS1617819306516","trial","","40","1000","1502.0550000008661","images/stimuli/spore_stims/complex_18_A_b.gif","images/stimuli/spore_stims/complex_09_A_a.gif","","10","complex_dissimilar","images/stimuli/spore_stims/complex_18_A_b.gif","","","","",""
"","3428.940000001574","survey-multi-choice","132","575005","0.0-29.0","SS1617819306516","math_question","","","","","","","","","","","{""Q0"":""14""}","[0]","14","",""
"","null","html-keyboard-response","133","575879","0.0-30.0-0.0","SS1617819306516","","","null","","","","","<p><img src= images/blank.png width =""600"" height = ""600"" style=""position:fixed;top:50%; left:50%; transform: translate(-50%, -50%); border:5px solid black"">","","","","","","","",""
"","458.1400000024587","sequential-stimulus-presentation","134","577341","0.0-30.0-1.0","SS1617819306516","trial","","40","1000","1458.1400000024587","images/stimuli/spore_stims/complex_15_A_a.gif","images/stimuli/spore_stims/complex_14_A_b.gif","","11","complex_dissimilar","images/stimuli/spore_stims/complex_14_A_b.gif","","","","",""
"","null","html-keyboard-response","135","578578","0.0-30.0-0.1","SS1617819306516","","","null","","","","","<p><img src= images/blank.png width =""600"" height = ""600"" style=""position:fixed;top:50%; left:50%; transform: translate(-50%, -50%); border:5px solid black"">","","","","","","","",""
"","314.8349999974016","sequential-stimulus-presentation","136","579902","0.0-30.0-1.1","SS1617819306516","trial","","40","1000","1314.8349999974016","images/stimuli/spore_stims/complex_15_A_a.gif","images/stimuli/spore_stims/complex_14_A_b.gif","","11","complex_dissimilar","images/stimuli/spore_stims/complex_14_A_b.gif","","","","",""
"","null","html-keyboard-response","137","580748","0.0-30.0-0.2","SS1617819306516","","","null","","","","","<p><img src= images/blank.png width =""600"" height = ""600"" style=""position:fixed;top:50%; left:50%; transform: translate(-50%, -50%); border:5px solid black"">","","","","","","","",""
"","357.63500000024214","sequential-stimulus-presentation","138","582109","0.0-30.0-1.2","SS1617819306516","trial","","40","1000","1357.6350000002421","images/stimuli/spore_stims/complex_15_A_a.gif","images/stimuli/spore_stims/complex_14_A_b.gif","","11","complex_dissimilar","images/stimuli/spore_stims/complex_14_A_b.gif","","","","",""
"","null","html-keyboard-response","139","583291","0.0-30.0-0.3","SS1617819306516","","","null","","","","","<p><img src= images/blank.png width =""600"" height = ""600"" style=""position:fixed;top:50%; left:50%; transform: translate(-50%, -50%); border:5px solid black"">","","","","","","","",""
"","669.674999997369","sequential-stimulus-presentation","140","584965","0.0-30.0-1.3","SS1617819306516","trial","","40","1000","1669.674999997369","images/stimuli/spore_stims/complex_15_A_a.gif","images/stimuli/spore_stims/complex_14_A_b.gif","","11","complex_dissimilar","images/stimuli/spore_stims/complex_15_A_a.gif","","","","",""
"","null","html-keyboard-response","141","586007","0.0-30.0-0.4","SS1617819306516","","","null","","","","","<p><img src= images/blank.png width =""600"" height = ""600"" style=""position:fixed;top:50%; left:50%; transform: translate(-50%, -50%); border:5px solid black"">","","","","","","","",""
"","577.950000002631","sequential-stimulus-presentation","142","587589","0.0-30.0-1.4","SS1617819306516","trial","","40","1000","1577.950000002631","images/stimuli/spore_stims/complex_15_A_a.gif","images/stimuli/spore_stims/complex_14_A_b.gif","","11","complex_dissimilar","images/stimuli/spore_stims/complex_15_A_a.gif","","","","",""
"[{""page_index"":0,""viewing_time"":4886.474999999278}]","4886.740000001737","instructions","143","592478","0.0-31.0","SS1617819306516","instructions","","","","","","","","","","","","","","",""
"","5438.379999999655","survey-likert","144","597921","0.0-32.0","SS1617819306516","similarity_question","","","","","","","","","","","{""Q0"":5}","[0]","","images/stimuli/spore_stims/simple_10_A_a.gif","images/stimuli/spore_stims/simple_03_A_b.gif"
"","2689.565000000526","survey-likert","145","600614","0.0-33.0","SS1617819306516","similarity_question","","","","","","","","","","","{""Q0"":5}","[0]","","images/stimuli/spore_stims/simple_15_A_b.gif","images/stimuli/spore_stims/simple_20_A_a.gif"
"","5153.575000000303","survey-likert","146","605772","0.0-34.0","SS1617819306516","similarity_question","","","","","","","","","","","{""Q0"":0}","[0]","","images/stimuli/spore_stims/complex_15_A_a.gif","images/stimuli/spore_stims/complex_14_A_b.gif"
"","4627.375","survey-likert","147","610403","0.0-35.0","SS1617819306516","similarity_question","","","","","","","","","","","{""Q0"":0}","[0]","","images/stimuli/spore_stims/complex_07_A_a.gif","images/stimuli/spore_stims/complex_11_A_b.gif"
"","3242.3549999985844","survey-likert","148","613649","0.0-36.0","SS1617819306516","similarity_question","","","","","","","","","","","{""Q0"":0}","[0]","","images/stimuli/spore_stims/complex_12_A_a.gif","images/stimuli/spore_stims/complex_16_A_b.gif"
"","2423.1500000023516","survey-likert","149","616076","0.0-37.0","SS1617819306516","similarity_question","","","","","","","","","","","{""Q0"":0}","[0]","","images/stimuli/spore_stims/complex_17_A_a.gif","images/stimuli/spore_stims/complex_15_A_b.gif"
"","2481.934999999823","survey-likert","150","618562","0.0-38.0","SS1617819306516","similarity_question","","","","","","","","","","","{""Q0"":0}","[0]","","images/stimuli/spore_stims/complex_05_A_a.gif","images/stimuli/spore_stims/complex_12_A_b.gif"
"","3131.9149999981746","survey-likert","151","621698","0.0-39.0","SS1617819306516","similarity_question","","","","","","","","","","","{""Q0"":5}","[0]","","images/stimuli/spore_stims/simple_20_A_b.gif","images/stimuli/spore_stims/simple_19_A_a.gif"
"","1699.3750000001164","survey-likert","152","623401","0.0-40.0","SS1617819306516","similarity_question","","","","","","","","","","","{""Q0"":5}","[0]","","images/stimuli/spore_stims/simple_17_A_b.gif","images/stimuli/spore_stims/simple_07_A_a.gif"
"","1361.095000000205","survey-likert","153","624767","0.0-41.0","SS1617819306516","similarity_question","","","","","","","","","","","{""Q0"":5}","[0]","","images/stimuli/spore_stims/simple_03_A_a.gif","images/stimuli/spore_stims/simple_08_A_b.gif"
"","1369.1250000010477","survey-likert","154","626139","0.0-42.0","SS1617819306516","similarity_question","","","","","","","","","","","{""Q0"":5}","[0]","","images/stimuli/spore_stims/simple_16_A_a.gif","images/stimuli/spore_stims/simple_05_A_b.gif"
"","2821.9299999981886","survey-likert","155","628965","0.0-43.0","SS1617819306516","similarity_question","","","","","","","","","","","{""Q0"":0}","[0]","","images/stimuli/spore_stims/complex_09_A_a.gif","images/stimuli/spore_stims/complex_18_A_b.gif"
"[{""page_index"":0,""viewing_time"":3719.554999999702}]","3719.829999998212","instructions","156","632688","0.0-44.0","SS1617819306516","instructions","","","","","","","","","","","","","","",""
"","2295.0549999987707","survey-likert","157","634986","0.0-45.0","SS1617819306516","","","","","","","","images/stimuli/spore_stims/simple_05_A_b.gif","","","","{""Q0"":0}","[0]","","",""
"","2037.9549999998417","survey-likert","158","637028","0.0-46.0","SS1617819306516","","","","","","","","images/stimuli/spore_stims/simple_08_A_b.gif","","","","{""Q0"":0}","[0]","","",""
"","3067.8750000006985","survey-likert","159","640100","0.0-47.0","SS1617819306516","","","","","","","","images/stimuli/spore_stims/complex_12_A_b.gif","","","","{""Q0"":5}","[0]","","",""
"","1610.3550000006799","survey-likert","160","641714","0.0-48.0","SS1617819306516","","","","","","","","images/stimuli/spore_stims/simple_17_A_b.gif","","","","{""Q0"":0}","[0]","","",""
"","2534.185000000405","survey-likert","161","644253","0.0-49.0","SS1617819306516","","","","","","","","images/stimuli/spore_stims/complex_16_A_b.gif","","","","{""Q0"":5}","[0]","","",""
"","1754.6849999999395","survey-likert","162","646011","0.0-50.0","SS1617819306516","","","","","","","","images/stimuli/spore_stims/simple_19_A_a.gif","","","","{""Q0"":0}","[0]","","",""
"","2240.395000000717","survey-likert","163","648255","0.0-51.0","SS1617819306516","","","","","","","","images/stimuli/spore_stims/complex_07_A_a.gif","","","","{""Q0"":5}","[0]","","",""
"","1464.09499999939","survey-likert","164","649723","0.0-52.0","SS1617819306516","","","","","","","","images/stimuli/spore_stims/simple_15_A_b.gif","","","","{""Q0"":0}","[0]","","",""
"","1502.0549999972573","survey-likert","165","651229","0.0-53.0","SS1617819306516","","","","","","","","images/stimuli/spore_stims/complex_14_A_b.gif","","","","{""Q0"":5}","[0]","","",""
"","3235.160000000149","survey-likert","166","654468","0.0-54.0","SS1617819306516","","","","","","","","images/stimuli/spore_stims/complex_17_A_a.gif","","","","{""Q0"":4}","[0]","","",""
"","1542.6399999996647","survey-likert","167","656015","0.0-55.0","SS1617819306516","","","","","","","","images/stimuli/spore_stims/complex_09_A_a.gif","","","","{""Q0"":4}","[0]","","",""
"","1221.4249999998137","survey-likert","168","657240","0.0-56.0","SS1617819306516","","","","","","","","images/stimuli/spore_stims/simple_03_A_b.gif","","","","{""Q0"":0}","[0]","","",""
"[{""page_index"":0,""viewing_time"":1722.9299999999348}]","1723.195000002277","instructions","169","658966","0.0-57.0","SS1617819306516","instructions","","","","","","","","","","","","","","",""
"","2367.714999996708","demog-age","170","661339","0.0-58.0","SS1617819306516","","","","","","","","","","","","{""age"":""20""}","","","",""
"","2685.874999999185","demog-ethnic-US","171","664031","0.0-59.0","SS1617819306516","","","","","","","","","","","","{""ethnicity"":[""White""]}","[0]","","",""
"","10970.260000001872","demog-gender-and-education","172","675005","0.0-60.0","SS1617819306516","","","","","","","","","","","","{""gender"":""Male"",""education"":""Bachelor's Degree""}","[0,1]","","",""
"","8073.580000000191","survey-text","173","683084","0.0-61.0","SS1617819306516","feedback","","","","","","","","","","","{""Q0"":""no""}","","","",""
"[{""page_index"":0,""viewing_time"":1823.390000001411}]","1823.6500000021188","instructions","174","684910","0.0-62.0","SS1617819306516","instructions","","","","","","","","","","","","","","",""
