"view_history","rt","trial_type","trial_index","time_elapsed","internal_node_id","subject","stimulus_type","trial_stimulus","key_press","minimum_viewing_duration","trial_looking_time","block_deviant","block_background","stimulus","block_number","block_type","stimulus_displayed","responses","question_order","math_correct_answer","stimulus_left","stimulus_right"
"[{""page_index"":0,""viewing_time"":4922.334999995655}]","4922.839999999269","instructions","0","4924","0.0-0.0","SS1617819464244","","","","","","","","","","","","","","","",""
"[{""page_index"":0,""viewing_time"":17589.540000000852},{""page_index"":1,""viewing_time"":6792.27499999979}]","24382.029999993392","instructions","1","31308","0.0-1.0","SS1617819464244","instructions","","","","","","","","","","","","","","",""
"","6883.250000013504","sequential-stimulus-presentation-old","2","38795","0.0-2.0","SS1617819464244","","","40","600","7483.250000013504","null","null","","","","","","","","",""
"","2456.8550000112737","sequential-stimulus-presentation-old","3","41754","0.0-3.0","SS1617819464244","","","40","500","2956.8550000112737","null","null","","","","","","","","",""
"[{""page_index"":0,""viewing_time"":15376.540000012028}]","15376.805000007153","instructions","4","57132","0.0-4.0","SS1617819464244","instructions","","","","","","","","","","","","","","",""
"","1539.8450000066077","sequential-stimulus-presentation","5","59674","0.0-5.0","SS1617819464244","","","40","1000","2539.8450000066077","null","null","","","","","","","","",""
"[{""page_index"":0,""viewing_time"":5728.440000006231}]","5728.595000007772","instructions","6","65403","0.0-6.0","SS1617819464244","instructions","","","","","","","","","","","","","","",""
"[{""page_index"":0,""viewing_time"":8871.415000001434},{""page_index"":1,""viewing_time"":11591.245000003255},{""page_index"":2,""viewing_time"":7256.374999997206},{""page_index"":3,""viewing_time"":1255.7500000111759},{""page_index"":4,""viewing_time"":1056.3049999909708}]","30031.295000007958","instructions","7","95435","0.0-7.0","SS1617819464244","instructions","","","","","","","","","","","","","","",""
"","null","html-keyboard-response","8","96257","0.0-8.0-0.0","SS1617819464244","","","null","","","","","<p><img src= images/blank.png width =""600"" height = ""600"" style=""position:fixed;top:50%; left:50%; transform: translate(-50%, -50%); border:5px solid black"">","","","","","","","",""
"","4165.7150000100955","sequential-stimulus-presentation","9","101426","0.0-8.0-1.0","SS1617819464244","trial","","40","1000","5165.7150000100955","images/stimuli/spore_stims/simple_06_A_a.gif","images/stimuli/spore_stims/simple_04_A_b.gif","","0","simple_dissimilar","images/stimuli/spore_stims/simple_04_A_b.gif","","","","",""
"","null","html-keyboard-response","10","102405","0.0-8.0-0.1","SS1617819464244","","","null","","","","","<p><img src= images/blank.png width =""600"" height = ""600"" style=""position:fixed;top:50%; left:50%; transform: translate(-50%, -50%); border:5px solid black"">","","","","","","","",""
"","3857.850000000326","sequential-stimulus-presentation","11","107265","0.0-8.0-1.1","SS1617819464244","trial","","40","1000","4857.850000000326","images/stimuli/spore_stims/simple_06_A_a.gif","images/stimuli/spore_stims/simple_04_A_b.gif","","0","simple_dissimilar","images/stimuli/spore_stims/simple_04_A_b.gif","","","","",""
"","null","html-keyboard-response","12","108101","0.0-8.0-0.2","SS1617819464244","","","null","","","","","<p><img src= images/blank.png width =""600"" height = ""600"" style=""position:fixed;top:50%; left:50%; transform: translate(-50%, -50%); border:5px solid black"">","","","","","","","",""
"","2585.465000011027","sequential-stimulus-presentation","13","111690","0.0-8.0-1.2","SS1617819464244","trial","","40","1000","3585.465000011027","images/stimuli/spore_stims/simple_06_A_a.gif","images/stimuli/spore_stims/simple_04_A_b.gif","","0","simple_dissimilar","images/stimuli/spore_stims/simple_04_A_b.gif","","","","",""
"","null","html-keyboard-response","14","112921","0.0-8.0-0.3","SS1617819464244","","","null","","","","","<p><img src= images/blank.png width =""600"" height = ""600"" style=""position:fixed;top:50%; left:50%; transform: translate(-50%, -50%); border:5px solid black"">","","","","","","","",""
"","10958.33500000299","sequential-stimulus-presentation","15","124883","0.0-8.0-1.3","SS1617819464244","trial","","40","1000","11958.33500000299","images/stimuli/spore_stims/simple_06_A_a.gif","images/stimuli/spore_stims/simple_04_A_b.gif","","0","simple_dissimilar","images/stimuli/spore_stims/simple_04_A_b.gif","","","","",""
"","null","html-keyboard-response","16","125939","0.0-8.0-0.4","SS1617819464244","","","null","","","","","<p><img src= images/blank.png width =""600"" height = ""600"" style=""position:fixed;top:50%; left:50%; transform: translate(-50%, -50%); border:5px solid black"">","","","","","","","",""
"","940.3250000032131","sequential-stimulus-presentation","17","127882","0.0-8.0-1.4","SS1617819464244","trial","","40","1000","1940.325000003213","images/stimuli/spore_stims/simple_06_A_a.gif","images/stimuli/spore_stims/simple_04_A_b.gif","","0","simple_dissimilar","images/stimuli/spore_stims/simple_04_A_b.gif","","","","",""
"","3392.3499999946216","survey-multi-choice","18","131276","0.0-9.0","SS1617819464244","math_question","","","","","","","","","","","{""Q0"":""5""}","[0]","5","",""
"","null","html-keyboard-response","19","132140","0.0-10.0-0.0","SS1617819464244","","","null","","","","","<p><img src= images/blank.png width =""600"" height = ""600"" style=""position:fixed;top:50%; left:50%; transform: translate(-50%, -50%); border:5px solid black"">","","","","","","","",""
"","2347.9850000003353","sequential-stimulus-presentation","20","135491","0.0-10.0-1.0","SS1617819464244","trial","","40","1000","3347.9850000003353","images/stimuli/spore_stims/complex_04_A_b.gif","images/stimuli/spore_stims/complex_11_A_a.gif","","1","complex_dissimilar","images/stimuli/spore_stims/complex_11_A_a.gif","","","","",""
"","null","html-keyboard-response","21","136638","0.0-10.0-0.1","SS1617819464244","","","null","","","","","<p><img src= images/blank.png width =""600"" height = ""600"" style=""position:fixed;top:50%; left:50%; transform: translate(-50%, -50%); border:5px solid black"">","","","","","","","",""
"","3399.8850000061793","sequential-stimulus-presentation","22","141042","0.0-10.0-1.1","SS1617819464244","trial","","40","1000","4399.885000006179","images/stimuli/spore_stims/complex_04_A_b.gif","images/stimuli/spore_stims/complex_11_A_a.gif","","1","complex_dissimilar","images/stimuli/spore_stims/complex_11_A_a.gif","","","","",""
"","null","html-keyboard-response","23","142012","0.0-10.0-0.2","SS1617819464244","","","null","","","","","<p><img src= images/blank.png width =""600"" height = ""600"" style=""position:fixed;top:50%; left:50%; transform: translate(-50%, -50%); border:5px solid black"">","","","","","","","",""
"","2947.50500000373","sequential-stimulus-presentation","24","145962","0.0-10.0-1.2","SS1617819464244","trial","","40","1000","3947.50500000373","images/stimuli/spore_stims/complex_04_A_b.gif","images/stimuli/spore_stims/complex_11_A_a.gif","","1","complex_dissimilar","images/stimuli/spore_stims/complex_04_A_b.gif","","","","",""
"","null","html-keyboard-response","25","146913","0.0-10.0-0.3","SS1617819464244","","","null","","","","","<p><img src= images/blank.png width =""600"" height = ""600"" style=""position:fixed;top:50%; left:50%; transform: translate(-50%, -50%); border:5px solid black"">","","","","","","","",""
"","1590.1149999990594","sequential-stimulus-presentation","26","149506","0.0-10.0-1.3","SS1617819464244","trial","","40","1000","2590.1149999990594","images/stimuli/spore_stims/complex_04_A_b.gif","images/stimuli/spore_stims/complex_11_A_a.gif","","1","complex_dissimilar","images/stimuli/spore_stims/complex_11_A_a.gif","","","","",""
"","null","html-keyboard-response","27","150582","0.0-10.0-0.4","SS1617819464244","","","null","","","","","<p><img src= images/blank.png width =""600"" height = ""600"" style=""position:fixed;top:50%; left:50%; transform: translate(-50%, -50%); border:5px solid black"">","","","","","","","",""
"","1578.4249999996973","sequential-stimulus-presentation","28","153162","0.0-10.0-1.4","SS1617819464244","trial","","40","1000","2578.4249999996973","images/stimuli/spore_stims/complex_04_A_b.gif","images/stimuli/spore_stims/complex_11_A_a.gif","","1","complex_dissimilar","images/stimuli/spore_stims/complex_11_A_a.gif","","","","",""
"","null","html-keyboard-response","29","154143","0.0-10.0-0.5","SS1617819464244","","","null","","","","","<p><img src= images/blank.png width =""600"" height = ""600"" style=""position:fixed;top:50%; left:50%; transform: translate(-50%, -50%); border:5px solid black"">","","","","","","","",""
"","1336.9300000049407","sequential-stimulus-presentation","30","156482","0.0-10.0-1.5","SS1617819464244","trial","","40","1000","2336.9300000049407","images/stimuli/spore_stims/complex_04_A_b.gif","images/stimuli/spore_stims/complex_11_A_a.gif","","1","complex_dissimilar","images/stimuli/spore_stims/complex_04_A_b.gif","","","","",""
"","2440.0749999913387","survey-multi-choice","31","158924","0.0-11.0","SS1617819464244","math_question","","","","","","","","","","","{""Q0"":""12""}","[0]","12","",""
"","null","html-keyboard-response","32","159926","0.0-12.0-0.0","SS1617819464244","","","null","","","","","<p><img src= images/blank.png width =""600"" height = ""600"" style=""position:fixed;top:50%; left:50%; transform: translate(-50%, -50%); border:5px solid black"">","","","","","","","",""
"","1417.0499999891035","sequential-stimulus-presentation","33","162347","0.0-12.0-1.0","SS1617819464244","trial","","40","1000","2417.0499999891035","images/stimuli/spore_stims/complex_14_A_a.gif","images/stimuli/spore_stims/complex_16_A_b.gif","","2","complex_dissimilar","images/stimuli/spore_stims/complex_16_A_b.gif","","","","",""
"","null","html-keyboard-response","34","163336","0.0-12.0-0.1","SS1617819464244","","","null","","","","","<p><img src= images/blank.png width =""600"" height = ""600"" style=""position:fixed;top:50%; left:50%; transform: translate(-50%, -50%); border:5px solid black"">","","","","","","","",""
"","415.45999998925254","sequential-stimulus-presentation","35","164754","0.0-12.0-1.1","SS1617819464244","trial","","40","1000","1415.4599999892525","images/stimuli/spore_stims/complex_14_A_a.gif","images/stimuli/spore_stims/complex_16_A_b.gif","","2","complex_dissimilar","images/stimuli/spore_stims/complex_16_A_b.gif","","","","",""
"","null","html-keyboard-response","36","166017","0.0-12.0-0.2","SS1617819464244","","","null","","","","","<p><img src= images/blank.png width =""600"" height = ""600"" style=""position:fixed;top:50%; left:50%; transform: translate(-50%, -50%); border:5px solid black"">","","","","","","","",""
"","821.8050000141375","sequential-stimulus-presentation","37","167842","0.0-12.0-1.2","SS1617819464244","trial","","40","1000","1821.8050000141375","images/stimuli/spore_stims/complex_14_A_a.gif","images/stimuli/spore_stims/complex_16_A_b.gif","","2","complex_dissimilar","images/stimuli/spore_stims/complex_16_A_b.gif","","","","",""
"","null","html-keyboard-response","38","169052","0.0-12.0-0.3","SS1617819464244","","","null","","","","","<p><img src= images/blank.png width =""600"" height = ""600"" style=""position:fixed;top:50%; left:50%; transform: translate(-50%, -50%); border:5px solid black"">","","","","","","","",""
"","369.9449999985518","sequential-stimulus-presentation","39","170426","0.0-12.0-1.3","SS1617819464244","trial","","40","1000","1369.9449999985518","images/stimuli/spore_stims/complex_14_A_a.gif","images/stimuli/spore_stims/complex_16_A_b.gif","","2","complex_dissimilar","images/stimuli/spore_stims/complex_16_A_b.gif","","","","",""
"","2679.9949999985984","survey-multi-choice","40","173108","0.0-13.0","SS1617819464244","math_question","","","","","","","","","","","{""Q0"":""10""}","[0]","10","",""
"","null","html-keyboard-response","41","174143","0.0-14.0-0.0","SS1617819464244","","","null","","","","","<p><img src= images/blank.png width =""600"" height = ""600"" style=""position:fixed;top:50%; left:50%; transform: translate(-50%, -50%); border:5px solid black"">","","","","","","","",""
"","1559.9050000018906","sequential-stimulus-presentation","42","176706","0.0-14.0-1.0","SS1617819464244","trial","","40","1000","2559.9050000018906","images/stimuli/spore_stims/simple_08_A_b.gif","images/stimuli/spore_stims/simple_07_A_a.gif","","3","simple_dissimilar","images/stimuli/spore_stims/simple_07_A_a.gif","","","","",""
"","null","html-keyboard-response","43","177522","0.0-14.0-0.1","SS1617819464244","","","null","","","","","<p><img src= images/blank.png width =""600"" height = ""600"" style=""position:fixed;top:50%; left:50%; transform: translate(-50%, -50%); border:5px solid black"">","","","","","","","",""
"","1365.4950000054669","sequential-stimulus-presentation","44","179890","0.0-14.0-1.1","SS1617819464244","trial","","40","1000","2365.495000005467","images/stimuli/spore_stims/simple_08_A_b.gif","images/stimuli/spore_stims/simple_07_A_a.gif","","3","simple_dissimilar","images/stimuli/spore_stims/simple_07_A_a.gif","","","","",""
"","null","html-keyboard-response","45","181122","0.0-14.0-0.2","SS1617819464244","","","null","","","","","<p><img src= images/blank.png width =""600"" height = ""600"" style=""position:fixed;top:50%; left:50%; transform: translate(-50%, -50%); border:5px solid black"">","","","","","","","",""
"","963.8850000046659","sequential-stimulus-presentation","46","183090","0.0-14.0-1.2","SS1617819464244","trial","","40","1000","1963.885000004666","images/stimuli/spore_stims/simple_08_A_b.gif","images/stimuli/spore_stims/simple_07_A_a.gif","","3","simple_dissimilar","images/stimuli/spore_stims/simple_07_A_a.gif","","","","",""
"","null","html-keyboard-response","47","184368","0.0-14.0-0.3","SS1617819464244","","","null","","","","","<p><img src= images/blank.png width =""600"" height = ""600"" style=""position:fixed;top:50%; left:50%; transform: translate(-50%, -50%); border:5px solid black"">","","","","","","","",""
"","614.3549999978859","sequential-stimulus-presentation","48","185985","0.0-14.0-1.3","SS1617819464244","trial","","40","1000","1614.354999997886","images/stimuli/spore_stims/simple_08_A_b.gif","images/stimuli/spore_stims/simple_07_A_a.gif","","3","simple_dissimilar","images/stimuli/spore_stims/simple_07_A_a.gif","","","","",""
"","null","html-keyboard-response","49","186992","0.0-14.0-0.4","SS1617819464244","","","null","","","","","<p><img src= images/blank.png width =""600"" height = ""600"" style=""position:fixed;top:50%; left:50%; transform: translate(-50%, -50%); border:5px solid black"">","","","","","","","",""
"","863.5350000113249","sequential-stimulus-presentation","50","188858","0.0-14.0-1.4","SS1617819464244","trial","","40","1000","1863.5350000113249","images/stimuli/spore_stims/simple_08_A_b.gif","images/stimuli/spore_stims/simple_07_A_a.gif","","3","simple_dissimilar","images/stimuli/spore_stims/simple_07_A_a.gif","","","","",""
"","null","html-keyboard-response","51","189922","0.0-14.0-0.5","SS1617819464244","","","null","","","","","<p><img src= images/blank.png width =""600"" height = ""600"" style=""position:fixed;top:50%; left:50%; transform: translate(-50%, -50%); border:5px solid black"">","","","","","","","",""
"","452.96999999845866","sequential-stimulus-presentation","52","191378","0.0-14.0-1.5","SS1617819464244","trial","","40","1000","1452.9699999984587","images/stimuli/spore_stims/simple_08_A_b.gif","images/stimuli/spore_stims/simple_07_A_a.gif","","3","simple_dissimilar","images/stimuli/spore_stims/simple_07_A_a.gif","","","","",""
"","2752.054999989923","survey-multi-choice","53","194131","0.0-15.0","SS1617819464244","math_question","","","","","","","","","","","{""Q0"":""14""}","[0]","14","",""
"","null","html-keyboard-response","54","195069","0.0-16.0-0.0","SS1617819464244","","","null","","","","","<p><img src= images/blank.png width =""600"" height = ""600"" style=""position:fixed;top:50%; left:50%; transform: translate(-50%, -50%); border:5px solid black"">","","","","","","","",""
"","1944.725000008475","sequential-stimulus-presentation","55","198017","0.0-16.0-1.0","SS1617819464244","trial","","40","1000","2944.725000008475","images/stimuli/spore_stims/complex_09_A_a.gif","images/stimuli/spore_stims/complex_11_A_b.gif","","4","complex_dissimilar","images/stimuli/spore_stims/complex_11_A_b.gif","","","","",""
"","null","html-keyboard-response","56","198835","0.0-16.0-0.1","SS1617819464244","","","null","","","","","<p><img src= images/blank.png width =""600"" height = ""600"" style=""position:fixed;top:50%; left:50%; transform: translate(-50%, -50%); border:5px solid black"">","","","","","","","",""
"","3938.739999997779","sequential-stimulus-presentation","57","203778","0.0-16.0-1.1","SS1617819464244","trial","","40","1000","4938.739999997779","images/stimuli/spore_stims/complex_09_A_a.gif","images/stimuli/spore_stims/complex_11_A_b.gif","","4","complex_dissimilar","images/stimuli/spore_stims/complex_11_A_b.gif","","","","",""
"","null","html-keyboard-response","58","204908","0.0-16.0-0.2","SS1617819464244","","","null","","","","","<p><img src= images/blank.png width =""600"" height = ""600"" style=""position:fixed;top:50%; left:50%; transform: translate(-50%, -50%); border:5px solid black"">","","","","","","","",""
"","2058.6099999927683","sequential-stimulus-presentation","59","207970","0.0-16.0-1.2","SS1617819464244","trial","","40","1000","3058.6099999927683","images/stimuli/spore_stims/complex_09_A_a.gif","images/stimuli/spore_stims/complex_11_A_b.gif","","4","complex_dissimilar","images/stimuli/spore_stims/complex_11_A_b.gif","","","","",""
"","null","html-keyboard-response","60","208785","0.0-16.0-0.3","SS1617819464244","","","null","","","","","<p><img src= images/blank.png width =""600"" height = ""600"" style=""position:fixed;top:50%; left:50%; transform: translate(-50%, -50%); border:5px solid black"">","","","","","","","",""
"","1390.2250000101048","sequential-stimulus-presentation","61","211178","0.0-16.0-1.3","SS1617819464244","trial","","40","1000","2390.225000010105","images/stimuli/spore_stims/complex_09_A_a.gif","images/stimuli/spore_stims/complex_11_A_b.gif","","4","complex_dissimilar","images/stimuli/spore_stims/complex_11_A_b.gif","","","","",""
"","null","html-keyboard-response","62","212295","0.0-16.0-0.4","SS1617819464244","","","null","","","","","<p><img src= images/blank.png width =""600"" height = ""600"" style=""position:fixed;top:50%; left:50%; transform: translate(-50%, -50%); border:5px solid black"">","","","","","","","",""
"","935.4299999977229","sequential-stimulus-presentation","63","214234","0.0-16.0-1.4","SS1617819464244","trial","","40","1000","1935.429999997723","images/stimuli/spore_stims/complex_09_A_a.gif","images/stimuli/spore_stims/complex_11_A_b.gif","","4","complex_dissimilar","images/stimuli/spore_stims/complex_11_A_b.gif","","","","",""
"","2776.3799999956973","survey-multi-choice","64","217011","0.0-17.0","SS1617819464244","math_question","","","","","","","","","","","{""Q0"":""9""}","[0]","9","",""
"","null","html-keyboard-response","65","218012","0.0-18.0-0.0","SS1617819464244","","","null","","","","","<p><img src= images/blank.png width =""600"" height = ""600"" style=""position:fixed;top:50%; left:50%; transform: translate(-50%, -50%); border:5px solid black"">","","","","","","","",""
"","1697.06999999471","sequential-stimulus-presentation","66","220713","0.0-18.0-1.0","SS1617819464244","trial","","40","1000","2697.06999999471","images/stimuli/spore_stims/simple_19_A_b.gif","images/stimuli/spore_stims/simple_02_A_a.gif","","5","simple_dissimilar","images/stimuli/spore_stims/simple_02_A_a.gif","","","","",""
"","null","html-keyboard-response","67","221953","0.0-18.0-0.1","SS1617819464244","","","null","","","","","<p><img src= images/blank.png width =""600"" height = ""600"" style=""position:fixed;top:50%; left:50%; transform: translate(-50%, -50%); border:5px solid black"">","","","","","","","",""
"","652.9699999955483","sequential-stimulus-presentation","68","223609","0.0-18.0-1.1","SS1617819464244","trial","","40","1000","1652.9699999955483","images/stimuli/spore_stims/simple_19_A_b.gif","images/stimuli/spore_stims/simple_02_A_a.gif","","5","simple_dissimilar","images/stimuli/spore_stims/simple_19_A_b.gif","","","","",""
"","null","html-keyboard-response","69","224689","0.0-18.0-0.2","SS1617819464244","","","null","","","","","<p><img src= images/blank.png width =""600"" height = ""600"" style=""position:fixed;top:50%; left:50%; transform: translate(-50%, -50%); border:5px solid black"">","","","","","","","",""
"","1173.000000009779","sequential-stimulus-presentation","70","226866","0.0-18.0-1.2","SS1617819464244","trial","","40","1000","2173.000000009779","images/stimuli/spore_stims/simple_19_A_b.gif","images/stimuli/spore_stims/simple_02_A_a.gif","","5","simple_dissimilar","images/stimuli/spore_stims/simple_19_A_b.gif","","","","",""
"","null","html-keyboard-response","71","227758","0.0-18.0-0.3","SS1617819464244","","","null","","","","","<p><img src= images/blank.png width =""600"" height = ""600"" style=""position:fixed;top:50%; left:50%; transform: translate(-50%, -50%); border:5px solid black"">","","","","","","","",""
"","1288.314999997965","sequential-stimulus-presentation","72","230050","0.0-18.0-1.3","SS1617819464244","trial","","40","1000","2288.314999997965","images/stimuli/spore_stims/simple_19_A_b.gif","images/stimuli/spore_stims/simple_02_A_a.gif","","5","simple_dissimilar","images/stimuli/spore_stims/simple_02_A_a.gif","","","","",""
"","3720.4899999924237","survey-multi-choice","73","233772","0.0-19.0","SS1617819464244","math_question","","","","","","","","","","","{""Q0"":""11""}","[0]","11","",""
"","null","html-keyboard-response","74","234866","0.0-20.0-0.0","SS1617819464244","","","null","","","","","<p><img src= images/blank.png width =""600"" height = ""600"" style=""position:fixed;top:50%; left:50%; transform: translate(-50%, -50%); border:5px solid black"">","","","","","","","",""
"","6795.964999997523","sequential-stimulus-presentation","75","242665","0.0-20.0-1.0","SS1617819464244","trial","","40","1000","7795.964999997523","images/stimuli/spore_stims/complex_15_A_b.gif","images/stimuli/spore_stims/complex_16_A_a.gif","","6","complex_dissimilar","images/stimuli/spore_stims/complex_16_A_a.gif","","","","",""
"","null","html-keyboard-response","76","243915","0.0-20.0-0.1","SS1617819464244","","","null","","","","","<p><img src= images/blank.png width =""600"" height = ""600"" style=""position:fixed;top:50%; left:50%; transform: translate(-50%, -50%); border:5px solid black"">","","","","","","","",""
"","1450.1100000052247","sequential-stimulus-presentation","77","246369","0.0-20.0-1.1","SS1617819464244","trial","","40","1000","2450.1100000052247","images/stimuli/spore_stims/complex_15_A_b.gif","images/stimuli/spore_stims/complex_16_A_a.gif","","6","complex_dissimilar","images/stimuli/spore_stims/complex_15_A_b.gif","","","","",""
"","null","html-keyboard-response","78","247448","0.0-20.0-0.2","SS1617819464244","","","null","","","","","<p><img src= images/blank.png width =""600"" height = ""600"" style=""position:fixed;top:50%; left:50%; transform: translate(-50%, -50%); border:5px solid black"">","","","","","","","",""
"","1972.6599999994505","sequential-stimulus-presentation","79","250425","0.0-20.0-1.2","SS1617819464244","trial","","40","1000","2972.6599999994505","images/stimuli/spore_stims/complex_15_A_b.gif","images/stimuli/spore_stims/complex_16_A_a.gif","","6","complex_dissimilar","images/stimuli/spore_stims/complex_16_A_a.gif","","","","",""
"","null","html-keyboard-response","80","251553","0.0-20.0-0.3","SS1617819464244","","","null","","","","","<p><img src= images/blank.png width =""600"" height = ""600"" style=""position:fixed;top:50%; left:50%; transform: translate(-50%, -50%); border:5px solid black"">","","","","","","","",""
"","2589.090000008582","sequential-stimulus-presentation","81","255146","0.0-20.0-1.3","SS1617819464244","trial","","40","1000","3589.090000008582","images/stimuli/spore_stims/complex_15_A_b.gif","images/stimuli/spore_stims/complex_16_A_a.gif","","6","complex_dissimilar","images/stimuli/spore_stims/complex_16_A_a.gif","","","","",""
"","null","html-keyboard-response","82","256040","0.0-20.0-0.4","SS1617819464244","","","null","","","","","<p><img src= images/blank.png width =""600"" height = ""600"" style=""position:fixed;top:50%; left:50%; transform: translate(-50%, -50%); border:5px solid black"">","","","","","","","",""
"","2901.9249999983003","sequential-stimulus-presentation","83","259945","0.0-20.0-1.4","SS1617819464244","trial","","40","1000","3901.9249999983003","images/stimuli/spore_stims/complex_15_A_b.gif","images/stimuli/spore_stims/complex_16_A_a.gif","","6","complex_dissimilar","images/stimuli/spore_stims/complex_16_A_a.gif","","","","",""
"","2815.8499999990454","survey-multi-choice","84","262763","0.0-21.0","SS1617819464244","math_question","","","","","","","","","","","{""Q0"":""9""}","[0]","9","",""
"","null","html-keyboard-response","85","263744","0.0-22.0-0.0","SS1617819464244","","","null","","","","","<p><img src= images/blank.png width =""600"" height = ""600"" style=""position:fixed;top:50%; left:50%; transform: translate(-50%, -50%); border:5px solid black"">","","","","","","","",""
"","1302.48000001302","sequential-stimulus-presentation","86","266050","0.0-22.0-1.0","SS1617819464244","trial","","40","1000","2302.48000001302","images/stimuli/spore_stims/complex_03_A_a.gif","images/stimuli/spore_stims/complex_07_A_b.gif","","7","complex_dissimilar","images/stimuli/spore_stims/complex_07_A_b.gif","","","","",""
"","null","html-keyboard-response","87","267241","0.0-22.0-0.1","SS1617819464244","","","null","","","","","<p><img src= images/blank.png width =""600"" height = ""600"" style=""position:fixed;top:50%; left:50%; transform: translate(-50%, -50%); border:5px solid black"">","","","","","","","",""
"","676.7499999987194","sequential-stimulus-presentation","88","268922","0.0-22.0-1.1","SS1617819464244","trial","","40","1000","1676.7499999987194","images/stimuli/spore_stims/complex_03_A_a.gif","images/stimuli/spore_stims/complex_07_A_b.gif","","7","complex_dissimilar","images/stimuli/spore_stims/complex_07_A_b.gif","","","","",""
"","null","html-keyboard-response","89","269852","0.0-22.0-0.2","SS1617819464244","","","null","","","","","<p><img src= images/blank.png width =""600"" height = ""600"" style=""position:fixed;top:50%; left:50%; transform: translate(-50%, -50%); border:5px solid black"">","","","","","","","",""
"","722.0850000012433","sequential-stimulus-presentation","90","271578","0.0-22.0-1.2","SS1617819464244","trial","","40","1000","1722.0850000012433","images/stimuli/spore_stims/complex_03_A_a.gif","images/stimuli/spore_stims/complex_07_A_b.gif","","7","complex_dissimilar","images/stimuli/spore_stims/complex_07_A_b.gif","","","","",""
"","null","html-keyboard-response","91","272776","0.0-22.0-0.3","SS1617819464244","","","null","","","","","<p><img src= images/blank.png width =""600"" height = ""600"" style=""position:fixed;top:50%; left:50%; transform: translate(-50%, -50%); border:5px solid black"">","","","","","","","",""
"","1053.3850000065286","sequential-stimulus-presentation","92","274833","0.0-22.0-1.3","SS1617819464244","trial","","40","1000","2053.3850000065286","images/stimuli/spore_stims/complex_03_A_a.gif","images/stimuli/spore_stims/complex_07_A_b.gif","","7","complex_dissimilar","images/stimuli/spore_stims/complex_07_A_b.gif","","","","",""
"","2384.0849999978673","survey-multi-choice","93","277219","0.0-23.0","SS1617819464244","math_question","","","","","","","","","","","{""Q0"":""5""}","[0]","5","",""
"","null","html-keyboard-response","94","278424","0.0-24.0-0.0","SS1617819464244","","","null","","","","","<p><img src= images/blank.png width =""600"" height = ""600"" style=""position:fixed;top:50%; left:50%; transform: translate(-50%, -50%); border:5px solid black"">","","","","","","","",""
"","2516.619999994873","sequential-stimulus-presentation","95","281945","0.0-24.0-1.0","SS1617819464244","trial","","40","1000","3516.619999994873","images/stimuli/spore_stims/simple_09_A_b.gif","images/stimuli/spore_stims/simple_03_A_a.gif","","8","simple_dissimilar","images/stimuli/spore_stims/simple_03_A_a.gif","","","","",""
"","null","html-keyboard-response","96","282817","0.0-24.0-0.1","SS1617819464244","","","null","","","","","<p><img src= images/blank.png width =""600"" height = ""600"" style=""position:fixed;top:50%; left:50%; transform: translate(-50%, -50%); border:5px solid black"">","","","","","","","",""
"","621.274999997695","sequential-stimulus-presentation","97","284442","0.0-24.0-1.1","SS1617819464244","trial","","40","1000","1621.274999997695","images/stimuli/spore_stims/simple_09_A_b.gif","images/stimuli/spore_stims/simple_03_A_a.gif","","8","simple_dissimilar","images/stimuli/spore_stims/simple_03_A_a.gif","","","","",""
"","null","html-keyboard-response","98","285566","0.0-24.0-0.2","SS1617819464244","","","null","","","","","<p><img src= images/blank.png width =""600"" height = ""600"" style=""position:fixed;top:50%; left:50%; transform: translate(-50%, -50%); border:5px solid black"">","","","","","","","",""
"","2824.07499999681","sequential-stimulus-presentation","99","289393","0.0-24.0-1.2","SS1617819464244","trial","","40","1000","3824.07499999681","images/stimuli/spore_stims/simple_09_A_b.gif","images/stimuli/spore_stims/simple_03_A_a.gif","","8","simple_dissimilar","images/stimuli/spore_stims/simple_09_A_b.gif","","","","",""
"","null","html-keyboard-response","100","290617","0.0-24.0-0.3","SS1617819464244","","","null","","","","","<p><img src= images/blank.png width =""600"" height = ""600"" style=""position:fixed;top:50%; left:50%; transform: translate(-50%, -50%); border:5px solid black"">","","","","","","","",""
"","1132.2649999929126","sequential-stimulus-presentation","101","292753","0.0-24.0-1.3","SS1617819464244","trial","","40","1000","2132.2649999929126","images/stimuli/spore_stims/simple_09_A_b.gif","images/stimuli/spore_stims/simple_03_A_a.gif","","8","simple_dissimilar","images/stimuli/spore_stims/simple_03_A_a.gif","","","","",""
"","null","html-keyboard-response","102","293960","0.0-24.0-0.4","SS1617819464244","","","null","","","","","<p><img src= images/blank.png width =""600"" height = ""600"" style=""position:fixed;top:50%; left:50%; transform: translate(-50%, -50%); border:5px solid black"">","","","","","","","",""
"","2285.2100000018254","sequential-stimulus-presentation","103","297249","0.0-24.0-1.4","SS1617819464244","trial","","40","1000","3285.2100000018254","images/stimuli/spore_stims/simple_09_A_b.gif","images/stimuli/spore_stims/simple_03_A_a.gif","","8","simple_dissimilar","images/stimuli/spore_stims/simple_09_A_b.gif","","","","",""
"","null","html-keyboard-response","104","298403","0.0-24.0-0.5","SS1617819464244","","","null","","","","","<p><img src= images/blank.png width =""600"" height = ""600"" style=""position:fixed;top:50%; left:50%; transform: translate(-50%, -50%); border:5px solid black"">","","","","","","","",""
"","1610.0199999928009","sequential-stimulus-presentation","105","301017","0.0-24.0-1.5","SS1617819464244","trial","","40","1000","2610.019999992801","images/stimuli/spore_stims/simple_09_A_b.gif","images/stimuli/spore_stims/simple_03_A_a.gif","","8","simple_dissimilar","images/stimuli/spore_stims/simple_03_A_a.gif","","","","",""
"","2304.2500000010477","survey-multi-choice","106","303324","0.0-25.0","SS1617819464244","math_question","","","","","","","","","","","{""Q0"":""8""}","[0]","8","",""
"","null","html-keyboard-response","107","304396","0.0-26.0-0.0","SS1617819464244","","","null","","","","","<p><img src= images/blank.png width =""600"" height = ""600"" style=""position:fixed;top:50%; left:50%; transform: translate(-50%, -50%); border:5px solid black"">","","","","","","","",""
"","2089.204999996582","sequential-stimulus-presentation","108","307489","0.0-26.0-1.0","SS1617819464244","trial","","40","1000","3089.204999996582","images/stimuli/spore_stims/simple_12_A_b.gif","images/stimuli/spore_stims/simple_19_A_a.gif","","9","simple_dissimilar","images/stimuli/spore_stims/simple_19_A_a.gif","","","","",""
"","null","html-keyboard-response","109","308749","0.0-26.0-0.1","SS1617819464244","","","null","","","","","<p><img src= images/blank.png width =""600"" height = ""600"" style=""position:fixed;top:50%; left:50%; transform: translate(-50%, -50%); border:5px solid black"">","","","","","","","",""
"","3312.950000006822","sequential-stimulus-presentation","110","313066","0.0-26.0-1.1","SS1617819464244","trial","","40","1000","4312.950000006822","images/stimuli/spore_stims/simple_12_A_b.gif","images/stimuli/spore_stims/simple_19_A_a.gif","","9","simple_dissimilar","images/stimuli/spore_stims/simple_12_A_b.gif","","","","",""
"","null","html-keyboard-response","111","313962","0.0-26.0-0.2","SS1617819464244","","","null","","","","","<p><img src= images/blank.png width =""600"" height = ""600"" style=""position:fixed;top:50%; left:50%; transform: translate(-50%, -50%); border:5px solid black"">","","","","","","","",""
"","651.2300000031246","sequential-stimulus-presentation","112","315617","0.0-26.0-1.2","SS1617819464244","trial","","40","1000","1651.2300000031246","images/stimuli/spore_stims/simple_12_A_b.gif","images/stimuli/spore_stims/simple_19_A_a.gif","","9","simple_dissimilar","images/stimuli/spore_stims/simple_19_A_a.gif","","","","",""
"","null","html-keyboard-response","113","316878","0.0-26.0-0.3","SS1617819464244","","","null","","","","","<p><img src= images/blank.png width =""600"" height = ""600"" style=""position:fixed;top:50%; left:50%; transform: translate(-50%, -50%); border:5px solid black"">","","","","","","","",""
"","399.24499999324325","sequential-stimulus-presentation","114","318281","0.0-26.0-1.3","SS1617819464244","trial","","40","1000","1399.2449999932433","images/stimuli/spore_stims/simple_12_A_b.gif","images/stimuli/spore_stims/simple_19_A_a.gif","","9","simple_dissimilar","images/stimuli/spore_stims/simple_19_A_a.gif","","","","",""
"","null","html-keyboard-response","115","319293","0.0-26.0-0.4","SS1617819464244","","","null","","","","","<p><img src= images/blank.png width =""600"" height = ""600"" style=""position:fixed;top:50%; left:50%; transform: translate(-50%, -50%); border:5px solid black"">","","","","","","","",""
"","497.2600000037346","sequential-stimulus-presentation","116","320794","0.0-26.0-1.4","SS1617819464244","trial","","40","1000","1497.2600000037346","images/stimuli/spore_stims/simple_12_A_b.gif","images/stimuli/spore_stims/simple_19_A_a.gif","","9","simple_dissimilar","images/stimuli/spore_stims/simple_19_A_a.gif","","","","",""
"","null","html-keyboard-response","117","321885","0.0-26.0-0.5","SS1617819464244","","","null","","","","","<p><img src= images/blank.png width =""600"" height = ""600"" style=""position:fixed;top:50%; left:50%; transform: translate(-50%, -50%); border:5px solid black"">","","","","","","","",""
"","505.0000000046566","sequential-stimulus-presentation","118","323393","0.0-26.0-1.5","SS1617819464244","trial","","40","1000","1505.0000000046566","images/stimuli/spore_stims/simple_12_A_b.gif","images/stimuli/spore_stims/simple_19_A_a.gif","","9","simple_dissimilar","images/stimuli/spore_stims/simple_19_A_a.gif","","","","",""
"","3056.060000002617","survey-multi-choice","119","326451","0.0-27.0","SS1617819464244","math_question","","","","","","","","","","","{""Q0"":""3""}","[0]","3","",""
"","null","html-keyboard-response","120","327489","0.0-28.0-0.0","SS1617819464244","","","null","","","","","<p><img src= images/blank.png width =""600"" height = ""600"" style=""position:fixed;top:50%; left:50%; transform: translate(-50%, -50%); border:5px solid black"">","","","","","","","",""
"","1106.6700000083074","sequential-stimulus-presentation","121","329601","0.0-28.0-1.0","SS1617819464244","trial","","40","1000","2106.6700000083074","images/stimuli/spore_stims/simple_06_A_b.gif","images/stimuli/spore_stims/simple_11_A_a.gif","","10","simple_dissimilar","images/stimuli/spore_stims/simple_11_A_a.gif","","","","",""
"","null","html-keyboard-response","122","330723","0.0-28.0-0.1","SS1617819464244","","","null","","","","","<p><img src= images/blank.png width =""600"" height = ""600"" style=""position:fixed;top:50%; left:50%; transform: translate(-50%, -50%); border:5px solid black"">","","","","","","","",""
"","986.2750000029337","sequential-stimulus-presentation","123","332713","0.0-28.0-1.1","SS1617819464244","trial","","40","1000","1986.2750000029337","images/stimuli/spore_stims/simple_06_A_b.gif","images/stimuli/spore_stims/simple_11_A_a.gif","","10","simple_dissimilar","images/stimuli/spore_stims/simple_06_A_b.gif","","","","",""
"","null","html-keyboard-response","124","333753","0.0-28.0-0.2","SS1617819464244","","","null","","","","","<p><img src= images/blank.png width =""600"" height = ""600"" style=""position:fixed;top:50%; left:50%; transform: translate(-50%, -50%); border:5px solid black"">","","","","","","","",""
"","629.5149999932619","sequential-stimulus-presentation","125","335385","0.0-28.0-1.2","SS1617819464244","trial","","40","1000","1629.5149999932619","images/stimuli/spore_stims/simple_06_A_b.gif","images/stimuli/spore_stims/simple_11_A_a.gif","","10","simple_dissimilar","images/stimuli/spore_stims/simple_11_A_a.gif","","","","",""
"","null","html-keyboard-response","126","336225","0.0-28.0-0.3","SS1617819464244","","","null","","","","","<p><img src= images/blank.png width =""600"" height = ""600"" style=""position:fixed;top:50%; left:50%; transform: translate(-50%, -50%); border:5px solid black"">","","","","","","","",""
"","347.9749999969499","sequential-stimulus-presentation","127","337577","0.0-28.0-1.3","SS1617819464244","trial","","40","1000","1347.97499999695","images/stimuli/spore_stims/simple_06_A_b.gif","images/stimuli/spore_stims/simple_11_A_a.gif","","10","simple_dissimilar","images/stimuli/spore_stims/simple_11_A_a.gif","","","","",""
"","2672.1050000051036","survey-multi-choice","128","340251","0.0-29.0","SS1617819464244","math_question","","","","","","","","","","","{""Q0"":""4""}","[0]","4","",""
"","null","html-keyboard-response","129","341381","0.0-30.0-0.0","SS1617819464244","","","null","","","","","<p><img src= images/blank.png width =""600"" height = ""600"" style=""position:fixed;top:50%; left:50%; transform: translate(-50%, -50%); border:5px solid black"">","","","","","","","",""
"","1518.5900000069523","sequential-stimulus-presentation","130","343905","0.0-30.0-1.0","SS1617819464244","trial","","40","1000","2518.5900000069523","images/stimuli/spore_stims/complex_15_A_a.gif","images/stimuli/spore_stims/complex_01_A_b.gif","","11","complex_dissimilar","images/stimuli/spore_stims/complex_01_A_b.gif","","","","",""
"","null","html-keyboard-response","131","345142","0.0-30.0-0.1","SS1617819464244","","","null","","","","","<p><img src= images/blank.png width =""600"" height = ""600"" style=""position:fixed;top:50%; left:50%; transform: translate(-50%, -50%); border:5px solid black"">","","","","","","","",""
"","537.3499999986961","sequential-stimulus-presentation","132","346682","0.0-30.0-1.1","SS1617819464244","trial","","40","1000","1537.3499999986961","images/stimuli/spore_stims/complex_15_A_a.gif","images/stimuli/spore_stims/complex_01_A_b.gif","","11","complex_dissimilar","images/stimuli/spore_stims/complex_01_A_b.gif","","","","",""
"","null","html-keyboard-response","133","347909","0.0-30.0-0.2","SS1617819464244","","","null","","","","","<p><img src= images/blank.png width =""600"" height = ""600"" style=""position:fixed;top:50%; left:50%; transform: translate(-50%, -50%); border:5px solid black"">","","","","","","","",""
"","280.80000000773","sequential-stimulus-presentation","134","349194","0.0-30.0-1.2","SS1617819464244","trial","","40","1000","1280.80000000773","images/stimuli/spore_stims/complex_15_A_a.gif","images/stimuli/spore_stims/complex_01_A_b.gif","","11","complex_dissimilar","images/stimuli/spore_stims/complex_01_A_b.gif","","","","",""
"","null","html-keyboard-response","135","350025","0.0-30.0-0.3","SS1617819464244","","","null","","","","","<p><img src= images/blank.png width =""600"" height = ""600"" style=""position:fixed;top:50%; left:50%; transform: translate(-50%, -50%); border:5px solid black"">","","","","","","","",""
"","244.58500000764616","sequential-stimulus-presentation","136","351272","0.0-30.0-1.3","SS1617819464244","trial","","40","1000","1244.5850000076462","images/stimuli/spore_stims/complex_15_A_a.gif","images/stimuli/spore_stims/complex_01_A_b.gif","","11","complex_dissimilar","images/stimuli/spore_stims/complex_01_A_b.gif","","","","",""
"","null","html-keyboard-response","137","352224","0.0-30.0-0.4","SS1617819464244","","","null","","","","","<p><img src= images/blank.png width =""600"" height = ""600"" style=""position:fixed;top:50%; left:50%; transform: translate(-50%, -50%); border:5px solid black"">","","","","","","","",""
"","61.47000000055414","sequential-stimulus-presentation","138","353288","0.0-30.0-1.4","SS1617819464244","trial","","40","1000","1061.4700000005541","images/stimuli/spore_stims/complex_15_A_a.gif","images/stimuli/spore_stims/complex_01_A_b.gif","","11","complex_dissimilar","images/stimuli/spore_stims/complex_01_A_b.gif","","","","",""
"","null","html-keyboard-response","139","354564","0.0-30.0-0.5","SS1617819464244","","","null","","","","","<p><img src= images/blank.png width =""600"" height = ""600"" style=""position:fixed;top:50%; left:50%; transform: translate(-50%, -50%); border:5px solid black"">","","","","","","","",""
"","353.54999999981374","sequential-stimulus-presentation","140","355922","0.0-30.0-1.5","SS1617819464244","trial","","40","1000","1353.5499999998137","images/stimuli/spore_stims/complex_15_A_a.gif","images/stimuli/spore_stims/complex_01_A_b.gif","","11","complex_dissimilar","images/stimuli/spore_stims/complex_15_A_a.gif","","","","",""
"[{""page_index"":0,""viewing_time"":7063.085000001593}]","7063.309999997728","instructions","141","362987","0.0-31.0","SS1617819464244","instructions","","","","","","","","","","","","","","",""
"","31333.555000004708","survey-likert","142","394324","0.0-32.0","SS1617819464244","similarity_question","","","","","","","","","","","{""Q0"":1}","[0]","","images/stimuli/spore_stims/complex_15_A_a.gif","images/stimuli/spore_stims/complex_01_A_b.gif"
"","4772.624999997788","survey-likert","143","399099","0.0-33.0","SS1617819464244","similarity_question","","","","","","","","","","","{""Q0"":2}","[0]","","images/stimuli/spore_stims/simple_19_A_b.gif","images/stimuli/spore_stims/simple_02_A_a.gif"
"","4404.92999998969","survey-likert","144","403507","0.0-34.0","SS1617819464244","similarity_question","","","","","","","","","","","{""Q0"":2}","[0]","","images/stimuli/spore_stims/simple_07_A_a.gif","images/stimuli/spore_stims/simple_08_A_b.gif"
"","5125.9399999980815","survey-likert","145","408635","0.0-35.0","SS1617819464244","similarity_question","","","","","","","","","","","{""Q0"":2}","[0]","","images/stimuli/spore_stims/complex_04_A_b.gif","images/stimuli/spore_stims/complex_11_A_a.gif"
"","2253.450000003795","survey-likert","146","410892","0.0-36.0","SS1617819464244","similarity_question","","","","","","","","","","","{""Q0"":4}","[0]","","images/stimuli/spore_stims/simple_09_A_b.gif","images/stimuli/spore_stims/simple_03_A_a.gif"
"","4068.3200000057695","survey-likert","147","414963","0.0-37.0","SS1617819464244","similarity_question","","","","","","","","","","","{""Q0"":2}","[0]","","images/stimuli/spore_stims/complex_11_A_b.gif","images/stimuli/spore_stims/complex_09_A_a.gif"
"","5181.094999992638","survey-likert","148","420147","0.0-38.0","SS1617819464244","similarity_question","","","","","","","","","","","{""Q0"":4}","[0]","","images/stimuli/spore_stims/complex_16_A_b.gif","images/stimuli/spore_stims/complex_14_A_a.gif"
"","2492.9450000054203","survey-likert","149","422643","0.0-39.0","SS1617819464244","similarity_question","","","","","","","","","","","{""Q0"":4}","[0]","","images/stimuli/spore_stims/simple_06_A_b.gif","images/stimuli/spore_stims/simple_11_A_a.gif"
"","5837.8000000084285","survey-likert","150","428483","0.0-40.0","SS1617819464244","similarity_question","","","","","","","","","","","{""Q0"":4}","[0]","","images/stimuli/spore_stims/complex_15_A_b.gif","images/stimuli/spore_stims/complex_16_A_a.gif"
"","3156.7700000014156","survey-likert","151","431643","0.0-41.0","SS1617819464244","similarity_question","","","","","","","","","","","{""Q0"":5}","[0]","","images/stimuli/spore_stims/simple_19_A_a.gif","images/stimuli/spore_stims/simple_12_A_b.gif"
"","2148.975000003702","survey-likert","152","433795","0.0-42.0","SS1617819464244","similarity_question","","","","","","","","","","","{""Q0"":4}","[0]","","images/stimuli/spore_stims/complex_03_A_a.gif","images/stimuli/spore_stims/complex_07_A_b.gif"
"","1877.0499999955064","survey-likert","153","435675","0.0-43.0","SS1617819464244","similarity_question","","","","","","","","","","","{""Q0"":5}","[0]","","images/stimuli/spore_stims/simple_04_A_b.gif","images/stimuli/spore_stims/simple_06_A_a.gif"
"[{""page_index"":0,""viewing_time"":5109.835000010207}]","5110.0250000017695","instructions","154","440787","0.0-44.0","SS1617819464244","instructions","","","","","","","","","","","","","","",""
"","4293.3349999948405","survey-likert","155","445083","0.0-45.0","SS1617819464244","","","","","","","","images/stimuli/spore_stims/simple_19_A_a.gif","","","","{""Q0"":1}","[0]","","",""
"","4996.914999996079","survey-likert","156","450083","0.0-46.0","SS1617819464244","","","","","","","","images/stimuli/spore_stims/complex_04_A_b.gif","","","","{""Q0"":5}","[0]","","",""
"","5389.2199999972945","survey-likert","157","455475","0.0-47.0","SS1617819464244","","","","","","","","images/stimuli/spore_stims/complex_15_A_a.gif","","","","{""Q0"":4}","[0]","","",""
"","2541.5500000090105","survey-likert","158","458019","0.0-48.0","SS1617819464244","","","","","","","","images/stimuli/spore_stims/complex_16_A_b.gif","","","","{""Q0"":5}","[0]","","",""
"","2492.920000004233","survey-likert","159","460515","0.0-49.0","SS1617819464244","","","","","","","","images/stimuli/spore_stims/simple_02_A_a.gif","","","","{""Q0"":1}","[0]","","",""
"","2364.8949999915203","survey-likert","160","462883","0.0-50.0","SS1617819464244","","","","","","","","images/stimuli/spore_stims/complex_11_A_b.gif","","","","{""Q0"":4}","[0]","","",""
"","2316.565000000992","survey-likert","161","465203","0.0-51.0","SS1617819464244","","","","","","","","images/stimuli/spore_stims/simple_09_A_b.gif","","","","{""Q0"":1}","[0]","","",""
"","2605.569999999716","survey-likert","162","467811","0.0-52.0","SS1617819464244","","","","","","","","images/stimuli/spore_stims/complex_07_A_b.gif","","","","{""Q0"":4}","[0]","","",""
"","1764.7399999987101","survey-likert","163","469579","0.0-53.0","SS1617819464244","","","","","","","","images/stimuli/spore_stims/simple_11_A_a.gif","","","","{""Q0"":1}","[0]","","",""
"","2013.3700000005774","survey-likert","164","471595","0.0-54.0","SS1617819464244","","","","","","","","images/stimuli/spore_stims/complex_16_A_a.gif","","","","{""Q0"":4}","[0]","","",""
"","2029.1500000021188","survey-likert","165","473627","0.0-55.0","SS1617819464244","","","","","","","","images/stimuli/spore_stims/simple_06_A_a.gif","","","","{""Q0"":2}","[0]","","",""
"","2405.8099999965634","survey-likert","166","476035","0.0-56.0","SS1617819464244","","","","","","","","images/stimuli/spore_stims/simple_07_A_a.gif","","","","{""Q0"":0}","[0]","","",""
"[{""page_index"":0,""viewing_time"":1812.565000000177}]","1812.7799999929266","instructions","167","477851","0.0-57.0","SS1617819464244","instructions","","","","","","","","","","","","","","",""
"","2733.6150000046473","demog-age","168","480588","0.0-58.0","SS1617819464244","","","","","","","","","","","","{""age"":""24""}","","","",""
"","4547.42499999702","demog-ethnic-US","169","485139","0.0-59.0","SS1617819464244","","","","","","","","","","","","{""ethnicity"":[""White""]}","[0]","","",""
"","17228.310000005877","demog-gender-and-education","170","502371","0.0-60.0","SS1617819464244","","","","","","","","","","","","{""gender"":""Male"",""education"":""Bachelor's Degree""}","[0,1]","","",""
"","18603.959999993094","survey-text","171","520978","0.0-61.0","SS1617819464244","feedback","","","","","","","","","","","{""Q0"":""Everything worked fine!""}","","","",""
"[{""page_index"":0,""viewing_time"":2341.440000003786}]","2341.6399999987334","instructions","172","523322","0.0-62.0","SS1617819464244","instructions","","","","","","","","","","","","","","",""
