"view_history","rt","trial_type","trial_index","time_elapsed","internal_node_id","subject","stimulus_type","trial_stimulus","key_press","minimum_viewing_duration","trial_looking_time","block_deviant","block_background","stimulus","block_number","block_type","stimulus_displayed","responses","question_order","math_correct_answer","stimulus_left","stimulus_right"
"[{""page_index"":0,""viewing_time"":14311}]","14311","instructions","0","14313","0.0-0.0","SS1617819278525","","","","","","","","","","","","","","","",""
"[{""page_index"":0,""viewing_time"":16828},{""page_index"":1,""viewing_time"":10437}]","27265","instructions","1","43581","0.0-1.0","SS1617819278525","instructions","","","","","","","","","","","","","","",""
"","6332","sequential-stimulus-presentation-old","2","50515","0.0-2.0","SS1617819278525","","","40","600","6932","null","null","","","","","","","","",""
"","7642.000000000015","sequential-stimulus-presentation-old","3","58660","0.0-3.0","SS1617819278525","","","40","500","8142.000000000015","null","null","","","","","","","","",""
"[{""page_index"":0,""viewing_time"":17218}]","17218","instructions","4","75879","0.0-4.0","SS1617819278525","instructions","","","","","","","","","","","","","","",""
"","4757","sequential-stimulus-presentation","5","81641","0.0-5.0","SS1617819278525","","","40","1000","5757","null","null","","","","","","","","",""
"[{""page_index"":0,""viewing_time"":5354}]","5354","instructions","6","86996","0.0-6.0","SS1617819278525","instructions","","","","","","","","","","","","","","",""
"[{""page_index"":0,""viewing_time"":8118},{""page_index"":1,""viewing_time"":8357},{""page_index"":2,""viewing_time"":5123.000000000015},{""page_index"":3,""viewing_time"":1491.9999999999854},{""page_index"":4,""viewing_time"":2461}]","25552","instructions","7","112548","0.0-7.0","SS1617819278525","instructions","","","","","","","","","","","","","","",""
"","null","html-keyboard-response","8","113768","0.0-8.0-0.0","SS1617819278525","","","null","","","","","<p><img src= images/blank.png width =""600"" height = ""600"" style=""position:fixed;top:50%; left:50%; transform: translate(-50%, -50%); border:5px solid black"">","","","","","","","",""
"","3652","sequential-stimulus-presentation","9","118424","0.0-8.0-1.0","SS1617819278525","trial","","40","1000","4652","images/stimuli/spore_stims/simple_17_A_a.gif","images/stimuli/spore_stims/simple_07_A_b.gif","","0","simple_dissimilar","images/stimuli/spore_stims/simple_07_A_b.gif","","","","",""
"","null","html-keyboard-response","10","119584","0.0-8.0-0.1","SS1617819278525","","","null","","","","","<p><img src= images/blank.png width =""600"" height = ""600"" style=""position:fixed;top:50%; left:50%; transform: translate(-50%, -50%); border:5px solid black"">","","","","","","","",""
"","2183","sequential-stimulus-presentation","11","122770","0.0-8.0-1.1","SS1617819278525","trial","","40","1000","3183","images/stimuli/spore_stims/simple_17_A_a.gif","images/stimuli/spore_stims/simple_07_A_b.gif","","0","simple_dissimilar","images/stimuli/spore_stims/simple_07_A_b.gif","","","","",""
"","null","html-keyboard-response","12","123992","0.0-8.0-0.2","SS1617819278525","","","null","","","","","<p><img src= images/blank.png width =""600"" height = ""600"" style=""position:fixed;top:50%; left:50%; transform: translate(-50%, -50%); border:5px solid black"">","","","","","","","",""
"","4533","sequential-stimulus-presentation","13","129528","0.0-8.0-1.2","SS1617819278525","trial","","40","1000","5533","images/stimuli/spore_stims/simple_17_A_a.gif","images/stimuli/spore_stims/simple_07_A_b.gif","","0","simple_dissimilar","images/stimuli/spore_stims/simple_17_A_a.gif","","","","",""
"","null","html-keyboard-response","14","130629","0.0-8.0-0.3","SS1617819278525","","","null","","","","","<p><img src= images/blank.png width =""600"" height = ""600"" style=""position:fixed;top:50%; left:50%; transform: translate(-50%, -50%); border:5px solid black"">","","","","","","","",""
"","3270","sequential-stimulus-presentation","15","134903","0.0-8.0-1.3","SS1617819278525","trial","","40","1000","4270","images/stimuli/spore_stims/simple_17_A_a.gif","images/stimuli/spore_stims/simple_07_A_b.gif","","0","simple_dissimilar","images/stimuli/spore_stims/simple_07_A_b.gif","","","","",""
"","null","html-keyboard-response","16","135898","0.0-8.0-0.4","SS1617819278525","","","null","","","","","<p><img src= images/blank.png width =""600"" height = ""600"" style=""position:fixed;top:50%; left:50%; transform: translate(-50%, -50%); border:5px solid black"">","","","","","","","",""
"","5816","sequential-stimulus-presentation","17","142718","0.0-8.0-1.4","SS1617819278525","trial","","40","1000","6816","images/stimuli/spore_stims/simple_17_A_a.gif","images/stimuli/spore_stims/simple_07_A_b.gif","","0","simple_dissimilar","images/stimuli/spore_stims/simple_07_A_b.gif","","","","",""
"","3810","survey-multi-choice","18","146531","0.0-9.0","SS1617819278525","math_question","","","","","","","","","","","{""Q0"":""14""}","[0]","14","",""
"","null","html-keyboard-response","19","147448","0.0-10.0-0.0","SS1617819278525","","","null","","","","","<p><img src= images/blank.png width =""600"" height = ""600"" style=""position:fixed;top:50%; left:50%; transform: translate(-50%, -50%); border:5px solid black"">","","","","","","","",""
"","6051","sequential-stimulus-presentation","20","154502","0.0-10.0-1.0","SS1617819278525","trial","","40","1000","7051","images/stimuli/spore_stims/simple_11_A_b.gif","images/stimuli/spore_stims/simple_09_A_a.gif","","1","simple_dissimilar","images/stimuli/spore_stims/simple_09_A_a.gif","","","","",""
"","null","html-keyboard-response","21","155761","0.0-10.0-0.1","SS1617819278525","","","null","","","","","<p><img src= images/blank.png width =""600"" height = ""600"" style=""position:fixed;top:50%; left:50%; transform: translate(-50%, -50%); border:5px solid black"">","","","","","","","",""
"","4513","sequential-stimulus-presentation","22","161275","0.0-10.0-1.1","SS1617819278525","trial","","40","1000","5513","images/stimuli/spore_stims/simple_11_A_b.gif","images/stimuli/spore_stims/simple_09_A_a.gif","","1","simple_dissimilar","images/stimuli/spore_stims/simple_09_A_a.gif","","","","",""
"","null","html-keyboard-response","23","162112","0.0-10.0-0.2","SS1617819278525","","","null","","","","","<p><img src= images/blank.png width =""600"" height = ""600"" style=""position:fixed;top:50%; left:50%; transform: translate(-50%, -50%); border:5px solid black"">","","","","","","","",""
"","1316","sequential-stimulus-presentation","24","164430","0.0-10.0-1.2","SS1617819278525","trial","","40","1000","2316","images/stimuli/spore_stims/simple_11_A_b.gif","images/stimuli/spore_stims/simple_09_A_a.gif","","1","simple_dissimilar","images/stimuli/spore_stims/simple_09_A_a.gif","","","","",""
"","null","html-keyboard-response","25","165398","0.0-10.0-0.3","SS1617819278525","","","null","","","","","<p><img src= images/blank.png width =""600"" height = ""600"" style=""position:fixed;top:50%; left:50%; transform: translate(-50%, -50%); border:5px solid black"">","","","","","","","",""
"","557","sequential-stimulus-presentation","26","166957","0.0-10.0-1.3","SS1617819278525","trial","","40","1000","1557","images/stimuli/spore_stims/simple_11_A_b.gif","images/stimuli/spore_stims/simple_09_A_a.gif","","1","simple_dissimilar","images/stimuli/spore_stims/simple_09_A_a.gif","","","","",""
"","null","html-keyboard-response","27","168084","0.0-10.0-0.4","SS1617819278525","","","null","","","","","<p><img src= images/blank.png width =""600"" height = ""600"" style=""position:fixed;top:50%; left:50%; transform: translate(-50%, -50%); border:5px solid black"">","","","","","","","",""
"","3078","sequential-stimulus-presentation","28","172166","0.0-10.0-1.4","SS1617819278525","trial","","40","1000","4078","images/stimuli/spore_stims/simple_11_A_b.gif","images/stimuli/spore_stims/simple_09_A_a.gif","","1","simple_dissimilar","images/stimuli/spore_stims/simple_11_A_b.gif","","","","",""
"","2727","survey-multi-choice","29","174895","0.0-11.0","SS1617819278525","math_question","","","","","","","","","","","{""Q0"":""16""}","[0]","16","",""
"","null","html-keyboard-response","30","175905","0.0-12.0-0.0","SS1617819278525","","","null","","","","","<p><img src= images/blank.png width =""600"" height = ""600"" style=""position:fixed;top:50%; left:50%; transform: translate(-50%, -50%); border:5px solid black"">","","","","","","","",""
"","9460","sequential-stimulus-presentation","31","186368","0.0-12.0-1.0","SS1617819278525","trial","","40","1000","10460","images/stimuli/spore_stims/complex_10_A_b.gif","images/stimuli/spore_stims/complex_16_A_a.gif","","2","complex_dissimilar","images/stimuli/spore_stims/complex_16_A_a.gif","","","","",""
"","null","html-keyboard-response","32","187599","0.0-12.0-0.1","SS1617819278525","","","null","","","","","<p><img src= images/blank.png width =""600"" height = ""600"" style=""position:fixed;top:50%; left:50%; transform: translate(-50%, -50%); border:5px solid black"">","","","","","","","",""
"","8459","sequential-stimulus-presentation","33","197062","0.0-12.0-1.1","SS1617819278525","trial","","40","1000","9459","images/stimuli/spore_stims/complex_10_A_b.gif","images/stimuli/spore_stims/complex_16_A_a.gif","","2","complex_dissimilar","images/stimuli/spore_stims/complex_16_A_a.gif","","","","",""
"","null","html-keyboard-response","34","198349","0.0-12.0-0.2","SS1617819278525","","","null","","","","","<p><img src= images/blank.png width =""600"" height = ""600"" style=""position:fixed;top:50%; left:50%; transform: translate(-50%, -50%); border:5px solid black"">","","","","","","","",""
"","2337","sequential-stimulus-presentation","35","201690","0.0-12.0-1.2","SS1617819278525","trial","","40","1000","3337","images/stimuli/spore_stims/complex_10_A_b.gif","images/stimuli/spore_stims/complex_16_A_a.gif","","2","complex_dissimilar","images/stimuli/spore_stims/complex_16_A_a.gif","","","","",""
"","null","html-keyboard-response","36","202831","0.0-12.0-0.3","SS1617819278525","","","null","","","","","<p><img src= images/blank.png width =""600"" height = ""600"" style=""position:fixed;top:50%; left:50%; transform: translate(-50%, -50%); border:5px solid black"">","","","","","","","",""
"","2575","sequential-stimulus-presentation","37","206410","0.0-12.0-1.3","SS1617819278525","trial","","40","1000","3575","images/stimuli/spore_stims/complex_10_A_b.gif","images/stimuli/spore_stims/complex_16_A_a.gif","","2","complex_dissimilar","images/stimuli/spore_stims/complex_16_A_a.gif","","","","",""
"","2317","survey-multi-choice","38","208728","0.0-13.0","SS1617819278525","math_question","","","","","","","","","","","{""Q0"":""12""}","[0]","12","",""
"","null","html-keyboard-response","39","209823","0.0-14.0-0.0","SS1617819278525","","","null","","","","","<p><img src= images/blank.png width =""600"" height = ""600"" style=""position:fixed;top:50%; left:50%; transform: translate(-50%, -50%); border:5px solid black"">","","","","","","","",""
"","5941","sequential-stimulus-presentation","40","216768","0.0-14.0-1.0","SS1617819278525","trial","","40","1000","6941","images/stimuli/spore_stims/simple_17_A_b.gif","images/stimuli/spore_stims/simple_04_A_a.gif","","3","simple_dissimilar","images/stimuli/spore_stims/simple_04_A_a.gif","","","","",""
"","null","html-keyboard-response","41","217902","0.0-14.0-0.1","SS1617819278525","","","null","","","","","<p><img src= images/blank.png width =""600"" height = ""600"" style=""position:fixed;top:50%; left:50%; transform: translate(-50%, -50%); border:5px solid black"">","","","","","","","",""
"","4458","sequential-stimulus-presentation","42","223367","0.0-14.0-1.1","SS1617819278525","trial","","40","1000","5458","images/stimuli/spore_stims/simple_17_A_b.gif","images/stimuli/spore_stims/simple_04_A_a.gif","","3","simple_dissimilar","images/stimuli/spore_stims/simple_04_A_a.gif","","","","",""
"","null","html-keyboard-response","43","224430","0.0-14.0-0.2","SS1617819278525","","","null","","","","","<p><img src= images/blank.png width =""600"" height = ""600"" style=""position:fixed;top:50%; left:50%; transform: translate(-50%, -50%); border:5px solid black"">","","","","","","","",""
"","2887.999999999971","sequential-stimulus-presentation","44","228322","0.0-14.0-1.2","SS1617819278525","trial","","40","1000","3887.999999999971","images/stimuli/spore_stims/simple_17_A_b.gif","images/stimuli/spore_stims/simple_04_A_a.gif","","3","simple_dissimilar","images/stimuli/spore_stims/simple_04_A_a.gif","","","","",""
"","null","html-keyboard-response","45","229569","0.0-14.0-0.3","SS1617819278525","","","null","","","","","<p><img src= images/blank.png width =""600"" height = ""600"" style=""position:fixed;top:50%; left:50%; transform: translate(-50%, -50%); border:5px solid black"">","","","","","","","",""
"","859","sequential-stimulus-presentation","46","231432","0.0-14.0-1.3","SS1617819278525","trial","","40","1000","1859","images/stimuli/spore_stims/simple_17_A_b.gif","images/stimuli/spore_stims/simple_04_A_a.gif","","3","simple_dissimilar","images/stimuli/spore_stims/simple_04_A_a.gif","","","","",""
"","2387","survey-multi-choice","47","233820","0.0-15.0","SS1617819278525","math_question","","","","","","","","","","","{""Q0"":""16""}","[0]","16","",""
"","null","html-keyboard-response","48","234631","0.0-16.0-0.0","SS1617819278525","","","null","","","","","<p><img src= images/blank.png width =""600"" height = ""600"" style=""position:fixed;top:50%; left:50%; transform: translate(-50%, -50%); border:5px solid black"">","","","","","","","",""
"","4056","sequential-stimulus-presentation","49","239692","0.0-16.0-1.0","SS1617819278525","trial","","40","1000","5056","images/stimuli/spore_stims/simple_11_A_a.gif","images/stimuli/spore_stims/simple_05_A_b.gif","","4","simple_dissimilar","images/stimuli/spore_stims/simple_05_A_b.gif","","","","",""
"","null","html-keyboard-response","50","240576","0.0-16.0-0.1","SS1617819278525","","","null","","","","","<p><img src= images/blank.png width =""600"" height = ""600"" style=""position:fixed;top:50%; left:50%; transform: translate(-50%, -50%); border:5px solid black"">","","","","","","","",""
"","5218","sequential-stimulus-presentation","51","246799","0.0-16.0-1.1","SS1617819278525","trial","","40","1000","6218","images/stimuli/spore_stims/simple_11_A_a.gif","images/stimuli/spore_stims/simple_05_A_b.gif","","4","simple_dissimilar","images/stimuli/spore_stims/simple_11_A_a.gif","","","","",""
"","null","html-keyboard-response","52","247725","0.0-16.0-0.2","SS1617819278525","","","null","","","","","<p><img src= images/blank.png width =""600"" height = ""600"" style=""position:fixed;top:50%; left:50%; transform: translate(-50%, -50%); border:5px solid black"">","","","","","","","",""
"","6147","sequential-stimulus-presentation","53","254875","0.0-16.0-1.2","SS1617819278525","trial","","40","1000","7147","images/stimuli/spore_stims/simple_11_A_a.gif","images/stimuli/spore_stims/simple_05_A_b.gif","","4","simple_dissimilar","images/stimuli/spore_stims/simple_05_A_b.gif","","","","",""
"","null","html-keyboard-response","54","256073","0.0-16.0-0.3","SS1617819278525","","","null","","","","","<p><img src= images/blank.png width =""600"" height = ""600"" style=""position:fixed;top:50%; left:50%; transform: translate(-50%, -50%); border:5px solid black"">","","","","","","","",""
"","5199","sequential-stimulus-presentation","55","262275","0.0-16.0-1.3","SS1617819278525","trial","","40","1000","6199","images/stimuli/spore_stims/simple_11_A_a.gif","images/stimuli/spore_stims/simple_05_A_b.gif","","4","simple_dissimilar","images/stimuli/spore_stims/simple_05_A_b.gif","","","","",""
"","null","html-keyboard-response","56","263262","0.0-16.0-0.4","SS1617819278525","","","null","","","","","<p><img src= images/blank.png width =""600"" height = ""600"" style=""position:fixed;top:50%; left:50%; transform: translate(-50%, -50%); border:5px solid black"">","","","","","","","",""
"","380","sequential-stimulus-presentation","57","264646","0.0-16.0-1.4","SS1617819278525","trial","","40","1000","1380","images/stimuli/spore_stims/simple_11_A_a.gif","images/stimuli/spore_stims/simple_05_A_b.gif","","4","simple_dissimilar","images/stimuli/spore_stims/simple_11_A_a.gif","","","","",""
"","2758","survey-multi-choice","58","267407","0.0-17.0","SS1617819278525","math_question","","","","","","","","","","","{""Q0"":""9""}","[0]","9","",""
"","null","html-keyboard-response","59","268433","0.0-18.0-0.0","SS1617819278525","","","null","","","","","<p><img src= images/blank.png width =""600"" height = ""600"" style=""position:fixed;top:50%; left:50%; transform: translate(-50%, -50%); border:5px solid black"">","","","","","","","",""
"","11060.999999999942","sequential-stimulus-presentation","60","280498","0.0-18.0-1.0","SS1617819278525","trial","","40","1000","12060.999999999942","images/stimuli/spore_stims/complex_05_A_a.gif","images/stimuli/spore_stims/complex_03_A_b.gif","","5","complex_dissimilar","images/stimuli/spore_stims/complex_03_A_b.gif","","","","",""
"","null","html-keyboard-response","61","281794","0.0-18.0-0.1","SS1617819278525","","","null","","","","","<p><img src= images/blank.png width =""600"" height = ""600"" style=""position:fixed;top:50%; left:50%; transform: translate(-50%, -50%); border:5px solid black"">","","","","","","","",""
"","8840","sequential-stimulus-presentation","62","291638","0.0-18.0-1.1","SS1617819278525","trial","","40","1000","9840","images/stimuli/spore_stims/complex_05_A_a.gif","images/stimuli/spore_stims/complex_03_A_b.gif","","5","complex_dissimilar","images/stimuli/spore_stims/complex_03_A_b.gif","","","","",""
"","null","html-keyboard-response","63","292546","0.0-18.0-0.2","SS1617819278525","","","null","","","","","<p><img src= images/blank.png width =""600"" height = ""600"" style=""position:fixed;top:50%; left:50%; transform: translate(-50%, -50%); border:5px solid black"">","","","","","","","",""
"","3304.999999999942","sequential-stimulus-presentation","64","296855","0.0-18.0-1.2","SS1617819278525","trial","","40","1000","4304.999999999942","images/stimuli/spore_stims/complex_05_A_a.gif","images/stimuli/spore_stims/complex_03_A_b.gif","","5","complex_dissimilar","images/stimuli/spore_stims/complex_03_A_b.gif","","","","",""
"","null","html-keyboard-response","65","297704","0.0-18.0-0.3","SS1617819278525","","","null","","","","","<p><img src= images/blank.png width =""600"" height = ""600"" style=""position:fixed;top:50%; left:50%; transform: translate(-50%, -50%); border:5px solid black"">","","","","","","","",""
"","13881","sequential-stimulus-presentation","66","312589","0.0-18.0-1.3","SS1617819278525","trial","","40","1000","14881","images/stimuli/spore_stims/complex_05_A_a.gif","images/stimuli/spore_stims/complex_03_A_b.gif","","5","complex_dissimilar","images/stimuli/spore_stims/complex_05_A_a.gif","","","","",""
"","8418.999999999942","survey-multi-choice","67","321010","0.0-19.0","SS1617819278525","math_question","","","","","","","","","","","{""Q0"":""13""}","[0]","13","",""
"","null","html-keyboard-response","68","321931","0.0-20.0-0.0","SS1617819278525","","","null","","","","","<p><img src= images/blank.png width =""600"" height = ""600"" style=""position:fixed;top:50%; left:50%; transform: translate(-50%, -50%); border:5px solid black"">","","","","","","","",""
"","8324","sequential-stimulus-presentation","69","331259","0.0-20.0-1.0","SS1617819278525","trial","","40","1000","9324","images/stimuli/spore_stims/complex_19_A_a.gif","images/stimuli/spore_stims/complex_05_A_b.gif","","6","complex_dissimilar","images/stimuli/spore_stims/complex_05_A_b.gif","","","","",""
"","null","html-keyboard-response","70","332207","0.0-20.0-0.1","SS1617819278525","","","null","","","","","<p><img src= images/blank.png width =""600"" height = ""600"" style=""position:fixed;top:50%; left:50%; transform: translate(-50%, -50%); border:5px solid black"">","","","","","","","",""
"","9167.000000000058","sequential-stimulus-presentation","71","342377","0.0-20.0-1.1","SS1617819278525","trial","","40","1000","10167.000000000058","images/stimuli/spore_stims/complex_19_A_a.gif","images/stimuli/spore_stims/complex_05_A_b.gif","","6","complex_dissimilar","images/stimuli/spore_stims/complex_19_A_a.gif","","","","",""
"","null","html-keyboard-response","72","343281","0.0-20.0-0.2","SS1617819278525","","","null","","","","","<p><img src= images/blank.png width =""600"" height = ""600"" style=""position:fixed;top:50%; left:50%; transform: translate(-50%, -50%); border:5px solid black"">","","","","","","","",""
"","2446","sequential-stimulus-presentation","73","346733","0.0-20.0-1.2","SS1617819278525","trial","","40","1000","3446","images/stimuli/spore_stims/complex_19_A_a.gif","images/stimuli/spore_stims/complex_05_A_b.gif","","6","complex_dissimilar","images/stimuli/spore_stims/complex_05_A_b.gif","","","","",""
"","null","html-keyboard-response","74","347843","0.0-20.0-0.3","SS1617819278525","","","null","","","","","<p><img src= images/blank.png width =""600"" height = ""600"" style=""position:fixed;top:50%; left:50%; transform: translate(-50%, -50%); border:5px solid black"">","","","","","","","",""
"","4950.999999999942","sequential-stimulus-presentation","75","353799","0.0-20.0-1.3","SS1617819278525","trial","","40","1000","5950.999999999942","images/stimuli/spore_stims/complex_19_A_a.gif","images/stimuli/spore_stims/complex_05_A_b.gif","","6","complex_dissimilar","images/stimuli/spore_stims/complex_19_A_a.gif","","","","",""
"","null","html-keyboard-response","76","354640","0.0-20.0-0.4","SS1617819278525","","","null","","","","","<p><img src= images/blank.png width =""600"" height = ""600"" style=""position:fixed;top:50%; left:50%; transform: translate(-50%, -50%); border:5px solid black"">","","","","","","","",""
"","3976","sequential-stimulus-presentation","77","359621","0.0-20.0-1.4","SS1617819278525","trial","","40","1000","4976","images/stimuli/spore_stims/complex_19_A_a.gif","images/stimuli/spore_stims/complex_05_A_b.gif","","6","complex_dissimilar","images/stimuli/spore_stims/complex_05_A_b.gif","","","","",""
"","3517","survey-multi-choice","78","363140","0.0-21.0","SS1617819278525","math_question","","","","","","","","","","","{""Q0"":""2""}","[0]","2","",""
"","null","html-keyboard-response","79","364440","0.0-22.0-0.0","SS1617819278525","","","null","","","","","<p><img src= images/blank.png width =""600"" height = ""600"" style=""position:fixed;top:50%; left:50%; transform: translate(-50%, -50%); border:5px solid black"">","","","","","","","",""
"","9048","sequential-stimulus-presentation","80","374492","0.0-22.0-1.0","SS1617819278525","trial","","40","1000","10048","images/stimuli/spore_stims/complex_02_A_b.gif","images/stimuli/spore_stims/complex_12_A_a.gif","","7","complex_dissimilar","images/stimuli/spore_stims/complex_12_A_a.gif","","","","",""
"","null","html-keyboard-response","81","375627","0.0-22.0-0.1","SS1617819278525","","","null","","","","","<p><img src= images/blank.png width =""600"" height = ""600"" style=""position:fixed;top:50%; left:50%; transform: translate(-50%, -50%); border:5px solid black"">","","","","","","","",""
"","5697","sequential-stimulus-presentation","82","382328","0.0-22.0-1.1","SS1617819278525","trial","","40","1000","6697","images/stimuli/spore_stims/complex_02_A_b.gif","images/stimuli/spore_stims/complex_12_A_a.gif","","7","complex_dissimilar","images/stimuli/spore_stims/complex_12_A_a.gif","","","","",""
"","null","html-keyboard-response","83","383296","0.0-22.0-0.2","SS1617819278525","","","null","","","","","<p><img src= images/blank.png width =""600"" height = ""600"" style=""position:fixed;top:50%; left:50%; transform: translate(-50%, -50%); border:5px solid black"">","","","","","","","",""
"","6789","sequential-stimulus-presentation","84","391091","0.0-22.0-1.2","SS1617819278525","trial","","40","1000","7789","images/stimuli/spore_stims/complex_02_A_b.gif","images/stimuli/spore_stims/complex_12_A_a.gif","","7","complex_dissimilar","images/stimuli/spore_stims/complex_02_A_b.gif","","","","",""
"","null","html-keyboard-response","85","392099","0.0-22.0-0.3","SS1617819278525","","","null","","","","","<p><img src= images/blank.png width =""600"" height = ""600"" style=""position:fixed;top:50%; left:50%; transform: translate(-50%, -50%); border:5px solid black"">","","","","","","","",""
"","2613","sequential-stimulus-presentation","86","395717","0.0-22.0-1.3","SS1617819278525","trial","","40","1000","3613","images/stimuli/spore_stims/complex_02_A_b.gif","images/stimuli/spore_stims/complex_12_A_a.gif","","7","complex_dissimilar","images/stimuli/spore_stims/complex_12_A_a.gif","","","","",""
"","3382","survey-multi-choice","87","399102","0.0-23.0","SS1617819278525","math_question","","","","","","","","","","","{""Q0"":""7""}","[0]","7","",""
"","null","html-keyboard-response","88","400086","0.0-24.0-0.0","SS1617819278525","","","null","","","","","<p><img src= images/blank.png width =""600"" height = ""600"" style=""position:fixed;top:50%; left:50%; transform: translate(-50%, -50%); border:5px solid black"">","","","","","","","",""
"","11835.000000000058","sequential-stimulus-presentation","89","412925","0.0-24.0-1.0","SS1617819278525","trial","","40","1000","12835.000000000058","images/stimuli/spore_stims/complex_19_A_b.gif","images/stimuli/spore_stims/complex_02_A_a.gif","","8","complex_dissimilar","images/stimuli/spore_stims/complex_02_A_a.gif","","","","",""
"","null","html-keyboard-response","90","413806","0.0-24.0-0.1","SS1617819278525","","","null","","","","","<p><img src= images/blank.png width =""600"" height = ""600"" style=""position:fixed;top:50%; left:50%; transform: translate(-50%, -50%); border:5px solid black"">","","","","","","","",""
"","4148","sequential-stimulus-presentation","91","418960","0.0-24.0-1.1","SS1617819278525","trial","","40","1000","5148","images/stimuli/spore_stims/complex_19_A_b.gif","images/stimuli/spore_stims/complex_02_A_a.gif","","8","complex_dissimilar","images/stimuli/spore_stims/complex_02_A_a.gif","","","","",""
"","null","html-keyboard-response","92","420109","0.0-24.0-0.2","SS1617819278525","","","null","","","","","<p><img src= images/blank.png width =""600"" height = ""600"" style=""position:fixed;top:50%; left:50%; transform: translate(-50%, -50%); border:5px solid black"">","","","","","","","",""
"","1335.0000000000582","sequential-stimulus-presentation","93","422449","0.0-24.0-1.2","SS1617819278525","trial","","40","1000","2335.000000000058","images/stimuli/spore_stims/complex_19_A_b.gif","images/stimuli/spore_stims/complex_02_A_a.gif","","8","complex_dissimilar","images/stimuli/spore_stims/complex_02_A_a.gif","","","","",""
"","null","html-keyboard-response","94","423734","0.0-24.0-0.3","SS1617819278525","","","null","","","","","<p><img src= images/blank.png width =""600"" height = ""600"" style=""position:fixed;top:50%; left:50%; transform: translate(-50%, -50%); border:5px solid black"">","","","","","","","",""
"","6761","sequential-stimulus-presentation","95","431498","0.0-24.0-1.3","SS1617819278525","trial","","40","1000","7761","images/stimuli/spore_stims/complex_19_A_b.gif","images/stimuli/spore_stims/complex_02_A_a.gif","","8","complex_dissimilar","images/stimuli/spore_stims/complex_02_A_a.gif","","","","",""
"","null","html-keyboard-response","96","432625","0.0-24.0-0.4","SS1617819278525","","","null","","","","","<p><img src= images/blank.png width =""600"" height = ""600"" style=""position:fixed;top:50%; left:50%; transform: translate(-50%, -50%); border:5px solid black"">","","","","","","","",""
"","9858","sequential-stimulus-presentation","97","443488","0.0-24.0-1.4","SS1617819278525","trial","","40","1000","10858","images/stimuli/spore_stims/complex_19_A_b.gif","images/stimuli/spore_stims/complex_02_A_a.gif","","8","complex_dissimilar","images/stimuli/spore_stims/complex_02_A_a.gif","","","","",""
"","4770.000000000058","survey-multi-choice","98","448264","0.0-25.0","SS1617819278525","math_question","","","","","","","","","","","{""Q0"":""10""}","[0]","10","",""
"","null","html-keyboard-response","99","449255","0.0-26.0-0.0","SS1617819278525","","","null","","","","","<p><img src= images/blank.png width =""600"" height = ""600"" style=""position:fixed;top:50%; left:50%; transform: translate(-50%, -50%); border:5px solid black"">","","","","","","","",""
"","9753.999999999942","sequential-stimulus-presentation","100","460013","0.0-26.0-1.0","SS1617819278525","trial","","40","1000","10753.999999999942","images/stimuli/spore_stims/complex_16_A_b.gif","images/stimuli/spore_stims/complex_08_A_a.gif","","9","complex_dissimilar","images/stimuli/spore_stims/complex_08_A_a.gif","","","","",""
"","null","html-keyboard-response","101","461072","0.0-26.0-0.1","SS1617819278525","","","null","","","","","<p><img src= images/blank.png width =""600"" height = ""600"" style=""position:fixed;top:50%; left:50%; transform: translate(-50%, -50%); border:5px solid black"">","","","","","","","",""
"","947","sequential-stimulus-presentation","102","463023","0.0-26.0-1.1","SS1617819278525","trial","","40","1000","1947","images/stimuli/spore_stims/complex_16_A_b.gif","images/stimuli/spore_stims/complex_08_A_a.gif","","9","complex_dissimilar","images/stimuli/spore_stims/complex_08_A_a.gif","","","","",""
"","null","html-keyboard-response","103","464320","0.0-26.0-0.2","SS1617819278525","","","null","","","","","<p><img src= images/blank.png width =""600"" height = ""600"" style=""position:fixed;top:50%; left:50%; transform: translate(-50%, -50%); border:5px solid black"">","","","","","","","",""
"","587","sequential-stimulus-presentation","104","465912","0.0-26.0-1.2","SS1617819278525","trial","","40","1000","1587","images/stimuli/spore_stims/complex_16_A_b.gif","images/stimuli/spore_stims/complex_08_A_a.gif","","9","complex_dissimilar","images/stimuli/spore_stims/complex_08_A_a.gif","","","","",""
"","null","html-keyboard-response","105","466767","0.0-26.0-0.3","SS1617819278525","","","null","","","","","<p><img src= images/blank.png width =""600"" height = ""600"" style=""position:fixed;top:50%; left:50%; transform: translate(-50%, -50%); border:5px solid black"">","","","","","","","",""
"","4815","sequential-stimulus-presentation","106","472588","0.0-26.0-1.3","SS1617819278525","trial","","40","1000","5815","images/stimuli/spore_stims/complex_16_A_b.gif","images/stimuli/spore_stims/complex_08_A_a.gif","","9","complex_dissimilar","images/stimuli/spore_stims/complex_08_A_a.gif","","","","",""
"","null","html-keyboard-response","107","473749","0.0-26.0-0.4","SS1617819278525","","","null","","","","","<p><img src= images/blank.png width =""600"" height = ""600"" style=""position:fixed;top:50%; left:50%; transform: translate(-50%, -50%); border:5px solid black"">","","","","","","","",""
"","1882","sequential-stimulus-presentation","108","476637","0.0-26.0-1.4","SS1617819278525","trial","","40","1000","2882","images/stimuli/spore_stims/complex_16_A_b.gif","images/stimuli/spore_stims/complex_08_A_a.gif","","9","complex_dissimilar","images/stimuli/spore_stims/complex_08_A_a.gif","","","","",""
"","null","html-keyboard-response","109","477775","0.0-26.0-0.5","SS1617819278525","","","null","","","","","<p><img src= images/blank.png width =""600"" height = ""600"" style=""position:fixed;top:50%; left:50%; transform: translate(-50%, -50%); border:5px solid black"">","","","","","","","",""
"","766","sequential-stimulus-presentation","110","479548","0.0-26.0-1.5","SS1617819278525","trial","","40","1000","1766","images/stimuli/spore_stims/complex_16_A_b.gif","images/stimuli/spore_stims/complex_08_A_a.gif","","9","complex_dissimilar","images/stimuli/spore_stims/complex_08_A_a.gif","","","","",""
"","2594","survey-multi-choice","111","482144","0.0-27.0","SS1617819278525","math_question","","","","","","","","","","","{""Q0"":""8""}","[0]","8","",""
"","null","html-keyboard-response","112","483310","0.0-28.0-0.0","SS1617819278525","","","null","","","","","<p><img src= images/blank.png width =""600"" height = ""600"" style=""position:fixed;top:50%; left:50%; transform: translate(-50%, -50%); border:5px solid black"">","","","","","","","",""
"","7418","sequential-stimulus-presentation","113","491732","0.0-28.0-1.0","SS1617819278525","trial","","40","1000","8418","images/stimuli/spore_stims/simple_20_A_b.gif","images/stimuli/spore_stims/simple_19_A_a.gif","","10","simple_dissimilar","images/stimuli/spore_stims/simple_19_A_a.gif","","","","",""
"","null","html-keyboard-response","114","492917","0.0-28.0-0.1","SS1617819278525","","","null","","","","","<p><img src= images/blank.png width =""600"" height = ""600"" style=""position:fixed;top:50%; left:50%; transform: translate(-50%, -50%); border:5px solid black"">","","","","","","","",""
"","1734.0000000000582","sequential-stimulus-presentation","115","495658","0.0-28.0-1.1","SS1617819278525","trial","","40","1000","2734.000000000058","images/stimuli/spore_stims/simple_20_A_b.gif","images/stimuli/spore_stims/simple_19_A_a.gif","","10","simple_dissimilar","images/stimuli/spore_stims/simple_20_A_b.gif","","","","",""
"","null","html-keyboard-response","116","496612","0.0-28.0-0.2","SS1617819278525","","","null","","","","","<p><img src= images/blank.png width =""600"" height = ""600"" style=""position:fixed;top:50%; left:50%; transform: translate(-50%, -50%); border:5px solid black"">","","","","","","","",""
"","623.0000000000582","sequential-stimulus-presentation","117","498241","0.0-28.0-1.2","SS1617819278525","trial","","40","1000","1623.0000000000582","images/stimuli/spore_stims/simple_20_A_b.gif","images/stimuli/spore_stims/simple_19_A_a.gif","","10","simple_dissimilar","images/stimuli/spore_stims/simple_19_A_a.gif","","","","",""
"","null","html-keyboard-response","118","499090","0.0-28.0-0.3","SS1617819278525","","","null","","","","","<p><img src= images/blank.png width =""600"" height = ""600"" style=""position:fixed;top:50%; left:50%; transform: translate(-50%, -50%); border:5px solid black"">","","","","","","","",""
"","1518","sequential-stimulus-presentation","119","501613","0.0-28.0-1.3","SS1617819278525","trial","","40","1000","2518","images/stimuli/spore_stims/simple_20_A_b.gif","images/stimuli/spore_stims/simple_19_A_a.gif","","10","simple_dissimilar","images/stimuli/spore_stims/simple_19_A_a.gif","","","","",""
"","3093.999999999942","survey-multi-choice","120","504710","0.0-29.0","SS1617819278525","math_question","","","","","","","","","","","{""Q0"":""4""}","[0]","4","",""
"","null","html-keyboard-response","121","505977","0.0-30.0-0.0","SS1617819278525","","","null","","","","","<p><img src= images/blank.png width =""600"" height = ""600"" style=""position:fixed;top:50%; left:50%; transform: translate(-50%, -50%); border:5px solid black"">","","","","","","","",""
"","4595","sequential-stimulus-presentation","122","511576","0.0-30.0-1.0","SS1617819278525","trial","","40","1000","5595","images/stimuli/spore_stims/simple_13_A_b.gif","images/stimuli/spore_stims/simple_18_A_a.gif","","11","simple_dissimilar","images/stimuli/spore_stims/simple_18_A_a.gif","","","","",""
"","null","html-keyboard-response","123","512505","0.0-30.0-0.1","SS1617819278525","","","null","","","","","<p><img src= images/blank.png width =""600"" height = ""600"" style=""position:fixed;top:50%; left:50%; transform: translate(-50%, -50%); border:5px solid black"">","","","","","","","",""
"","4379","sequential-stimulus-presentation","124","517887","0.0-30.0-1.1","SS1617819278525","trial","","40","1000","5379","images/stimuli/spore_stims/simple_13_A_b.gif","images/stimuli/spore_stims/simple_18_A_a.gif","","11","simple_dissimilar","images/stimuli/spore_stims/simple_18_A_a.gif","","","","",""
"","null","html-keyboard-response","125","518961","0.0-30.0-0.2","SS1617819278525","","","null","","","","","<p><img src= images/blank.png width =""600"" height = ""600"" style=""position:fixed;top:50%; left:50%; transform: translate(-50%, -50%); border:5px solid black"">","","","","","","","",""
"","3050","sequential-stimulus-presentation","126","523016","0.0-30.0-1.2","SS1617819278525","trial","","40","1000","4050","images/stimuli/spore_stims/simple_13_A_b.gif","images/stimuli/spore_stims/simple_18_A_a.gif","","11","simple_dissimilar","images/stimuli/spore_stims/simple_18_A_a.gif","","","","",""
"","null","html-keyboard-response","127","524152","0.0-30.0-0.3","SS1617819278525","","","null","","","","","<p><img src= images/blank.png width =""600"" height = ""600"" style=""position:fixed;top:50%; left:50%; transform: translate(-50%, -50%); border:5px solid black"">","","","","","","","",""
"","1579.0000000001164","sequential-stimulus-presentation","128","526736","0.0-30.0-1.3","SS1617819278525","trial","","40","1000","2579.0000000001164","images/stimuli/spore_stims/simple_13_A_b.gif","images/stimuli/spore_stims/simple_18_A_a.gif","","11","simple_dissimilar","images/stimuli/spore_stims/simple_18_A_a.gif","","","","",""
"","null","html-keyboard-response","129","528011","0.0-30.0-0.4","SS1617819278525","","","null","","","","","<p><img src= images/blank.png width =""600"" height = ""600"" style=""position:fixed;top:50%; left:50%; transform: translate(-50%, -50%); border:5px solid black"">","","","","","","","",""
"","3400","sequential-stimulus-presentation","130","532416","0.0-30.0-1.4","SS1617819278525","trial","","40","1000","4400","images/stimuli/spore_stims/simple_13_A_b.gif","images/stimuli/spore_stims/simple_18_A_a.gif","","11","simple_dissimilar","images/stimuli/spore_stims/simple_13_A_b.gif","","","","",""
"[{""page_index"":0,""viewing_time"":7132.999999999884}]","7132.999999999884","instructions","131","539552","0.0-31.0","SS1617819278525","instructions","","","","","","","","","","","","","","",""
"","10777","survey-likert","132","550333","0.0-32.0","SS1617819278525","similarity_question","","","","","","","","","","","{""Q0"":4}","[0]","","images/stimuli/spore_stims/complex_08_A_a.gif","images/stimuli/spore_stims/complex_16_A_b.gif"
"","3317.9999999998836","survey-likert","133","553655","0.0-33.0","SS1617819278525","similarity_question","","","","","","","","","","","{""Q0"":5}","[0]","","images/stimuli/spore_stims/simple_04_A_a.gif","images/stimuli/spore_stims/simple_17_A_b.gif"
"","4363","survey-likert","134","558021","0.0-34.0","SS1617819278525","similarity_question","","","","","","","","","","","{""Q0"":2}","[0]","","images/stimuli/spore_stims/simple_13_A_b.gif","images/stimuli/spore_stims/simple_18_A_a.gif"
"","5829","survey-likert","135","563854","0.0-35.0","SS1617819278525","similarity_question","","","","","","","","","","","{""Q0"":2}","[0]","","images/stimuli/spore_stims/complex_03_A_b.gif","images/stimuli/spore_stims/complex_05_A_a.gif"
"","4328","survey-likert","136","568186","0.0-36.0","SS1617819278525","similarity_question","","","","","","","","","","","{""Q0"":4}","[0]","","images/stimuli/spore_stims/complex_19_A_b.gif","images/stimuli/spore_stims/complex_02_A_a.gif"
"","3369","survey-likert","137","571558","0.0-37.0","SS1617819278525","similarity_question","","","","","","","","","","","{""Q0"":5}","[0]","","images/stimuli/spore_stims/simple_11_A_a.gif","images/stimuli/spore_stims/simple_05_A_b.gif"
"","6120","survey-likert","138","577682","0.0-38.0","SS1617819278525","similarity_question","","","","","","","","","","","{""Q0"":5}","[0]","","images/stimuli/spore_stims/simple_11_A_b.gif","images/stimuli/spore_stims/simple_09_A_a.gif"
"","6849","survey-likert","139","584535","0.0-39.0","SS1617819278525","similarity_question","","","","","","","","","","","{""Q0"":2}","[0]","","images/stimuli/spore_stims/complex_12_A_a.gif","images/stimuli/spore_stims/complex_02_A_b.gif"
"","5351.999999999884","survey-likert","140","589891","0.0-40.0","SS1617819278525","similarity_question","","","","","","","","","","","{""Q0"":5}","[0]","","images/stimuli/spore_stims/simple_07_A_b.gif","images/stimuli/spore_stims/simple_17_A_a.gif"
"","3665.9999999998836","survey-likert","141","593561","0.0-41.0","SS1617819278525","similarity_question","","","","","","","","","","","{""Q0"":4}","[0]","","images/stimuli/spore_stims/complex_05_A_b.gif","images/stimuli/spore_stims/complex_19_A_a.gif"
"","4997","survey-likert","142","598562","0.0-42.0","SS1617819278525","similarity_question","","","","","","","","","","","{""Q0"":5}","[0]","","images/stimuli/spore_stims/simple_20_A_b.gif","images/stimuli/spore_stims/simple_19_A_a.gif"
"","8982","survey-likert","143","607548","0.0-43.0","SS1617819278525","similarity_question","","","","","","","","","","","{""Q0"":3}","[0]","","images/stimuli/spore_stims/complex_10_A_b.gif","images/stimuli/spore_stims/complex_16_A_a.gif"
"[{""page_index"":0,""viewing_time"":4292}]","4292","instructions","144","611843","0.0-44.0","SS1617819278525","instructions","","","","","","","","","","","","","","",""
"","4448","survey-likert","145","616295","0.0-45.0","SS1617819278525","","","","","","","","images/stimuli/spore_stims/simple_17_A_b.gif","","","","{""Q0"":1}","[0]","","",""
"","3041","survey-likert","146","619339","0.0-46.0","SS1617819278525","","","","","","","","images/stimuli/spore_stims/complex_16_A_a.gif","","","","{""Q0"":5}","[0]","","",""
"","3210","survey-likert","147","622552","0.0-47.0","SS1617819278525","","","","","","","","images/stimuli/spore_stims/simple_13_A_b.gif","","","","{""Q0"":0}","[0]","","",""
"","4612","survey-likert","148","627167","0.0-48.0","SS1617819278525","","","","","","","","images/stimuli/spore_stims/complex_02_A_b.gif","","","","{""Q0"":5}","[0]","","",""
"","3444.0000000001164","survey-likert","149","630615","0.0-49.0","SS1617819278525","","","","","","","","images/stimuli/spore_stims/simple_11_A_b.gif","","","","{""Q0"":1}","[0]","","",""
"","5508","survey-likert","150","636128","0.0-50.0","SS1617819278525","","","","","","","","images/stimuli/spore_stims/complex_19_A_a.gif","","","","{""Q0"":5}","[0]","","",""
"","2317","survey-likert","151","638449","0.0-51.0","SS1617819278525","","","","","","","","images/stimuli/spore_stims/complex_19_A_b.gif","","","","{""Q0"":5}","[0]","","",""
"","4148","survey-likert","152","642601","0.0-52.0","SS1617819278525","","","","","","","","images/stimuli/spore_stims/complex_03_A_b.gif","","","","{""Q0"":4}","[0]","","",""
"","12027","survey-likert","153","654632","0.0-53.0","SS1617819278525","","","","","","","","images/stimuli/spore_stims/simple_11_A_a.gif","","","","{""Q0"":1}","[0]","","",""
"","6020","survey-likert","154","660655","0.0-54.0","SS1617819278525","","","","","","","","images/stimuli/spore_stims/simple_19_A_a.gif","","","","{""Q0"":1}","[0]","","",""
"","7967","survey-likert","155","668627","0.0-55.0","SS1617819278525","","","","","","","","images/stimuli/spore_stims/simple_17_A_a.gif","","","","{""Q0"":0}","[0]","","",""
"","3289","survey-likert","156","671919","0.0-56.0","SS1617819278525","","","","","","","","images/stimuli/spore_stims/complex_16_A_b.gif","","","","{""Q0"":6}","[0]","","",""
"[{""page_index"":0,""viewing_time"":2099}]","2099","instructions","157","674022","0.0-57.0","SS1617819278525","instructions","","","","","","","","","","","","","","",""
"","3515","demog-age","158","677548","0.0-58.0","SS1617819278525","","","","","","","","","","","","{""age"":""20""}","","","",""
"","4171","demog-ethnic-US","159","681724","0.0-59.0","SS1617819278525","","","","","","","","","","","","{""ethnicity"":[""White""]}","[0]","","",""
"","16389","demog-gender-and-education","160","698116","0.0-60.0","SS1617819278525","","","","","","","","","","","","{""gender"":""Male"",""education"":""Bachelor's Degree""}","[0,1]","","",""
"","18607","survey-text","161","716733","0.0-61.0","SS1617819278525","feedback","","","","","","","","","","","{""Q0"":""Everything was fine! :)""}","","","",""
"[{""page_index"":0,""viewing_time"":2489}]","2489","instructions","162","719225","0.0-62.0","SS1617819278525","instructions","","","","","","","","","","","","","","",""
