"view_history","rt","trial_type","trial_index","time_elapsed","internal_node_id","subject","stimulus_type","trial_stimulus","key_press","minimum_viewing_duration","trial_looking_time","block_deviant","block_background","stimulus","block_number","block_type","stimulus_displayed","responses","question_order","math_correct_answer","stimulus_left","stimulus_right"
"[{""page_index"":0,""viewing_time"":3841.565000009723}]","3842.995000013616","instructions","0","3848","0.0-0.0","SS1617819495716","","","","","","","","","","","","","","","",""
"[{""page_index"":0,""viewing_time"":17462.35000001616},{""page_index"":1,""viewing_time"":36803.8499999966}]","54266.63500000723","instructions","1","60121","0.0-1.0","SS1617819495716","instructions","","","","","","","","","","","","","","",""
"","3442.7050000231247","sequential-stimulus-presentation-old","2","64171","0.0-2.0","SS1617819495716","","","40","600","4042.7050000231247","null","null","","","","","","","","",""
"","1835.9749999945052","sequential-stimulus-presentation-old","3","66513","0.0-3.0","SS1617819495716","","","40","500","2335.974999994505","null","null","","","","","","","","",""
"[{""page_index"":0,""viewing_time"":8074.434999987716}]","8074.854999984382","instructions","4","74589","0.0-4.0","SS1617819495716","instructions","","","","","","","","","","","","","","",""
"","2484.215000004042","sequential-stimulus-presentation","5","78078","0.0-5.0","SS1617819495716","","","40","1000","3484.215000004042","null","null","","","","","","","","",""
"[{""page_index"":0,""viewing_time"":3412.834999995539}]","3413.1950000009965","instructions","6","81492","0.0-6.0","SS1617819495716","instructions","","","","","","","","","","","","","","",""
"[{""page_index"":0,""viewing_time"":7372.910000005504},{""page_index"":1,""viewing_time"":12147.90000001085},{""page_index"":2,""viewing_time"":4004.9850000068545},{""page_index"":3,""viewing_time"":1175.859999988461},{""page_index"":4,""viewing_time"":829.265000007581}]","25531.315000000177","instructions","7","107024","0.0-7.0","SS1617819495716","instructions","","","","","","","","","","","","","","",""
"","null","html-keyboard-response","8","108135","0.0-8.0-0.0","SS1617819495716","","","null","","","","","<p><img src= images/blank.png width =""600"" height = ""600"" style=""position:fixed;top:50%; left:50%; transform: translate(-50%, -50%); border:5px solid black"">","","","","","","","",""
"","3034.170000028098","sequential-stimulus-presentation","9","112177","0.0-8.0-1.0","SS1617819495716","trial","","40","1000","4034.170000028098","images/stimuli/spore_stims/simple_13_A_a.gif","images/stimuli/spore_stims/simple_16_A_b.gif","","0","simple_dissimilar","images/stimuli/spore_stims/simple_16_A_b.gif","","","","",""
"","null","html-keyboard-response","10","113196","0.0-8.0-0.1","SS1617819495716","","","null","","","","","<p><img src= images/blank.png width =""600"" height = ""600"" style=""position:fixed;top:50%; left:50%; transform: translate(-50%, -50%); border:5px solid black"">","","","","","","","",""
"","5036.174999986542","sequential-stimulus-presentation","11","119238","0.0-8.0-1.1","SS1617819495716","trial","","40","1000","6036.174999986542","images/stimuli/spore_stims/simple_13_A_a.gif","images/stimuli/spore_stims/simple_16_A_b.gif","","0","simple_dissimilar","images/stimuli/spore_stims/simple_13_A_a.gif","","","","",""
"","null","html-keyboard-response","12","120340","0.0-8.0-0.2","SS1617819495716","","","null","","","","","<p><img src= images/blank.png width =""600"" height = ""600"" style=""position:fixed;top:50%; left:50%; transform: translate(-50%, -50%); border:5px solid black"">","","","","","","","",""
"","1311.9249999872409","sequential-stimulus-presentation","13","122657","0.0-8.0-1.2","SS1617819495716","trial","","40","1000","2311.924999987241","images/stimuli/spore_stims/simple_13_A_a.gif","images/stimuli/spore_stims/simple_16_A_b.gif","","0","simple_dissimilar","images/stimuli/spore_stims/simple_16_A_b.gif","","","","",""
"","null","html-keyboard-response","14","123866","0.0-8.0-0.3","SS1617819495716","","","null","","","","","<p><img src= images/blank.png width =""600"" height = ""600"" style=""position:fixed;top:50%; left:50%; transform: translate(-50%, -50%); border:5px solid black"">","","","","","","","",""
"","1436.8449999892619","sequential-stimulus-presentation","15","126311","0.0-8.0-1.3","SS1617819495716","trial","","40","1000","2436.844999989262","images/stimuli/spore_stims/simple_13_A_a.gif","images/stimuli/spore_stims/simple_16_A_b.gif","","0","simple_dissimilar","images/stimuli/spore_stims/simple_16_A_b.gif","","","","",""
"","5695.284999994328","survey-multi-choice","16","132011","0.0-9.0","SS1617819495716","math_question","","","","","","","","","","","{""Q0"":""13""}","[0]","13","",""
"","null","html-keyboard-response","17","133203","0.0-10.0-0.0","SS1617819495716","","","null","","","","","<p><img src= images/blank.png width =""600"" height = ""600"" style=""position:fixed;top:50%; left:50%; transform: translate(-50%, -50%); border:5px solid black"">","","","","","","","",""
"","1808.7899999809451","sequential-stimulus-presentation","18","136020","0.0-10.0-1.0","SS1617819495716","trial","","40","1000","2808.789999980945","images/stimuli/spore_stims/complex_09_A_a.gif","images/stimuli/spore_stims/complex_03_A_b.gif","","1","complex_dissimilar","images/stimuli/spore_stims/complex_03_A_b.gif","","","","",""
"","null","html-keyboard-response","19","136904","0.0-10.0-0.1","SS1617819495716","","","null","","","","","<p><img src= images/blank.png width =""600"" height = ""600"" style=""position:fixed;top:50%; left:50%; transform: translate(-50%, -50%); border:5px solid black"">","","","","","","","",""
"","3259.89000001573","sequential-stimulus-presentation","20","141171","0.0-10.0-1.1","SS1617819495716","trial","","40","1000","4259.89000001573","images/stimuli/spore_stims/complex_09_A_a.gif","images/stimuli/spore_stims/complex_03_A_b.gif","","1","complex_dissimilar","images/stimuli/spore_stims/complex_09_A_a.gif","","","","",""
"","null","html-keyboard-response","21","142114","0.0-10.0-0.2","SS1617819495716","","","null","","","","","<p><img src= images/blank.png width =""600"" height = ""600"" style=""position:fixed;top:50%; left:50%; transform: translate(-50%, -50%); border:5px solid black"">","","","","","","","",""
"","2169.8400000168476","sequential-stimulus-presentation","22","145291","0.0-10.0-1.2","SS1617819495716","trial","","40","1000","3169.8400000168476","images/stimuli/spore_stims/complex_09_A_a.gif","images/stimuli/spore_stims/complex_03_A_b.gif","","1","complex_dissimilar","images/stimuli/spore_stims/complex_03_A_b.gif","","","","",""
"","null","html-keyboard-response","23","146565","0.0-10.0-0.3","SS1617819495716","","","null","","","","","<p><img src= images/blank.png width =""600"" height = ""600"" style=""position:fixed;top:50%; left:50%; transform: translate(-50%, -50%); border:5px solid black"">","","","","","","","",""
"","4912.864999991143","sequential-stimulus-presentation","24","152487","0.0-10.0-1.3","SS1617819495716","trial","","40","1000","5912.864999991143","images/stimuli/spore_stims/complex_09_A_a.gif","images/stimuli/spore_stims/complex_03_A_b.gif","","1","complex_dissimilar","images/stimuli/spore_stims/complex_03_A_b.gif","","","","",""
"","null","html-keyboard-response","25","153727","0.0-10.0-0.4","SS1617819495716","","","null","","","","","<p><img src= images/blank.png width =""600"" height = ""600"" style=""position:fixed;top:50%; left:50%; transform: translate(-50%, -50%); border:5px solid black"">","","","","","","","",""
"","1592.6500000059605","sequential-stimulus-presentation","26","156325","0.0-10.0-1.4","SS1617819495716","trial","","40","1000","2592.6500000059605","images/stimuli/spore_stims/complex_09_A_a.gif","images/stimuli/spore_stims/complex_03_A_b.gif","","1","complex_dissimilar","images/stimuli/spore_stims/complex_03_A_b.gif","","","","",""
"","3027.7700000151526","survey-multi-choice","27","159355","0.0-11.0","SS1617819495716","math_question","","","","","","","","","","","{""Q0"":""11""}","[0]","11","",""
"","null","html-keyboard-response","28","160246","0.0-12.0-0.0","SS1617819495716","","","null","","","","","<p><img src= images/blank.png width =""600"" height = ""600"" style=""position:fixed;top:50%; left:50%; transform: translate(-50%, -50%); border:5px solid black"">","","","","","","","",""
"","6817.219999997178","sequential-stimulus-presentation","29","168069","0.0-12.0-1.0","SS1617819495716","trial","","40","1000","7817.219999997178","images/stimuli/spore_stims/simple_11_A_a.gif","images/stimuli/spore_stims/simple_05_A_b.gif","","2","simple_dissimilar","images/stimuli/spore_stims/simple_05_A_b.gif","","","","",""
"","null","html-keyboard-response","30","169093","0.0-12.0-0.1","SS1617819495716","","","null","","","","","<p><img src= images/blank.png width =""600"" height = ""600"" style=""position:fixed;top:50%; left:50%; transform: translate(-50%, -50%); border:5px solid black"">","","","","","","","",""
"","4046.5100000146776","sequential-stimulus-presentation","31","174147","0.0-12.0-1.1","SS1617819495716","trial","","40","1000","5046.510000014678","images/stimuli/spore_stims/simple_11_A_a.gif","images/stimuli/spore_stims/simple_05_A_b.gif","","2","simple_dissimilar","images/stimuli/spore_stims/simple_05_A_b.gif","","","","",""
"","null","html-keyboard-response","32","175338","0.0-12.0-0.2","SS1617819495716","","","null","","","","","<p><img src= images/blank.png width =""600"" height = ""600"" style=""position:fixed;top:50%; left:50%; transform: translate(-50%, -50%); border:5px solid black"">","","","","","","","",""
"","2617.5100000109524","sequential-stimulus-presentation","33","178965","0.0-12.0-1.2","SS1617819495716","trial","","40","1000","3617.5100000109524","images/stimuli/spore_stims/simple_11_A_a.gif","images/stimuli/spore_stims/simple_05_A_b.gif","","2","simple_dissimilar","images/stimuli/spore_stims/simple_05_A_b.gif","","","","",""
"","null","html-keyboard-response","34","179911","0.0-12.0-0.3","SS1617819495716","","","null","","","","","<p><img src= images/blank.png width =""600"" height = ""600"" style=""position:fixed;top:50%; left:50%; transform: translate(-50%, -50%); border:5px solid black"">","","","","","","","",""
"","2553.1649999902584","sequential-stimulus-presentation","35","183472","0.0-12.0-1.3","SS1617819495716","trial","","40","1000","3553.1649999902584","images/stimuli/spore_stims/simple_11_A_a.gif","images/stimuli/spore_stims/simple_05_A_b.gif","","2","simple_dissimilar","images/stimuli/spore_stims/simple_05_A_b.gif","","","","",""
"","null","html-keyboard-response","36","184545","0.0-12.0-0.4","SS1617819495716","","","null","","","","","<p><img src= images/blank.png width =""600"" height = ""600"" style=""position:fixed;top:50%; left:50%; transform: translate(-50%, -50%); border:5px solid black"">","","","","","","","",""
"","2925.7499999948777","sequential-stimulus-presentation","37","188476","0.0-12.0-1.4","SS1617819495716","trial","","40","1000","3925.7499999948777","images/stimuli/spore_stims/simple_11_A_a.gif","images/stimuli/spore_stims/simple_05_A_b.gif","","2","simple_dissimilar","images/stimuli/spore_stims/simple_05_A_b.gif","","","","",""
"","null","html-keyboard-response","38","189638","0.0-12.0-0.5","SS1617819495716","","","null","","","","","<p><img src= images/blank.png width =""600"" height = ""600"" style=""position:fixed;top:50%; left:50%; transform: translate(-50%, -50%); border:5px solid black"">","","","","","","","",""
"","2346.799999999348","sequential-stimulus-presentation","39","192990","0.0-12.0-1.5","SS1617819495716","trial","","40","1000","3346.799999999348","images/stimuli/spore_stims/simple_11_A_a.gif","images/stimuli/spore_stims/simple_05_A_b.gif","","2","simple_dissimilar","images/stimuli/spore_stims/simple_05_A_b.gif","","","","",""
"","2782.9450000135694","survey-multi-choice","40","195776","0.0-13.0","SS1617819495716","math_question","","","","","","","","","","","{""Q0"":""14""}","[0]","14","",""
"","null","html-keyboard-response","41","196794","0.0-14.0-0.0","SS1617819495716","","","null","","","","","<p><img src= images/blank.png width =""600"" height = ""600"" style=""position:fixed;top:50%; left:50%; transform: translate(-50%, -50%); border:5px solid black"">","","","","","","","",""
"","4060.9950000070967","sequential-stimulus-presentation","42","201862","0.0-14.0-1.0","SS1617819495716","trial","","40","1000","5060.995000007097","images/stimuli/spore_stims/simple_02_A_a.gif","images/stimuli/spore_stims/simple_19_A_b.gif","","3","simple_dissimilar","images/stimuli/spore_stims/simple_19_A_b.gif","","","","",""
"","null","html-keyboard-response","43","202743","0.0-14.0-0.1","SS1617819495716","","","null","","","","","<p><img src= images/blank.png width =""600"" height = ""600"" style=""position:fixed;top:50%; left:50%; transform: translate(-50%, -50%); border:5px solid black"">","","","","","","","",""
"","3080.164999992121","sequential-stimulus-presentation","44","206829","0.0-14.0-1.1","SS1617819495716","trial","","40","1000","4080.164999992121","images/stimuli/spore_stims/simple_02_A_a.gif","images/stimuli/spore_stims/simple_19_A_b.gif","","3","simple_dissimilar","images/stimuli/spore_stims/simple_19_A_b.gif","","","","",""
"","null","html-keyboard-response","45","207637","0.0-14.0-0.2","SS1617819495716","","","null","","","","","<p><img src= images/blank.png width =""600"" height = ""600"" style=""position:fixed;top:50%; left:50%; transform: translate(-50%, -50%); border:5px solid black"">","","","","","","","",""
"","3393.36999997613","sequential-stimulus-presentation","46","212036","0.0-14.0-1.2","SS1617819495716","trial","","40","1000","4393.36999997613","images/stimuli/spore_stims/simple_02_A_a.gif","images/stimuli/spore_stims/simple_19_A_b.gif","","3","simple_dissimilar","images/stimuli/spore_stims/simple_19_A_b.gif","","","","",""
"","null","html-keyboard-response","47","213165","0.0-14.0-0.3","SS1617819495716","","","null","","","","","<p><img src= images/blank.png width =""600"" height = ""600"" style=""position:fixed;top:50%; left:50%; transform: translate(-50%, -50%); border:5px solid black"">","","","","","","","",""
"","4081.304999999702","sequential-stimulus-presentation","48","218254","0.0-14.0-1.3","SS1617819495716","trial","","40","1000","5081.304999999702","images/stimuli/spore_stims/simple_02_A_a.gif","images/stimuli/spore_stims/simple_19_A_b.gif","","3","simple_dissimilar","images/stimuli/spore_stims/simple_02_A_a.gif","","","","",""
"","null","html-keyboard-response","49","219189","0.0-14.0-0.4","SS1617819495716","","","null","","","","","<p><img src= images/blank.png width =""600"" height = ""600"" style=""position:fixed;top:50%; left:50%; transform: translate(-50%, -50%); border:5px solid black"">","","","","","","","",""
"","2360.4749999940395","sequential-stimulus-presentation","50","222556","0.0-14.0-1.4","SS1617819495716","trial","","40","1000","3360.4749999940395","images/stimuli/spore_stims/simple_02_A_a.gif","images/stimuli/spore_stims/simple_19_A_b.gif","","3","simple_dissimilar","images/stimuli/spore_stims/simple_19_A_b.gif","","","","",""
"","2578.994999988936","survey-multi-choice","51","225138","0.0-15.0","SS1617819495716","math_question","","","","","","","","","","","{""Q0"":""14""}","[0]","14","",""
"","null","html-keyboard-response","52","226063","0.0-16.0-0.0","SS1617819495716","","","null","","","","","<p><img src= images/blank.png width =""600"" height = ""600"" style=""position:fixed;top:50%; left:50%; transform: translate(-50%, -50%); border:5px solid black"">","","","","","","","",""
"","2628.4299999824725","sequential-stimulus-presentation","53","229702","0.0-16.0-1.0","SS1617819495716","trial","","40","1000","3628.4299999824725","images/stimuli/spore_stims/complex_09_A_b.gif","images/stimuli/spore_stims/complex_11_A_a.gif","","4","complex_dissimilar","images/stimuli/spore_stims/complex_11_A_a.gif","","","","",""
"","null","html-keyboard-response","54","230933","0.0-16.0-0.1","SS1617819495716","","","null","","","","","<p><img src= images/blank.png width =""600"" height = ""600"" style=""position:fixed;top:50%; left:50%; transform: translate(-50%, -50%); border:5px solid black"">","","","","","","","",""
"","3347.249999991618","sequential-stimulus-presentation","55","235290","0.0-16.0-1.1","SS1617819495716","trial","","40","1000","4347.249999991618","images/stimuli/spore_stims/complex_09_A_b.gif","images/stimuli/spore_stims/complex_11_A_a.gif","","4","complex_dissimilar","images/stimuli/spore_stims/complex_11_A_a.gif","","","","",""
"","null","html-keyboard-response","56","236148","0.0-16.0-0.2","SS1617819495716","","","null","","","","","<p><img src= images/blank.png width =""600"" height = ""600"" style=""position:fixed;top:50%; left:50%; transform: translate(-50%, -50%); border:5px solid black"">","","","","","","","",""
"","4036.840000015218","sequential-stimulus-presentation","57","241193","0.0-16.0-1.2","SS1617819495716","trial","","40","1000","5036.840000015218","images/stimuli/spore_stims/complex_09_A_b.gif","images/stimuli/spore_stims/complex_11_A_a.gif","","4","complex_dissimilar","images/stimuli/spore_stims/complex_09_A_b.gif","","","","",""
"","null","html-keyboard-response","58","242399","0.0-16.0-0.3","SS1617819495716","","","null","","","","","<p><img src= images/blank.png width =""600"" height = ""600"" style=""position:fixed;top:50%; left:50%; transform: translate(-50%, -50%); border:5px solid black"">","","","","","","","",""
"","3823.7349999835715","sequential-stimulus-presentation","59","247231","0.0-16.0-1.3","SS1617819495716","trial","","40","1000","4823.7349999835715","images/stimuli/spore_stims/complex_09_A_b.gif","images/stimuli/spore_stims/complex_11_A_a.gif","","4","complex_dissimilar","images/stimuli/spore_stims/complex_09_A_b.gif","","","","",""
"","null","html-keyboard-response","60","248233","0.0-16.0-0.4","SS1617819495716","","","null","","","","","<p><img src= images/blank.png width =""600"" height = ""600"" style=""position:fixed;top:50%; left:50%; transform: translate(-50%, -50%); border:5px solid black"">","","","","","","","",""
"","1178.490000020247","sequential-stimulus-presentation","61","250418","0.0-16.0-1.4","SS1617819495716","trial","","40","1000","2178.490000020247","images/stimuli/spore_stims/complex_09_A_b.gif","images/stimuli/spore_stims/complex_11_A_a.gif","","4","complex_dissimilar","images/stimuli/spore_stims/complex_11_A_a.gif","","","","",""
"","3387.699999992037","survey-multi-choice","62","253809","0.0-17.0","SS1617819495716","math_question","","","","","","","","","","","{""Q0"":""13""}","[0]","13","",""
"","null","html-keyboard-response","63","254928","0.0-18.0-0.0","SS1617819495716","","","null","","","","","<p><img src= images/blank.png width =""600"" height = ""600"" style=""position:fixed;top:50%; left:50%; transform: translate(-50%, -50%); border:5px solid black"">","","","","","","","",""
"","1006.920000014361","sequential-stimulus-presentation","64","256941","0.0-18.0-1.0","SS1617819495716","trial","","40","1000","2006.920000014361","images/stimuli/spore_stims/simple_10_A_b.gif","images/stimuli/spore_stims/simple_04_A_a.gif","","5","simple_dissimilar","images/stimuli/spore_stims/simple_04_A_a.gif","","","","",""
"","null","html-keyboard-response","65","257770","0.0-18.0-0.1","SS1617819495716","","","null","","","","","<p><img src= images/blank.png width =""600"" height = ""600"" style=""position:fixed;top:50%; left:50%; transform: translate(-50%, -50%); border:5px solid black"">","","","","","","","",""
"","3785.3849999955855","sequential-stimulus-presentation","66","262567","0.0-18.0-1.1","SS1617819495716","trial","","40","1000","4785.3849999955855","images/stimuli/spore_stims/simple_10_A_b.gif","images/stimuli/spore_stims/simple_04_A_a.gif","","5","simple_dissimilar","images/stimuli/spore_stims/simple_04_A_a.gif","","","","",""
"","null","html-keyboard-response","67","263558","0.0-18.0-0.2","SS1617819495716","","","null","","","","","<p><img src= images/blank.png width =""600"" height = ""600"" style=""position:fixed;top:50%; left:50%; transform: translate(-50%, -50%); border:5px solid black"">","","","","","","","",""
"","1976.139999984298","sequential-stimulus-presentation","68","266540","0.0-18.0-1.2","SS1617819495716","trial","","40","1000","2976.139999984298","images/stimuli/spore_stims/simple_10_A_b.gif","images/stimuli/spore_stims/simple_04_A_a.gif","","5","simple_dissimilar","images/stimuli/spore_stims/simple_04_A_a.gif","","","","",""
"","null","html-keyboard-response","69","267535","0.0-18.0-0.3","SS1617819495716","","","null","","","","","<p><img src= images/blank.png width =""600"" height = ""600"" style=""position:fixed;top:50%; left:50%; transform: translate(-50%, -50%); border:5px solid black"">","","","","","","","",""
"","2394.2950000055134","sequential-stimulus-presentation","70","270940","0.0-18.0-1.3","SS1617819495716","trial","","40","1000","3394.2950000055134","images/stimuli/spore_stims/simple_10_A_b.gif","images/stimuli/spore_stims/simple_04_A_a.gif","","5","simple_dissimilar","images/stimuli/spore_stims/simple_04_A_a.gif","","","","",""
"","null","html-keyboard-response","71","272209","0.0-18.0-0.4","SS1617819495716","","","null","","","","","<p><img src= images/blank.png width =""600"" height = ""600"" style=""position:fixed;top:50%; left:50%; transform: translate(-50%, -50%); border:5px solid black"">","","","","","","","",""
"","704.4149999856018","sequential-stimulus-presentation","72","273920","0.0-18.0-1.4","SS1617819495716","trial","","40","1000","1704.4149999856018","images/stimuli/spore_stims/simple_10_A_b.gif","images/stimuli/spore_stims/simple_04_A_a.gif","","5","simple_dissimilar","images/stimuli/spore_stims/simple_10_A_b.gif","","","","",""
"","3113.03500001668","survey-multi-choice","73","277036","0.0-19.0","SS1617819495716","math_question","","","","","","","","","","","{""Q0"":""17""}","[0]","17","",""
"","null","html-keyboard-response","74","278301","0.0-20.0-0.0","SS1617819495716","","","null","","","","","<p><img src= images/blank.png width =""600"" height = ""600"" style=""position:fixed;top:50%; left:50%; transform: translate(-50%, -50%); border:5px solid black"">","","","","","","","",""
"","2073.9600000088103","sequential-stimulus-presentation","75","281384","0.0-20.0-1.0","SS1617819495716","trial","","40","1000","3073.9600000088103","images/stimuli/spore_stims/complex_19_A_b.gif","images/stimuli/spore_stims/complex_02_A_a.gif","","6","complex_dissimilar","images/stimuli/spore_stims/complex_02_A_a.gif","","","","",""
"","null","html-keyboard-response","76","282271","0.0-20.0-0.1","SS1617819495716","","","null","","","","","<p><img src= images/blank.png width =""600"" height = ""600"" style=""position:fixed;top:50%; left:50%; transform: translate(-50%, -50%); border:5px solid black"">","","","","","","","",""
"","1407.7399999951012","sequential-stimulus-presentation","77","284688","0.0-20.0-1.1","SS1617819495716","trial","","40","1000","2407.7399999951012","images/stimuli/spore_stims/complex_19_A_b.gif","images/stimuli/spore_stims/complex_02_A_a.gif","","6","complex_dissimilar","images/stimuli/spore_stims/complex_02_A_a.gif","","","","",""
"","null","html-keyboard-response","78","285733","0.0-20.0-0.2","SS1617819495716","","","null","","","","","<p><img src= images/blank.png width =""600"" height = ""600"" style=""position:fixed;top:50%; left:50%; transform: translate(-50%, -50%); border:5px solid black"">","","","","","","","",""
"","2261.050000000978","sequential-stimulus-presentation","79","289001","0.0-20.0-1.2","SS1617819495716","trial","","40","1000","3261.050000000978","images/stimuli/spore_stims/complex_19_A_b.gif","images/stimuli/spore_stims/complex_02_A_a.gif","","6","complex_dissimilar","images/stimuli/spore_stims/complex_02_A_a.gif","","","","",""
"","null","html-keyboard-response","80","290170","0.0-20.0-0.3","SS1617819495716","","","null","","","","","<p><img src= images/blank.png width =""600"" height = ""600"" style=""position:fixed;top:50%; left:50%; transform: translate(-50%, -50%); border:5px solid black"">","","","","","","","",""
"","2730.749999987893","sequential-stimulus-presentation","81","293908","0.0-20.0-1.3","SS1617819495716","trial","","40","1000","3730.749999987893","images/stimuli/spore_stims/complex_19_A_b.gif","images/stimuli/spore_stims/complex_02_A_a.gif","","6","complex_dissimilar","images/stimuli/spore_stims/complex_19_A_b.gif","","","","",""
"","null","html-keyboard-response","82","294913","0.0-20.0-0.4","SS1617819495716","","","null","","","","","<p><img src= images/blank.png width =""600"" height = ""600"" style=""position:fixed;top:50%; left:50%; transform: translate(-50%, -50%); border:5px solid black"">","","","","","","","",""
"","2074.209999991581","sequential-stimulus-presentation","83","297996","0.0-20.0-1.4","SS1617819495716","trial","","40","1000","3074.209999991581","images/stimuli/spore_stims/complex_19_A_b.gif","images/stimuli/spore_stims/complex_02_A_a.gif","","6","complex_dissimilar","images/stimuli/spore_stims/complex_02_A_a.gif","","","","",""
"","null","html-keyboard-response","84","299187","0.0-20.0-0.5","SS1617819495716","","","null","","","","","<p><img src= images/blank.png width =""600"" height = ""600"" style=""position:fixed;top:50%; left:50%; transform: translate(-50%, -50%); border:5px solid black"">","","","","","","","",""
"","2392.7200000034645","sequential-stimulus-presentation","85","302585","0.0-20.0-1.5","SS1617819495716","trial","","40","1000","3392.7200000034645","images/stimuli/spore_stims/complex_19_A_b.gif","images/stimuli/spore_stims/complex_02_A_a.gif","","6","complex_dissimilar","images/stimuli/spore_stims/complex_19_A_b.gif","","","","",""
"","2466.424999991432","survey-multi-choice","86","305055","0.0-21.0","SS1617819495716","math_question","","","","","","","","","","","{""Q0"":""8""}","[0]","8","",""
"","null","html-keyboard-response","87","306158","0.0-22.0-0.0","SS1617819495716","","","null","","","","","<p><img src= images/blank.png width =""600"" height = ""600"" style=""position:fixed;top:50%; left:50%; transform: translate(-50%, -50%); border:5px solid black"">","","","","","","","",""
"","1774.0599999960978","sequential-stimulus-presentation","88","308940","0.0-22.0-1.0","SS1617819495716","trial","","40","1000","2774.0599999960978","images/stimuli/spore_stims/complex_04_A_a.gif","images/stimuli/spore_stims/complex_11_A_b.gif","","7","complex_dissimilar","images/stimuli/spore_stims/complex_11_A_b.gif","","","","",""
"","null","html-keyboard-response","89","310091","0.0-22.0-0.1","SS1617819495716","","","null","","","","","<p><img src= images/blank.png width =""600"" height = ""600"" style=""position:fixed;top:50%; left:50%; transform: translate(-50%, -50%); border:5px solid black"">","","","","","","","",""
"","3148.574999999255","sequential-stimulus-presentation","90","314248","0.0-22.0-1.1","SS1617819495716","trial","","40","1000","4148.574999999255","images/stimuli/spore_stims/complex_04_A_a.gif","images/stimuli/spore_stims/complex_11_A_b.gif","","7","complex_dissimilar","images/stimuli/spore_stims/complex_04_A_a.gif","","","","",""
"","null","html-keyboard-response","91","315341","0.0-22.0-0.2","SS1617819495716","","","null","","","","","<p><img src= images/blank.png width =""600"" height = ""600"" style=""position:fixed;top:50%; left:50%; transform: translate(-50%, -50%); border:5px solid black"">","","","","","","","",""
"","2422.6849999977276","sequential-stimulus-presentation","92","318769","0.0-22.0-1.2","SS1617819495716","trial","","40","1000","3422.6849999977276","images/stimuli/spore_stims/complex_04_A_a.gif","images/stimuli/spore_stims/complex_11_A_b.gif","","7","complex_dissimilar","images/stimuli/spore_stims/complex_11_A_b.gif","","","","",""
"","null","html-keyboard-response","93","319891","0.0-22.0-0.3","SS1617819495716","","","null","","","","","<p><img src= images/blank.png width =""600"" height = ""600"" style=""position:fixed;top:50%; left:50%; transform: translate(-50%, -50%); border:5px solid black"">","","","","","","","",""
"","466.61000000312924","sequential-stimulus-presentation","94","321368","0.0-22.0-1.3","SS1617819495716","trial","","40","1000","1466.6100000031292","images/stimuli/spore_stims/complex_04_A_a.gif","images/stimuli/spore_stims/complex_11_A_b.gif","","7","complex_dissimilar","images/stimuli/spore_stims/complex_11_A_b.gif","","","","",""
"","null","html-keyboard-response","95","322662","0.0-22.0-0.4","SS1617819495716","","","null","","","","","<p><img src= images/blank.png width =""600"" height = ""600"" style=""position:fixed;top:50%; left:50%; transform: translate(-50%, -50%); border:5px solid black"">","","","","","","","",""
"","755.2799999830313","sequential-stimulus-presentation","96","324426","0.0-22.0-1.4","SS1617819495716","trial","","40","1000","1755.2799999830313","images/stimuli/spore_stims/complex_04_A_a.gif","images/stimuli/spore_stims/complex_11_A_b.gif","","7","complex_dissimilar","images/stimuli/spore_stims/complex_04_A_a.gif","","","","",""
"","null","html-keyboard-response","97","325442","0.0-22.0-0.5","SS1617819495716","","","null","","","","","<p><img src= images/blank.png width =""600"" height = ""600"" style=""position:fixed;top:50%; left:50%; transform: translate(-50%, -50%); border:5px solid black"">","","","","","","","",""
"","1308.2500000018626","sequential-stimulus-presentation","98","327758","0.0-22.0-1.5","SS1617819495716","trial","","40","1000","2308.2500000018626","images/stimuli/spore_stims/complex_04_A_a.gif","images/stimuli/spore_stims/complex_11_A_b.gif","","7","complex_dissimilar","images/stimuli/spore_stims/complex_11_A_b.gif","","","","",""
"","2383.299999986775","survey-multi-choice","99","330145","0.0-23.0","SS1617819495716","math_question","","","","","","","","","","","{""Q0"":""5""}","[0]","5","",""
"","null","html-keyboard-response","100","330968","0.0-24.0-0.0","SS1617819495716","","","null","","","","","<p><img src= images/blank.png width =""600"" height = ""600"" style=""position:fixed;top:50%; left:50%; transform: translate(-50%, -50%); border:5px solid black"">","","","","","","","",""
"","2870.7500000018626","sequential-stimulus-presentation","101","334852","0.0-24.0-1.0","SS1617819495716","trial","","40","1000","3870.7500000018626","images/stimuli/spore_stims/simple_09_A_a.gif","images/stimuli/spore_stims/simple_07_A_b.gif","","8","simple_dissimilar","images/stimuli/spore_stims/simple_07_A_b.gif","","","","",""
"","null","html-keyboard-response","102","335697","0.0-24.0-0.1","SS1617819495716","","","null","","","","","<p><img src= images/blank.png width =""600"" height = ""600"" style=""position:fixed;top:50%; left:50%; transform: translate(-50%, -50%); border:5px solid black"">","","","","","","","",""
"","2353.754999989178","sequential-stimulus-presentation","103","339061","0.0-24.0-1.1","SS1617819495716","trial","","40","1000","3353.754999989178","images/stimuli/spore_stims/simple_09_A_a.gif","images/stimuli/spore_stims/simple_07_A_b.gif","","8","simple_dissimilar","images/stimuli/spore_stims/simple_07_A_b.gif","","","","",""
"","null","html-keyboard-response","104","340153","0.0-24.0-0.2","SS1617819495716","","","null","","","","","<p><img src= images/blank.png width =""600"" height = ""600"" style=""position:fixed;top:50%; left:50%; transform: translate(-50%, -50%); border:5px solid black"">","","","","","","","",""
"","2081.4050000044517","sequential-stimulus-presentation","105","343241","0.0-24.0-1.2","SS1617819495716","trial","","40","1000","3081.4050000044517","images/stimuli/spore_stims/simple_09_A_a.gif","images/stimuli/spore_stims/simple_07_A_b.gif","","8","simple_dissimilar","images/stimuli/spore_stims/simple_07_A_b.gif","","","","",""
"","null","html-keyboard-response","106","344378","0.0-24.0-0.3","SS1617819495716","","","null","","","","","<p><img src= images/blank.png width =""600"" height = ""600"" style=""position:fixed;top:50%; left:50%; transform: translate(-50%, -50%); border:5px solid black"">","","","","","","","",""
"","1381.4950000087265","sequential-stimulus-presentation","107","346769","0.0-24.0-1.3","SS1617819495716","trial","","40","1000","2381.4950000087265","images/stimuli/spore_stims/simple_09_A_a.gif","images/stimuli/spore_stims/simple_07_A_b.gif","","8","simple_dissimilar","images/stimuli/spore_stims/simple_07_A_b.gif","","","","",""
"","null","html-keyboard-response","108","348024","0.0-24.0-0.4","SS1617819495716","","","null","","","","","<p><img src= images/blank.png width =""600"" height = ""600"" style=""position:fixed;top:50%; left:50%; transform: translate(-50%, -50%); border:5px solid black"">","","","","","","","",""
"","1819.0250000043306","sequential-stimulus-presentation","109","350851","0.0-24.0-1.4","SS1617819495716","trial","","40","1000","2819.0250000043306","images/stimuli/spore_stims/simple_09_A_a.gif","images/stimuli/spore_stims/simple_07_A_b.gif","","8","simple_dissimilar","images/stimuli/spore_stims/simple_07_A_b.gif","","","","",""
"","null","html-keyboard-response","110","351940","0.0-24.0-0.5","SS1617819495716","","","null","","","","","<p><img src= images/blank.png width =""600"" height = ""600"" style=""position:fixed;top:50%; left:50%; transform: translate(-50%, -50%); border:5px solid black"">","","","","","","","",""
"","1886.3950000086334","sequential-stimulus-presentation","111","354832","0.0-24.0-1.5","SS1617819495716","trial","","40","1000","2886.3950000086334","images/stimuli/spore_stims/simple_09_A_a.gif","images/stimuli/spore_stims/simple_07_A_b.gif","","8","simple_dissimilar","images/stimuli/spore_stims/simple_09_A_a.gif","","","","",""
"","2764.500000019325","survey-multi-choice","112","357601","0.0-25.0","SS1617819495716","math_question","","","","","","","","","","","{""Q0"":""8""}","[0]","8","",""
"","null","html-keyboard-response","113","358656","0.0-26.0-0.0","SS1617819495716","","","null","","","","","<p><img src= images/blank.png width =""600"" height = ""600"" style=""position:fixed;top:50%; left:50%; transform: translate(-50%, -50%); border:5px solid black"">","","","","","","","",""
"","2114.1249999927823","sequential-stimulus-presentation","114","361778","0.0-26.0-1.0","SS1617819495716","trial","","40","1000","3114.1249999927823","images/stimuli/spore_stims/simple_17_A_b.gif","images/stimuli/spore_stims/simple_03_A_a.gif","","9","simple_dissimilar","images/stimuli/spore_stims/simple_03_A_a.gif","","","","",""
"","null","html-keyboard-response","115","362730","0.0-26.0-0.1","SS1617819495716","","","null","","","","","<p><img src= images/blank.png width =""600"" height = ""600"" style=""position:fixed;top:50%; left:50%; transform: translate(-50%, -50%); border:5px solid black"">","","","","","","","",""
"","1362.5949999841396","sequential-stimulus-presentation","116","365101","0.0-26.0-1.1","SS1617819495716","trial","","40","1000","2362.5949999841396","images/stimuli/spore_stims/simple_17_A_b.gif","images/stimuli/spore_stims/simple_03_A_a.gif","","9","simple_dissimilar","images/stimuli/spore_stims/simple_03_A_a.gif","","","","",""
"","null","html-keyboard-response","117","366196","0.0-26.0-0.2","SS1617819495716","","","null","","","","","<p><img src= images/blank.png width =""600"" height = ""600"" style=""position:fixed;top:50%; left:50%; transform: translate(-50%, -50%); border:5px solid black"">","","","","","","","",""
"","2045.2550000045449","sequential-stimulus-presentation","118","369250","0.0-26.0-1.2","SS1617819495716","trial","","40","1000","3045.255000004545","images/stimuli/spore_stims/simple_17_A_b.gif","images/stimuli/spore_stims/simple_03_A_a.gif","","9","simple_dissimilar","images/stimuli/spore_stims/simple_03_A_a.gif","","","","",""
"","null","html-keyboard-response","119","370161","0.0-26.0-0.3","SS1617819495716","","","null","","","","","<p><img src= images/blank.png width =""600"" height = ""600"" style=""position:fixed;top:50%; left:50%; transform: translate(-50%, -50%); border:5px solid black"">","","","","","","","",""
"","2373.0149999901187","sequential-stimulus-presentation","120","373543","0.0-26.0-1.3","SS1617819495716","trial","","40","1000","3373.0149999901187","images/stimuli/spore_stims/simple_17_A_b.gif","images/stimuli/spore_stims/simple_03_A_a.gif","","9","simple_dissimilar","images/stimuli/spore_stims/simple_03_A_a.gif","","","","",""
"","null","html-keyboard-response","121","374355","0.0-26.0-0.4","SS1617819495716","","","null","","","","","<p><img src= images/blank.png width =""600"" height = ""600"" style=""position:fixed;top:50%; left:50%; transform: translate(-50%, -50%); border:5px solid black"">","","","","","","","",""
"","2650.6049999734387","sequential-stimulus-presentation","122","378014","0.0-26.0-1.4","SS1617819495716","trial","","40","1000","3650.6049999734387","images/stimuli/spore_stims/simple_17_A_b.gif","images/stimuli/spore_stims/simple_03_A_a.gif","","9","simple_dissimilar","images/stimuli/spore_stims/simple_17_A_b.gif","","","","",""
"","2581.0249999922235","survey-multi-choice","123","380599","0.0-27.0","SS1617819495716","math_question","","","","","","","","","","","{""Q0"":""9""}","[0]","9","",""
"","null","html-keyboard-response","124","381867","0.0-28.0-0.0","SS1617819495716","","","null","","","","","<p><img src= images/blank.png width =""600"" height = ""600"" style=""position:fixed;top:50%; left:50%; transform: translate(-50%, -50%); border:5px solid black"">","","","","","","","",""
"","3082.5999999942724","sequential-stimulus-presentation","125","385960","0.0-28.0-1.0","SS1617819495716","trial","","40","1000","4082.5999999942724","images/stimuli/spore_stims/complex_05_A_a.gif","images/stimuli/spore_stims/complex_15_A_b.gif","","10","complex_dissimilar","images/stimuli/spore_stims/complex_15_A_b.gif","","","","",""
"","null","html-keyboard-response","126","387120","0.0-28.0-0.1","SS1617819495716","","","null","","","","","<p><img src= images/blank.png width =""600"" height = ""600"" style=""position:fixed;top:50%; left:50%; transform: translate(-50%, -50%); border:5px solid black"">","","","","","","","",""
"","1384.684999997262","sequential-stimulus-presentation","127","389514","0.0-28.0-1.1","SS1617819495716","trial","","40","1000","2384.684999997262","images/stimuli/spore_stims/complex_05_A_a.gif","images/stimuli/spore_stims/complex_15_A_b.gif","","10","complex_dissimilar","images/stimuli/spore_stims/complex_15_A_b.gif","","","","",""
"","null","html-keyboard-response","128","390326","0.0-28.0-0.2","SS1617819495716","","","null","","","","","<p><img src= images/blank.png width =""600"" height = ""600"" style=""position:fixed;top:50%; left:50%; transform: translate(-50%, -50%); border:5px solid black"">","","","","","","","",""
"","1147.8099999949336","sequential-stimulus-presentation","129","392484","0.0-28.0-1.2","SS1617819495716","trial","","40","1000","2147.8099999949336","images/stimuli/spore_stims/complex_05_A_a.gif","images/stimuli/spore_stims/complex_15_A_b.gif","","10","complex_dissimilar","images/stimuli/spore_stims/complex_15_A_b.gif","","","","",""
"","null","html-keyboard-response","130","393628","0.0-28.0-0.3","SS1617819495716","","","null","","","","","<p><img src= images/blank.png width =""600"" height = ""600"" style=""position:fixed;top:50%; left:50%; transform: translate(-50%, -50%); border:5px solid black"">","","","","","","","",""
"","1800.3700000117533","sequential-stimulus-presentation","131","396435","0.0-28.0-1.3","SS1617819495716","trial","","40","1000","2800.3700000117533","images/stimuli/spore_stims/complex_05_A_a.gif","images/stimuli/spore_stims/complex_15_A_b.gif","","10","complex_dissimilar","images/stimuli/spore_stims/complex_15_A_b.gif","","","","",""
"","null","html-keyboard-response","132","397632","0.0-28.0-0.4","SS1617819495716","","","null","","","","","<p><img src= images/blank.png width =""600"" height = ""600"" style=""position:fixed;top:50%; left:50%; transform: translate(-50%, -50%); border:5px solid black"">","","","","","","","",""
"","1321.0050000052433","sequential-stimulus-presentation","133","399961","0.0-28.0-1.4","SS1617819495716","trial","","40","1000","2321.0050000052433","images/stimuli/spore_stims/complex_05_A_a.gif","images/stimuli/spore_stims/complex_15_A_b.gif","","10","complex_dissimilar","images/stimuli/spore_stims/complex_15_A_b.gif","","","","",""
"","null","html-keyboard-response","134","400777","0.0-28.0-0.5","SS1617819495716","","","null","","","","","<p><img src= images/blank.png width =""600"" height = ""600"" style=""position:fixed;top:50%; left:50%; transform: translate(-50%, -50%); border:5px solid black"">","","","","","","","",""
"","1671.9600000069477","sequential-stimulus-presentation","135","403456","0.0-28.0-1.5","SS1617819495716","trial","","40","1000","2671.9600000069477","images/stimuli/spore_stims/complex_05_A_a.gif","images/stimuli/spore_stims/complex_15_A_b.gif","","10","complex_dissimilar","images/stimuli/spore_stims/complex_15_A_b.gif","","","","",""
"","2008.2200000179","survey-multi-choice","136","405468","0.0-29.0","SS1617819495716","math_question","","","","","","","","","","","{""Q0"":""16""}","[0]","16","",""
"","null","html-keyboard-response","137","406684","0.0-30.0-0.0","SS1617819495716","","","null","","","","","<p><img src= images/blank.png width =""600"" height = ""600"" style=""position:fixed;top:50%; left:50%; transform: translate(-50%, -50%); border:5px solid black"">","","","","","","","",""
"","3355.115000013029","sequential-stimulus-presentation","138","411047","0.0-30.0-1.0","SS1617819495716","trial","","40","1000","4355.115000013029","images/stimuli/spore_stims/complex_07_A_b.gif","images/stimuli/spore_stims/complex_13_A_a.gif","","11","complex_dissimilar","images/stimuli/spore_stims/complex_13_A_a.gif","","","","",""
"","null","html-keyboard-response","139","412244","0.0-30.0-0.1","SS1617819495716","","","null","","","","","<p><img src= images/blank.png width =""600"" height = ""600"" style=""position:fixed;top:50%; left:50%; transform: translate(-50%, -50%); border:5px solid black"">","","","","","","","",""
"","2639.2349999805447","sequential-stimulus-presentation","140","415892","0.0-30.0-1.1","SS1617819495716","trial","","40","1000","3639.2349999805447","images/stimuli/spore_stims/complex_07_A_b.gif","images/stimuli/spore_stims/complex_13_A_a.gif","","11","complex_dissimilar","images/stimuli/spore_stims/complex_13_A_a.gif","","","","",""
"","null","html-keyboard-response","141","417183","0.0-30.0-0.2","SS1617819495716","","","null","","","","","<p><img src= images/blank.png width =""600"" height = ""600"" style=""position:fixed;top:50%; left:50%; transform: translate(-50%, -50%); border:5px solid black"">","","","","","","","",""
"","1585.5049999954645","sequential-stimulus-presentation","142","419777","0.0-30.0-1.2","SS1617819495716","trial","","40","1000","2585.5049999954645","images/stimuli/spore_stims/complex_07_A_b.gif","images/stimuli/spore_stims/complex_13_A_a.gif","","11","complex_dissimilar","images/stimuli/spore_stims/complex_13_A_a.gif","","","","",""
"","null","html-keyboard-response","143","420925","0.0-30.0-0.3","SS1617819495716","","","null","","","","","<p><img src= images/blank.png width =""600"" height = ""600"" style=""position:fixed;top:50%; left:50%; transform: translate(-50%, -50%); border:5px solid black"">","","","","","","","",""
"","2311.1550000030547","sequential-stimulus-presentation","144","424244","0.0-30.0-1.3","SS1617819495716","trial","","40","1000","3311.1550000030547","images/stimuli/spore_stims/complex_07_A_b.gif","images/stimuli/spore_stims/complex_13_A_a.gif","","11","complex_dissimilar","images/stimuli/spore_stims/complex_13_A_a.gif","","","","",""
"","null","html-keyboard-response","145","425538","0.0-30.0-0.4","SS1617819495716","","","null","","","","","<p><img src= images/blank.png width =""600"" height = ""600"" style=""position:fixed;top:50%; left:50%; transform: translate(-50%, -50%); border:5px solid black"">","","","","","","","",""
"","6526.3449999911245","sequential-stimulus-presentation","146","433072","0.0-30.0-1.4","SS1617819495716","trial","","40","1000","7526.3449999911245","images/stimuli/spore_stims/complex_07_A_b.gif","images/stimuli/spore_stims/complex_13_A_a.gif","","11","complex_dissimilar","images/stimuli/spore_stims/complex_07_A_b.gif","","","","",""
"[{""page_index"":0,""viewing_time"":3042.5500000128523}]","3043.0750000232365","instructions","147","436118","0.0-31.0","SS1617819495716","instructions","","","","","","","","","","","","","","",""
"","4100.964999990538","survey-likert","148","440225","0.0-32.0","SS1617819495716","similarity_question","","","","","","","","","","","{""Q0"":4}","[0]","","images/stimuli/spore_stims/simple_11_A_a.gif","images/stimuli/spore_stims/simple_05_A_b.gif"
"","3973.1749999918975","survey-likert","149","444205","0.0-33.0","SS1617819495716","similarity_question","","","","","","","","","","","{""Q0"":4}","[0]","","images/stimuli/spore_stims/simple_09_A_a.gif","images/stimuli/spore_stims/simple_07_A_b.gif"
"","4403.825000015786","survey-likert","150","448614","0.0-34.0","SS1617819495716","similarity_question","","","","","","","","","","","{""Q0"":5}","[0]","","images/stimuli/spore_stims/simple_16_A_b.gif","images/stimuli/spore_stims/simple_13_A_a.gif"
"","6339.8400000005495","survey-likert","151","454960","0.0-35.0","SS1617819495716","similarity_question","","","","","","","","","","","{""Q0"":2}","[0]","","images/stimuli/spore_stims/complex_03_A_b.gif","images/stimuli/spore_stims/complex_09_A_a.gif"
"","5972.0999999844935","survey-likert","152","460939","0.0-36.0","SS1617819495716","similarity_question","","","","","","","","","","","{""Q0"":1}","[0]","","images/stimuli/spore_stims/complex_11_A_a.gif","images/stimuli/spore_stims/complex_09_A_b.gif"
"","4428.340000013122","survey-likert","153","465374","0.0-37.0","SS1617819495716","similarity_question","","","","","","","","","","","{""Q0"":0}","[0]","","images/stimuli/spore_stims/complex_02_A_a.gif","images/stimuli/spore_stims/complex_19_A_b.gif"
"","4853.490000008605","survey-likert","154","470232","0.0-38.0","SS1617819495716","similarity_question","","","","","","","","","","","{""Q0"":0}","[0]","","images/stimuli/spore_stims/complex_13_A_a.gif","images/stimuli/spore_stims/complex_07_A_b.gif"
"","3498.7900000123773","survey-likert","155","473738","0.0-39.0","SS1617819495716","similarity_question","","","","","","","","","","","{""Q0"":4}","[0]","","images/stimuli/spore_stims/simple_19_A_b.gif","images/stimuli/spore_stims/simple_02_A_a.gif"
"","4916.144999995595","survey-likert","156","478661","0.0-40.0","SS1617819495716","similarity_question","","","","","","","","","","","{""Q0"":1}","[0]","","images/stimuli/spore_stims/complex_04_A_a.gif","images/stimuli/spore_stims/complex_11_A_b.gif"
"","3348.4300000127405","survey-likert","157","482015","0.0-41.0","SS1617819495716","similarity_question","","","","","","","","","","","{""Q0"":6}","[0]","","images/stimuli/spore_stims/simple_04_A_a.gif","images/stimuli/spore_stims/simple_10_A_b.gif"
"","6885.104999993928","survey-likert","158","488906","0.0-42.0","SS1617819495716","similarity_question","","","","","","","","","","","{""Q0"":0}","[0]","","images/stimuli/spore_stims/complex_15_A_b.gif","images/stimuli/spore_stims/complex_05_A_a.gif"
"","2396.1399999971036","survey-likert","159","491309","0.0-43.0","SS1617819495716","similarity_question","","","","","","","","","","","{""Q0"":5}","[0]","","images/stimuli/spore_stims/simple_17_A_b.gif","images/stimuli/spore_stims/simple_03_A_a.gif"
"[{""page_index"":0,""viewing_time"":3146.9299999880604}]","3147.5349999964237","instructions","160","494460","0.0-44.0","SS1617819495716","instructions","","","","","","","","","","","","","","",""
"","6500.450000021374","survey-likert","161","500967","0.0-45.0","SS1617819495716","","","","","","","","images/stimuli/spore_stims/complex_11_A_a.gif","","","","{""Q0"":4}","[0]","","",""
"","3260.3399999788962","survey-likert","162","504235","0.0-46.0","SS1617819495716","","","","","","","","images/stimuli/spore_stims/complex_05_A_a.gif","","","","{""Q0"":4}","[0]","","",""
"","2495.7899999863002","survey-likert","163","506737","0.0-47.0","SS1617819495716","","","","","","","","images/stimuli/spore_stims/complex_19_A_b.gif","","","","{""Q0"":5}","[0]","","",""
"","3388.18499998888","survey-likert","164","510131","0.0-48.0","SS1617819495716","","","","","","","","images/stimuli/spore_stims/simple_10_A_b.gif","","","","{""Q0"":1}","[0]","","",""
"","2813.269999984186","survey-likert","165","512953","0.0-49.0","SS1617819495716","","","","","","","","images/stimuli/spore_stims/simple_03_A_a.gif","","","","{""Q0"":1}","[0]","","",""
"","2842.8899999998976","survey-likert","166","515802","0.0-50.0","SS1617819495716","","","","","","","","images/stimuli/spore_stims/simple_19_A_b.gif","","","","{""Q0"":1}","[0]","","",""
"","2691.3950000016484","survey-likert","167","518500","0.0-51.0","SS1617819495716","","","","","","","","images/stimuli/spore_stims/simple_05_A_b.gif","","","","{""Q0"":0}","[0]","","",""
"","2249.520000012126","survey-likert","168","520756","0.0-52.0","SS1617819495716","","","","","","","","images/stimuli/spore_stims/simple_07_A_b.gif","","","","{""Q0"":0}","[0]","","",""
"","2350.194999977248","survey-likert","169","523111","0.0-53.0","SS1617819495716","","","","","","","","images/stimuli/spore_stims/simple_13_A_a.gif","","","","{""Q0"":0}","[0]","","",""
"","4245.479999983218","survey-likert","170","527363","0.0-54.0","SS1617819495716","","","","","","","","images/stimuli/spore_stims/complex_04_A_a.gif","","","","{""Q0"":5}","[0]","","",""
"","6515.97499998752","survey-likert","171","533885","0.0-55.0","SS1617819495716","","","","","","","","images/stimuli/spore_stims/complex_09_A_a.gif","","","","{""Q0"":4}","[0]","","",""
"","3396.6249999939464","survey-likert","172","537288","0.0-56.0","SS1617819495716","","","","","","","","images/stimuli/spore_stims/complex_07_A_b.gif","","","","{""Q0"":6}","[0]","","",""
"[{""page_index"":0,""viewing_time"":1745.5699999991339}]","1745.8500000066124","instructions","173","539039","0.0-57.0","SS1617819495716","instructions","","","","","","","","","","","","","","",""
"","2553.234999999404","demog-age","174","541601","0.0-58.0","SS1617819495716","","","","","","","","","","","","{""age"":""21""}","","","",""
"","4740.185000002384","demog-ethnic-US","175","546352","0.0-59.0","SS1617819495716","","","","","","","","","","","","{""ethnicity"":[""White""]}","[0]","","",""
"","18583.874999982072","demog-gender-and-education","176","564943","0.0-60.0","SS1617819495716","","","","","","","","","","","","{""gender"":""Male"",""education"":""Doctorate/Professional degree""}","[0,1]","","",""
"","10146.124999999302","survey-text","177","575100","0.0-61.0","SS1617819495716","feedback","","","","","","","","","","","{""Q0"":""everything was fine""}","","","",""
"[{""page_index"":0,""viewing_time"":1408.2499999785796}]","1408.5449999838602","instructions","178","576515","0.0-62.0","SS1617819495716","instructions","","","","","","","","","","","","","","",""
