"view_history","rt","trial_type","trial_index","time_elapsed","internal_node_id","subject","stimulus_type","trial_stimulus","key_press","minimum_viewing_duration","trial_looking_time","stimulus","wall_pref","location","location_percent","block_number","block_type","stimulus_displayed","position_displayed","stim_type_selected","responses","question_order","stimulus_left","stimulus_right"
"[{""page_index"":0,""viewing_time"":1945.2900000032969}]","1945.5350000062026","instructions","0","1946","0.0-0.0","SS1613020801957","","","","","","","","","","","","","","","","","",""
"[{""page_index"":0,""viewing_time"":1542.6899999729358},{""page_index"":1,""viewing_time"":1311.4449999993667}]","2854.5399999711663","instructions","1","6804","0.0-1.0","SS1613020801957","instructions","","","","","","","","","","","","","","","","",""
"","1959.175000025425","sequential-stimulus-presentation","2","9574","0.0-2.0","SS1613020801957","","","40","800","2759.175000025425","","","","","","","","","","","","",""
"","432.86499998066574","sequential-stimulus-presentation","3","10812","0.0-3.0","SS1613020801957","","","40","800","1232.8649999806657","","","","","","","","","","","","",""
"[{""page_index"":0,""viewing_time"":2996.9750000163913}]","2997.460000042338","instructions","4","13811","0.0-4.0","SS1613020801957","instructions","","","","","","","","","","","","","","","","",""
"","2910.329999984242","html-keyboard-response","5","16726","0.0-5.0","SS1613020801957","instructions","","50","","","<video width ='960' height = '540' autoplay muted><source src='images/stimuli/wall_pref.mp4' type='video/mp4'></video>","2","middle","45%","","","","","","","","",""
"","1483.2999999634922","sequential-stimulus-presentation","6","19018","0.0-6.0","SS1613020801957","pref_reveal","","40","800","2283.299999963492","","","","","","","","","","","","",""
"[{""page_index"":0,""viewing_time"":2311.424999963492},{""page_index"":1,""viewing_time"":663.4949999861419},{""page_index"":2,""viewing_time"":22528.57500000391},{""page_index"":3,""viewing_time"":774.93500005221}]","26278.999999980442","instructions","7","45298","0.0-7.0","SS1613020801957","instructions","","","","","","","","","","","","","","","","",""
"","null","html-keyboard-response","8","46357","0.0-8.0-0.0","SS1613020801957","","","null","","","<p><img src= images/blank.png width =""200"" height = ""200"" style = ""float:right""></p><p><img src=images/blank.png width =""800"" height = ""200""></p>","","","","","","","","","","","",""
"","1035.0949999992736","sequential-stimulus-presentation","9","48203","0.0-8.0-1.0","SS1613020801957","trial","","40","800","1835.0949999992736","","","","","0","simple_similar","images/stimuli/spore_stims/simple_12_B_b.gif","middle","","","","",""
"","null","html-keyboard-response","10","49290","0.0-8.0-0.1","SS1613020801957","","","null","","","<p><img src= images/blank.png width =""200"" height = ""200"" style = ""float:right""></p><p><img src=images/blank.png width =""800"" height = ""200""></p>","","","","","","","","","","","",""
"","4917.060000007041","sequential-stimulus-presentation","11","55013","0.0-8.0-1.1","SS1613020801957","trial","","40","800","5717.060000007041","","","","","0","simple_similar","images/stimuli/spore_stims/simple_12_B_b.gif","middle","","","","",""
"","null","html-keyboard-response","12","55955","0.0-8.0-0.2","SS1613020801957","","","null","","","<p><img src= images/blank.png width =""200"" height = ""200"" style = ""float:right""></p><p><img src=images/blank.png width =""800"" height = ""200""></p>","","","","","","","","","","","",""
"","428.76000003889203","sequential-stimulus-presentation","13","57192","0.0-8.0-1.2","SS1613020801957","trial","","40","800","1228.760000038892","","","","","0","simple_similar","images/stimuli/spore_stims/simple_12_B_b.gif","middle","","","","",""
"","null","html-keyboard-response","14","58196","0.0-8.0-0.3","SS1613020801957","","","null","","","<p><img src= images/blank.png width =""200"" height = ""200"" style = ""float:right""></p><p><img src=images/blank.png width =""800"" height = ""200""></p>","","","","","","","","","","","",""
"","1776.529999973718","sequential-stimulus-presentation","15","60781","0.0-8.0-1.3","SS1613020801957","trial","","40","800","2576.529999973718","","","","","0","simple_similar","images/stimuli/spore_stims/simple_12_B_b.gif","middle","","","","",""
"","null","html-keyboard-response","16","61609","0.0-8.0-0.4","SS1613020801957","","","null","","","<p><img src= images/blank.png width =""200"" height = ""200"" style = ""float:right""></p><p><img src=images/blank.png width =""800"" height = ""200""></p>","","","","","","","","","","","",""
"","1755.2949999808334","sequential-stimulus-presentation","17","64172","0.0-8.0-1.4","SS1613020801957","trial","","40","800","2555.2949999808334","","","","","0","simple_similar","images/stimuli/spore_stims/simple_12_B_b.gif","middle","","","","",""
"","null","html-keyboard-response","18","65155","0.0-8.0-0.5","SS1613020801957","","","null","","","<p><img src= images/blank.png width =""200"" height = ""200"" style = ""float:right""></p><p><img src=images/blank.png width =""800"" height = ""200""></p>","","","","","","","","","","","",""
"","1127.005000016652","sequential-stimulus-presentation","19","67093","0.0-8.0-1.5","SS1613020801957","trial","","40","800","1927.005000016652","","","","","0","simple_similar","images/stimuli/spore_stims/simple_12_A_b.gif","right","","","","",""
"","null","html-keyboard-response","20","67971","0.0-8.0-0.6","SS1613020801957","","","null","","","<p><img src= images/blank.png width =""200"" height = ""200"" style = ""float:right""></p><p><img src=images/blank.png width =""800"" height = ""200""></p>","","","","","","","","","","","",""
"","1347.7999999886379","sequential-stimulus-presentation","21","70130","0.0-8.0-1.6","SS1613020801957","trial","","40","800","2147.799999988638","","","","","0","simple_similar","images/stimuli/spore_stims/simple_12_B_b.gif","middle","","","","",""
"","null","html-keyboard-response","22","71022","0.0-8.0-0.7","SS1613020801957","","","null","","","<p><img src= images/blank.png width =""200"" height = ""200"" style = ""float:right""></p><p><img src=images/blank.png width =""800"" height = ""200""></p>","","","","","","","","","","","",""
"","7997.37500003539","sequential-stimulus-presentation","23","79829","0.0-8.0-1.7","SS1613020801957","trial","","40","800","8797.37500003539","","","","","0","simple_similar","images/stimuli/spore_stims/simple_12_B_b.gif","middle","","","","",""
"","4124.934999970719","html-keyboard-response","24","83959","0.0-9.0","SS1613020801957","pref_question","","50","","","<video width ='960' height = '540' style='padding-top:8%' autoplay muted><source src='images/stimuli/wall_pref.mp4' type='video/mp4'></video>","2","middle","45%","0","","","","","","","",""
"","2196.784999978263","sequential-stimulus-presentation","25","86965","0.0-10.0","SS1613020801957","pref_reveal","","40","800","2996.784999978263","","","","","0","","","","background","","","",""
"","null","html-keyboard-response","26","87811","0.0-11.0-0.0","SS1613020801957","","","null","","","<p><img src= images/blank.png width =""200"" height = ""200"" style = ""float:right""></p><p><img src=images/blank.png width =""800"" height = ""200""></p>","","","","","","","","","","","",""
"","637.445000000298","sequential-stimulus-presentation","27","89259","0.0-11.0-1.0","SS1613020801957","trial","","40","800","1437.445000000298","","","","","1","simple_dissimilar","images/stimuli/spore_stims/simple_08_B_c.gif","right","","","","",""
"","null","html-keyboard-response","28","90249","0.0-11.0-0.1","SS1613020801957","","","null","","","<p><img src= images/blank.png width =""200"" height = ""200"" style = ""float:right""></p><p><img src=images/blank.png width =""800"" height = ""200""></p>","","","","","","","","","","","",""
"","10143.595000030473","sequential-stimulus-presentation","29","101202","0.0-11.0-1.1","SS1613020801957","trial","","40","800","10943.595000030473","","","","","1","simple_dissimilar","images/stimuli/spore_stims/simple_08_B_c.gif","right","","","","",""
"","null","html-keyboard-response","30","102488","0.0-11.0-0.2","SS1613020801957","","","null","","","<p><img src= images/blank.png width =""200"" height = ""200"" style = ""float:right""></p><p><img src=images/blank.png width =""800"" height = ""200""></p>","","","","","","","","","","","",""
"","319.39499999862164","sequential-stimulus-presentation","31","103614","0.0-11.0-1.2","SS1613020801957","trial","","40","800","1119.3949999986216","","","","","1","simple_dissimilar","images/stimuli/spore_stims/simple_18_A_c.gif","left","","","","",""
"","null","html-keyboard-response","32","104526","0.0-11.0-0.3","SS1613020801957","","","null","","","<p><img src= images/blank.png width =""200"" height = ""200"" style = ""float:right""></p><p><img src=images/blank.png width =""800"" height = ""200""></p>","","","","","","","","","","","",""
"","1561.519999988377","sequential-stimulus-presentation","33","106893","0.0-11.0-1.3","SS1613020801957","trial","","40","800","2361.519999988377","","","","","1","simple_dissimilar","images/stimuli/spore_stims/simple_08_B_c.gif","right","","","","",""
"","null","html-keyboard-response","34","108036","0.0-11.0-0.4","SS1613020801957","","","null","","","<p><img src= images/blank.png width =""200"" height = ""200"" style = ""float:right""></p><p><img src=images/blank.png width =""800"" height = ""200""></p>","","","","","","","","","","","",""
"","516.7200000141747","sequential-stimulus-presentation","35","109364","0.0-11.0-1.4","SS1613020801957","trial","","40","800","1316.7200000141747","","","","","1","simple_dissimilar","images/stimuli/spore_stims/simple_08_B_c.gif","right","","","","",""
"","null","html-keyboard-response","36","110316","0.0-11.0-0.5","SS1613020801957","","","null","","","<p><img src= images/blank.png width =""200"" height = ""200"" style = ""float:right""></p><p><img src=images/blank.png width =""800"" height = ""200""></p>","","","","","","","","","","","",""
"","823.3449999825098","sequential-stimulus-presentation","37","111949","0.0-11.0-1.5","SS1613020801957","trial","","40","800","1623.3449999825098","","","","","1","simple_dissimilar","images/stimuli/spore_stims/simple_08_B_c.gif","right","","","","",""
"","null","html-keyboard-response","38","113008","0.0-11.0-0.6","SS1613020801957","","","null","","","<p><img src= images/blank.png width =""200"" height = ""200"" style = ""float:right""></p><p><img src=images/blank.png width =""800"" height = ""200""></p>","","","","","","","","","","","",""
"","1187.0499999495223","sequential-stimulus-presentation","39","115006","0.0-11.0-1.6","SS1613020801957","trial","","40","800","1987.0499999495223","","","","","1","simple_dissimilar","images/stimuli/spore_stims/simple_08_B_c.gif","right","","","","",""
"","null","html-keyboard-response","40","115959","0.0-11.0-0.7","SS1613020801957","","","null","","","<p><img src= images/blank.png width =""200"" height = ""200"" style = ""float:right""></p><p><img src=images/blank.png width =""800"" height = ""200""></p>","","","","","","","","","","","",""
"","632.4199999799021","sequential-stimulus-presentation","41","117398","0.0-11.0-1.7","SS1613020801957","trial","","40","800","1432.419999979902","","","","","1","simple_dissimilar","images/stimuli/spore_stims/simple_08_B_c.gif","right","","","","",""
"","1139.6049999748357","html-keyboard-response","42","118541","0.0-12.0","SS1613020801957","pref_question","","51","","","<video width ='960' height = '540' style='padding-top:8%' autoplay muted><source src='images/stimuli/wall_pref.mp4' type='video/mp4'></video>","3","right","66%","1","","","","","","","",""
"","586.5500000072643","sequential-stimulus-presentation","43","119934","0.0-13.0","SS1613020801957","pref_reveal","","40","800","1386.5500000072643","","","","","1","","","","background","","","",""
"","null","html-keyboard-response","44","121063","0.0-14.0-0.0","SS1613020801957","","","null","","","<p><img src= images/blank.png width =""200"" height = ""200"" style = ""float:right""></p><p><img src=images/blank.png width =""800"" height = ""200""></p>","","","","","","","","","","","",""
"","540.3250000090338","sequential-stimulus-presentation","45","122411","0.0-14.0-1.0","SS1613020801957","trial","","40","800","1340.3250000090338","","","","","2","complex_dissimilar","images/stimuli/spore_stims/complex_19_A_a.gif","left","","","","",""
"","null","html-keyboard-response","46","123534","0.0-14.0-0.1","SS1613020801957","","","null","","","<p><img src= images/blank.png width =""200"" height = ""200"" style = ""float:right""></p><p><img src=images/blank.png width =""800"" height = ""200""></p>","","","","","","","","","","","",""
"","415.4850000049919","sequential-stimulus-presentation","47","124759","0.0-14.0-1.1","SS1613020801957","trial","","40","800","1215.485000004992","","","","","2","complex_dissimilar","images/stimuli/spore_stims/complex_19_A_a.gif","left","","","","",""
"","null","html-keyboard-response","48","125599","0.0-14.0-0.2","SS1613020801957","","","null","","","<p><img src= images/blank.png width =""200"" height = ""200"" style = ""float:right""></p><p><img src=images/blank.png width =""800"" height = ""200""></p>","","","","","","","","","","","",""
"","494.8199999635108","sequential-stimulus-presentation","49","126899","0.0-14.0-1.2","SS1613020801957","trial","","40","800","1294.8199999635108","","","","","2","complex_dissimilar","images/stimuli/spore_stims/complex_19_A_a.gif","left","","","","",""
"","null","html-keyboard-response","50","128001","0.0-14.0-0.3","SS1613020801957","","","null","","","<p><img src= images/blank.png width =""200"" height = ""200"" style = ""float:right""></p><p><img src=images/blank.png width =""800"" height = ""200""></p>","","","","","","","","","","","",""
"","358.669999986887","sequential-stimulus-presentation","51","129171","0.0-14.0-1.3","SS1613020801957","trial","","40","800","1158.669999986887","","","","","2","complex_dissimilar","images/stimuli/spore_stims/complex_19_A_a.gif","left","","","","",""
"","null","html-keyboard-response","52","130340","0.0-14.0-0.4","SS1613020801957","","","null","","","<p><img src= images/blank.png width =""200"" height = ""200"" style = ""float:right""></p><p><img src=images/blank.png width =""800"" height = ""200""></p>","","","","","","","","","","","",""
"","358.55999996419996","sequential-stimulus-presentation","53","131506","0.0-14.0-1.4","SS1613020801957","trial","","40","800","1158.5599999642","","","","","2","complex_dissimilar","images/stimuli/spore_stims/complex_19_A_a.gif","left","","","","",""
"","null","html-keyboard-response","54","132795","0.0-14.0-0.5","SS1613020801957","","","null","","","<p><img src= images/blank.png width =""200"" height = ""200"" style = ""float:right""></p><p><img src=images/blank.png width =""800"" height = ""200""></p>","","","","","","","","","","","",""
"","508.9149999548681","sequential-stimulus-presentation","55","134111","0.0-14.0-1.5","SS1613020801957","trial","","40","800","1308.914999954868","","","","","2","complex_dissimilar","images/stimuli/spore_stims/complex_12_B_c.gif","right","","","","",""
"","null","html-keyboard-response","56","135002","0.0-14.0-0.6","SS1613020801957","","","null","","","<p><img src= images/blank.png width =""200"" height = ""200"" style = ""float:right""></p><p><img src=images/blank.png width =""800"" height = ""200""></p>","","","","","","","","","","","",""
"","497.54499999107793","sequential-stimulus-presentation","57","136307","0.0-14.0-1.6","SS1613020801957","trial","","40","800","1297.544999991078","","","","","2","complex_dissimilar","images/stimuli/spore_stims/complex_19_A_a.gif","left","","","","",""
"","null","html-keyboard-response","58","137313","0.0-14.0-0.7","SS1613020801957","","","null","","","<p><img src= images/blank.png width =""200"" height = ""200"" style = ""float:right""></p><p><img src=images/blank.png width =""800"" height = ""200""></p>","","","","","","","","","","","",""
"","399.474999983795","sequential-stimulus-presentation","59","138520","0.0-14.0-1.7","SS1613020801957","trial","","40","800","1199.474999983795","","","","","2","complex_dissimilar","images/stimuli/spore_stims/complex_19_A_a.gif","left","","","","",""
"","1515.17500000773","html-keyboard-response","60","140038","0.0-15.0","SS1613020801957","pref_question","","50","","","<video width ='960' height = '540' style='padding-top:8%' autoplay muted><source src='images/stimuli/wall_pref.mp4' type='video/mp4'></video>","2","middle","45%","2","","","","","","","",""
"","640.114999958314","sequential-stimulus-presentation","61","141487","0.0-16.0","SS1613020801957","pref_reveal","","40","800","1440.114999958314","","","","","2","","","","novel","","","",""
"","null","html-keyboard-response","62","142596","0.0-17.0-0.0","SS1613020801957","","","null","","","<p><img src= images/blank.png width =""200"" height = ""200"" style = ""float:right""></p><p><img src=images/blank.png width =""800"" height = ""200""></p>","","","","","","","","","","","",""
"","339.50499998172745","sequential-stimulus-presentation","63","143744","0.0-17.0-1.0","SS1613020801957","trial","","40","800","1139.5049999817275","","","","","3","simple_dissimilar","images/stimuli/spore_stims/simple_09_A_c.gif","left","","","","",""
"","null","html-keyboard-response","64","144703","0.0-17.0-0.1","SS1613020801957","","","null","","","<p><img src= images/blank.png width =""200"" height = ""200"" style = ""float:right""></p><p><img src=images/blank.png width =""800"" height = ""200""></p>","","","","","","","","","","","",""
"","210.0950000458397","sequential-stimulus-presentation","65","145720","0.0-17.0-1.1","SS1613020801957","trial","","40","800","1010.0950000458397","","","","","3","simple_dissimilar","images/stimuli/spore_stims/simple_09_A_c.gif","left","","","","",""
"","null","html-keyboard-response","66","146734","0.0-17.0-0.2","SS1613020801957","","","null","","","<p><img src= images/blank.png width =""200"" height = ""200"" style = ""float:right""></p><p><img src=images/blank.png width =""800"" height = ""200""></p>","","","","","","","","","","","",""
"","10.589999961666763","sequential-stimulus-presentation","67","147555","0.0-17.0-1.2","SS1613020801957","trial","","40","800","810.5899999616668","","","","","3","simple_dissimilar","images/stimuli/spore_stims/simple_09_A_c.gif","left","","","","",""
"","null","html-keyboard-response","68","148740","0.0-17.0-0.3","SS1613020801957","","","null","","","<p><img src= images/blank.png width =""200"" height = ""200"" style = ""float:right""></p><p><img src=images/blank.png width =""800"" height = ""200""></p>","","","","","","","","","","","",""
"","559.1400000266731","sequential-stimulus-presentation","69","150107","0.0-17.0-1.3","SS1613020801957","trial","","40","800","1359.140000026673","","","","","3","simple_dissimilar","images/stimuli/spore_stims/simple_09_A_c.gif","left","","","","",""
"","null","html-keyboard-response","70","151295","0.0-17.0-0.4","SS1613020801957","","","null","","","<p><img src= images/blank.png width =""200"" height = ""200"" style = ""float:right""></p><p><img src=images/blank.png width =""800"" height = ""200""></p>","","","","","","","","","","","",""
"","2753.8749999948777","sequential-stimulus-presentation","71","154859","0.0-17.0-1.4","SS1613020801957","trial","","40","800","3553.8749999948777","","","","","3","simple_dissimilar","images/stimuli/spore_stims/simple_09_A_c.gif","left","","","","",""
"","null","html-keyboard-response","72","155981","0.0-17.0-0.5","SS1613020801957","","","null","","","<p><img src= images/blank.png width =""200"" height = ""200"" style = ""float:right""></p><p><img src=images/blank.png width =""800"" height = ""200""></p>","","","","","","","","","","","",""
"","2017.9900000221096","sequential-stimulus-presentation","73","158809","0.0-17.0-1.5","SS1613020801957","trial","","40","800","2817.9900000221096","","","","","3","simple_dissimilar","images/stimuli/spore_stims/simple_09_A_c.gif","left","","","","",""
"","null","html-keyboard-response","74","159999","0.0-17.0-0.6","SS1613020801957","","","null","","","<p><img src= images/blank.png width =""200"" height = ""200"" style = ""float:right""></p><p><img src=images/blank.png width =""800"" height = ""200""></p>","","","","","","","","","","","",""
"","1984.554999973625","sequential-stimulus-presentation","75","162791","0.0-17.0-1.6","SS1613020801957","trial","","40","800","2784.554999973625","","","","","3","simple_dissimilar","images/stimuli/spore_stims/simple_09_A_c.gif","left","","","","",""
"","null","html-keyboard-response","76","163716","0.0-17.0-0.7","SS1613020801957","","","null","","","<p><img src= images/blank.png width =""200"" height = ""200"" style = ""float:right""></p><p><img src=images/blank.png width =""800"" height = ""200""></p>","","","","","","","","","","","",""
"","314.4099999917671","sequential-stimulus-presentation","77","164838","0.0-17.0-1.7","SS1613020801957","trial","","40","800","1114.409999991767","","","","","3","simple_dissimilar","images/stimuli/spore_stims/simple_04_B_c.gif","middle","","","","",""
"","3593.0099999532104","html-keyboard-response","78","168445","0.0-18.0","SS1613020801957","pref_question","","51","","","<video width ='960' height = '540' style='padding-top:8%' autoplay muted><source src='images/stimuli/wall_pref.mp4' type='video/mp4'></video>","3","right","66%","3","","","","","","","",""
"","1576.6449999646284","sequential-stimulus-presentation","79","170832","0.0-19.0","SS1613020801957","pref_reveal","","40","800","2376.6449999646284","","","","","3","","","","novel","","","",""
"","null","html-keyboard-response","80","172081","0.0-20.0-0.0","SS1613020801957","","","null","","","<p><img src= images/blank.png width =""200"" height = ""200"" style = ""float:right""></p><p><img src=images/blank.png width =""800"" height = ""200""></p>","","","","","","","","","","","",""
"","610.404999984894","sequential-stimulus-presentation","81","173502","0.0-20.0-1.0","SS1613020801957","trial","","40","800","1410.404999984894","","","","","4","simple_similar","images/stimuli/spore_stims/simple_19_A_b.gif","left","","","","",""
"","null","html-keyboard-response","82","174436","0.0-20.0-0.1","SS1613020801957","","","null","","","<p><img src= images/blank.png width =""200"" height = ""200"" style = ""float:right""></p><p><img src=images/blank.png width =""800"" height = ""200""></p>","","","","","","","","","","","",""
"","2111.2950000097044","sequential-stimulus-presentation","83","177357","0.0-20.0-1.1","SS1613020801957","trial","","40","800","2911.2950000097044","","","","","4","simple_similar","images/stimuli/spore_stims/simple_19_A_b.gif","left","","","","",""
"","null","html-keyboard-response","84","178499","0.0-20.0-0.2","SS1613020801957","","","null","","","<p><img src= images/blank.png width =""200"" height = ""200"" style = ""float:right""></p><p><img src=images/blank.png width =""800"" height = ""200""></p>","","","","","","","","","","","",""
"","1400.2699999837205","sequential-stimulus-presentation","85","180710","0.0-20.0-1.2","SS1613020801957","trial","","40","800","2200.2699999837205","","","","","4","simple_similar","images/stimuli/spore_stims/simple_19_A_b.gif","left","","","","",""
"","null","html-keyboard-response","86","181886","0.0-20.0-0.3","SS1613020801957","","","null","","","<p><img src= images/blank.png width =""200"" height = ""200"" style = ""float:right""></p><p><img src=images/blank.png width =""800"" height = ""200""></p>","","","","","","","","","","","",""
"","1526.0700000217184","sequential-stimulus-presentation","87","184221","0.0-20.0-1.3","SS1613020801957","trial","","40","800","2326.0700000217184","","","","","4","simple_similar","images/stimuli/spore_stims/simple_19_A_b.gif","left","","","","",""
"","null","html-keyboard-response","88","185080","0.0-20.0-0.4","SS1613020801957","","","null","","","<p><img src= images/blank.png width =""200"" height = ""200"" style = ""float:right""></p><p><img src=images/blank.png width =""800"" height = ""200""></p>","","","","","","","","","","","",""
"","488.0649999831803","sequential-stimulus-presentation","89","186379","0.0-20.0-1.4","SS1613020801957","trial","","40","800","1288.0649999831803","","","","","4","simple_similar","images/stimuli/spore_stims/simple_19_B_b.gif","right","","","","",""
"","null","html-keyboard-response","90","187423","0.0-20.0-0.5","SS1613020801957","","","null","","","<p><img src= images/blank.png width =""200"" height = ""200"" style = ""float:right""></p><p><img src=images/blank.png width =""800"" height = ""200""></p>","","","","","","","","","","","",""
"","603.6800000001676","sequential-stimulus-presentation","91","188837","0.0-20.0-1.5","SS1613020801957","trial","","40","800","1403.6800000001676","","","","","4","simple_similar","images/stimuli/spore_stims/simple_19_A_b.gif","left","","","","",""
"","null","html-keyboard-response","92","189753","0.0-20.0-0.6","SS1613020801957","","","null","","","<p><img src= images/blank.png width =""200"" height = ""200"" style = ""float:right""></p><p><img src=images/blank.png width =""800"" height = ""200""></p>","","","","","","","","","","","",""
"","369.814999983646","sequential-stimulus-presentation","93","190935","0.0-20.0-1.6","SS1613020801957","trial","","40","800","1169.814999983646","","","","","4","simple_similar","images/stimuli/spore_stims/simple_19_A_b.gif","left","","","","",""
"","null","html-keyboard-response","94","191773","0.0-20.0-0.7","SS1613020801957","","","null","","","<p><img src= images/blank.png width =""200"" height = ""200"" style = ""float:right""></p><p><img src=images/blank.png width =""800"" height = ""200""></p>","","","","","","","","","","","",""
"","621.4250000193715","sequential-stimulus-presentation","95","193202","0.0-20.0-1.7","SS1613020801957","trial","","40","800","1421.4250000193715","","","","","4","simple_similar","images/stimuli/spore_stims/simple_19_A_b.gif","left","","","","",""
"","2152.624999987893","html-keyboard-response","96","195359","0.0-21.0","SS1613020801957","pref_question","","49","","","<video width ='960' height = '540' style='padding-top:8%' autoplay muted><source src='images/stimuli/wall_pref.mp4' type='video/mp4'></video>","1","left","25%","4","","","","","","","",""
"","278.8550000404939","sequential-stimulus-presentation","97","196447","0.0-22.0","SS1613020801957","pref_reveal","","40","800","1078.855000040494","","","","","4","","","","background","","","",""
"","null","html-keyboard-response","98","197445","0.0-23.0-0.0","SS1613020801957","","","null","","","<p><img src= images/blank.png width =""200"" height = ""200"" style = ""float:right""></p><p><img src=images/blank.png width =""800"" height = ""200""></p>","","","","","","","","","","","",""
"","287.9100000136532","sequential-stimulus-presentation","99","198543","0.0-23.0-1.0","SS1613020801957","trial","","40","800","1087.9100000136532","","","","","5","complex_dissimilar","images/stimuli/spore_stims/complex_08_A_c.gif","left","","","","",""
"","null","html-keyboard-response","100","199556","0.0-23.0-0.1","SS1613020801957","","","null","","","<p><img src= images/blank.png width =""200"" height = ""200"" style = ""float:right""></p><p><img src=images/blank.png width =""800"" height = ""200""></p>","","","","","","","","","","","",""
"","632.0950000081211","sequential-stimulus-presentation","101","200999","0.0-23.0-1.1","SS1613020801957","trial","","40","800","1432.0950000081211","","","","","5","complex_dissimilar","images/stimuli/spore_stims/complex_08_A_c.gif","left","","","","",""
"","null","html-keyboard-response","102","202059","0.0-23.0-0.2","SS1613020801957","","","null","","","<p><img src= images/blank.png width =""200"" height = ""200"" style = ""float:right""></p><p><img src=images/blank.png width =""800"" height = ""200""></p>","","","","","","","","","","","",""
"","469.05499999411404","sequential-stimulus-presentation","103","203339","0.0-23.0-1.2","SS1613020801957","trial","","40","800","1269.054999994114","","","","","5","complex_dissimilar","images/stimuli/spore_stims/complex_08_A_c.gif","left","","","","",""
"","null","html-keyboard-response","104","204580","0.0-23.0-0.3","SS1613020801957","","","null","","","<p><img src= images/blank.png width =""200"" height = ""200"" style = ""float:right""></p><p><img src=images/blank.png width =""800"" height = ""200""></p>","","","","","","","","","","","",""
"","272.7450000238605","sequential-stimulus-presentation","105","205658","0.0-23.0-1.3","SS1613020801957","trial","","40","800","1072.7450000238605","","","","","5","complex_dissimilar","images/stimuli/spore_stims/complex_08_A_c.gif","left","","","","",""
"","null","html-keyboard-response","106","206507","0.0-23.0-0.4","SS1613020801957","","","null","","","<p><img src= images/blank.png width =""200"" height = ""200"" style = ""float:right""></p><p><img src=images/blank.png width =""800"" height = ""200""></p>","","","","","","","","","","","",""
"","258.41999996919185","sequential-stimulus-presentation","107","207572","0.0-23.0-1.4","SS1613020801957","trial","","40","800","1058.4199999691918","","","","","5","complex_dissimilar","images/stimuli/spore_stims/complex_04_A_c.gif","right","","","","",""
"","null","html-keyboard-response","108","208821","0.0-23.0-0.5","SS1613020801957","","","null","","","<p><img src= images/blank.png width =""200"" height = ""200"" style = ""float:right""></p><p><img src=images/blank.png width =""800"" height = ""200""></p>","","","","","","","","","","","",""
"","362.6700000022538","sequential-stimulus-presentation","109","209990","0.0-23.0-1.5","SS1613020801957","trial","","40","800","1162.6700000022538","","","","","5","complex_dissimilar","images/stimuli/spore_stims/complex_08_A_c.gif","left","","","","",""
"","null","html-keyboard-response","110","211281","0.0-23.0-0.6","SS1613020801957","","","null","","","<p><img src= images/blank.png width =""200"" height = ""200"" style = ""float:right""></p><p><img src=images/blank.png width =""800"" height = ""200""></p>","","","","","","","","","","","",""
"","113.87000000104308","sequential-stimulus-presentation","111","212207","0.0-23.0-1.6","SS1613020801957","trial","","40","800","913.8700000010431","","","","","5","complex_dissimilar","images/stimuli/spore_stims/complex_08_A_c.gif","left","","","","",""
"","null","html-keyboard-response","112","213281","0.0-23.0-0.7","SS1613020801957","","","null","","","<p><img src= images/blank.png width =""200"" height = ""200"" style = ""float:right""></p><p><img src=images/blank.png width =""800"" height = ""200""></p>","","","","","","","","","","","",""
"","725.8349999901839","sequential-stimulus-presentation","113","214829","0.0-23.0-1.7","SS1613020801957","trial","","40","800","1525.8349999901839","","","","","5","complex_dissimilar","images/stimuli/spore_stims/complex_08_A_c.gif","left","","","","",""
"","1339.8099999758415","html-keyboard-response","114","216173","0.0-24.0","SS1613020801957","pref_question","","50","","","<video width ='960' height = '540' style='padding-top:8%' autoplay muted><source src='images/stimuli/wall_pref.mp4' type='video/mp4'></video>","2","middle","45%","5","","","","","","","",""
"","408.7549999821931","sequential-stimulus-presentation","115","217390","0.0-25.0","SS1613020801957","pref_reveal","","40","800","1208.754999982193","","","","","5","","","","novel","","","",""
"","null","html-keyboard-response","116","218386","0.0-26.0-0.0","SS1613020801957","","","null","","","<p><img src= images/blank.png width =""200"" height = ""200"" style = ""float:right""></p><p><img src=images/blank.png width =""800"" height = ""200""></p>","","","","","","","","","","","",""
"","413.2450000033714","sequential-stimulus-presentation","117","219618","0.0-26.0-1.0","SS1613020801957","trial","","40","800","1213.2450000033714","","","","","6","complex_similar","images/stimuli/spore_stims/complex_17_A_c.gif","right","","","","",""
"","null","html-keyboard-response","118","220458","0.0-26.0-0.1","SS1613020801957","","","null","","","<p><img src= images/blank.png width =""200"" height = ""200"" style = ""float:right""></p><p><img src=images/blank.png width =""800"" height = ""200""></p>","","","","","","","","","","","",""
"","299.88999996567145","sequential-stimulus-presentation","119","221565","0.0-26.0-1.1","SS1613020801957","trial","","40","800","1099.8899999656714","","","","","6","complex_similar","images/stimuli/spore_stims/complex_17_A_c.gif","right","","","","",""
"","null","html-keyboard-response","120","222773","0.0-26.0-0.2","SS1613020801957","","","null","","","<p><img src= images/blank.png width =""200"" height = ""200"" style = ""float:right""></p><p><img src=images/blank.png width =""800"" height = ""200""></p>","","","","","","","","","","","",""
"","60.97000004956499","sequential-stimulus-presentation","121","223642","0.0-26.0-1.2","SS1613020801957","trial","","40","800","860.970000049565","","","","","6","complex_similar","images/stimuli/spore_stims/complex_17_A_c.gif","right","","","","",""
"","null","html-keyboard-response","122","224708","0.0-26.0-0.3","SS1613020801957","","","null","","","<p><img src= images/blank.png width =""200"" height = ""200"" style = ""float:right""></p><p><img src=images/blank.png width =""800"" height = ""200""></p>","","","","","","","","","","","",""
"","334.8350000451319","sequential-stimulus-presentation","123","225854","0.0-26.0-1.3","SS1613020801957","trial","","40","800","1134.835000045132","","","","","6","complex_similar","images/stimuli/spore_stims/complex_17_A_c.gif","right","","","","",""
"","null","html-keyboard-response","124","226867","0.0-26.0-0.4","SS1613020801957","","","null","","","<p><img src= images/blank.png width =""200"" height = ""200"" style = ""float:right""></p><p><img src=images/blank.png width =""800"" height = ""200""></p>","","","","","","","","","","","",""
"","368.89000004157424","sequential-stimulus-presentation","125","228043","0.0-26.0-1.4","SS1613020801957","trial","","40","800","1168.8900000415742","","","","","6","complex_similar","images/stimuli/spore_stims/complex_17_A_c.gif","right","","","","",""
"","null","html-keyboard-response","126","229177","0.0-26.0-0.5","SS1613020801957","","","null","","","<p><img src= images/blank.png width =""200"" height = ""200"" style = ""float:right""></p><p><img src=images/blank.png width =""800"" height = ""200""></p>","","","","","","","","","","","",""
"","361.2950000097044","sequential-stimulus-presentation","127","230348","0.0-26.0-1.5","SS1613020801957","trial","","40","800","1161.2950000097044","","","","","6","complex_similar","images/stimuli/spore_stims/complex_17_B_c.gif","middle","","","","",""
"","null","html-keyboard-response","128","231521","0.0-26.0-0.6","SS1613020801957","","","null","","","<p><img src= images/blank.png width =""200"" height = ""200"" style = ""float:right""></p><p><img src=images/blank.png width =""800"" height = ""200""></p>","","","","","","","","","","","",""
"","584.1400000499561","sequential-stimulus-presentation","129","232917","0.0-26.0-1.6","SS1613020801957","trial","","40","800","1384.1400000499561","","","","","6","complex_similar","images/stimuli/spore_stims/complex_17_A_c.gif","right","","","","",""
"","null","html-keyboard-response","130","233736","0.0-26.0-0.7","SS1613020801957","","","null","","","<p><img src= images/blank.png width =""200"" height = ""200"" style = ""float:right""></p><p><img src=images/blank.png width =""800"" height = ""200""></p>","","","","","","","","","","","",""
"","300.5150000099093","sequential-stimulus-presentation","131","234847","0.0-26.0-1.7","SS1613020801957","trial","","40","800","1100.5150000099093","","","","","6","complex_similar","images/stimuli/spore_stims/complex_17_A_c.gif","right","","","","",""
"","895.8700000075623","html-keyboard-response","132","235748","0.0-27.0","SS1613020801957","pref_question","","51","","","<video width ='960' height = '540' style='padding-top:8%' autoplay muted><source src='images/stimuli/wall_pref.mp4' type='video/mp4'></video>","3","right","66%","6","","","","","","","",""
"","597.0650000381283","sequential-stimulus-presentation","133","237151","0.0-28.0","SS1613020801957","pref_reveal","","40","800","1397.0650000381283","","","","","6","","","","background","","","",""
"","null","html-keyboard-response","134","238303","0.0-29.0-0.0","SS1613020801957","","","null","","","<p><img src= images/blank.png width =""200"" height = ""200"" style = ""float:right""></p><p><img src=images/blank.png width =""800"" height = ""200""></p>","","","","","","","","","","","",""
"","658.2449999987148","sequential-stimulus-presentation","135","239770","0.0-29.0-1.0","SS1613020801957","trial","","40","800","1458.2449999987148","","","","","7","simple_dissimilar","images/stimuli/spore_stims/simple_17_A_a.gif","left","","","","",""
"","null","html-keyboard-response","136","241023","0.0-29.0-0.1","SS1613020801957","","","null","","","<p><img src= images/blank.png width =""200"" height = ""200"" style = ""float:right""></p><p><img src=images/blank.png width =""800"" height = ""200""></p>","","","","","","","","","","","",""
"","452.9850000399165","sequential-stimulus-presentation","137","242286","0.0-29.0-1.1","SS1613020801957","trial","","40","800","1252.9850000399165","","","","","7","simple_dissimilar","images/stimuli/spore_stims/simple_17_A_a.gif","left","","","","",""
"","null","html-keyboard-response","138","243287","0.0-29.0-0.2","SS1613020801957","","","null","","","<p><img src= images/blank.png width =""200"" height = ""200"" style = ""float:right""></p><p><img src=images/blank.png width =""800"" height = ""200""></p>","","","","","","","","","","","",""
"","1229.094999958761","sequential-stimulus-presentation","139","245326","0.0-29.0-1.2","SS1613020801957","trial","","40","800","2029.094999958761","","","","","7","simple_dissimilar","images/stimuli/spore_stims/simple_17_A_a.gif","left","","","","",""
"","null","html-keyboard-response","140","246271","0.0-29.0-0.3","SS1613020801957","","","null","","","<p><img src= images/blank.png width =""200"" height = ""200"" style = ""float:right""></p><p><img src=images/blank.png width =""800"" height = ""200""></p>","","","","","","","","","","","",""
"","458.23499996913597","sequential-stimulus-presentation","141","247540","0.0-29.0-1.3","SS1613020801957","trial","","40","800","1258.234999969136","","","","","7","simple_dissimilar","images/stimuli/spore_stims/simple_17_A_a.gif","left","","","","",""
"","null","html-keyboard-response","142","248608","0.0-29.0-0.4","SS1613020801957","","","null","","","<p><img src= images/blank.png width =""200"" height = ""200"" style = ""float:right""></p><p><img src=images/blank.png width =""800"" height = ""200""></p>","","","","","","","","","","","",""
"","334.9700000253506","sequential-stimulus-presentation","143","249753","0.0-29.0-1.4","SS1613020801957","trial","","40","800","1134.9700000253506","","","","","7","simple_dissimilar","images/stimuli/spore_stims/simple_17_A_a.gif","left","","","","",""
"","null","html-keyboard-response","144","250725","0.0-29.0-0.5","SS1613020801957","","","null","","","<p><img src= images/blank.png width =""200"" height = ""200"" style = ""float:right""></p><p><img src=images/blank.png width =""800"" height = ""200""></p>","","","","","","","","","","","",""
"","396.2750000064261","sequential-stimulus-presentation","145","251933","0.0-29.0-1.5","SS1613020801957","trial","","40","800","1196.2750000064261","","","","","7","simple_dissimilar","images/stimuli/spore_stims/simple_07_B_d.gif","right","","","","",""
"","null","html-keyboard-response","146","252778","0.0-29.0-0.6","SS1613020801957","","","null","","","<p><img src= images/blank.png width =""200"" height = ""200"" style = ""float:right""></p><p><img src=images/blank.png width =""800"" height = ""200""></p>","","","","","","","","","","","",""
"","603.6750000203028","sequential-stimulus-presentation","147","254191","0.0-29.0-1.6","SS1613020801957","trial","","40","800","1403.6750000203028","","","","","7","simple_dissimilar","images/stimuli/spore_stims/simple_17_A_a.gif","left","","","","",""
"","null","html-keyboard-response","148","255120","0.0-29.0-0.7","SS1613020801957","","","null","","","<p><img src= images/blank.png width =""200"" height = ""200"" style = ""float:right""></p><p><img src=images/blank.png width =""800"" height = ""200""></p>","","","","","","","","","","","",""
"","438.9300000038929","sequential-stimulus-presentation","149","256371","0.0-29.0-1.7","SS1613020801957","trial","","40","800","1238.930000003893","","","","","7","simple_dissimilar","images/stimuli/spore_stims/simple_17_A_a.gif","left","","","","",""
"","914.8150000255555","html-keyboard-response","150","257290","0.0-30.0","SS1613020801957","pref_question","","50","","","<video width ='960' height = '540' style='padding-top:8%' autoplay muted><source src='images/stimuli/wall_pref.mp4' type='video/mp4'></video>","2","middle","45%","7","","","","","","","",""
"","292.8400000091642","sequential-stimulus-presentation","151","258390","0.0-31.0","SS1613020801957","pref_reveal","","40","800","1092.8400000091642","","","","","7","","","","novel","","","",""
"","null","html-keyboard-response","152","259680","0.0-32.0-0.0","SS1613020801957","","","null","","","<p><img src= images/blank.png width =""200"" height = ""200"" style = ""float:right""></p><p><img src=images/blank.png width =""800"" height = ""200""></p>","","","","","","","","","","","",""
"","274.55999999074265","sequential-stimulus-presentation","153","260765","0.0-32.0-1.0","SS1613020801957","trial","","40","800","1074.5599999907427","","","","","8","complex_dissimilar","images/stimuli/spore_stims/complex_14_B_d.gif","left","","","","",""
"","null","html-keyboard-response","154","262026","0.0-32.0-0.1","SS1613020801957","","","null","","","<p><img src= images/blank.png width =""200"" height = ""200"" style = ""float:right""></p><p><img src=images/blank.png width =""800"" height = ""200""></p>","","","","","","","","","","","",""
"","376.3250000192784","sequential-stimulus-presentation","155","263214","0.0-32.0-1.1","SS1613020801957","trial","","40","800","1176.3250000192784","","","","","8","complex_dissimilar","images/stimuli/spore_stims/complex_14_B_d.gif","left","","","","",""
"","null","html-keyboard-response","156","264306","0.0-32.0-0.2","SS1613020801957","","","null","","","<p><img src= images/blank.png width =""200"" height = ""200"" style = ""float:right""></p><p><img src=images/blank.png width =""800"" height = ""200""></p>","","","","","","","","","","","",""
"","259.894999966491","sequential-stimulus-presentation","157","265374","0.0-32.0-1.2","SS1613020801957","trial","","40","800","1059.894999966491","","","","","8","complex_dissimilar","images/stimuli/spore_stims/complex_14_B_d.gif","left","","","","",""
"","null","html-keyboard-response","158","266287","0.0-32.0-0.3","SS1613020801957","","","null","","","<p><img src= images/blank.png width =""200"" height = ""200"" style = ""float:right""></p><p><img src=images/blank.png width =""800"" height = ""200""></p>","","","","","","","","","","","",""
"","419.74499996285886","sequential-stimulus-presentation","159","267515","0.0-32.0-1.3","SS1613020801957","trial","","40","800","1219.7449999628589","","","","","8","complex_dissimilar","images/stimuli/spore_stims/complex_14_B_d.gif","left","","","","",""
"","null","html-keyboard-response","160","268521","0.0-32.0-0.4","SS1613020801957","","","null","","","<p><img src= images/blank.png width =""200"" height = ""200"" style = ""float:right""></p><p><img src=images/blank.png width =""800"" height = ""200""></p>","","","","","","","","","","","",""
"","510.1600000052713","sequential-stimulus-presentation","161","269838","0.0-32.0-1.4","SS1613020801957","trial","","40","800","1310.1600000052713","","","","","8","complex_dissimilar","images/stimuli/spore_stims/complex_14_B_d.gif","left","","","","",""
"","null","html-keyboard-response","162","270768","0.0-32.0-0.5","SS1613020801957","","","null","","","<p><img src= images/blank.png width =""200"" height = ""200"" style = ""float:right""></p><p><img src=images/blank.png width =""800"" height = ""200""></p>","","","","","","","","","","","",""
"","372.6199999800883","sequential-stimulus-presentation","163","271950","0.0-32.0-1.5","SS1613020801957","trial","","40","800","1172.6199999800883","","","","","8","complex_dissimilar","images/stimuli/spore_stims/complex_14_B_d.gif","left","","","","",""
"","null","html-keyboard-response","164","273162","0.0-32.0-0.6","SS1613020801957","","","null","","","<p><img src= images/blank.png width =""200"" height = ""200"" style = ""float:right""></p><p><img src=images/blank.png width =""800"" height = ""200""></p>","","","","","","","","","","","",""
"","358.67500002495944","sequential-stimulus-presentation","165","274332","0.0-32.0-1.6","SS1613020801957","trial","","40","800","1158.6750000249594","","","","","8","complex_dissimilar","images/stimuli/spore_stims/complex_06_A_a.gif","middle","","","","",""
"","null","html-keyboard-response","166","275482","0.0-32.0-0.7","SS1613020801957","","","null","","","<p><img src= images/blank.png width =""200"" height = ""200"" style = ""float:right""></p><p><img src=images/blank.png width =""800"" height = ""200""></p>","","","","","","","","","","","",""
"","516.5999999735504","sequential-stimulus-presentation","167","276810","0.0-32.0-1.7","SS1613020801957","trial","","40","800","1316.5999999735504","","","","","8","complex_dissimilar","images/stimuli/spore_stims/complex_14_B_d.gif","left","","","","",""
"","1184.8400000017136","html-keyboard-response","168","277999","0.0-33.0","SS1613020801957","pref_question","","49","","","<video width ='960' height = '540' style='padding-top:8%' autoplay muted><source src='images/stimuli/wall_pref.mp4' type='video/mp4'></video>","1","left","25%","8","","","","","","","",""
"","725.7849999587052","sequential-stimulus-presentation","169","279536","0.0-34.0","SS1613020801957","pref_reveal","","40","800","1525.7849999587052","","","","","8","","","","background","","","",""
"","null","html-keyboard-response","170","280600","0.0-35.0-0.0","SS1613020801957","","","null","","","<p><img src= images/blank.png width =""200"" height = ""200"" style = ""float:right""></p><p><img src=images/blank.png width =""800"" height = ""200""></p>","","","","","","","","","","","",""
"","477.2300000186078","sequential-stimulus-presentation","171","281888","0.0-35.0-1.0","SS1613020801957","trial","","40","800","1277.2300000186078","","","","","9","complex_similar","images/stimuli/spore_stims/complex_10_B_a.gif","middle","","","","",""
"","null","html-keyboard-response","172","283009","0.0-35.0-0.1","SS1613020801957","","","null","","","<p><img src= images/blank.png width =""200"" height = ""200"" style = ""float:right""></p><p><img src=images/blank.png width =""800"" height = ""200""></p>","","","","","","","","","","","",""
"","138.81999999284744","sequential-stimulus-presentation","173","283958","0.0-35.0-1.1","SS1613020801957","trial","","40","800","938.8199999928474","","","","","9","complex_similar","images/stimuli/spore_stims/complex_10_B_a.gif","middle","","","","",""
"","null","html-keyboard-response","174","284895","0.0-35.0-0.2","SS1613020801957","","","null","","","<p><img src= images/blank.png width =""200"" height = ""200"" style = ""float:right""></p><p><img src=images/blank.png width =""800"" height = ""200""></p>","","","","","","","","","","","",""
"","412.62999997707084","sequential-stimulus-presentation","175","286114","0.0-35.0-1.2","SS1613020801957","trial","","40","800","1212.6299999770708","","","","","9","complex_similar","images/stimuli/spore_stims/complex_10_B_a.gif","middle","","","","",""
"","null","html-keyboard-response","176","287021","0.0-35.0-0.3","SS1613020801957","","","null","","","<p><img src= images/blank.png width =""200"" height = ""200"" style = ""float:right""></p><p><img src=images/blank.png width =""800"" height = ""200""></p>","","","","","","","","","","","",""
"","123.9400000195019","sequential-stimulus-presentation","177","287959","0.0-35.0-1.3","SS1613020801957","trial","","40","800","923.9400000195019","","","","","9","complex_similar","images/stimuli/spore_stims/complex_10_B_a.gif","middle","","","","",""
"","null","html-keyboard-response","178","288938","0.0-35.0-0.4","SS1613020801957","","","null","","","<p><img src= images/blank.png width =""200"" height = ""200"" style = ""float:right""></p><p><img src=images/blank.png width =""800"" height = ""200""></p>","","","","","","","","","","","",""
"","419.4150000112131","sequential-stimulus-presentation","179","290165","0.0-35.0-1.4","SS1613020801957","trial","","40","800","1219.4150000112131","","","","","9","complex_similar","images/stimuli/spore_stims/complex_10_A_a.gif","left","","","","",""
"","null","html-keyboard-response","180","291328","0.0-35.0-0.5","SS1613020801957","","","null","","","<p><img src= images/blank.png width =""200"" height = ""200"" style = ""float:right""></p><p><img src=images/blank.png width =""800"" height = ""200""></p>","","","","","","","","","","","",""
"","464.2500000190921","sequential-stimulus-presentation","181","292604","0.0-35.0-1.5","SS1613020801957","trial","","40","800","1264.250000019092","","","","","9","complex_similar","images/stimuli/spore_stims/complex_10_B_a.gif","middle","","","","",""
"","null","html-keyboard-response","182","293587","0.0-35.0-0.6","SS1613020801957","","","null","","","<p><img src= images/blank.png width =""200"" height = ""200"" style = ""float:right""></p><p><img src=images/blank.png width =""800"" height = ""200""></p>","","","","","","","","","","","",""
"","559.7849999903701","sequential-stimulus-presentation","183","294956","0.0-35.0-1.6","SS1613020801957","trial","","40","800","1359.7849999903701","","","","","9","complex_similar","images/stimuli/spore_stims/complex_10_B_a.gif","middle","","","","",""
"","null","html-keyboard-response","184","296091","0.0-35.0-0.7","SS1613020801957","","","null","","","<p><img src= images/blank.png width =""200"" height = ""200"" style = ""float:right""></p><p><img src=images/blank.png width =""800"" height = ""200""></p>","","","","","","","","","","","",""
"","16.475000011269003","sequential-stimulus-presentation","185","296918","0.0-35.0-1.7","SS1613020801957","trial","","40","800","816.475000011269","","","","","9","complex_similar","images/stimuli/spore_stims/complex_10_B_a.gif","middle","","","","",""
"","1146.4500000001863","html-keyboard-response","186","298070","0.0-36.0","SS1613020801957","pref_question","","49","","","<video width ='960' height = '540' style='padding-top:8%' autoplay muted><source src='images/stimuli/wall_pref.mp4' type='video/mp4'></video>","1","left","25%","9","","","","","","","",""
"","527.509999985341","sequential-stimulus-presentation","187","299408","0.0-37.0","SS1613020801957","pref_reveal","","40","800","1327.509999985341","","","","","9","","","","deviant","","","",""
"","null","html-keyboard-response","188","300508","0.0-38.0-0.0","SS1613020801957","","","null","","","<p><img src= images/blank.png width =""200"" height = ""200"" style = ""float:right""></p><p><img src=images/blank.png width =""800"" height = ""200""></p>","","","","","","","","","","","",""
"","370.01000001328066","sequential-stimulus-presentation","189","301691","0.0-38.0-1.0","SS1613020801957","trial","","40","800","1170.0100000132807","","","","","10","simple_similar","images/stimuli/spore_stims/simple_15_B_c.gif","right","","","","",""
"","null","html-keyboard-response","190","302545","0.0-38.0-0.1","SS1613020801957","","","null","","","<p><img src= images/blank.png width =""200"" height = ""200"" style = ""float:right""></p><p><img src=images/blank.png width =""800"" height = ""200""></p>","","","","","","","","","","","",""
"","188.32999997539446","sequential-stimulus-presentation","191","303545","0.0-38.0-1.1","SS1613020801957","trial","","40","800","988.3299999753945","","","","","10","simple_similar","images/stimuli/spore_stims/simple_15_B_c.gif","right","","","","",""
"","null","html-keyboard-response","192","304700","0.0-38.0-0.2","SS1613020801957","","","null","","","<p><img src= images/blank.png width =""200"" height = ""200"" style = ""float:right""></p><p><img src=images/blank.png width =""800"" height = ""200""></p>","","","","","","","","","","","",""
"","398.29000004101545","sequential-stimulus-presentation","193","305906","0.0-38.0-1.2","SS1613020801957","trial","","40","800","1198.2900000410154","","","","","10","simple_similar","images/stimuli/spore_stims/simple_15_B_c.gif","right","","","","",""
"","null","html-keyboard-response","194","307025","0.0-38.0-0.3","SS1613020801957","","","null","","","<p><img src= images/blank.png width =""200"" height = ""200"" style = ""float:right""></p><p><img src=images/blank.png width =""800"" height = ""200""></p>","","","","","","","","","","","",""
"","348.9749999716878","sequential-stimulus-presentation","195","308181","0.0-38.0-1.3","SS1613020801957","trial","","40","800","1148.9749999716878","","","","","10","simple_similar","images/stimuli/spore_stims/simple_15_B_c.gif","right","","","","",""
"","null","html-keyboard-response","196","309137","0.0-38.0-0.4","SS1613020801957","","","null","","","<p><img src= images/blank.png width =""200"" height = ""200"" style = ""float:right""></p><p><img src=images/blank.png width =""800"" height = ""200""></p>","","","","","","","","","","","",""
"","615.810000046622","sequential-stimulus-presentation","197","310558","0.0-38.0-1.4","SS1613020801957","trial","","40","800","1415.810000046622","","","","","10","simple_similar","images/stimuli/spore_stims/simple_15_B_c.gif","right","","","","",""
"","null","html-keyboard-response","198","311552","0.0-38.0-0.5","SS1613020801957","","","null","","","<p><img src= images/blank.png width =""200"" height = ""200"" style = ""float:right""></p><p><img src=images/blank.png width =""800"" height = ""200""></p>","","","","","","","","","","","",""
"","323.15499999094754","sequential-stimulus-presentation","199","312686","0.0-38.0-1.5","SS1613020801957","trial","","40","800","1123.1549999909475","","","","","10","simple_similar","images/stimuli/spore_stims/simple_15_B_c.gif","right","","","","",""
"","null","html-keyboard-response","200","313501","0.0-38.0-0.6","SS1613020801957","","","null","","","<p><img src= images/blank.png width =""200"" height = ""200"" style = ""float:right""></p><p><img src=images/blank.png width =""800"" height = ""200""></p>","","","","","","","","","","","",""
"","480.97500001313165","sequential-stimulus-presentation","201","314792","0.0-38.0-1.6","SS1613020801957","trial","","40","800","1280.9750000131316","","","","","10","simple_similar","images/stimuli/spore_stims/simple_15_B_c.gif","right","","","","",""
"","null","html-keyboard-response","202","315990","0.0-38.0-0.7","SS1613020801957","","","null","","","<p><img src= images/blank.png width =""200"" height = ""200"" style = ""float:right""></p><p><img src=images/blank.png width =""800"" height = ""200""></p>","","","","","","","","","","","",""
"","358.21999999461696","sequential-stimulus-presentation","203","317159","0.0-38.0-1.7","SS1613020801957","trial","","40","800","1158.219999994617","","","","","10","simple_similar","images/stimuli/spore_stims/simple_15_A_c.gif","middle","","","","",""
"","1265.4099999926984","html-keyboard-response","204","318429","0.0-39.0","SS1613020801957","pref_question","","51","","","<video width ='960' height = '540' style='padding-top:8%' autoplay muted><source src='images/stimuli/wall_pref.mp4' type='video/mp4'></video>","3","right","66%","10","","","","","","","",""
"","24038.284999958705","sequential-stimulus-presentation","205","343273","0.0-40.0","SS1613020801957","pref_reveal","","40","800","24838.284999958705","","","","","10","","","","background","","","",""
"","null","html-keyboard-response","206","344411","0.0-41.0-0.0","SS1613020801957","","","null","","","<p><img src= images/blank.png width =""200"" height = ""200"" style = ""float:right""></p><p><img src=images/blank.png width =""800"" height = ""200""></p>","","","","","","","","","","","",""
"","225.51000001840293","sequential-stimulus-presentation","207","345442","0.0-41.0-1.0","SS1613020801957","trial","","40","800","1025.510000018403","","","","","11","simple_similar","images/stimuli/spore_stims/simple_20_B_b.gif","middle","","","","",""
"","null","html-keyboard-response","208","346283","0.0-41.0-0.1","SS1613020801957","","","null","","","<p><img src= images/blank.png width =""200"" height = ""200"" style = ""float:right""></p><p><img src=images/blank.png width =""800"" height = ""200""></p>","","","","","","","","","","","",""
"","1194.889999984298","sequential-stimulus-presentation","209","348290","0.0-41.0-1.1","SS1613020801957","trial","","40","800","1994.889999984298","","","","","11","simple_similar","images/stimuli/spore_stims/simple_20_B_b.gif","middle","","","","",""
"","null","html-keyboard-response","210","349250","0.0-41.0-0.2","SS1613020801957","","","null","","","<p><img src= images/blank.png width =""200"" height = ""200"" style = ""float:right""></p><p><img src=images/blank.png width =""800"" height = ""200""></p>","","","","","","","","","","","",""
"","188.32000001566485","sequential-stimulus-presentation","211","350250","0.0-41.0-1.2","SS1613020801957","trial","","40","800","988.3200000156648","","","","","11","simple_similar","images/stimuli/spore_stims/simple_20_B_b.gif","middle","","","","",""
"","null","html-keyboard-response","212","351376","0.0-41.0-0.3","SS1613020801957","","","null","","","<p><img src= images/blank.png width =""200"" height = ""200"" style = ""float:right""></p><p><img src=images/blank.png width =""800"" height = ""200""></p>","","","","","","","","","","","",""
"","130.89000002946705","sequential-stimulus-presentation","213","352325","0.0-41.0-1.3","SS1613020801957","trial","","40","800","930.890000029467","","","","","11","simple_similar","images/stimuli/spore_stims/simple_20_B_b.gif","middle","","","","",""
"","null","html-keyboard-response","214","353621","0.0-41.0-0.4","SS1613020801957","","","null","","","<p><img src= images/blank.png width =""200"" height = ""200"" style = ""float:right""></p><p><img src=images/blank.png width =""800"" height = ""200""></p>","","","","","","","","","","","",""
"","1636.339999968186","sequential-stimulus-presentation","215","356064","0.0-41.0-1.4","SS1613020801957","trial","","40","800","2436.339999968186","","","","","11","simple_similar","images/stimuli/spore_stims/simple_20_A_b.gif","right","","","","",""
"","null","html-keyboard-response","216","357128","0.0-41.0-0.5","SS1613020801957","","","null","","","<p><img src= images/blank.png width =""200"" height = ""200"" style = ""float:right""></p><p><img src=images/blank.png width =""800"" height = ""200""></p>","","","","","","","","","","","",""
"","546.9600000069477","sequential-stimulus-presentation","217","358485","0.0-41.0-1.5","SS1613020801957","trial","","40","800","1346.9600000069477","","","","","11","simple_similar","images/stimuli/spore_stims/simple_20_B_b.gif","middle","","","","",""
"","null","html-keyboard-response","218","359443","0.0-41.0-0.6","SS1613020801957","","","null","","","<p><img src= images/blank.png width =""200"" height = ""200"" style = ""float:right""></p><p><img src=images/blank.png width =""800"" height = ""200""></p>","","","","","","","","","","","",""
"","379.2150000226684","sequential-stimulus-presentation","219","360632","0.0-41.0-1.6","SS1613020801957","trial","","40","800","1179.2150000226684","","","","","11","simple_similar","images/stimuli/spore_stims/simple_20_B_b.gif","middle","","","","",""
"","null","html-keyboard-response","220","361683","0.0-41.0-0.7","SS1613020801957","","","null","","","<p><img src= images/blank.png width =""200"" height = ""200"" style = ""float:right""></p><p><img src=images/blank.png width =""800"" height = ""200""></p>","","","","","","","","","","","",""
"","503.19499999750406","sequential-stimulus-presentation","221","362996","0.0-41.0-1.7","SS1613020801957","trial","","40","800","1303.194999997504","","","","","11","simple_similar","images/stimuli/spore_stims/simple_20_B_b.gif","middle","","","","",""
"","1178.0699999653734","html-keyboard-response","222","364179","0.0-42.0","SS1613020801957","pref_question","","49","","","<video width ='960' height = '540' style='padding-top:8%' autoplay muted><source src='images/stimuli/wall_pref.mp4' type='video/mp4'></video>","1","left","25%","11","","","","","","","",""
"","815.7549999887124","sequential-stimulus-presentation","223","365803","0.0-43.0","SS1613020801957","pref_reveal","","40","800","1615.7549999887124","","","","","11","","","","novel","","","",""
"","null","html-keyboard-response","224","366891","0.0-44.0-0.0","SS1613020801957","","","null","","","<p><img src= images/blank.png width =""200"" height = ""200"" style = ""float:right""></p><p><img src=images/blank.png width =""800"" height = ""200""></p>","","","","","","","","","","","",""
"","844.3550000083633","sequential-stimulus-presentation","225","368543","0.0-44.0-1.0","SS1613020801957","trial","","40","800","1644.3550000083633","","","","","12","simple_dissimilar","images/stimuli/spore_stims/simple_10_B_c.gif","right","","","","",""
"","null","html-keyboard-response","226","369755","0.0-44.0-0.1","SS1613020801957","","","null","","","<p><img src= images/blank.png width =""200"" height = ""200"" style = ""float:right""></p><p><img src=images/blank.png width =""800"" height = ""200""></p>","","","","","","","","","","","",""
"","734.7249999875203","sequential-stimulus-presentation","227","371296","0.0-44.0-1.1","SS1613020801957","trial","","40","800","1534.7249999875203","","","","","12","simple_dissimilar","images/stimuli/spore_stims/simple_10_B_c.gif","right","","","","",""
"","null","html-keyboard-response","228","372597","0.0-44.0-0.2","SS1613020801957","","","null","","","<p><img src= images/blank.png width =""200"" height = ""200"" style = ""float:right""></p><p><img src=images/blank.png width =""800"" height = ""200""></p>","","","","","","","","","","","",""
"","3655.864999978803","sequential-stimulus-presentation","229","377067","0.0-44.0-1.2","SS1613020801957","trial","","40","800","4455.864999978803","","","","","12","simple_dissimilar","images/stimuli/spore_stims/simple_10_B_c.gif","right","","","","",""
"","null","html-keyboard-response","230","378157","0.0-44.0-0.3","SS1613020801957","","","null","","","<p><img src= images/blank.png width =""200"" height = ""200"" style = ""float:right""></p><p><img src=images/blank.png width =""800"" height = ""200""></p>","","","","","","","","","","","",""
"","646.3050000020303","sequential-stimulus-presentation","231","379617","0.0-44.0-1.3","SS1613020801957","trial","","40","800","1446.3050000020303","","","","","12","simple_dissimilar","images/stimuli/spore_stims/simple_10_B_c.gif","right","","","","",""
"","null","html-keyboard-response","232","380698","0.0-44.0-0.4","SS1613020801957","","","null","","","<p><img src= images/blank.png width =""200"" height = ""200"" style = ""float:right""></p><p><img src=images/blank.png width =""800"" height = ""200""></p>","","","","","","","","","","","",""
"","182.91500001214445","sequential-stimulus-presentation","233","381686","0.0-44.0-1.4","SS1613020801957","trial","","40","800","982.9150000121444","","","","","12","simple_dissimilar","images/stimuli/spore_stims/simple_10_B_c.gif","right","","","","",""
"","null","html-keyboard-response","234","382809","0.0-44.0-0.5","SS1613020801957","","","null","","","<p><img src= images/blank.png width =""200"" height = ""200"" style = ""float:right""></p><p><img src=images/blank.png width =""800"" height = ""200""></p>","","","","","","","","","","","",""
"","453.2400000025518","sequential-stimulus-presentation","235","384077","0.0-44.0-1.5","SS1613020801957","trial","","40","800","1253.2400000025518","","","","","12","simple_dissimilar","images/stimuli/spore_stims/simple_10_B_c.gif","right","","","","",""
"","null","html-keyboard-response","236","385280","0.0-44.0-0.6","SS1613020801957","","","null","","","<p><img src= images/blank.png width =""200"" height = ""200"" style = ""float:right""></p><p><img src=images/blank.png width =""800"" height = ""200""></p>","","","","","","","","","","","",""
"","220.5299999914132","sequential-stimulus-presentation","237","386309","0.0-44.0-1.6","SS1613020801957","trial","","40","800","1020.5299999914132","","","","","12","simple_dissimilar","images/stimuli/spore_stims/simple_19_B_c.gif","left","","","","",""
"","null","html-keyboard-response","238","387132","0.0-44.0-0.7","SS1613020801957","","","null","","","<p><img src= images/blank.png width =""200"" height = ""200"" style = ""float:right""></p><p><img src=images/blank.png width =""800"" height = ""200""></p>","","","","","","","","","","","",""
"","199.30500001646578","sequential-stimulus-presentation","239","388141","0.0-44.0-1.7","SS1613020801957","trial","","40","800","999.3050000164658","","","","","12","simple_dissimilar","images/stimuli/spore_stims/simple_10_B_c.gif","right","","","","",""
"","964.0849999850616","html-keyboard-response","240","389110","0.0-45.0","SS1613020801957","pref_question","","49","","","<video width ='960' height = '540' style='padding-top:8%' autoplay muted><source src='images/stimuli/wall_pref.mp4' type='video/mp4'></video>","1","left","25%","12","","","","","","","",""
"","334.04499996686354","sequential-stimulus-presentation","241","390255","0.0-46.0","SS1613020801957","pref_reveal","","40","800","1134.0449999668635","","","","","12","","","","deviant","","","",""
"","null","html-keyboard-response","242","391381","0.0-47.0-0.0","SS1613020801957","","","null","","","<p><img src= images/blank.png width =""200"" height = ""200"" style = ""float:right""></p><p><img src=images/blank.png width =""800"" height = ""200""></p>","","","","","","","","","","","",""
"","478.2450000056997","sequential-stimulus-presentation","243","392671","0.0-47.0-1.0","SS1613020801957","trial","","40","800","1278.2450000056997","","","","","13","simple_dissimilar","images/stimuli/spore_stims/simple_13_A_a.gif","left","","","","",""
"","null","html-keyboard-response","244","393555","0.0-47.0-0.1","SS1613020801957","","","null","","","<p><img src= images/blank.png width =""200"" height = ""200"" style = ""float:right""></p><p><img src=images/blank.png width =""800"" height = ""200""></p>","","","","","","","","","","","",""
"","139.6950000198558","sequential-stimulus-presentation","245","394506","0.0-47.0-1.1","SS1613020801957","trial","","40","800","939.6950000198558","","","","","13","simple_dissimilar","images/stimuli/spore_stims/simple_13_A_a.gif","left","","","","",""
"","null","html-keyboard-response","246","395777","0.0-47.0-0.2","SS1613020801957","","","null","","","<p><img src= images/blank.png width =""200"" height = ""200"" style = ""float:right""></p><p><img src=images/blank.png width =""800"" height = ""200""></p>","","","","","","","","","","","",""
"","296.5649999678135","sequential-stimulus-presentation","247","396884","0.0-47.0-1.2","SS1613020801957","trial","","40","800","1096.5649999678135","","","","","13","simple_dissimilar","images/stimuli/spore_stims/simple_13_A_a.gif","left","","","","",""
"","null","html-keyboard-response","248","398142","0.0-47.0-0.3","SS1613020801957","","","null","","","<p><img src= images/blank.png width =""200"" height = ""200"" style = ""float:right""></p><p><img src=images/blank.png width =""800"" height = ""200""></p>","","","","","","","","","","","",""
"","229.18500000378117","sequential-stimulus-presentation","249","399183","0.0-47.0-1.3","SS1613020801957","trial","","40","800","1029.1850000037812","","","","","13","simple_dissimilar","images/stimuli/spore_stims/simple_13_A_a.gif","left","","","","",""
"","null","html-keyboard-response","250","400118","0.0-47.0-0.4","SS1613020801957","","","null","","","<p><img src= images/blank.png width =""200"" height = ""200"" style = ""float:right""></p><p><img src=images/blank.png width =""800"" height = ""200""></p>","","","","","","","","","","","",""
"","341.3899999577552","sequential-stimulus-presentation","251","401273","0.0-47.0-1.4","SS1613020801957","trial","","40","800","1141.3899999577552","","","","","13","simple_dissimilar","images/stimuli/spore_stims/simple_13_A_a.gif","left","","","","",""
"","null","html-keyboard-response","252","402277","0.0-47.0-0.5","SS1613020801957","","","null","","","<p><img src= images/blank.png width =""200"" height = ""200"" style = ""float:right""></p><p><img src=images/blank.png width =""800"" height = ""200""></p>","","","","","","","","","","","",""
"","543.4499999973923","sequential-stimulus-presentation","253","403632","0.0-47.0-1.5","SS1613020801957","trial","","40","800","1343.4499999973923","","","","","13","simple_dissimilar","images/stimuli/spore_stims/simple_10_A_b.gif","right","","","","",""
"","null","html-keyboard-response","254","404838","0.0-47.0-0.6","SS1613020801957","","","null","","","<p><img src= images/blank.png width =""200"" height = ""200"" style = ""float:right""></p><p><img src=images/blank.png width =""800"" height = ""200""></p>","","","","","","","","","","","",""
"","343.6900000087917","sequential-stimulus-presentation","255","405992","0.0-47.0-1.6","SS1613020801957","trial","","40","800","1143.6900000087917","","","","","13","simple_dissimilar","images/stimuli/spore_stims/simple_13_A_a.gif","left","","","","",""
"","null","html-keyboard-response","256","407209","0.0-47.0-0.7","SS1613020801957","","","null","","","<p><img src= images/blank.png width =""200"" height = ""200"" style = ""float:right""></p><p><img src=images/blank.png width =""800"" height = ""200""></p>","","","","","","","","","","","",""
"","224.64999998919666","sequential-stimulus-presentation","257","408247","0.0-47.0-1.7","SS1613020801957","trial","","40","800","1024.6499999891967","","","","","13","simple_dissimilar","images/stimuli/spore_stims/simple_13_A_a.gif","left","","","","",""
"","1193.024999985937","html-keyboard-response","258","409448","0.0-48.0","SS1613020801957","pref_question","","51","","","<video width ='960' height = '540' style='padding-top:8%' autoplay muted><source src='images/stimuli/wall_pref.mp4' type='video/mp4'></video>","3","right","66%","13","","","","","","","",""
"","340.9899999969639","sequential-stimulus-presentation","259","410600","0.0-49.0","SS1613020801957","pref_reveal","","40","800","1140.989999996964","","","","","13","","","","deviant","","","",""
"","null","html-keyboard-response","260","411430","0.0-50.0-0.0","SS1613020801957","","","null","","","<p><img src= images/blank.png width =""200"" height = ""200"" style = ""float:right""></p><p><img src=images/blank.png width =""800"" height = ""200""></p>","","","","","","","","","","","",""
"","205.93499997630715","sequential-stimulus-presentation","261","412447","0.0-50.0-1.0","SS1613020801957","trial","","40","800","1005.9349999763072","","","","","14","complex_similar","images/stimuli/spore_stims/complex_18_A_b.gif","left","","","","",""
"","null","html-keyboard-response","262","413601","0.0-50.0-0.1","SS1613020801957","","","null","","","<p><img src= images/blank.png width =""200"" height = ""200"" style = ""float:right""></p><p><img src=images/blank.png width =""800"" height = ""200""></p>","","","","","","","","","","","",""
"","374.30500000482425","sequential-stimulus-presentation","263","414798","0.0-50.0-1.1","SS1613020801957","trial","","40","800","1174.3050000048243","","","","","14","complex_similar","images/stimuli/spore_stims/complex_18_A_b.gif","left","","","","",""
"","null","html-keyboard-response","264","415871","0.0-50.0-0.2","SS1613020801957","","","null","","","<p><img src= images/blank.png width =""200"" height = ""200"" style = ""float:right""></p><p><img src=images/blank.png width =""800"" height = ""200""></p>","","","","","","","","","","","",""
"","20.06999996956438","sequential-stimulus-presentation","265","416702","0.0-50.0-1.2","SS1613020801957","trial","","40","800","820.0699999695644","","","","","14","complex_similar","images/stimuli/spore_stims/complex_18_A_b.gif","left","","","","",""
"","null","html-keyboard-response","266","417683","0.0-50.0-0.3","SS1613020801957","","","null","","","<p><img src= images/blank.png width =""200"" height = ""200"" style = ""float:right""></p><p><img src=images/blank.png width =""800"" height = ""200""></p>","","","","","","","","","","","",""
"","498.25000000419095","sequential-stimulus-presentation","267","418992","0.0-50.0-1.3","SS1613020801957","trial","","40","800","1298.250000004191","","","","","14","complex_similar","images/stimuli/spore_stims/complex_18_A_b.gif","left","","","","",""
"","null","html-keyboard-response","268","420177","0.0-50.0-0.4","SS1613020801957","","","null","","","<p><img src= images/blank.png width =""200"" height = ""200"" style = ""float:right""></p><p><img src=images/blank.png width =""800"" height = ""200""></p>","","","","","","","","","","","",""
"","300.14000000664964","sequential-stimulus-presentation","269","421288","0.0-50.0-1.4","SS1613020801957","trial","","40","800","1100.1400000066496","","","","","14","complex_similar","images/stimuli/spore_stims/complex_18_A_b.gif","left","","","","",""
"","null","html-keyboard-response","270","422134","0.0-50.0-0.5","SS1613020801957","","","null","","","<p><img src= images/blank.png width =""200"" height = ""200"" style = ""float:right""></p><p><img src=images/blank.png width =""800"" height = ""200""></p>","","","","","","","","","","","",""
"","405.02499998547137","sequential-stimulus-presentation","271","423353","0.0-50.0-1.5","SS1613020801957","trial","","40","800","1205.0249999854714","","","","","14","complex_similar","images/stimuli/spore_stims/complex_18_A_b.gif","left","","","","",""
"","null","html-keyboard-response","272","424298","0.0-50.0-0.6","SS1613020801957","","","null","","","<p><img src= images/blank.png width =""200"" height = ""200"" style = ""float:right""></p><p><img src=images/blank.png width =""800"" height = ""200""></p>","","","","","","","","","","","",""
"","455.3349999478087","sequential-stimulus-presentation","273","425565","0.0-50.0-1.6","SS1613020801957","trial","","40","800","1255.3349999478087","","","","","14","complex_similar","images/stimuli/spore_stims/complex_18_B_b.gif","middle","","","","",""
"","null","html-keyboard-response","274","426561","0.0-50.0-0.7","SS1613020801957","","","null","","","<p><img src= images/blank.png width =""200"" height = ""200"" style = ""float:right""></p><p><img src=images/blank.png width =""800"" height = ""200""></p>","","","","","","","","","","","",""
"","520.394999999553","sequential-stimulus-presentation","275","427904","0.0-50.0-1.7","SS1613020801957","trial","","40","800","1320.394999999553","","","","","14","complex_similar","images/stimuli/spore_stims/complex_18_A_b.gif","left","","","","",""
"","1328.2900000340305","html-keyboard-response","276","429240","0.0-51.0","SS1613020801957","pref_question","","50","","","<video width ='960' height = '540' style='padding-top:8%' autoplay muted><source src='images/stimuli/wall_pref.mp4' type='video/mp4'></video>","2","middle","45%","14","","","","","","","",""
"","1367.3950000084005","sequential-stimulus-presentation","277","431417","0.0-52.0","SS1613020801957","pref_reveal","","40","800","2167.3950000084005","","","","","14","","","","deviant","","","",""
"","null","html-keyboard-response","278","432662","0.0-53.0-0.0","SS1613020801957","","","null","","","<p><img src= images/blank.png width =""200"" height = ""200"" style = ""float:right""></p><p><img src=images/blank.png width =""800"" height = ""200""></p>","","","","","","","","","","","",""
"","422.6849999977276","sequential-stimulus-presentation","279","433897","0.0-53.0-1.0","SS1613020801957","trial","","40","800","1222.6849999977276","","","","","15","simple_similar","images/stimuli/spore_stims/simple_11_A_a.gif","middle","","","","",""
"","null","html-keyboard-response","280","435183","0.0-53.0-0.1","SS1613020801957","","","null","","","<p><img src= images/blank.png width =""200"" height = ""200"" style = ""float:right""></p><p><img src=images/blank.png width =""800"" height = ""200""></p>","","","","","","","","","","","",""
"","485.92000000644475","sequential-stimulus-presentation","281","436480","0.0-53.0-1.1","SS1613020801957","trial","","40","800","1285.9200000064448","","","","","15","simple_similar","images/stimuli/spore_stims/simple_11_A_a.gif","middle","","","","",""
"","null","html-keyboard-response","282","437439","0.0-53.0-0.2","SS1613020801957","","","null","","","<p><img src= images/blank.png width =""200"" height = ""200"" style = ""float:right""></p><p><img src=images/blank.png width =""800"" height = ""200""></p>","","","","","","","","","","","",""
"","915.0750000262633","sequential-stimulus-presentation","283","439166","0.0-53.0-1.2","SS1613020801957","trial","","40","800","1715.0750000262633","","","","","15","simple_similar","images/stimuli/spore_stims/simple_11_A_a.gif","middle","","","","",""
"","null","html-keyboard-response","284","440271","0.0-53.0-0.3","SS1613020801957","","","null","","","<p><img src= images/blank.png width =""200"" height = ""200"" style = ""float:right""></p><p><img src=images/blank.png width =""800"" height = ""200""></p>","","","","","","","","","","","",""
"","572.4900000495836","sequential-stimulus-presentation","285","441655","0.0-53.0-1.3","SS1613020801957","trial","","40","800","1372.4900000495836","","","","","15","simple_similar","images/stimuli/spore_stims/simple_11_A_a.gif","middle","","","","",""
"","null","html-keyboard-response","286","442519","0.0-53.0-0.4","SS1613020801957","","","null","","","<p><img src= images/blank.png width =""200"" height = ""200"" style = ""float:right""></p><p><img src=images/blank.png width =""800"" height = ""200""></p>","","","","","","","","","","","",""
"","251.09500001417473","sequential-stimulus-presentation","287","443584","0.0-53.0-1.4","SS1613020801957","trial","","40","800","1051.0950000141747","","","","","15","simple_similar","images/stimuli/spore_stims/simple_11_A_a.gif","middle","","","","",""
"","null","html-keyboard-response","288","444705","0.0-53.0-0.5","SS1613020801957","","","null","","","<p><img src= images/blank.png width =""200"" height = ""200"" style = ""float:right""></p><p><img src=images/blank.png width =""800"" height = ""200""></p>","","","","","","","","","","","",""
"","481.16500000469387","sequential-stimulus-presentation","289","445998","0.0-53.0-1.5","SS1613020801957","trial","","40","800","1281.1650000046939","","","","","15","simple_similar","images/stimuli/spore_stims/simple_11_B_a.gif","left","","","","",""
"","null","html-keyboard-response","290","446944","0.0-53.0-0.6","SS1613020801957","","","null","","","<p><img src= images/blank.png width =""200"" height = ""200"" style = ""float:right""></p><p><img src=images/blank.png width =""800"" height = ""200""></p>","","","","","","","","","","","",""
"","34.500000008847564","sequential-stimulus-presentation","291","447793","0.0-53.0-1.6","SS1613020801957","trial","","40","800","834.5000000088476","","","","","15","simple_similar","images/stimuli/spore_stims/simple_11_A_a.gif","middle","","","","",""
"","null","html-keyboard-response","292","448874","0.0-53.0-0.7","SS1613020801957","","","null","","","<p><img src= images/blank.png width =""200"" height = ""200"" style = ""float:right""></p><p><img src=images/blank.png width =""800"" height = ""200""></p>","","","","","","","","","","","",""
"","363.38499997509643","sequential-stimulus-presentation","293","450048","0.0-53.0-1.7","SS1613020801957","trial","","40","800","1163.3849999750964","","","","","15","simple_similar","images/stimuli/spore_stims/simple_11_A_a.gif","middle","","","","",""
"","1178.8050000322983","html-keyboard-response","294","451234","0.0-54.0","SS1613020801957","pref_question","","51","","","<video width ='960' height = '540' style='padding-top:8%' autoplay muted><source src='images/stimuli/wall_pref.mp4' type='video/mp4'></video>","3","right","66%","15","","","","","","","",""
"","408.060000045225","sequential-stimulus-presentation","295","452455","0.0-55.0","SS1613020801957","pref_reveal","","40","800","1208.060000045225","","","","","15","","","","novel","","","",""
"","null","html-keyboard-response","296","453298","0.0-56.0-0.0","SS1613020801957","","","null","","","<p><img src= images/blank.png width =""200"" height = ""200"" style = ""float:right""></p><p><img src=images/blank.png width =""800"" height = ""200""></p>","","","","","","","","","","","",""
"","399.5700000086799","sequential-stimulus-presentation","297","454512","0.0-56.0-1.0","SS1613020801957","trial","","40","800","1199.57000000868","","","","","16","complex_dissimilar","images/stimuli/spore_stims/complex_14_A_a.gif","middle","","","","",""
"","null","html-keyboard-response","298","455457","0.0-56.0-0.1","SS1613020801957","","","null","","","<p><img src= images/blank.png width =""200"" height = ""200"" style = ""float:right""></p><p><img src=images/blank.png width =""800"" height = ""200""></p>","","","","","","","","","","","",""
"","276.29999996861443","sequential-stimulus-presentation","299","456556","0.0-56.0-1.1","SS1613020801957","trial","","40","800","1076.2999999686144","","","","","16","complex_dissimilar","images/stimuli/spore_stims/complex_14_A_a.gif","middle","","","","",""
"","null","html-keyboard-response","300","457739","0.0-56.0-0.2","SS1613020801957","","","null","","","<p><img src= images/blank.png width =""200"" height = ""200"" style = ""float:right""></p><p><img src=images/blank.png width =""800"" height = ""200""></p>","","","","","","","","","","","",""
"","134.25000000279397","sequential-stimulus-presentation","301","458685","0.0-56.0-1.2","SS1613020801957","trial","","40","800","934.250000002794","","","","","16","complex_dissimilar","images/stimuli/spore_stims/complex_14_A_a.gif","middle","","","","",""
"","null","html-keyboard-response","302","459916","0.0-56.0-0.3","SS1613020801957","","","null","","","<p><img src= images/blank.png width =""200"" height = ""200"" style = ""float:right""></p><p><img src=images/blank.png width =""800"" height = ""200""></p>","","","","","","","","","","","",""
"","476.714999997057","sequential-stimulus-presentation","303","461206","0.0-56.0-1.3","SS1613020801957","trial","","40","800","1276.714999997057","","","","","16","complex_dissimilar","images/stimuli/spore_stims/complex_14_A_a.gif","middle","","","","",""
"","null","html-keyboard-response","304","462129","0.0-56.0-0.4","SS1613020801957","","","null","","","<p><img src= images/blank.png width =""200"" height = ""200"" style = ""float:right""></p><p><img src=images/blank.png width =""800"" height = ""200""></p>","","","","","","","","","","","",""
"","581.2400000286289","sequential-stimulus-presentation","305","463526","0.0-56.0-1.4","SS1613020801957","trial","","40","800","1381.2400000286289","","","","","16","complex_dissimilar","images/stimuli/spore_stims/complex_14_A_a.gif","middle","","","","",""
"","null","html-keyboard-response","306","464439","0.0-56.0-0.5","SS1613020801957","","","null","","","<p><img src= images/blank.png width =""200"" height = ""200"" style = ""float:right""></p><p><img src=images/blank.png width =""800"" height = ""200""></p>","","","","","","","","","","","",""
"","505.0899999914691","sequential-stimulus-presentation","307","465753","0.0-56.0-1.5","SS1613020801957","trial","","40","800","1305.089999991469","","","","","16","complex_dissimilar","images/stimuli/spore_stims/complex_14_A_a.gif","middle","","","","",""
"","null","html-keyboard-response","308","466908","0.0-56.0-0.6","SS1613020801957","","","null","","","<p><img src= images/blank.png width =""200"" height = ""200"" style = ""float:right""></p><p><img src=images/blank.png width =""800"" height = ""200""></p>","","","","","","","","","","","",""
"","1940.9049999667332","sequential-stimulus-presentation","309","469664","0.0-56.0-1.6","SS1613020801957","trial","","40","800","2740.904999966733","","","","","16","complex_dissimilar","images/stimuli/spore_stims/complex_14_A_a.gif","middle","","","","",""
"","null","html-keyboard-response","310","470793","0.0-56.0-0.7","SS1613020801957","","","null","","","<p><img src= images/blank.png width =""200"" height = ""200"" style = ""float:right""></p><p><img src=images/blank.png width =""800"" height = ""200""></p>","","","","","","","","","","","",""
"","440.7950000022538","sequential-stimulus-presentation","311","472047","0.0-56.0-1.7","SS1613020801957","trial","","40","800","1240.7950000022538","","","","","16","complex_dissimilar","images/stimuli/spore_stims/complex_02_A_d.gif","left","","","","",""
"","1361.0599999665283","html-keyboard-response","312","473417","0.0-57.0","SS1613020801957","pref_question","","49","","","<video width ='960' height = '540' style='padding-top:8%' autoplay muted><source src='images/stimuli/wall_pref.mp4' type='video/mp4'></video>","1","left","25%","16","","","","","","","",""
"","522.7099999901839","sequential-stimulus-presentation","313","474753","0.0-58.0","SS1613020801957","pref_reveal","","40","800","1322.7099999901839","","","","","16","","","","deviant","","","",""
"","null","html-keyboard-response","314","475709","0.0-59.0-0.0","SS1613020801957","","","null","","","<p><img src= images/blank.png width =""200"" height = ""200"" style = ""float:right""></p><p><img src=images/blank.png width =""800"" height = ""200""></p>","","","","","","","","","","","",""
"","532.0599999977276","sequential-stimulus-presentation","315","477055","0.0-59.0-1.0","SS1613020801957","trial","","40","800","1332.0599999977276","","","","","17","complex_dissimilar","images/stimuli/spore_stims/complex_20_B_b.gif","left","","","","",""
"","null","html-keyboard-response","316","478144","0.0-59.0-0.1","SS1613020801957","","","null","","","<p><img src= images/blank.png width =""200"" height = ""200"" style = ""float:right""></p><p><img src=images/blank.png width =""800"" height = ""200""></p>","","","","","","","","","","","",""
"","798.575000022538","sequential-stimulus-presentation","317","479754","0.0-59.0-1.1","SS1613020801957","trial","","40","800","1598.575000022538","","","","","17","complex_dissimilar","images/stimuli/spore_stims/complex_20_B_b.gif","left","","","","",""
"","null","html-keyboard-response","318","480938","0.0-59.0-0.2","SS1613020801957","","","null","","","<p><img src= images/blank.png width =""200"" height = ""200"" style = ""float:right""></p><p><img src=images/blank.png width =""800"" height = ""200""></p>","","","","","","","","","","","",""
"","454.8499999800697","sequential-stimulus-presentation","319","482206","0.0-59.0-1.2","SS1613020801957","trial","","40","800","1254.8499999800697","","","","","17","complex_dissimilar","images/stimuli/spore_stims/complex_20_B_b.gif","left","","","","",""
"","null","html-keyboard-response","320","483289","0.0-59.0-0.3","SS1613020801957","","","null","","","<p><img src= images/blank.png width =""200"" height = ""200"" style = ""float:right""></p><p><img src=images/blank.png width =""800"" height = ""200""></p>","","","","","","","","","","","",""
"","255.6899999617599","sequential-stimulus-presentation","321","484360","0.0-59.0-1.3","SS1613020801957","trial","","40","800","1055.68999996176","","","","","17","complex_dissimilar","images/stimuli/spore_stims/complex_20_B_b.gif","left","","","","",""
"","null","html-keyboard-response","322","485218","0.0-59.0-0.4","SS1613020801957","","","null","","","<p><img src= images/blank.png width =""200"" height = ""200"" style = ""float:right""></p><p><img src=images/blank.png width =""800"" height = ""200""></p>","","","","","","","","","","","",""
"","617.0999999740161","sequential-stimulus-presentation","323","486648","0.0-59.0-1.4","SS1613020801957","trial","","40","800","1417.099999974016","","","","","17","complex_dissimilar","images/stimuli/spore_stims/complex_06_B_a.gif","right","","","","",""
"","null","html-keyboard-response","324","487484","0.0-59.0-0.5","SS1613020801957","","","null","","","<p><img src= images/blank.png width =""200"" height = ""200"" style = ""float:right""></p><p><img src=images/blank.png width =""800"" height = ""200""></p>","","","","","","","","","","","",""
"","669.5900000049733","sequential-stimulus-presentation","325","488968","0.0-59.0-1.5","SS1613020801957","trial","","40","800","1469.5900000049733","","","","","17","complex_dissimilar","images/stimuli/spore_stims/complex_20_B_b.gif","left","","","","",""
"","null","html-keyboard-response","326","489847","0.0-59.0-0.6","SS1613020801957","","","null","","","<p><img src= images/blank.png width =""200"" height = ""200"" style = ""float:right""></p><p><img src=images/blank.png width =""800"" height = ""200""></p>","","","","","","","","","","","",""
"","201.52000000234693","sequential-stimulus-presentation","327","490856","0.0-59.0-1.6","SS1613020801957","trial","","40","800","1001.5200000023469","","","","","17","complex_dissimilar","images/stimuli/spore_stims/complex_20_B_b.gif","left","","","","",""
"","null","html-keyboard-response","328","491729","0.0-59.0-0.7","SS1613020801957","","","null","","","<p><img src= images/blank.png width =""200"" height = ""200"" style = ""float:right""></p><p><img src=images/blank.png width =""800"" height = ""200""></p>","","","","","","","","","","","",""
"","2238.774999976158","sequential-stimulus-presentation","329","494780","0.0-59.0-1.7","SS1613020801957","trial","","40","800","3038.774999976158","","","","","17","complex_dissimilar","images/stimuli/spore_stims/complex_20_B_b.gif","left","","","","",""
"","1106.0549999820068","html-keyboard-response","330","495889","0.0-60.0","SS1613020801957","pref_question","","51","","","<video width ='960' height = '540' style='padding-top:8%' autoplay muted><source src='images/stimuli/wall_pref.mp4' type='video/mp4'></video>","3","right","66%","17","","","","","","","",""
"","419.240000017453","sequential-stimulus-presentation","331","497121","0.0-61.0","SS1613020801957","pref_reveal","","40","800","1219.240000017453","","","","","17","","","","deviant","","","",""
"","null","html-keyboard-response","332","498236","0.0-62.0-0.0","SS1613020801957","","","null","","","<p><img src= images/blank.png width =""200"" height = ""200"" style = ""float:right""></p><p><img src=images/blank.png width =""800"" height = ""200""></p>","","","","","","","","","","","",""
"","672.4300000350922","sequential-stimulus-presentation","333","499724","0.0-62.0-1.0","SS1613020801957","trial","","40","800","1472.4300000350922","","","","","18","complex_similar","images/stimuli/spore_stims/complex_15_B_d.gif","right","","","","",""
"","null","html-keyboard-response","334","500908","0.0-62.0-0.1","SS1613020801957","","","null","","","<p><img src= images/blank.png width =""200"" height = ""200"" style = ""float:right""></p><p><img src=images/blank.png width =""800"" height = ""200""></p>","","","","","","","","","","","",""
"","374.49499999638647","sequential-stimulus-presentation","335","502097","0.0-62.0-1.1","SS1613020801957","trial","","40","800","1174.4949999963865","","","","","18","complex_similar","images/stimuli/spore_stims/complex_15_B_d.gif","right","","","","",""
"","null","html-keyboard-response","336","503079","0.0-62.0-0.2","SS1613020801957","","","null","","","<p><img src= images/blank.png width =""200"" height = ""200"" style = ""float:right""></p><p><img src=images/blank.png width =""800"" height = ""200""></p>","","","","","","","","","","","",""
"","373.59499995363876","sequential-stimulus-presentation","337","504268","0.0-62.0-1.2","SS1613020801957","trial","","40","800","1173.5949999536388","","","","","18","complex_similar","images/stimuli/spore_stims/complex_15_B_d.gif","right","","","","",""
"","null","html-keyboard-response","338","505522","0.0-62.0-0.3","SS1613020801957","","","null","","","<p><img src= images/blank.png width =""200"" height = ""200"" style = ""float:right""></p><p><img src=images/blank.png width =""800"" height = ""200""></p>","","","","","","","","","","","",""
"","234.4250000314787","sequential-stimulus-presentation","339","506567","0.0-62.0-1.3","SS1613020801957","trial","","40","800","1034.4250000314787","","","","","18","complex_similar","images/stimuli/spore_stims/complex_15_B_d.gif","right","","","","",""
"","null","html-keyboard-response","340","507506","0.0-62.0-0.4","SS1613020801957","","","null","","","<p><img src= images/blank.png width =""200"" height = ""200"" style = ""float:right""></p><p><img src=images/blank.png width =""800"" height = ""200""></p>","","","","","","","","","","","",""
"","305.3799999761395","sequential-stimulus-presentation","341","508622","0.0-62.0-1.4","SS1613020801957","trial","","40","800","1105.3799999761395","","","","","18","complex_similar","images/stimuli/spore_stims/complex_15_A_d.gif","middle","","","","",""
"","null","html-keyboard-response","342","509716","0.0-62.0-0.5","SS1613020801957","","","null","","","<p><img src= images/blank.png width =""200"" height = ""200"" style = ""float:right""></p><p><img src=images/blank.png width =""800"" height = ""200""></p>","","","","","","","","","","","",""
"","654.4799999683164","sequential-stimulus-presentation","343","511185","0.0-62.0-1.5","SS1613020801957","trial","","40","800","1454.4799999683164","","","","","18","complex_similar","images/stimuli/spore_stims/complex_15_B_d.gif","right","","","","",""
"","null","html-keyboard-response","344","512375","0.0-62.0-0.6","SS1613020801957","","","null","","","<p><img src= images/blank.png width =""200"" height = ""200"" style = ""float:right""></p><p><img src=images/blank.png width =""800"" height = ""200""></p>","","","","","","","","","","","",""
"","284.4749999931082","sequential-stimulus-presentation","345","513474","0.0-62.0-1.6","SS1613020801957","trial","","40","800","1084.4749999931082","","","","","18","complex_similar","images/stimuli/spore_stims/complex_15_B_d.gif","right","","","","",""
"","null","html-keyboard-response","346","514732","0.0-62.0-0.7","SS1613020801957","","","null","","","<p><img src= images/blank.png width =""200"" height = ""200"" style = ""float:right""></p><p><img src=images/blank.png width =""800"" height = ""200""></p>","","","","","","","","","","","",""
"","744.0650000353344","sequential-stimulus-presentation","347","516290","0.0-62.0-1.7","SS1613020801957","trial","","40","800","1544.0650000353344","","","","","18","complex_similar","images/stimuli/spore_stims/complex_15_B_d.gif","right","","","","",""
"","1711.8800000171177","html-keyboard-response","348","518009","0.0-63.0","SS1613020801957","pref_question","","50","","","<video width ='960' height = '540' style='padding-top:8%' autoplay muted><source src='images/stimuli/wall_pref.mp4' type='video/mp4'></video>","2","middle","45%","18","","","","","","","",""
"","105.16999999526888","sequential-stimulus-presentation","349","518926","0.0-64.0","SS1613020801957","pref_reveal","","40","800","905.1699999952689","","","","","18","","","","deviant","","","",""
"","null","html-keyboard-response","350","519922","0.0-65.0-0.0","SS1613020801957","","","null","","","<p><img src= images/blank.png width =""200"" height = ""200"" style = ""float:right""></p><p><img src=images/blank.png width =""800"" height = ""200""></p>","","","","","","","","","","","",""
"","358.8200000231154","sequential-stimulus-presentation","351","521094","0.0-65.0-1.0","SS1613020801957","trial","","40","800","1158.8200000231154","","","","","19","complex_similar","images/stimuli/spore_stims/complex_16_A_c.gif","left","","","","",""
"","null","html-keyboard-response","352","522037","0.0-65.0-0.1","SS1613020801957","","","null","","","<p><img src= images/blank.png width =""200"" height = ""200"" style = ""float:right""></p><p><img src=images/blank.png width =""800"" height = ""200""></p>","","","","","","","","","","","",""
"","295.84500001510605","sequential-stimulus-presentation","353","523146","0.0-65.0-1.1","SS1613020801957","trial","","40","800","1095.845000015106","","","","","19","complex_similar","images/stimuli/spore_stims/complex_16_A_c.gif","left","","","","",""
"","null","html-keyboard-response","354","524349","0.0-65.0-0.2","SS1613020801957","","","null","","","<p><img src= images/blank.png width =""200"" height = ""200"" style = ""float:right""></p><p><img src=images/blank.png width =""800"" height = ""200""></p>","","","","","","","","","","","",""
"","238.1300000124611","sequential-stimulus-presentation","355","525401","0.0-65.0-1.2","SS1613020801957","trial","","40","800","1038.130000012461","","","","","19","complex_similar","images/stimuli/spore_stims/complex_16_A_c.gif","left","","","","",""
"","null","html-keyboard-response","356","526621","0.0-65.0-0.3","SS1613020801957","","","null","","","<p><img src= images/blank.png width =""200"" height = ""200"" style = ""float:right""></p><p><img src=images/blank.png width =""800"" height = ""200""></p>","","","","","","","","","","","",""
"","400.7600000477396","sequential-stimulus-presentation","357","527845","0.0-65.0-1.3","SS1613020801957","trial","","40","800","1200.7600000477396","","","","","19","complex_similar","images/stimuli/spore_stims/complex_16_A_c.gif","left","","","","",""
"","null","html-keyboard-response","358","529028","0.0-65.0-0.4","SS1613020801957","","","null","","","<p><img src= images/blank.png width =""200"" height = ""200"" style = ""float:right""></p><p><img src=images/blank.png width =""800"" height = ""200""></p>","","","","","","","","","","","",""
"","347.34000003663823","sequential-stimulus-presentation","359","530191","0.0-65.0-1.4","SS1613020801957","trial","","40","800","1147.3400000366382","","","","","19","complex_similar","images/stimuli/spore_stims/complex_16_B_c.gif","middle","","","","",""
"","null","html-keyboard-response","360","531084","0.0-65.0-0.5","SS1613020801957","","","null","","","<p><img src= images/blank.png width =""200"" height = ""200"" style = ""float:right""></p><p><img src=images/blank.png width =""800"" height = ""200""></p>","","","","","","","","","","","",""
"","284.8750000121072","sequential-stimulus-presentation","361","532183","0.0-65.0-1.5","SS1613020801957","trial","","40","800","1084.8750000121072","","","","","19","complex_similar","images/stimuli/spore_stims/complex_16_A_c.gif","left","","","","",""
"","null","html-keyboard-response","362","533235","0.0-65.0-0.6","SS1613020801957","","","null","","","<p><img src= images/blank.png width =""200"" height = ""200"" style = ""float:right""></p><p><img src=images/blank.png width =""800"" height = ""200""></p>","","","","","","","","","","","",""
"","362.6700000022538","sequential-stimulus-presentation","363","534410","0.0-65.0-1.6","SS1613020801957","trial","","40","800","1162.6700000022538","","","","","19","complex_similar","images/stimuli/spore_stims/complex_16_A_c.gif","left","","","","",""
