"view_history","rt","stimulus_type","trial_type","trial_index","time_elapsed","internal_node_id","subject","trial_stimulus","key_press","minimum_viewing_duration","trial_looking_time","stimulus","ball_pref","location","block_number","stimulus_displayed","position_displayed","stim_type_selected"
"[{""page_index"":0,""viewing_time"":1205.6700000539422},{""page_index"":1,""viewing_time"":1018.51500000339}]","2224.5399999665096","instructions","instructions","0","2226","0.0-0.0","SS1611940976610","","","","","","","","","","",""
"","718.0699999444187","","sequential-stimulus-presentation","1","3849","0.0-1.0","SS1611940976610","","40","900","1618.0699999444187","","","","","","",""
"","364.52000006102026","","sequential-stimulus-presentation","2","5120","0.0-2.0","SS1611940976610","","40","900","1264.5200000610203","","","","","","",""
"[{""page_index"":0,""viewing_time"":1685.1500000339001}]","1685.4450000682846","instructions","instructions","3","6809","0.0-3.0","SS1611940976610","","","","","","","","","","",""
"","6161.240000044927","instructions","html-keyboard-response","4","12978","0.0-4.0","SS1611940976610","","49","","","<img src=images/stimuli/pokeballs_pref.jpg width =""800"" height = ""200"" style=""padding-top: 33%"">","1","left","","","",""
"","1287.9099999554455","pref_reveal","sequential-stimulus-presentation","5","15171","0.0-5.0","SS1611940976610","","40","900","2187.9099999554455","","","","","","",""
"[{""page_index"":0,""viewing_time"":10512.140000006184},{""page_index"":1,""viewing_time"":1774.2599999764934},{""page_index"":2,""viewing_time"":996.4200000977144},{""page_index"":3,""viewing_time"":329.5149999903515}]","13612.595000071451","instructions","instructions","6","28786","0.0-6.0","SS1611940976610","","","","","","","","","","",""
"","null","","html-keyboard-response","7","29687","0.0-7.0-0.0","SS1611940976610","","null","","","<p><img src= images/blank.png width =""200"" height = ""200"" style = ""float:right""></p><p><img src=images/blank.png width =""800"" height = ""200""></p>","","","","","",""
"","465.5000000493601","trial","sequential-stimulus-presentation","8","31061","0.0-7.0-1.0","SS1611940976610","","40","900","1365.50000004936","","","","0","images/stimuli/spore_stims/simple_16_A_a.gif","left",""
"","null","","html-keyboard-response","9","31964","0.0-7.0-0.1","SS1611940976610","","null","","","<p><img src= images/blank.png width =""200"" height = ""200"" style = ""float:right""></p><p><img src=images/blank.png width =""800"" height = ""200""></p>","","","","","",""
"","333.68999999947846","trial","sequential-stimulus-presentation","10","33206","0.0-7.0-1.1","SS1611940976610","","40","900","1233.6899999994785","","","","0","images/stimuli/spore_stims/simple_16_A_a.gif","left",""
"","null","","html-keyboard-response","11","34053","0.0-7.0-0.2","SS1611940976610","","null","","","<p><img src= images/blank.png width =""200"" height = ""200"" style = ""float:right""></p><p><img src=images/blank.png width =""800"" height = ""200""></p>","","","","","",""
"","549.9050000216812","trial","sequential-stimulus-presentation","12","35513","0.0-7.0-1.2","SS1611940976610","","40","900","1449.9050000216812","","","","0","images/stimuli/spore_stims/simple_16_A_a.gif","left",""
"","null","","html-keyboard-response","13","36463","0.0-7.0-0.3","SS1611940976610","","null","","","<p><img src= images/blank.png width =""200"" height = ""200"" style = ""float:right""></p><p><img src=images/blank.png width =""800"" height = ""200""></p>","","","","","",""
"","1643.9099999843165","trial","sequential-stimulus-presentation","14","39017","0.0-7.0-1.3","SS1611940976610","","40","900","2543.9099999843165","","","","0","images/stimuli/spore_stims/simple_16_B_a.gif","middle",""
"","null","","html-keyboard-response","15","40084","0.0-7.0-0.4","SS1611940976610","","null","","","<p><img src= images/blank.png width =""200"" height = ""200"" style = ""float:right""></p><p><img src=images/blank.png width =""800"" height = ""200""></p>","","","","","",""
"","499.61000005714595","trial","sequential-stimulus-presentation","16","41490","0.0-7.0-1.4","SS1611940976610","","40","900","1399.610000057146","","","","0","images/stimuli/spore_stims/simple_16_A_a.gif","left",""
"","null","","html-keyboard-response","17","42781","0.0-7.0-0.5","SS1611940976610","","null","","","<p><img src= images/blank.png width =""200"" height = ""200"" style = ""float:right""></p><p><img src=images/blank.png width =""800"" height = ""200""></p>","","","","","",""
"","583.90500000678","trial","sequential-stimulus-presentation","18","44277","0.0-7.0-1.5","SS1611940976610","","40","900","1483.90500000678","","","","0","images/stimuli/spore_stims/simple_16_A_a.gif","left",""
"","null","","html-keyboard-response","19","45312","0.0-7.0-0.6","SS1611940976610","","null","","","<p><img src= images/blank.png width =""200"" height = ""200"" style = ""float:right""></p><p><img src=images/blank.png width =""800"" height = ""200""></p>","","","","","",""
"","1225.6199999246746","trial","sequential-stimulus-presentation","20","47451","0.0-7.0-1.6","SS1611940976610","","40","900","2125.6199999246746","","","","0","images/stimuli/spore_stims/simple_16_A_a.gif","left",""
"","null","","html-keyboard-response","21","48392","0.0-7.0-0.7","SS1611940976610","","null","","","<p><img src= images/blank.png width =""200"" height = ""200"" style = ""float:right""></p><p><img src=images/blank.png width =""800"" height = ""200""></p>","","","","","",""
"","1138.3699999423698","trial","sequential-stimulus-presentation","22","50443","0.0-7.0-1.7","SS1611940976610","","40","900","2038.3699999423698","","","","0","images/stimuli/spore_stims/simple_16_A_a.gif","left",""
"","2383.864999981597","pref_question","html-keyboard-response","23","52837","0.0-8.0","SS1611940976610","","50","","","<img src=images/stimuli/pokeballs_pref.jpg width =""800"" height = ""200"" style=""padding-top: 33%"">","2","middle","0","","",""
"","1890.0549999671057","pref_reveal","sequential-stimulus-presentation","24","55638","0.0-9.0","SS1611940976610","","40","900","2790.0549999671057","","","","0","","","deviant"
"","null","","html-keyboard-response","25","56591","0.0-10.0-0.0","SS1611940976610","","null","","","<p><img src= images/blank.png width =""200"" height = ""200"" style = ""float:right""></p><p><img src=images/blank.png width =""800"" height = ""200""></p>","","","","","",""
"","819.4199999561533","trial","sequential-stimulus-presentation","26","58327","0.0-10.0-1.0","SS1611940976610","","40","900","1719.4199999561533","","","","1","images/stimuli/spore_stims/simple_06_B_c.gif","left",""
"","null","","html-keyboard-response","27","59434","0.0-10.0-0.1","SS1611940976610","","null","","","<p><img src= images/blank.png width =""200"" height = ""200"" style = ""float:right""></p><p><img src=images/blank.png width =""800"" height = ""200""></p>","","","","","",""
"","905.9649999253452","trial","sequential-stimulus-presentation","28","61257","0.0-10.0-1.1","SS1611940976610","","40","900","1805.9649999253452","","","","1","images/stimuli/spore_stims/simple_06_B_c.gif","left",""
"","null","","html-keyboard-response","29","62519","0.0-10.0-0.2","SS1611940976610","","null","","","<p><img src= images/blank.png width =""200"" height = ""200"" style = ""float:right""></p><p><img src=images/blank.png width =""800"" height = ""200""></p>","","","","","",""
"","666.7649999726564","trial","sequential-stimulus-presentation","30","64101","0.0-10.0-1.2","SS1611940976610","","40","900","1566.7649999726564","","","","1","images/stimuli/spore_stims/simple_06_B_c.gif","left",""
"","null","","html-keyboard-response","31","65365","0.0-10.0-0.3","SS1611940976610","","null","","","<p><img src= images/blank.png width =""200"" height = ""200"" style = ""float:right""></p><p><img src=images/blank.png width =""800"" height = ""200""></p>","","","","","",""
"","652.3100000340492","trial","sequential-stimulus-presentation","32","66934","0.0-10.0-1.3","SS1611940976610","","40","900","1552.3100000340492","","","","1","images/stimuli/spore_stims/simple_06_B_c.gif","left",""
"","null","","html-keyboard-response","33","68132","0.0-10.0-0.4","SS1611940976610","","null","","","<p><img src= images/blank.png width =""200"" height = ""200"" style = ""float:right""></p><p><img src=images/blank.png width =""800"" height = ""200""></p>","","","","","",""
"","545.1149999862537","trial","sequential-stimulus-presentation","34","69585","0.0-10.0-1.4","SS1611940976610","","40","900","1445.1149999862537","","","","1","images/stimuli/spore_stims/simple_06_B_c.gif","left",""
"","null","","html-keyboard-response","35","70897","0.0-10.0-0.5","SS1611940976610","","null","","","<p><img src= images/blank.png width =""200"" height = ""200"" style = ""float:right""></p><p><img src=images/blank.png width =""800"" height = ""200""></p>","","","","","",""
"","1667.6600000355393","trial","sequential-stimulus-presentation","36","73482","0.0-10.0-1.5","SS1611940976610","","40","900","2567.6600000355393","","","","1","images/stimuli/spore_stims/simple_06_B_c.gif","left",""
"","null","","html-keyboard-response","37","74749","0.0-10.0-0.6","SS1611940976610","","null","","","<p><img src= images/blank.png width =""200"" height = ""200"" style = ""float:right""></p><p><img src=images/blank.png width =""800"" height = ""200""></p>","","","","","",""
"","7963.9349998906255","trial","sequential-stimulus-presentation","38","83631","0.0-10.0-1.6","SS1611940976610","","40","900","8863.934999890625","","","","1","images/stimuli/spore_stims/simple_06_B_c.gif","left",""
"","null","","html-keyboard-response","39","84628","0.0-10.0-0.7","SS1611940976610","","null","","","<p><img src= images/blank.png width =""200"" height = ""200"" style = ""float:right""></p><p><img src=images/blank.png width =""800"" height = ""200""></p>","","","","","",""
"","13747.780000092462","trial","sequential-stimulus-presentation","40","99294","0.0-10.0-1.7","SS1611940976610","","40","900","14647.780000092462","","","","1","images/stimuli/spore_stims/simple_18_A_c.gif","right",""
"","1753.7950000260025","pref_question","html-keyboard-response","41","101062","0.0-11.0","SS1611940976610","","51","","","<img src=images/stimuli/pokeballs_pref.jpg width =""800"" height = ""200"" style=""padding-top: 33%"">","3","right","1","","",""
"","596.324999933131","pref_reveal","sequential-stimulus-presentation","42","102575","0.0-12.0","SS1611940976610","","40","900","1496.324999933131","","","","1","","","deviant"
"","null","","html-keyboard-response","43","103717","0.0-13.0-0.0","SS1611940976610","","null","","","<p><img src= images/blank.png width =""200"" height = ""200"" style = ""float:right""></p><p><img src=images/blank.png width =""800"" height = ""200""></p>","","","","","",""
"","853.1550000188872","trial","sequential-stimulus-presentation","44","105489","0.0-13.0-1.0","SS1611940976610","","40","900","1753.1550000188872","","","","2","images/stimuli/spore_stims/complex_17_B_a.gif","left",""
"","null","","html-keyboard-response","45","106529","0.0-13.0-0.1","SS1611940976610","","null","","","<p><img src= images/blank.png width =""200"" height = ""200"" style = ""float:right""></p><p><img src=images/blank.png width =""800"" height = ""200""></p>","","","","","",""
"","521.8749999767169","trial","sequential-stimulus-presentation","46","107970","0.0-13.0-1.1","SS1611940976610","","40","900","1421.874999976717","","","","2","images/stimuli/spore_stims/complex_17_B_a.gif","left",""
"","null","","html-keyboard-response","47","108939","0.0-13.0-0.2","SS1611940976610","","null","","","<p><img src= images/blank.png width =""200"" height = ""200"" style = ""float:right""></p><p><img src=images/blank.png width =""800"" height = ""200""></p>","","","","","",""
"","871.3250000728294","trial","sequential-stimulus-presentation","48","110731","0.0-13.0-1.2","SS1611940976610","","40","900","1771.3250000728294","","","","2","images/stimuli/spore_stims/complex_17_B_a.gif","left",""
"","null","","html-keyboard-response","49","111815","0.0-13.0-0.3","SS1611940976610","","null","","","<p><img src= images/blank.png width =""200"" height = ""200"" style = ""float:right""></p><p><img src=images/blank.png width =""800"" height = ""200""></p>","","","","","",""
"","623.5500000184402","trial","sequential-stimulus-presentation","50","113359","0.0-13.0-1.3","SS1611940976610","","40","900","1523.5500000184402","","","","2","images/stimuli/spore_stims/complex_17_B_a.gif","left",""
"","null","","html-keyboard-response","51","114421","0.0-13.0-0.4","SS1611940976610","","null","","","<p><img src= images/blank.png width =""200"" height = ""200"" style = ""float:right""></p><p><img src=images/blank.png width =""800"" height = ""200""></p>","","","","","",""
"","313.27499996405095","trial","sequential-stimulus-presentation","52","115657","0.0-13.0-1.4","SS1611940976610","","40","900","1213.274999964051","","","","2","images/stimuli/spore_stims/complex_17_B_a.gif","left",""
"","null","","html-keyboard-response","53","116947","0.0-13.0-0.5","SS1611940976610","","null","","","<p><img src= images/blank.png width =""200"" height = ""200"" style = ""float:right""></p><p><img src=images/blank.png width =""800"" height = ""200""></p>","","","","","",""
"","511.3050000509247","trial","sequential-stimulus-presentation","54","118379","0.0-13.0-1.5","SS1611940976610","","40","900","1411.3050000509247","","","","2","images/stimuli/spore_stims/complex_17_B_a.gif","left",""
"","null","","html-keyboard-response","55","119367","0.0-13.0-0.6","SS1611940976610","","null","","","<p><img src= images/blank.png width =""200"" height = ""200"" style = ""float:right""></p><p><img src=images/blank.png width =""800"" height = ""200""></p>","","","","","",""
"","2409.570000017993","trial","sequential-stimulus-presentation","56","122699","0.0-13.0-1.6","SS1611940976610","","40","900","3309.570000017993","","","","2","images/stimuli/spore_stims/complex_03_A_c.gif","right",""
"","null","","html-keyboard-response","57","123944","0.0-13.0-0.7","SS1611940976610","","null","","","<p><img src= images/blank.png width =""200"" height = ""200"" style = ""float:right""></p><p><img src=images/blank.png width =""800"" height = ""200""></p>","","","","","",""
"","454.95500008109957","trial","sequential-stimulus-presentation","58","125322","0.0-13.0-1.7","SS1611940976610","","40","900","1354.9550000810996","","","","2","images/stimuli/spore_stims/complex_17_B_a.gif","left",""
"","1904.0550000499934","pref_question","html-keyboard-response","59","127243","0.0-14.0","SS1611940976610","","50","","","<img src=images/stimuli/pokeballs_pref.jpg width =""800"" height = ""200"" style=""padding-top: 33%"">","2","middle","2","","",""
"","2030.034999945201","pref_reveal","sequential-stimulus-presentation","60","130193","0.0-15.0","SS1611940976610","","40","900","2930.034999945201","","","","2","","","novel"
"","null","","html-keyboard-response","61","131420","0.0-16.0-0.0","SS1611940976610","","null","","","<p><img src= images/blank.png width =""200"" height = ""200"" style = ""float:right""></p><p><img src=images/blank.png width =""800"" height = ""200""></p>","","","","","",""
"","1756.0499999672174","trial","sequential-stimulus-presentation","62","134099","0.0-16.0-1.0","SS1611940976610","","40","900","2656.0499999672174","","","","3","images/stimuli/spore_stims/simple_07_A_b.gif","middle",""
"","null","","html-keyboard-response","63","134962","0.0-16.0-0.1","SS1611940976610","","null","","","<p><img src= images/blank.png width =""200"" height = ""200"" style = ""float:right""></p><p><img src=images/blank.png width =""800"" height = ""200""></p>","","","","","",""
"","867.6849999465048","trial","sequential-stimulus-presentation","64","136754","0.0-16.0-1.1","SS1611940976610","","40","900","1767.6849999465048","","","","3","images/stimuli/spore_stims/simple_07_A_b.gif","middle",""
"","null","","html-keyboard-response","65","137972","0.0-16.0-0.2","SS1611940976610","","null","","","<p><img src= images/blank.png width =""200"" height = ""200"" style = ""float:right""></p><p><img src=images/blank.png width =""800"" height = ""200""></p>","","","","","",""
"","511.11500000115484","trial","sequential-stimulus-presentation","66","139408","0.0-16.0-1.2","SS1611940976610","","40","900","1411.1150000011548","","","","3","images/stimuli/spore_stims/simple_07_A_b.gif","middle",""
"","null","","html-keyboard-response","67","140464","0.0-16.0-0.3","SS1611940976610","","null","","","<p><img src= images/blank.png width =""200"" height = ""200"" style = ""float:right""></p><p><img src=images/blank.png width =""800"" height = ""200""></p>","","","","","",""
"","313.27499996405095","trial","sequential-stimulus-presentation","68","141702","0.0-16.0-1.3","SS1611940976610","","40","900","1213.274999964051","","","","3","images/stimuli/spore_stims/simple_07_A_b.gif","middle",""
"","null","","html-keyboard-response","69","142972","0.0-16.0-0.4","SS1611940976610","","null","","","<p><img src= images/blank.png width =""200"" height = ""200"" style = ""float:right""></p><p><img src=images/blank.png width =""800"" height = ""200""></p>","","","","","",""
"","317.26000003982335","trial","sequential-stimulus-presentation","70","144217","0.0-16.0-1.4","SS1611940976610","","40","900","1217.2600000398234","","","","3","images/stimuli/spore_stims/simple_07_A_b.gif","middle",""
"","null","","html-keyboard-response","71","145355","0.0-16.0-0.5","SS1611940976610","","null","","","<p><img src= images/blank.png width =""200"" height = ""200"" style = ""float:right""></p><p><img src=images/blank.png width =""800"" height = ""200""></p>","","","","","",""
"","290.98499997053295","trial","sequential-stimulus-presentation","72","146587","0.0-16.0-1.5","SS1611940976610","","40","900","1190.984999970533","","","","3","images/stimuli/spore_stims/simple_07_A_b.gif","middle",""
"","null","","html-keyboard-response","73","147747","0.0-16.0-0.6","SS1611940976610","","null","","","<p><img src= images/blank.png width =""200"" height = ""200"" style = ""float:right""></p><p><img src=images/blank.png width =""800"" height = ""200""></p>","","","","","",""
"","283.2949999719858","trial","sequential-stimulus-presentation","74","148957","0.0-16.0-1.6","SS1611940976610","","40","900","1183.2949999719858","","","","3","images/stimuli/spore_stims/simple_07_A_b.gif","middle",""
"","null","","html-keyboard-response","75","150090","0.0-16.0-0.7","SS1611940976610","","null","","","<p><img src= images/blank.png width =""200"" height = ""200"" style = ""float:right""></p><p><img src=images/blank.png width =""800"" height = ""200""></p>","","","","","",""
"","737.4699999345466","trial","sequential-stimulus-presentation","76","151752","0.0-16.0-1.7","SS1611940976610","","40","900","1637.4699999345466","","","","3","images/stimuli/spore_stims/simple_07_A_b.gif","middle",""
"","null","","html-keyboard-response","77","153031","0.0-16.0-0.8","SS1611940976610","","null","","","<p><img src= images/blank.png width =""200"" height = ""200"" style = ""float:right""></p><p><img src=images/blank.png width =""800"" height = ""200""></p>","","","","","",""
"","1122.3299999255687","trial","sequential-stimulus-presentation","78","155080","0.0-16.0-1.8","SS1611940976610","","40","900","2022.3299999255687","","","","3","images/stimuli/spore_stims/simple_07_B_b.gif","right",""
"","1783.8550000451505","pref_question","html-keyboard-response","79","156889","0.0-17.0","SS1611940976610","","49","","","<img src=images/stimuli/pokeballs_pref.jpg width =""800"" height = ""200"" style=""padding-top: 33%"">","1","left","3","","",""
"","2043.1850000750273","pref_reveal","sequential-stimulus-presentation","80","159857","0.0-18.0","SS1611940976610","","40","900","2943.1850000750273","","","","3","","","novel"
"","null","","html-keyboard-response","81","160704","0.0-19.0-0.0","SS1611940976610","","null","","","<p><img src= images/blank.png width =""200"" height = ""200"" style = ""float:right""></p><p><img src=images/blank.png width =""800"" height = ""200""></p>","","","","","",""
"","1668.7500000698492","trial","sequential-stimulus-presentation","82","163300","0.0-19.0-1.0","SS1611940976610","","40","900","2568.750000069849","","","","4","images/stimuli/spore_stims/simple_08_B_c.gif","middle",""
"","null","","html-keyboard-response","83","164269","0.0-19.0-0.1","SS1611940976610","","null","","","<p><img src= images/blank.png width =""200"" height = ""200"" style = ""float:right""></p><p><img src=images/blank.png width =""800"" height = ""200""></p>","","","","","",""
"","304.5449999626726","trial","sequential-stimulus-presentation","84","165502","0.0-19.0-1.1","SS1611940976610","","40","900","1204.5449999626726","","","","4","images/stimuli/spore_stims/simple_08_B_c.gif","middle",""
"","null","","html-keyboard-response","85","166789","0.0-19.0-0.2","SS1611940976610","","null","","","<p><img src= images/blank.png width =""200"" height = ""200"" style = ""float:right""></p><p><img src=images/blank.png width =""800"" height = ""200""></p>","","","","","",""
"","289.96000008191913","trial","sequential-stimulus-presentation","86","168006","0.0-19.0-1.2","SS1611940976610","","40","900","1189.9600000819191","","","","4","images/stimuli/spore_stims/simple_08_B_c.gif","middle",""
"","null","","html-keyboard-response","87","169273","0.0-19.0-0.3","SS1611940976610","","null","","","<p><img src= images/blank.png width =""200"" height = ""200"" style = ""float:right""></p><p><img src=images/blank.png width =""800"" height = ""200""></p>","","","","","",""
"","1203.4249999560416","trial","sequential-stimulus-presentation","88","171407","0.0-19.0-1.3","SS1611940976610","","40","900","2103.4249999560416","","","","4","images/stimuli/spore_stims/simple_08_A_c.gif","left",""
"","null","","html-keyboard-response","89","172504","0.0-19.0-0.4","SS1611940976610","","null","","","<p><img src= images/blank.png width =""200"" height = ""200"" style = ""float:right""></p><p><img src=images/blank.png width =""800"" height = ""200""></p>","","","","","",""
"","785.4600000428036","trial","sequential-stimulus-presentation","90","174213","0.0-19.0-1.4","SS1611940976610","","40","900","1685.4600000428036","","","","4","images/stimuli/spore_stims/simple_08_B_c.gif","middle",""
"","null","","html-keyboard-response","91","175208","0.0-19.0-0.5","SS1611940976610","","null","","","<p><img src= images/blank.png width =""200"" height = ""200"" style = ""float:right""></p><p><img src=images/blank.png width =""800"" height = ""200""></p>","","","","","",""
"","1230.9200000017881","trial","sequential-stimulus-presentation","92","177371","0.0-19.0-1.5","SS1611940976610","","40","900","2130.920000001788","","","","4","images/stimuli/spore_stims/simple_08_B_c.gif","middle",""
"","null","","html-keyboard-response","93","178578","0.0-19.0-0.6","SS1611940976610","","null","","","<p><img src= images/blank.png width =""200"" height = ""200"" style = ""float:right""></p><p><img src=images/blank.png width =""800"" height = ""200""></p>","","","","","",""
"","1703.9199999999255","trial","sequential-stimulus-presentation","94","181213","0.0-19.0-1.6","SS1611940976610","","40","900","2603.9199999999255","","","","4","images/stimuli/spore_stims/simple_08_B_c.gif","middle",""
"","null","","html-keyboard-response","95","182379","0.0-19.0-0.7","SS1611940976610","","null","","","<p><img src= images/blank.png width =""200"" height = ""200"" style = ""float:right""></p><p><img src=images/blank.png width =""800"" height = ""200""></p>","","","","","",""
"","1495.4900000011548","trial","sequential-stimulus-presentation","96","184804","0.0-19.0-1.7","SS1611940976610","","40","900","2395.490000001155","","","","4","images/stimuli/spore_stims/simple_08_B_c.gif","middle",""
"","1878.6100000143051","pref_question","html-keyboard-response","97","186705","0.0-20.0","SS1611940976610","","49","","","<img src=images/stimuli/pokeballs_pref.jpg width =""800"" height = ""200"" style=""padding-top: 33%"">","1","left","4","","",""
"","1254.9550000112504","pref_reveal","sequential-stimulus-presentation","98","188889","0.0-21.0","SS1611940976610","","40","900","2154.9550000112504","","","","4","","","deviant"
"","null","","html-keyboard-response","99","189767","0.0-22.0-0.0","SS1611940976610","","null","","","<p><img src= images/blank.png width =""200"" height = ""200"" style = ""float:right""></p><p><img src=images/blank.png width =""800"" height = ""200""></p>","","","","","",""
"","330.6449999799952","trial","sequential-stimulus-presentation","100","191031","0.0-22.0-1.0","SS1611940976610","","40","900","1230.6449999799952","","","","5","images/stimuli/spore_stims/complex_20_A_a.gif","middle",""
"","null","","html-keyboard-response","101","192112","0.0-22.0-0.1","SS1611940976610","","null","","","<p><img src= images/blank.png width =""200"" height = ""200"" style = ""float:right""></p><p><img src=images/blank.png width =""800"" height = ""200""></p>","","","","","",""
"","1066.2449999945238","trial","sequential-stimulus-presentation","102","194110","0.0-22.0-1.1","SS1611940976610","","40","900","1966.2449999945238","","","","5","images/stimuli/spore_stims/complex_20_A_a.gif","middle",""
"","null","","html-keyboard-response","103","195216","0.0-22.0-0.2","SS1611940976610","","null","","","<p><img src= images/blank.png width =""200"" height = ""200"" style = ""float:right""></p><p><img src=images/blank.png width =""800"" height = ""200""></p>","","","","","",""
"","292.8800000809133","trial","sequential-stimulus-presentation","104","196441","0.0-22.0-1.2","SS1611940976610","","40","900","1192.8800000809133","","","","5","images/stimuli/spore_stims/complex_20_A_a.gif","middle",""
"","null","","html-keyboard-response","105","197642","0.0-22.0-0.3","SS1611940976610","","null","","","<p><img src= images/blank.png width =""200"" height = ""200"" style = ""float:right""></p><p><img src=images/blank.png width =""800"" height = ""200""></p>","","","","","",""
"","440.63500000629574","trial","sequential-stimulus-presentation","106","199015","0.0-22.0-1.3","SS1611940976610","","40","900","1340.6350000062957","","","","5","images/stimuli/spore_stims/complex_20_A_a.gif","middle",""
"","null","","html-keyboard-response","107","200065","0.0-22.0-0.4","SS1611940976610","","null","","","<p><img src= images/blank.png width =""200"" height = ""200"" style = ""float:right""></p><p><img src=images/blank.png width =""800"" height = ""200""></p>","","","","","",""
"","887.6550000859424","trial","sequential-stimulus-presentation","108","201885","0.0-22.0-1.4","SS1611940976610","","40","900","1787.6550000859424","","","","5","images/stimuli/spore_stims/complex_17_A_a.gif","left",""
"","null","","html-keyboard-response","109","203011","0.0-22.0-0.5","SS1611940976610","","null","","","<p><img src= images/blank.png width =""200"" height = ""200"" style = ""float:right""></p><p><img src=images/blank.png width =""800"" height = ""200""></p>","","","","","",""
"","437.4750000424683","trial","sequential-stimulus-presentation","110","204381","0.0-22.0-1.5","SS1611940976610","","40","900","1337.4750000424683","","","","5","images/stimuli/spore_stims/complex_20_A_a.gif","middle",""
"","null","","html-keyboard-response","111","205453","0.0-22.0-0.6","SS1611940976610","","null","","","<p><img src= images/blank.png width =""200"" height = ""200"" style = ""float:right""></p><p><img src=images/blank.png width =""800"" height = ""200""></p>","","","","","",""
"","524.2449999786913","trial","sequential-stimulus-presentation","112","206912","0.0-22.0-1.6","SS1611940976610","","40","900","1424.2449999786913","","","","5","images/stimuli/spore_stims/complex_20_A_a.gif","middle",""
"","null","","html-keyboard-response","113","207809","0.0-22.0-0.7","SS1611940976610","","null","","","<p><img src= images/blank.png width =""200"" height = ""200"" style = ""float:right""></p><p><img src=images/blank.png width =""800"" height = ""200""></p>","","","","","",""
"","482.30499995406717","trial","sequential-stimulus-presentation","114","209218","0.0-22.0-1.7","SS1611940976610","","40","900","1382.3049999540672","","","","5","images/stimuli/spore_stims/complex_20_A_a.gif","middle",""
"","2002.2149999858811","pref_question","html-keyboard-response","115","211250","0.0-23.0","SS1611940976610","","51","","","<img src=images/stimuli/pokeballs_pref.jpg width =""800"" height = ""200"" style=""padding-top: 33%"">","3","right","5","","",""
"","1421.1999999824911","pref_reveal","sequential-stimulus-presentation","116","213602","0.0-24.0","SS1611940976610","","40","900","2321.199999982491","","","","5","","","novel"
"","null","","html-keyboard-response","117","214721","0.0-25.0-0.0","SS1611940976610","","null","","","<p><img src= images/blank.png width =""200"" height = ""200"" style = ""float:right""></p><p><img src=images/blank.png width =""800"" height = ""200""></p>","","","","","",""
"","1150.4999999888241","trial","sequential-stimulus-presentation","118","216812","0.0-25.0-1.0","SS1611940976610","","40","900","2050.499999988824","","","","6","images/stimuli/spore_stims/simple_09_A_a.gif","left",""
"","null","","html-keyboard-response","119","217664","0.0-25.0-0.1","SS1611940976610","","null","","","<p><img src= images/blank.png width =""200"" height = ""200"" style = ""float:right""></p><p><img src=images/blank.png width =""800"" height = ""200""></p>","","","","","",""
"","877.9449999565259","trial","sequential-stimulus-presentation","120","219478","0.0-25.0-1.1","SS1611940976610","","40","900","1777.9449999565259","","","","6","images/stimuli/spore_stims/simple_09_A_a.gif","left",""
"","null","","html-keyboard-response","121","220706","0.0-25.0-0.2","SS1611940976610","","null","","","<p><img src= images/blank.png width =""200"" height = ""200"" style = ""float:right""></p><p><img src=images/blank.png width =""800"" height = ""200""></p>","","","","","",""
"","827.6699999114498","trial","sequential-stimulus-presentation","122","222470","0.0-25.0-1.2","SS1611940976610","","40","900","1727.6699999114498","","","","6","images/stimuli/spore_stims/simple_09_A_a.gif","left",""
"","null","","html-keyboard-response","123","223340","0.0-25.0-0.3","SS1611940976610","","null","","","<p><img src= images/blank.png width =""200"" height = ""200"" style = ""float:right""></p><p><img src=images/blank.png width =""800"" height = ""200""></p>","","","","","",""
"","942.4299999373034","trial","sequential-stimulus-presentation","124","225220","0.0-25.0-1.3","SS1611940976610","","40","900","1842.4299999373034","","","","6","images/stimuli/spore_stims/simple_09_A_a.gif","left",""
"","null","","html-keyboard-response","125","226178","0.0-25.0-0.4","SS1611940976610","","null","","","<p><img src= images/blank.png width =""200"" height = ""200"" style = ""float:right""></p><p><img src=images/blank.png width =""800"" height = ""200""></p>","","","","","",""
"","3068.8350000418723","trial","sequential-stimulus-presentation","126","230185","0.0-25.0-1.4","SS1611940976610","","40","900","3968.8350000418723","","","","6","images/stimuli/spore_stims/simple_09_B_a.gif","right",""
"","null","","html-keyboard-response","127","231192","0.0-25.0-0.5","SS1611940976610","","null","","","<p><img src= images/blank.png width =""200"" height = ""200"" style = ""float:right""></p><p><img src=images/blank.png width =""800"" height = ""200""></p>","","","","","",""
"","1759.6200000261888","trial","sequential-stimulus-presentation","128","233888","0.0-25.0-1.5","SS1611940976610","","40","900","2659.620000026189","","","","6","images/stimuli/spore_stims/simple_09_A_a.gif","left",""
"","null","","html-keyboard-response","129","235110","0.0-25.0-0.6","SS1611940976610","","null","","","<p><img src= images/blank.png width =""200"" height = ""200"" style = ""float:right""></p><p><img src=images/blank.png width =""800"" height = ""200""></p>","","","","","",""
"","1515.7299999846146","trial","sequential-stimulus-presentation","130","237562","0.0-25.0-1.6","SS1611940976610","","40","900","2415.7299999846146","","","","6","images/stimuli/spore_stims/simple_09_A_a.gif","left",""
"","null","","html-keyboard-response","131","238403","0.0-25.0-0.7","SS1611940976610","","null","","","<p><img src= images/blank.png width =""200"" height = ""200"" style = ""float:right""></p><p><img src=images/blank.png width =""800"" height = ""200""></p>","","","","","",""
"","1748.299999977462","trial","sequential-stimulus-presentation","132","241089","0.0-25.0-1.7","SS1611940976610","","40","900","2648.299999977462","","","","6","images/stimuli/spore_stims/simple_09_A_a.gif","left",""
"","1471.3800000026822","pref_question","html-keyboard-response","133","242594","0.0-26.0","SS1611940976610","","50","","","<img src=images/stimuli/pokeballs_pref.jpg width =""800"" height = ""200"" style=""padding-top: 33%"">","2","middle","6","","",""
"","1402.10000006482","pref_reveal","sequential-stimulus-presentation","134","244930","0.0-27.0","SS1611940976610","","40","900","2302.10000006482","","","","6","","","novel"
"","null","","html-keyboard-response","135","246201","0.0-28.0-0.0","SS1611940976610","","null","","","<p><img src= images/blank.png width =""200"" height = ""200"" style = ""float:right""></p><p><img src=images/blank.png width =""800"" height = ""200""></p>","","","","","",""
"","681.3449999317527","trial","sequential-stimulus-presentation","136","247820","0.0-28.0-1.0","SS1611940976610","","40","900","1581.3449999317527","","","","7","images/stimuli/spore_stims/simple_11_B_c.gif","left",""
"","null","","html-keyboard-response","137","248681","0.0-28.0-0.1","SS1611940976610","","null","","","<p><img src= images/blank.png width =""200"" height = ""200"" style = ""float:right""></p><p><img src=images/blank.png width =""800"" height = ""200""></p>","","","","","",""
"","326.37999998405576","trial","sequential-stimulus-presentation","138","249946","0.0-28.0-1.1","SS1611940976610","","40","900","1226.3799999840558","","","","7","images/stimuli/spore_stims/simple_11_B_c.gif","left",""
"","null","","html-keyboard-response","139","250983","0.0-28.0-0.2","SS1611940976610","","null","","","<p><img src= images/blank.png width =""200"" height = ""200"" style = ""float:right""></p><p><img src=images/blank.png width =""800"" height = ""200""></p>","","","","","",""
"","274.82499997131526","trial","sequential-stimulus-presentation","140","252198","0.0-28.0-1.2","SS1611940976610","","40","900","1174.8249999713153","","","","7","images/stimuli/spore_stims/simple_11_B_c.gif","left",""
"","null","","html-keyboard-response","141","253080","0.0-28.0-0.3","SS1611940976610","","null","","","<p><img src= images/blank.png width =""200"" height = ""200"" style = ""float:right""></p><p><img src=images/blank.png width =""800"" height = ""200""></p>","","","","","",""
"","429.61500003002584","trial","sequential-stimulus-presentation","142","254450","0.0-28.0-1.3","SS1611940976610","","40","900","1329.6150000300258","","","","7","images/stimuli/spore_stims/simple_14_B_a.gif","right",""
"","null","","html-keyboard-response","143","255678","0.0-28.0-0.4","SS1611940976610","","null","","","<p><img src= images/blank.png width =""200"" height = ""200"" style = ""float:right""></p><p><img src=images/blank.png width =""800"" height = ""200""></p>","","","","","",""
"","731.4150000456721","trial","sequential-stimulus-presentation","144","257348","0.0-28.0-1.4","SS1611940976610","","40","900","1631.415000045672","","","","7","images/stimuli/spore_stims/simple_11_B_c.gif","left",""
"","null","","html-keyboard-response","145","258304","0.0-28.0-0.5","SS1611940976610","","null","","","<p><img src= images/blank.png width =""200"" height = ""200"" style = ""float:right""></p><p><img src=images/blank.png width =""800"" height = ""200""></p>","","","","","",""
"","305.05999992601573","trial","sequential-stimulus-presentation","146","259548","0.0-28.0-1.5","SS1611940976610","","40","900","1205.0599999260157","","","","7","images/stimuli/spore_stims/simple_11_B_c.gif","left",""
"","null","","html-keyboard-response","147","260857","0.0-28.0-0.6","SS1611940976610","","null","","","<p><img src= images/blank.png width =""200"" height = ""200"" style = ""float:right""></p><p><img src=images/blank.png width =""800"" height = ""200""></p>","","","","","",""
"","581.3999999081716","trial","sequential-stimulus-presentation","148","262377","0.0-28.0-1.6","SS1611940976610","","40","900","1481.3999999081716","","","","7","images/stimuli/spore_stims/simple_11_B_c.gif","left",""
"","null","","html-keyboard-response","149","263418","0.0-28.0-0.7","SS1611940976610","","null","","","<p><img src= images/blank.png width =""200"" height = ""200"" style = ""float:right""></p><p><img src=images/blank.png width =""800"" height = ""200""></p>","","","","","",""
"","1324.6000000508502","trial","sequential-stimulus-presentation","150","265688","0.0-28.0-1.7","SS1611940976610","","40","900","2224.60000005085","","","","7","images/stimuli/spore_stims/simple_11_B_c.gif","left",""
"","1334.0350000653416","pref_question","html-keyboard-response","151","267057","0.0-29.0","SS1611940976610","","50","","","<img src=images/stimuli/pokeballs_pref.jpg width =""800"" height = ""200"" style=""padding-top: 33%"">","2","middle","7","","",""
"","885.0300000049174","pref_reveal","sequential-stimulus-presentation","152","268878","0.0-30.0","SS1611940976610","","40","900","1785.0300000049174","","","","7","","","novel"
"","null","","html-keyboard-response","153","270166","0.0-31.0-0.0","SS1611940976610","","null","","","<p><img src= images/blank.png width =""200"" height = ""200"" style = ""float:right""></p><p><img src=images/blank.png width =""800"" height = ""200""></p>","","","","","",""
"","877.0400000503287","trial","sequential-stimulus-presentation","154","271983","0.0-31.0-1.0","SS1611940976610","","40","900","1777.0400000503287","","","","8","images/stimuli/spore_stims/complex_12_B_d.gif","middle",""
"","null","","html-keyboard-response","155","272906","0.0-31.0-0.1","SS1611940976610","","null","","","<p><img src= images/blank.png width =""200"" height = ""200"" style = ""float:right""></p><p><img src=images/blank.png width =""800"" height = ""200""></p>","","","","","",""
"","836.1600000644103","trial","sequential-stimulus-presentation","156","274686","0.0-31.0-1.1","SS1611940976610","","40","900","1736.1600000644103","","","","8","images/stimuli/spore_stims/complex_12_B_d.gif","middle",""
"","null","","html-keyboard-response","157","275950","0.0-31.0-0.2","SS1611940976610","","null","","","<p><img src= images/blank.png width =""200"" height = ""200"" style = ""float:right""></p><p><img src=images/blank.png width =""800"" height = ""200""></p>","","","","","",""
"","366.6850000154227","trial","sequential-stimulus-presentation","158","277258","0.0-31.0-1.2","SS1611940976610","","40","900","1266.6850000154227","","","","8","images/stimuli/spore_stims/complex_12_B_d.gif","middle",""
"","null","","html-keyboard-response","159","278421","0.0-31.0-0.3","SS1611940976610","","null","","","<p><img src= images/blank.png width =""200"" height = ""200"" style = ""float:right""></p><p><img src=images/blank.png width =""800"" height = ""200""></p>","","","","","",""
"","1137.9750000778586","trial","sequential-stimulus-presentation","160","280500","0.0-31.0-1.3","SS1611940976610","","40","900","2037.9750000778586","","","","8","images/stimuli/spore_stims/complex_09_A_b.gif","left",""
"","null","","html-keyboard-response","161","281797","0.0-31.0-0.4","SS1611940976610","","null","","","<p><img src= images/blank.png width =""200"" height = ""200"" style = ""float:right""></p><p><img src=images/blank.png width =""800"" height = ""200""></p>","","","","","",""
"","893.030000035651","trial","sequential-stimulus-presentation","162","283617","0.0-31.0-1.4","SS1611940976610","","40","900","1793.030000035651","","","","8","images/stimuli/spore_stims/complex_12_B_d.gif","middle",""
"","null","","html-keyboard-response","163","284912","0.0-31.0-0.5","SS1611940976610","","null","","","<p><img src= images/blank.png width =""200"" height = ""200"" style = ""float:right""></p><p><img src=images/blank.png width =""800"" height = ""200""></p>","","","","","",""
"","340.6749999849126","trial","sequential-stimulus-presentation","164","286194","0.0-31.0-1.5","SS1611940976610","","40","900","1240.6749999849126","","","","8","images/stimuli/spore_stims/complex_12_B_d.gif","middle",""
"","null","","html-keyboard-response","165","287500","0.0-31.0-0.6","SS1611940976610","","null","","","<p><img src= images/blank.png width =""200"" height = ""200"" style = ""float:right""></p><p><img src=images/blank.png width =""800"" height = ""200""></p>","","","","","",""
"","307.44500004220754","trial","sequential-stimulus-presentation","166","288751","0.0-31.0-1.6","SS1611940976610","","40","900","1207.4450000422075","","","","8","images/stimuli/spore_stims/complex_12_B_d.gif","middle",""
"","null","","html-keyboard-response","167","289868","0.0-31.0-0.7","SS1611940976610","","null","","","<p><img src= images/blank.png width =""200"" height = ""200"" style = ""float:right""></p><p><img src=images/blank.png width =""800"" height = ""200""></p>","","","","","",""
"","319.67999995686114","trial","sequential-stimulus-presentation","168","291130","0.0-31.0-1.7","SS1611940976610","","40","900","1219.6799999568611","","","","8","images/stimuli/spore_stims/complex_12_B_d.gif","middle",""
"","1870.9849999286234","pref_question","html-keyboard-response","169","293037","0.0-32.0","SS1611940976610","","51","","","<img src=images/stimuli/pokeballs_pref.jpg width =""800"" height = ""200"" style=""padding-top: 33%"">","3","right","8","","",""
"","1658.9150000363588","pref_reveal","sequential-stimulus-presentation","170","295637","0.0-33.0","SS1611940976610","","40","900","2558.915000036359","","","","8","","","novel"
"","null","","html-keyboard-response","171","296867","0.0-34.0-0.0","SS1611940976610","","null","","","<p><img src= images/blank.png width =""200"" height = ""200"" style = ""float:right""></p><p><img src=images/blank.png width =""800"" height = ""200""></p>","","","","","",""
"","1193.0649999994785","trial","sequential-stimulus-presentation","172","299007","0.0-34.0-1.0","SS1611940976610","","40","900","2093.0649999994785","","","","9","images/stimuli/spore_stims/complex_01_A_c.gif","left",""
"","null","","html-keyboard-response","173","300128","0.0-34.0-0.1","SS1611940976610","","null","","","<p><img src= images/blank.png width =""200"" height = ""200"" style = ""float:right""></p><p><img src=images/blank.png width =""800"" height = ""200""></p>","","","","","",""
"","657.660000026226","trial","sequential-stimulus-presentation","174","301732","0.0-34.0-1.1","SS1611940976610","","40","900","1557.660000026226","","","","9","images/stimuli/spore_stims/complex_01_A_c.gif","left",""
"","null","","html-keyboard-response","175","303037","0.0-34.0-0.2","SS1611940976610","","null","","","<p><img src= images/blank.png width =""200"" height = ""200"" style = ""float:right""></p><p><img src=images/blank.png width =""800"" height = ""200""></p>","","","","","",""
"","729.9999999813735","trial","sequential-stimulus-presentation","176","304713","0.0-34.0-1.2","SS1611940976610","","40","900","1629.9999999813735","","","","9","images/stimuli/spore_stims/complex_01_A_c.gif","left",""
"","null","","html-keyboard-response","177","305831","0.0-34.0-0.3","SS1611940976610","","null","","","<p><img src= images/blank.png width =""200"" height = ""200"" style = ""float:right""></p><p><img src=images/blank.png width =""800"" height = ""200""></p>","","","","","",""
"","719.8699999134988","trial","sequential-stimulus-presentation","178","307495","0.0-34.0-1.3","SS1611940976610","","40","900","1619.8699999134988","","","","9","images/stimuli/spore_stims/complex_01_B_c.gif","right",""
"","null","","html-keyboard-response","179","308778","0.0-34.0-0.4","SS1611940976610","","null","","","<p><img src= images/blank.png width =""200"" height = ""200"" style = ""float:right""></p><p><img src=images/blank.png width =""800"" height = ""200""></p>","","","","","",""
"","399.695000029169","trial","sequential-stimulus-presentation","180","310124","0.0-34.0-1.4","SS1611940976610","","40","900","1299.695000029169","","","","9","images/stimuli/spore_stims/complex_01_A_c.gif","left",""
"","null","","html-keyboard-response","181","311054","0.0-34.0-0.5","SS1611940976610","","null","","","<p><img src= images/blank.png width =""200"" height = ""200"" style = ""float:right""></p><p><img src=images/blank.png width =""800"" height = ""200""></p>","","","","","",""
"","368.2850000914186","trial","sequential-stimulus-presentation","182","312368","0.0-34.0-1.5","SS1611940976610","","40","900","1268.2850000914186","","","","9","images/stimuli/spore_stims/complex_01_A_c.gif","left",""
"","null","","html-keyboard-response","183","313472","0.0-34.0-0.6","SS1611940976610","","null","","","<p><img src= images/blank.png width =""200"" height = ""200"" style = ""float:right""></p><p><img src=images/blank.png width =""800"" height = ""200""></p>","","","","","",""
"","371.32000003475696","trial","sequential-stimulus-presentation","184","314789","0.0-34.0-1.6","SS1611940976610","","40","900","1271.320000034757","","","","9","images/stimuli/spore_stims/complex_01_A_c.gif","left",""
"","null","","html-keyboard-response","185","315742","0.0-34.0-0.7","SS1611940976610","","null","","","<p><img src= images/blank.png width =""200"" height = ""200"" style = ""float:right""></p><p><img src=images/blank.png width =""800"" height = ""200""></p>","","","","","",""
"","305.5900000035763","trial","sequential-stimulus-presentation","186","316994","0.0-34.0-1.7","SS1611940976610","","40","900","1205.5900000035763","","","","9","images/stimuli/spore_stims/complex_01_A_c.gif","left",""
"","1450.5150000331923","pref_question","html-keyboard-response","187","318485","0.0-35.0","SS1611940976610","","50","","","<img src=images/stimuli/pokeballs_pref.jpg width =""800"" height = ""200"" style=""padding-top: 33%"">","2","middle","9","","",""
"","1091.6449999203905","pref_reveal","sequential-stimulus-presentation","188","320519","0.0-36.0","SS1611940976610","","40","900","1991.6449999203905","","","","9","","","novel"
"","null","","html-keyboard-response","189","321525","0.0-37.0-0.0","SS1611940976610","","null","","","<p><img src= images/blank.png width =""200"" height = ""200"" style = ""float:right""></p><p><img src=images/blank.png width =""800"" height = ""200""></p>","","","","","",""
"","810.6149999657646","trial","sequential-stimulus-presentation","190","323286","0.0-37.0-1.0","SS1611940976610","","40","900","1710.6149999657646","","","","10","images/stimuli/spore_stims/simple_12_A_b.gif","left",""
"","null","","html-keyboard-response","191","324202","0.0-37.0-0.1","SS1611940976610","","null","","","<p><img src= images/blank.png width =""200"" height = ""200"" style = ""float:right""></p><p><img src=images/blank.png width =""800"" height = ""200""></p>","","","","","",""
"","946.4000000152737","trial","sequential-stimulus-presentation","192","326096","0.0-37.0-1.1","SS1611940976610","","40","900","1846.4000000152737","","","","10","images/stimuli/spore_stims/simple_12_A_b.gif","left",""
"","null","","html-keyboard-response","193","327362","0.0-37.0-0.2","SS1611940976610","","null","","","<p><img src= images/blank.png width =""200"" height = ""200"" style = ""float:right""></p><p><img src=images/blank.png width =""800"" height = ""200""></p>","","","","","",""
"","555.7300000218675","trial","sequential-stimulus-presentation","194","328865","0.0-37.0-1.2","SS1611940976610","","40","900","1455.7300000218675","","","","10","images/stimuli/spore_stims/simple_12_A_b.gif","left",""
"","null","","html-keyboard-response","195","329769","0.0-37.0-0.3","SS1611940976610","","null","","","<p><img src= images/blank.png width =""200"" height = ""200"" style = ""float:right""></p><p><img src=images/blank.png width =""800"" height = ""200""></p>","","","","","",""
"","1450.7100000046194","trial","sequential-stimulus-presentation","196","332166","0.0-37.0-1.3","SS1611940976610","","40","900","2350.7100000046194","","","","10","images/stimuli/spore_stims/simple_12_A_b.gif","left",""
"","null","","html-keyboard-response","197","333449","0.0-37.0-0.4","SS1611940976610","","null","","","<p><img src= images/blank.png width =""200"" height = ""200"" style = ""float:right""></p><p><img src=images/blank.png width =""800"" height = ""200""></p>","","","","","",""
"","1661.3799999468029","trial","sequential-stimulus-presentation","198","336057","0.0-37.0-1.4","SS1611940976610","","40","900","2561.379999946803","","","","10","images/stimuli/spore_stims/simple_12_A_b.gif","left",""
"","null","","html-keyboard-response","199","337237","0.0-37.0-0.5","SS1611940976610","","null","","","<p><img src= images/blank.png width =""200"" height = ""200"" style = ""float:right""></p><p><img src=images/blank.png width =""800"" height = ""200""></p>","","","","","",""
"","1123.5999999335036","trial","sequential-stimulus-presentation","200","339307","0.0-37.0-1.5","SS1611940976610","","40","900","2023.5999999335036","","","","10","images/stimuli/spore_stims/simple_15_A_a.gif","right",""
"","null","","html-keyboard-response","201","340174","0.0-37.0-0.6","SS1611940976610","","null","","","<p><img src= images/blank.png width =""200"" height = ""200"" style = ""float:right""></p><p><img src=images/blank.png width =""800"" height = ""200""></p>","","","","","",""
"","554.4049999443814","trial","sequential-stimulus-presentation","202","341676","0.0-37.0-1.6","SS1611940976610","","40","900","1454.4049999443814","","","","10","images/stimuli/spore_stims/simple_12_A_b.gif","left",""
"","null","","html-keyboard-response","203","342540","0.0-37.0-0.7","SS1611940976610","","null","","","<p><img src= images/blank.png width =""200"" height = ""200"" style = ""float:right""></p><p><img src=images/blank.png width =""800"" height = ""200""></p>","","","","","",""
"","1905.1249999320135","trial","sequential-stimulus-presentation","204","345394","0.0-37.0-1.7","SS1611940976610","","40","900","2805.1249999320135","","","","10","images/stimuli/spore_stims/simple_12_A_b.gif","left",""
"","1406.859999988228","pref_question","html-keyboard-response","205","346840","0.0-38.0","SS1611940976610","","50","","","<img src=images/stimuli/pokeballs_pref.jpg width =""800"" height = ""200"" style=""padding-top: 33%"">","2","middle","10","","",""
"","2542.9299999959767","pref_reveal","sequential-stimulus-presentation","206","350327","0.0-39.0","SS1611940976610","","40","900","3442.9299999959767","","","","10","","","novel"
"","null","","html-keyboard-response","207","351356","0.0-40.0-0.0","SS1611940976610","","null","","","<p><img src= images/blank.png width =""200"" height = ""200"" style = ""float:right""></p><p><img src=images/blank.png width =""800"" height = ""200""></p>","","","","","",""
"","296.97000002488494","trial","sequential-stimulus-presentation","208","352600","0.0-40.0-1.0","SS1611940976610","","40","900","1196.970000024885","","","","11","images/stimuli/spore_stims/complex_05_B_c.gif","middle",""
"","null","","html-keyboard-response","209","353749","0.0-40.0-0.1","SS1611940976610","","null","","","<p><img src= images/blank.png width =""200"" height = ""200"" style = ""float:right""></p><p><img src=images/blank.png width =""800"" height = ""200""></p>","","","","","",""
"","815.015000058338","trial","sequential-stimulus-presentation","210","355512","0.0-40.0-1.1","SS1611940976610","","40","900","1715.015000058338","","","","11","images/stimuli/spore_stims/complex_05_B_c.gif","middle",""
"","null","","html-keyboard-response","211","356596","0.0-40.0-0.2","SS1611940976610","","null","","","<p><img src= images/blank.png width =""200"" height = ""200"" style = ""float:right""></p><p><img src=images/blank.png width =""800"" height = ""200""></p>","","","","","",""
"","6.889999960549176","trial","sequential-stimulus-presentation","212","357556","0.0-40.0-1.2","SS1611940976610","","40","900","906.8899999605492","","","","11","images/stimuli/spore_stims/complex_05_B_c.gif","middle",""
"","null","","html-keyboard-response","213","358746","0.0-40.0-0.3","SS1611940976610","","null","","","<p><img src= images/blank.png width =""200"" height = ""200"" style = ""float:right""></p><p><img src=images/blank.png width =""800"" height = ""200""></p>","","","","","",""
"","367.52500000875443","trial","sequential-stimulus-presentation","214","360062","0.0-40.0-1.3","SS1611940976610","","40","900","1267.5250000087544","","","","11","images/stimuli/spore_stims/complex_05_B_c.gif","middle",""
"","null","","html-keyboard-response","215","361236","0.0-40.0-0.4","SS1611940976610","","null","","","<p><img src= images/blank.png width =""200"" height = ""200"" style = ""float:right""></p><p><img src=images/blank.png width =""800"" height = ""200""></p>","","","","","",""
"","240.55999994743615","trial","sequential-stimulus-presentation","216","362426","0.0-40.0-1.4","SS1611940976610","","40","900","1140.5599999474362","","","","11","images/stimuli/spore_stims/complex_05_B_c.gif","middle",""
"","null","","html-keyboard-response","217","363338","0.0-40.0-0.5","SS1611940976610","","null","","","<p><img src= images/blank.png width =""200"" height = ""200"" style = ""float:right""></p><p><img src=images/blank.png width =""800"" height = ""200""></p>","","","","","",""
"","387.40500004496425","trial","sequential-stimulus-presentation","218","364675","0.0-40.0-1.5","SS1611940976610","","40","900","1287.4050000449643","","","","11","images/stimuli/spore_stims/complex_05_B_c.gif","middle",""
"","null","","html-keyboard-response","219","365982","0.0-40.0-0.6","SS1611940976610","","null","","","<p><img src= images/blank.png width =""200"" height = ""200"" style = ""float:right""></p><p><img src=images/blank.png width =""800"" height = ""200""></p>","","","","","",""
"","277.959999977611","trial","sequential-stimulus-presentation","220","367215","0.0-40.0-1.6","SS1611940976610","","40","900","1177.959999977611","","","","11","images/stimuli/spore_stims/complex_05_B_c.gif","middle",""
"","null","","html-keyboard-response","221","368265","0.0-40.0-0.7","SS1611940976610","","null","","","<p><img src= images/blank.png width =""200"" height = ""200"" style = ""float:right""></p><p><img src=images/blank.png width =""800"" height = ""200""></p>","","","","","",""
"","402.79500000178814","trial","sequential-stimulus-presentation","222","369620","0.0-40.0-1.7","SS1611940976610","","40","900","1302.7950000017881","","","","11","images/stimuli/spore_stims/complex_05_B_c.gif","middle",""
"","null","","html-keyboard-response","223","370720","0.0-40.0-0.8","SS1611940976610","","null","","","<p><img src= images/blank.png width =""200"" height = ""200"" style = ""float:right""></p><p><img src=images/blank.png width =""800"" height = ""200""></p>","","","","","",""
"","2733.504999894649","trial","sequential-stimulus-presentation","224","374409","0.0-40.0-1.8","SS1611940976610","","40","900","3633.504999894649","","","","11","images/stimuli/spore_stims/complex_11_B_c.gif","right",""
"","1512.3900000471622","pref_question","html-keyboard-response","225","375967","0.0-41.0","SS1611940976610","","49","","","<img src=images/stimuli/pokeballs_pref.jpg width =""800"" height = ""200"" style=""padding-top: 33%"">","1","left","11","","",""
"","2451.905000023544","pref_reveal","sequential-stimulus-presentation","226","379367","0.0-42.0","SS1611940976610","","40","900","3351.905000023544","","","","11","","","novel"
"","null","","html-keyboard-response","227","380397","0.0-43.0-0.0","SS1611940976610","","null","","","<p><img src= images/blank.png width =""200"" height = ""200"" style = ""float:right""></p><p><img src=images/blank.png width =""800"" height = ""200""></p>","","","","","",""
"","448.0100000509992","trial","sequential-stimulus-presentation","228","381799","0.0-43.0-1.0","SS1611940976610","","40","900","1348.0100000509992","","","","12","images/stimuli/spore_stims/complex_09_B_a.gif","left",""
"","null","","html-keyboard-response","229","383116","0.0-43.0-0.1","SS1611940976610","","null","","","<p><img src= images/blank.png width =""200"" height = ""200"" style = ""float:right""></p><p><img src=images/blank.png width =""800"" height = ""200""></p>","","","","","",""
"","869.535000063479","trial","sequential-stimulus-presentation","230","384940","0.0-43.0-1.1","SS1611940976610","","40","900","1769.535000063479","","","","12","images/stimuli/spore_stims/complex_09_B_a.gif","left",""
"","null","","html-keyboard-response","231","385871","0.0-43.0-0.2","SS1611940976610","","null","","","<p><img src= images/blank.png width =""200"" height = ""200"" style = ""float:right""></p><p><img src=images/blank.png width =""800"" height = ""200""></p>","","","","","",""
"","456.0449999989942","trial","sequential-stimulus-presentation","232","387278","0.0-43.0-1.2","SS1611940976610","","40","900","1356.0449999989942","","","","12","images/stimuli/spore_stims/complex_09_B_a.gif","left",""
"","null","","html-keyboard-response","233","388546","0.0-43.0-0.3","SS1611940976610","","null","","","<p><img src= images/blank.png width =""200"" height = ""200"" style = ""float:right""></p><p><img src=images/blank.png width =""800"" height = ""200""></p>","","","","","",""
"","512.4699999578297","trial","sequential-stimulus-presentation","234","390009","0.0-43.0-1.3","SS1611940976610","","40","900","1412.4699999578297","","","","12","images/stimuli/spore_stims/complex_09_B_a.gif","left",""
"","null","","html-keyboard-response","235","391278","0.0-43.0-0.4","SS1611940976610","","null","","","<p><img src= images/blank.png width =""200"" height = ""200"" style = ""float:right""></p><p><img src=images/blank.png width =""800"" height = ""200""></p>","","","","","",""
"","587.4899999471381","trial","sequential-stimulus-presentation","236","392817","0.0-43.0-1.4","SS1611940976610","","40","900","1487.4899999471381","","","","12","images/stimuli/spore_stims/complex_09_B_a.gif","left",""
"","null","","html-keyboard-response","237","394038","0.0-43.0-0.5","SS1611940976610","","null","","","<p><img src= images/blank.png width =""200"" height = ""200"" style = ""float:right""></p><p><img src=images/blank.png width =""800"" height = ""200""></p>","","","","","",""
"","694.3800000008196","trial","sequential-stimulus-presentation","238","395686","0.0-43.0-1.5","SS1611940976610","","40","900","1594.3800000008196","","","","12","images/stimuli/spore_stims/complex_07_B_c.gif","right",""
"","null","","html-keyboard-response","239","396560","0.0-43.0-0.6","SS1611940976610","","null","","","<p><img src= images/blank.png width =""200"" height = ""200"" style = ""float:right""></p><p><img src=images/blank.png width =""800"" height = ""200""></p>","","","","","",""
"","911.6600000998005","trial","sequential-stimulus-presentation","240","398427","0.0-43.0-1.6","SS1611940976610","","40","900","1811.6600000998005","","","","12","images/stimuli/spore_stims/complex_09_B_a.gif","left",""
"","null","","html-keyboard-response","241","399459","0.0-43.0-0.7","SS1611940976610","","null","","","<p><img src= images/blank.png width =""200"" height = ""200"" style = ""float:right""></p><p><img src=images/blank.png width =""800"" height = ""200""></p>","","","","","",""
"","358.78499993123114","trial","sequential-stimulus-presentation","242","400766","0.0-43.0-1.7","SS1611940976610","","40","900","1258.7849999312311","","","","12","images/stimuli/spore_stims/complex_09_B_a.gif","left",""
"","1311.6849999642","pref_question","html-keyboard-response","243","402126","0.0-44.0","SS1611940976610","","50","","","<img src=images/stimuli/pokeballs_pref.jpg width =""800"" height = ""200"" style=""padding-top: 33%"">","2","middle","12","","",""
"","2355.6749999988824","pref_reveal","sequential-stimulus-presentation","244","405433","0.0-45.0","SS1611940976610","","40","900","3255.6749999988824","","","","12","","","novel"
"","null","","html-keyboard-response","245","406671","0.0-46.0-0.0","SS1611940976610","","null","","","<p><img src= images/blank.png width =""200"" height = ""200"" style = ""float:right""></p><p><img src=images/blank.png width =""800"" height = ""200""></p>","","","","","",""
"","1803.9899999275804","trial","sequential-stimulus-presentation","246","409432","0.0-46.0-1.0","SS1611940976610","","40","900","2703.9899999275804","","","","13","images/stimuli/spore_stims/complex_14_A_b.gif","left",""
"","null","","html-keyboard-response","247","410496","0.0-46.0-0.1","SS1611940976610","","null","","","<p><img src= images/blank.png width =""200"" height = ""200"" style = ""float:right""></p><p><img src=images/blank.png width =""800"" height = ""200""></p>","","","","","",""
"","643.7999999616295","trial","sequential-stimulus-presentation","248","412094","0.0-46.0-1.1","SS1611940976610","","40","900","1543.7999999616295","","","","13","images/stimuli/spore_stims/complex_14_A_b.gif","left",""
"","null","","html-keyboard-response","249","413139","0.0-46.0-0.2","SS1611940976610","","null","","","<p><img src= images/blank.png width =""200"" height = ""200"" style = ""float:right""></p><p><img src=images/blank.png width =""800"" height = ""200""></p>","","","","","",""
"","316.58999994397163","trial","sequential-stimulus-presentation","250","414413","0.0-46.0-1.2","SS1611940976610","","40","900","1216.5899999439716","","","","13","images/stimuli/spore_stims/complex_14_A_b.gif","left",""
"","null","","html-keyboard-response","251","415320","0.0-46.0-0.3","SS1611940976610","","null","","","<p><img src= images/blank.png width =""200"" height = ""200"" style = ""float:right""></p><p><img src=images/blank.png width =""800"" height = ""200""></p>","","","","","",""
"","250.75000000651926","trial","sequential-stimulus-presentation","252","416525","0.0-46.0-1.3","SS1611940976610","","40","900","1150.7500000065193","","","","13","images/stimuli/spore_stims/complex_14_A_b.gif","left",""
"","null","","html-keyboard-response","253","417702","0.0-46.0-0.4","SS1611940976610","","null","","","<p><img src= images/blank.png width =""200"" height = ""200"" style = ""float:right""></p><p><img src=images/blank.png width =""800"" height = ""200""></p>","","","","","",""
"","1164.2399999545887","trial","sequential-stimulus-presentation","254","419821","0.0-46.0-1.4","SS1611940976610","","40","900","2064.2399999545887","","","","13","images/stimuli/spore_stims/complex_14_B_b.gif","middle",""
"","null","","html-keyboard-response","255","420797","0.0-46.0-0.5","SS1611940976610","","null","","","<p><img src= images/blank.png width =""200"" height = ""200"" style = ""float:right""></p><p><img src=images/blank.png width =""800"" height = ""200""></p>","","","","","",""
"","958.7049999972805","trial","sequential-stimulus-presentation","256","422713","0.0-46.0-1.5","SS1611940976610","","40","900","1858.7049999972805","","","","13","images/stimuli/spore_stims/complex_14_A_b.gif","left",""
"","null","","html-keyboard-response","257","423842","0.0-46.0-0.6","SS1611940976610","","null","","","<p><img src= images/blank.png width =""200"" height = ""200"" style = ""float:right""></p><p><img src=images/blank.png width =""800"" height = ""200""></p>","","","","","",""
"","794.0800000214949","trial","sequential-stimulus-presentation","258","425595","0.0-46.0-1.6","SS1611940976610","","40","900","1694.080000021495","","","","13","images/stimuli/spore_stims/complex_14_A_b.gif","left",""
"","null","","html-keyboard-response","259","426932","0.0-46.0-0.7","SS1611940976610","","null","","","<p><img src= images/blank.png width =""200"" height = ""200"" style = ""float:right""></p><p><img src=images/blank.png width =""800"" height = ""200""></p>","","","","","",""
"","1178.1599998939782","trial","sequential-stimulus-presentation","260","429066","0.0-46.0-1.7","SS1611940976610","","40","900","2078.1599998939782","","","","13","images/stimuli/spore_stims/complex_14_A_b.gif","left",""
"","1635.6399999931455","pref_question","html-keyboard-response","261","430754","0.0-47.0","SS1611940976610","","50","","","<img src=images/stimuli/pokeballs_pref.jpg width =""800"" height = ""200"" style=""padding-top: 33%"">","2","middle","13","","",""
"","1738.8899999205023","pref_reveal","sequential-stimulus-presentation","262","433447","0.0-48.0","SS1611940976610","","40","900","2638.8899999205023","","","","13","","","deviant"
"","null","","html-keyboard-response","263","434552","0.0-49.0-0.0","SS1611940976610","","null","","","<p><img src= images/blank.png width =""200"" height = ""200"" style = ""float:right""></p><p><img src=images/blank.png width =""800"" height = ""200""></p>","","","","","",""
"","867.8300000028685","trial","sequential-stimulus-presentation","264","436378","0.0-49.0-1.0","SS1611940976610","","40","900","1767.8300000028685","","","","14","images/stimuli/spore_stims/simple_17_B_c.gif","middle",""
"","null","","html-keyboard-response","265","437441","0.0-49.0-0.1","SS1611940976610","","null","","","<p><img src= images/blank.png width =""200"" height = ""200"" style = ""float:right""></p><p><img src=images/blank.png width =""800"" height = ""200""></p>","","","","","",""
"","295.0349999591708","trial","sequential-stimulus-presentation","266","438692","0.0-49.0-1.1","SS1611940976610","","40","900","1195.0349999591708","","","","14","images/stimuli/spore_stims/simple_17_B_c.gif","middle",""
"","null","","html-keyboard-response","267","439974","0.0-49.0-0.2","SS1611940976610","","null","","","<p><img src= images/blank.png width =""200"" height = ""200"" style = ""float:right""></p><p><img src=images/blank.png width =""800"" height = ""200""></p>","","","","","",""
"","173.10999997425824","trial","sequential-stimulus-presentation","268","441105","0.0-49.0-1.2","SS1611940976610","","40","900","1073.1099999742582","","","","14","images/stimuli/spore_stims/simple_17_B_c.gif","middle",""
"","null","","html-keyboard-response","269","442222","0.0-49.0-0.3","SS1611940976610","","null","","","<p><img src= images/blank.png width =""200"" height = ""200"" style = ""float:right""></p><p><img src=images/blank.png width =""800"" height = ""200""></p>","","","","","",""
"","365.9899999620393","trial","sequential-stimulus-presentation","270","443543","0.0-49.0-1.3","SS1611940976610","","40","900","1265.9899999620393","","","","14","images/stimuli/spore_stims/simple_17_B_c.gif","middle",""
"","null","","html-keyboard-response","271","444435","0.0-49.0-0.4","SS1611940976610","","null","","","<p><img src= images/blank.png width =""200"" height = ""200"" style = ""float:right""></p><p><img src=images/blank.png width =""800"" height = ""200""></p>","","","","","",""
"","1104.2550000129268","trial","sequential-stimulus-presentation","272","446495","0.0-49.0-1.4","SS1611940976610","","40","900","2004.2550000129268","","","","14","images/stimuli/spore_stims/simple_17_B_c.gif","middle",""
"","null","","html-keyboard-response","273","447801","0.0-49.0-0.5","SS1611940976610","","null","","","<p><img src= images/blank.png width =""200"" height = ""200"" style = ""float:right""></p><p><img src=images/blank.png width =""800"" height = ""200""></p>","","","","","",""
"","736.9150000158697","trial","sequential-stimulus-presentation","274","449500","0.0-49.0-1.5","SS1611940976610","","40","900","1636.9150000158697","","","","14","images/stimuli/spore_stims/simple_17_B_c.gif","middle",""
"","null","","html-keyboard-response","275","450445","0.0-49.0-0.6","SS1611940976610","","null","","","<p><img src= images/blank.png width =""200"" height = ""200"" style = ""float:right""></p><p><img src=images/blank.png width =""800"" height = ""200""></p>","","","","","",""
"","313.4549999376759","trial","sequential-stimulus-presentation","276","451719","0.0-49.0-1.6","SS1611940976610","","40","900","1213.454999937676","","","","14","images/stimuli/spore_stims/simple_17_B_c.gif","middle",""
"","null","","html-keyboard-response","277","452995","0.0-49.0-0.7","SS1611940976610","","null","","","<p><img src= images/blank.png width =""200"" height = ""200"" style = ""float:right""></p><p><img src=images/blank.png width =""800"" height = ""200""></p>","","","","","",""
"","412.08000003825873","trial","sequential-stimulus-presentation","278","454365","0.0-49.0-1.7","SS1611940976610","","40","900","1312.0800000382587","","","","14","images/stimuli/spore_stims/simple_17_B_c.gif","middle",""
"","null","","html-keyboard-response","279","455626","0.0-49.0-0.8","SS1611940976610","","null","","","<p><img src= images/blank.png width =""200"" height = ""200"" style = ""float:right""></p><p><img src=images/blank.png width =""800"" height = ""200""></p>","","","","","",""
"","607.810000074096","trial","sequential-stimulus-presentation","280","457196","0.0-49.0-1.8","SS1611940976610","","40","900","1507.810000074096","","","","14","images/stimuli/spore_stims/simple_12_B_d.gif","left",""
"","1941.8099999893457","pref_question","html-keyboard-response","281","459190","0.0-50.0","SS1611940976610","","51","","","<img src=images/stimuli/pokeballs_pref.jpg width =""800"" height = ""200"" style=""padding-top: 33%"">","3","right","14","","",""
"","915.7450000056997","pref_reveal","sequential-stimulus-presentation","282","461067","0.0-51.0","SS1611940976610","","40","900","1815.7450000056997","","","","14","","","novel"
"","null","","html-keyboard-response","283","462402","0.0-52.0-0.0","SS1611940976610","","null","","","<p><img src= images/blank.png width =""200"" height = ""200"" style = ""float:right""></p><p><img src=images/blank.png width =""800"" height = ""200""></p>","","","","","",""
"","5180.374999996275","trial","sequential-stimulus-presentation","284","468538","0.0-52.0-1.0","SS1611940976610","","40","900","6080.374999996275","","","","15","images/stimuli/spore_stims/complex_15_B_b.gif","right",""
"","null","","html-keyboard-response","285","469830","0.0-52.0-0.1","SS1611940976610","","null","","","<p><img src= images/blank.png width =""200"" height = ""200"" style = ""float:right""></p><p><img src=images/blank.png width =""800"" height = ""200""></p>","","","","","",""
"","512.73499999661","trial","sequential-stimulus-presentation","286","471304","0.0-52.0-1.1","SS1611940976610","","40","900","1412.73499999661","","","","15","images/stimuli/spore_stims/complex_15_B_b.gif","right",""
"","null","","html-keyboard-response","287","472573","0.0-52.0-0.2","SS1611940976610","","null","","","<p><img src= images/blank.png width =""200"" height = ""200"" style = ""float:right""></p><p><img src=images/blank.png width =""800"" height = ""200""></p>","","","","","",""
"","470.64499999396503","trial","sequential-stimulus-presentation","288","474002","0.0-52.0-1.2","SS1611940976610","","40","900","1370.644999993965","","","","15","images/stimuli/spore_stims/complex_15_B_b.gif","right",""
"","null","","html-keyboard-response","289","474861","0.0-52.0-0.3","SS1611940976610","","null","","","<p><img src= images/blank.png width =""200"" height = ""200"" style = ""float:right""></p><p><img src=images/blank.png width =""800"" height = ""200""></p>","","","","","",""
"","523.1500000227243","trial","sequential-stimulus-presentation","290","476346","0.0-52.0-1.3","SS1611940976610","","40","900","1423.1500000227243","","","","15","images/stimuli/spore_stims/complex_15_B_b.gif","right",""
"","null","","html-keyboard-response","291","477589","0.0-52.0-0.4","SS1611940976610","","null","","","<p><img src= images/blank.png width =""200"" height = ""200"" style = ""float:right""></p><p><img src=images/blank.png width =""800"" height = ""200""></p>","","","","","",""
"","594.4799999706447","trial","sequential-stimulus-presentation","292","479146","0.0-52.0-1.4","SS1611940976610","","40","900","1494.4799999706447","","","","15","images/stimuli/spore_stims/complex_15_B_b.gif","right",""
"","null","","html-keyboard-response","293","480092","0.0-52.0-0.5","SS1611940976610","","null","","","<p><img src= images/blank.png width =""200"" height = ""200"" style = ""float:right""></p><p><img src=images/blank.png width =""800"" height = ""200""></p>","","","","","",""
"","682.5149999931455","trial","sequential-stimulus-presentation","294","481721","0.0-52.0-1.5","SS1611940976610","","40","900","1582.5149999931455","","","","15","images/stimuli/spore_stims/complex_15_B_b.gif","right",""
"","null","","html-keyboard-response","295","482737","0.0-52.0-0.6","SS1611940976610","","null","","","<p><img src= images/blank.png width =""200"" height = ""200"" style = ""float:right""></p><p><img src=images/blank.png width =""800"" height = ""200""></p>","","","","","",""
"","667.5299999769777","trial","sequential-stimulus-presentation","296","484364","0.0-52.0-1.6","SS1611940976610","","40","900","1567.5299999769777","","","","15","images/stimuli/spore_stims/complex_15_B_b.gif","right",""
"","null","","html-keyboard-response","297","485606","0.0-52.0-0.7","SS1611940976610","","null","","","<p><img src= images/blank.png width =""200"" height = ""200"" style = ""float:right""></p><p><img src=images/blank.png width =""800"" height = ""200""></p>","","","","","",""
"","845.339999999851","trial","sequential-stimulus-presentation","298","487415","0.0-52.0-1.7","SS1611940976610","","40","900","1745.339999999851","","","","15","images/stimuli/spore_stims/complex_15_B_b.gif","right",""
"","null","","html-keyboard-response","299","488702","0.0-52.0-0.8","SS1611940976610","","null","","","<p><img src= images/blank.png width =""200"" height = ""200"" style = ""float:right""></p><p><img src=images/blank.png width =""800"" height = ""200""></p>","","","","","",""
"","225.13500007335097","trial","sequential-stimulus-presentation","300","489892","0.0-52.0-1.8","SS1611940976610","","40","900","1125.135000073351","","","","15","images/stimuli/spore_stims/complex_15_A_b.gif","left",""
"","1273.0499999597669","pref_question","html-keyboard-response","301","491227","0.0-53.0","SS1611940976610","","50","","","<img src=images/stimuli/pokeballs_pref.jpg width =""800"" height = ""200"" style=""padding-top: 33%"">","2","middle","15","","",""
"","2149.600000004284","pref_reveal","sequential-stimulus-presentation","302","494337","0.0-54.0","SS1611940976610","","40","900","3049.600000004284","","","","15","","","novel"
"","null","","html-keyboard-response","303","495587","0.0-55.0-0.0","SS1611940976610","","null","","","<p><img src= images/blank.png width =""200"" height = ""200"" style = ""float:right""></p><p><img src=images/blank.png width =""800"" height = ""200""></p>","","","","","",""
"","393.7700000824407","trial","sequential-stimulus-presentation","304","496946","0.0-55.0-1.0","SS1611940976610","","40","900","1293.7700000824407","","","","16","images/stimuli/spore_stims/complex_18_A_c.gif","middle",""
"","null","","html-keyboard-response","305","498201","0.0-55.0-0.1","SS1611940976610","","null","","","<p><img src= images/blank.png width =""200"" height = ""200"" style = ""float:right""></p><p><img src=images/blank.png width =""800"" height = ""200""></p>","","","","","",""
"","1311.0500000184402","trial","sequential-stimulus-presentation","306","500480","0.0-55.0-1.1","SS1611940976610","","40","900","2211.05000001844","","","","16","images/stimuli/spore_stims/complex_18_A_c.gif","middle",""
"","null","","html-keyboard-response","307","501710","0.0-55.0-0.2","SS1611940976610","","null","","","<p><img src= images/blank.png width =""200"" height = ""200"" style = ""float:right""></p><p><img src=images/blank.png width =""800"" height = ""200""></p>","","","","","",""
"","365.4550000792369","trial","sequential-stimulus-presentation","308","503038","0.0-55.0-1.2","SS1611940976610","","40","900","1265.455000079237","","","","16","images/stimuli/spore_stims/complex_18_A_c.gif","middle",""
"","null","","html-keyboard-response","309","504081","0.0-55.0-0.3","SS1611940976610","","null","","","<p><img src= images/blank.png width =""200"" height = ""200"" style = ""float:right""></p><p><img src=images/blank.png width =""800"" height = ""200""></p>","","","","","",""
"","1124.420000007376","trial","sequential-stimulus-presentation","310","506169","0.0-55.0-1.3","SS1611940976610","","40","900","2024.420000007376","","","","16","images/stimuli/spore_stims/complex_18_B_c.gif","left",""
"","null","","html-keyboard-response","311","507313","0.0-55.0-0.4","SS1611940976610","","null","","","<p><img src= images/blank.png width =""200"" height = ""200"" style = ""float:right""></p><p><img src=images/blank.png width =""800"" height = ""200""></p>","","","","","",""
"","664.9350000079721","trial","sequential-stimulus-presentation","312","508946","0.0-55.0-1.4","SS1611940976610","","40","900","1564.9350000079721","","","","16","images/stimuli/spore_stims/complex_18_A_c.gif","middle",""
"","null","","html-keyboard-response","313","509897","0.0-55.0-0.5","SS1611940976610","","null","","","<p><img src= images/blank.png width =""200"" height = ""200"" style = ""float:right""></p><p><img src=images/blank.png width =""800"" height = ""200""></p>","","","","","",""
"","431.0100000584498","trial","sequential-stimulus-presentation","314","511296","0.0-55.0-1.5","SS1611940976610","","40","900","1331.0100000584498","","","","16","images/stimuli/spore_stims/complex_18_A_c.gif","middle",""
"","null","","html-keyboard-response","315","512618","0.0-55.0-0.6","SS1611940976610","","null","","","<p><img src= images/blank.png width =""200"" height = ""200"" style = ""float:right""></p><p><img src=images/blank.png width =""800"" height = ""200""></p>","","","","","",""
"","267.9700000444427","trial","sequential-stimulus-presentation","316","513849","0.0-55.0-1.6","SS1611940976610","","40","900","1167.9700000444427","","","","16","images/stimuli/spore_stims/complex_18_A_c.gif","middle",""
"","null","","html-keyboard-response","317","514727","0.0-55.0-0.7","SS1611940976610","","null","","","<p><img src= images/blank.png width =""200"" height = ""200"" style = ""float:right""></p><p><img src=images/blank.png width =""800"" height = ""200""></p>","","","","","",""
"","293.4000000823289","trial","sequential-stimulus-presentation","318","515985","0.0-55.0-1.7","SS1611940976610","","40","900","1193.400000082329","","","","16","images/stimuli/spore_stims/complex_18_A_c.gif","middle",""
"","146.24000003095716","pref_question","html-keyboard-response","319","516188","0.0-56.0","SS1611940976610","","49","","","<img src=images/stimuli/pokeballs_pref.jpg width =""800"" height = ""200"" style=""padding-top: 33%"">","1","left","16","","",""
"","1523.8200000021607","pref_reveal","sequential-stimulus-presentation","320","518674","0.0-57.0","SS1611940976610","","40","900","2423.8200000021607","","","","16","","","deviant"
"","null","","html-keyboard-response","321","519747","0.0-58.0-0.0","SS1611940976610","","null","","","<p><img src= images/blank.png width =""200"" height = ""200"" style = ""float:right""></p><p><img src=images/blank.png width =""800"" height = ""200""></p>","","","","","",""
"","664.3599999370053","trial","sequential-stimulus-presentation","322","521375","0.0-58.0-1.0","SS1611940976610","","40","900","1564.3599999370053","","","","17","images/stimuli/spore_stims/simple_20_B_b.gif","left",""
"","null","","html-keyboard-response","323","522627","0.0-58.0-0.1","SS1611940976610","","null","","","<p><img src= images/blank.png width =""200"" height = ""200"" style = ""float:right""></p><p><img src=images/blank.png width =""800"" height = ""200""></p>","","","","","",""
"","303.0199999921024","trial","sequential-stimulus-presentation","324","523897","0.0-58.0-1.1","SS1611940976610","","40","900","1203.0199999921024","","","","17","images/stimuli/spore_stims/simple_20_B_b.gif","left",""
"","null","","html-keyboard-response","325","524902","0.0-58.0-0.2","SS1611940976610","","null","","","<p><img src= images/blank.png width =""200"" height = ""200"" style = ""float:right""></p><p><img src=images/blank.png width =""800"" height = ""200""></p>","","","","","",""
"","743.114999961108","trial","sequential-stimulus-presentation","326","526616","0.0-58.0-1.2","SS1611940976610","","40","900","1643.114999961108","","","","17","images/stimuli/spore_stims/simple_20_B_b.gif","left",""
"","null","","html-keyboard-response","327","527943","0.0-58.0-0.3","SS1611940976610","","null","","","<p><img src= images/blank.png width =""200"" height = ""200"" style = ""float:right""></p><p><img src=images/blank.png width =""800"" height = ""200""></p>","","","","","",""
"","527.4300000164658","trial","sequential-stimulus-presentation","328","529437","0.0-58.0-1.3","SS1611940976610","","40","900","1427.4300000164658","","","","17","images/stimuli/spore_stims/simple_20_B_b.gif","left",""
"","null","","html-keyboard-response","329","530597","0.0-58.0-0.4","SS1611940976610","","null","","","<p><img src= images/blank.png width =""200"" height = ""200"" style = ""float:right""></p><p><img src=images/blank.png width =""800"" height = ""200""></p>","","","","","",""
"","680.0800000783056","trial","sequential-stimulus-presentation","330","532244","0.0-58.0-1.4","SS1611940976610","","40","900","1580.0800000783056","","","","17","images/stimuli/spore_stims/simple_20_A_b.gif","middle",""
"","null","","html-keyboard-response","331","533194","0.0-58.0-0.5","SS1611940976610","","null","","","<p><img src= images/blank.png width =""200"" height = ""200"" style = ""float:right""></p><p><img src=images/blank.png width =""800"" height = ""200""></p>","","","","","",""
"","1257.5850000139326","trial","sequential-stimulus-presentation","332","535423","0.0-58.0-1.5","SS1611940976610","","40","900","2157.5850000139326","","","","17","images/stimuli/spore_stims/simple_20_B_b.gif","left",""
"","null","","html-keyboard-response","333","536468","0.0-58.0-0.6","SS1611940976610","","null","","","<p><img src= images/blank.png width =""200"" height = ""200"" style = ""float:right""></p><p><img src=images/blank.png width =""800"" height = ""200""></p>","","","","","",""
"","715.1450000237674","trial","sequential-stimulus-presentation","334","538155","0.0-58.0-1.6","SS1611940976610","","40","900","1615.1450000237674","","","","17","images/stimuli/spore_stims/simple_20_B_b.gif","left",""
"","null","","html-keyboard-response","335","539189","0.0-58.0-0.7","SS1611940976610","","null","","","<p><img src= images/blank.png width =""200"" height = ""200"" style = ""float:right""></p><p><img src=images/blank.png width =""800"" height = ""200""></p>","","","","","",""
"","981.8400000222027","trial","sequential-stimulus-presentation","336","541147","0.0-58.0-1.7","SS1611940976610","","40","900","1881.8400000222027","","","","17","images/stimuli/spore_stims/simple_20_B_b.gif","left",""
"","1466.6300000390038","pref_question","html-keyboard-response","337","542675","0.0-59.0","SS1611940976610","","50","","","<img src=images/stimuli/pokeballs_pref.jpg width =""800"" height = ""200"" style=""padding-top: 33%"">","2","middle","17","","",""
"","781.5999999875203","pref_reveal","sequential-stimulus-presentation","338","544419","0.0-60.0","SS1611940976610","","40","900","1681.5999999875203","","","","17","","","deviant"
"","null","","html-keyboard-response","339","545420","0.0-61.0-0.0","SS1611940976610","","null","","","<p><img src= images/blank.png width =""200"" height = ""200"" style = ""float:right""></p><p><img src=images/blank.png width =""800"" height = ""200""></p>","","","","","",""
"","397.39499997813255","trial","sequential-stimulus-presentation","340","546784","0.0-61.0-1.0","SS1611940976610","","40","900","1297.3949999781325","","","","18","images/stimuli/spore_stims/complex_19_B_b.gif","right",""
"","null","","html-keyboard-response","341","547895","0.0-61.0-0.1","SS1611940976610","","null","","","<p><img src= images/blank.png width =""200"" height = ""200"" style = ""float:right""></p><p><img src=images/blank.png width =""800"" height = ""200""></p>","","","","","",""
"","283.6599999573082","trial","sequential-stimulus-presentation","342","549146","0.0-61.0-1.1","SS1611940976610","","40","900","1183.6599999573082","","","","18","images/stimuli/spore_stims/complex_19_B_b.gif","right",""
"","null","","html-keyboard-response","343","550364","0.0-61.0-0.2","SS1611940976610","","null","","","<p><img src= images/blank.png width =""200"" height = ""200"" style = ""float:right""></p><p><img src=images/blank.png width =""800"" height = ""200""></p>","","","","","",""
"","184.02000004425645","trial","sequential-stimulus-presentation","344","551517","0.0-61.0-1.2","SS1611940976610","","40","900","1084.0200000442564","","","","18","images/stimuli/spore_stims/complex_19_B_b.gif","right",""
"","null","","html-keyboard-response","345","552635","0.0-61.0-0.3","SS1611940976610","","null","","","<p><img src= images/blank.png width =""200"" height = ""200"" style = ""float:right""></p><p><img src=images/blank.png width =""800"" height = ""200""></p>","","","","","",""
"","366.2800000747666","trial","sequential-stimulus-presentation","346","553969","0.0-61.0-1.3","SS1611940976610","","40","900","1266.2800000747666","","","","18","images/stimuli/spore_stims/complex_19_B_b.gif","right",""
"","null","","html-keyboard-response","347","555036","0.0-61.0-0.4","SS1611940976610","","null","","","<p><img src= images/blank.png width =""200"" height = ""200"" style = ""float:right""></p><p><img src=images/blank.png width =""800"" height = ""200""></p>","","","","","",""
"","303.85499994736165","trial","sequential-stimulus-presentation","348","556309","0.0-61.0-1.4","SS1611940976610","","40","900","1203.8549999473616","","","","18","images/stimuli/spore_stims/complex_19_B_b.gif","right",""
"","null","","html-keyboard-response","349","557419","0.0-61.0-0.5","SS1611940976610","","null","","","<p><img src= images/blank.png width =""200"" height = ""200"" style = ""float:right""></p><p><img src=images/blank.png width =""800"" height = ""200""></p>","","","","","",""
"","152.87499991245568","trial","sequential-stimulus-presentation","350","558539","0.0-61.0-1.5","SS1611940976610","","40","900","1052.8749999124557","","","","18","images/stimuli/spore_stims/complex_19_B_b.gif","right",""
"","null","","html-keyboard-response","351","559797","0.0-61.0-0.6","SS1611940976610","","null","","","<p><img src= images/blank.png width =""200"" height = ""200"" style = ""float:right""></p><p><img src=images/blank.png width =""800"" height = ""200""></p>","","","","","",""
"","307.2099999990314","trial","sequential-stimulus-presentation","352","561086","0.0-61.0-1.6","SS1611940976610","","40","900","1207.2099999990314","","","","18","images/stimuli/spore_stims/complex_19_B_b.gif","right",""
"","null","","html-keyboard-response","353","562297","0.0-61.0-0.7","SS1611940976610","","null","","","<p><img src= images/blank.png width =""200"" height = ""200"" style = ""float:right""></p><p><img src=images/blank.png width =""800"" height = ""200""></p>","","","","","",""
"","237.86999995354563","trial","sequential-stimulus-presentation","354","563495","0.0-61.0-1.7","SS1611940976610","","40","900","1137.8699999535456","","","","18","images/stimuli/spore_stims/complex_19_B_b.gif","right",""
"","null","","html-keyboard-response","355","564351","0.0-61.0-0.8","SS1611940976610","","null","","","<p><img src= images/blank.png width =""200"" height = ""200"" style = ""float:right""></p><p><img src=images/blank.png width =""800"" height = ""200""></p>","","","","","",""
"","29124.81999990996","trial","sequential-stimulus-presentation","356","594450","0.0-61.0-1.8","SS1611940976610","","40","900","30024.81999990996","","","","18","images/stimuli/spore_stims/complex_19_A_b.gif","left",""
