"view_history","rt","stimulus_type","trial_type","trial_index","time_elapsed","internal_node_id","subject","trial_stimulus","key_press","minimum_viewing_duration","trial_looking_time","stimulus","ball_pref","location","block_number","stimulus_displayed","position_displayed","stim_type_selected","responses","question_order","stimulus_left","stimulus_right"
"[{""page_index"":0,""viewing_time"":17943.184999981895},{""page_index"":1,""viewing_time"":6689.41500002984}]","24634.62500006426","instructions","instructions","0","24694","0.0-0.0","SS1611976444667","","","","","","","","","","","","","","",""
"","7180.644999956712","","sequential-stimulus-presentation","1","32792","0.0-1.0","SS1611976444667","","40","900","8080.644999956712","","","","","","","","","","",""
"","4086.424999986775","","sequential-stimulus-presentation","2","37786","0.0-2.0","SS1611976444667","","40","900","4986.424999986775","","","","","","","","","","",""
"[{""page_index"":0,""viewing_time"":6072.7650000480935}]","6073.270000051707","instructions","instructions","3","43862","0.0-3.0","SS1611976444667","","","","","","","","","","","","","","",""
"","158422.35999996774","instructions","html-keyboard-response","4","202291","0.0-4.0","SS1611976444667","","50","","","<img src=images/stimuli/pokeballs_pref.jpg width =""800"" height = ""200"" style=""padding-top: 33%"">","2","middle","","","","","","","",""
"","8960.580000071786","pref_reveal","sequential-stimulus-presentation","5","212161","0.0-5.0","SS1611976444667","","40","900","9860.580000071786","","","","","","","","","","",""
"[{""page_index"":0,""viewing_time"":14249.869999941438},{""page_index"":1,""viewing_time"":6774.84500000719},{""page_index"":2,""viewing_time"":1577.4150000652298},{""page_index"":3,""viewing_time"":822.8949999902397}]","23425.285000004806","instructions","instructions","6","235596","0.0-6.0","SS1611976444667","","","","","","","","","","","","","","",""
"","null","","html-keyboard-response","7","236608","0.0-7.0-0.0","SS1611976444667","","null","","","<p><img src= images/blank.png width =""200"" height = ""200"" style = ""float:right""></p><p><img src=images/blank.png width =""800"" height = ""200""></p>","","","","","","","","","",""
"","3004.534999956377","trial","sequential-stimulus-presentation","8","240537","0.0-7.0-1.0","SS1611976444667","","40","900","3904.534999956377","","","","0","images/stimuli/spore_stims/complex_12_A_d.gif","left","","","","",""
"","null","","html-keyboard-response","9","241514","0.0-7.0-0.1","SS1611976444667","","null","","","<p><img src= images/blank.png width =""200"" height = ""200"" style = ""float:right""></p><p><img src=images/blank.png width =""800"" height = ""200""></p>","","","","","","","","","",""
"","1250.9649998974055","trial","sequential-stimulus-presentation","10","243677","0.0-7.0-1.1","SS1611976444667","","40","900","2150.9649998974055","","","","0","images/stimuli/spore_stims/complex_12_A_d.gif","left","","","","",""
"","null","","html-keyboard-response","11","244868","0.0-7.0-0.2","SS1611976444667","","null","","","<p><img src= images/blank.png width =""200"" height = ""200"" style = ""float:right""></p><p><img src=images/blank.png width =""800"" height = ""200""></p>","","","","","","","","","",""
"","3090.999999898486","trial","sequential-stimulus-presentation","12","248870","0.0-7.0-1.2","SS1611976444667","","40","900","3990.999999898486","","","","0","images/stimuli/spore_stims/complex_12_A_d.gif","left","","","","",""
"","null","","html-keyboard-response","13","250152","0.0-7.0-0.3","SS1611976444667","","null","","","<p><img src= images/blank.png width =""200"" height = ""200"" style = ""float:right""></p><p><img src=images/blank.png width =""800"" height = ""200""></p>","","","","","","","","","",""
"","395.40000003762543","trial","sequential-stimulus-presentation","14","251459","0.0-7.0-1.3","SS1611976444667","","40","900","1295.4000000376254","","","","0","images/stimuli/spore_stims/complex_12_A_d.gif","left","","","","",""
"","null","","html-keyboard-response","15","252270","0.0-7.0-0.4","SS1611976444667","","null","","","<p><img src= images/blank.png width =""200"" height = ""200"" style = ""float:right""></p><p><img src=images/blank.png width =""800"" height = ""200""></p>","","","","","","","","","",""
"","3844.3950000219047","trial","sequential-stimulus-presentation","16","257023","0.0-7.0-1.4","SS1611976444667","","40","900","4744.395000021905","","","","0","images/stimuli/spore_stims/complex_12_A_d.gif","left","","","","",""
"","null","","html-keyboard-response","17","258268","0.0-7.0-0.5","SS1611976444667","","null","","","<p><img src= images/blank.png width =""200"" height = ""200"" style = ""float:right""></p><p><img src=images/blank.png width =""800"" height = ""200""></p>","","","","","","","","","",""
"","498.4599999152124","trial","sequential-stimulus-presentation","18","259683","0.0-7.0-1.5","SS1611976444667","","40","900","1398.4599999152124","","","","0","images/stimuli/spore_stims/complex_12_A_d.gif","left","","","","",""
"","null","","html-keyboard-response","19","260670","0.0-7.0-0.6","SS1611976444667","","null","","","<p><img src= images/blank.png width =""200"" height = ""200"" style = ""float:right""></p><p><img src=images/blank.png width =""800"" height = ""200""></p>","","","","","","","","","",""
"","435.23500009905547","trial","sequential-stimulus-presentation","20","262019","0.0-7.0-1.6","SS1611976444667","","40","900","1335.2350000990555","","","","0","images/stimuli/spore_stims/complex_12_A_d.gif","left","","","","",""
"","null","","html-keyboard-response","21","262999","0.0-7.0-0.7","SS1611976444667","","null","","","<p><img src= images/blank.png width =""200"" height = ""200"" style = ""float:right""></p><p><img src=images/blank.png width =""800"" height = ""200""></p>","","","","","","","","","",""
"","452.8400000417605","trial","sequential-stimulus-presentation","22","264366","0.0-7.0-1.7","SS1611976444667","","40","900","1352.8400000417605","","","","0","images/stimuli/spore_stims/complex_12_A_d.gif","left","","","","",""
"","null","","html-keyboard-response","23","265200","0.0-7.0-0.8","SS1611976444667","","null","","","<p><img src= images/blank.png width =""200"" height = ""200"" style = ""float:right""></p><p><img src=images/blank.png width =""800"" height = ""200""></p>","","","","","","","","","",""
"","3681.8900000071153","trial","sequential-stimulus-presentation","24","269812","0.0-7.0-1.8","SS1611976444667","","40","900","4581.890000007115","","","","0","images/stimuli/spore_stims/complex_18_B_c.gif","right","","","","",""
"","3000.649999943562","pref_question","html-keyboard-response","25","272823","0.0-8.0","SS1611976444667","","50","","","<img src=images/stimuli/pokeballs_pref.jpg width =""800"" height = ""200"" style=""padding-top: 33%"">","2","middle","0","","","","","","",""
"","3102.489999961108","pref_reveal","sequential-stimulus-presentation","26","276840","0.0-9.0","SS1611976444667","","40","900","4002.489999961108","","","","0","","","novel","","","",""
"","null","","html-keyboard-response","27","277938","0.0-10.0-0.0","SS1611976444667","","null","","","<p><img src= images/blank.png width =""200"" height = ""200"" style = ""float:right""></p><p><img src=images/blank.png width =""800"" height = ""200""></p>","","","","","","","","","",""
"","1320.5250001046807","trial","sequential-stimulus-presentation","28","280189","0.0-10.0-1.0","SS1611976444667","","40","900","2220.5250001046807","","","","1","images/stimuli/spore_stims/complex_15_B_a.gif","right","","","","",""
"","null","","html-keyboard-response","29","281300","0.0-10.0-0.1","SS1611976444667","","null","","","<p><img src= images/blank.png width =""200"" height = ""200"" style = ""float:right""></p><p><img src=images/blank.png width =""800"" height = ""200""></p>","","","","","","","","","",""
"","702.5750000029802","trial","sequential-stimulus-presentation","30","282924","0.0-10.0-1.1","SS1611976444667","","40","900","1602.5750000029802","","","","1","images/stimuli/spore_stims/complex_15_B_a.gif","right","","","","",""
"","null","","html-keyboard-response","31","283832","0.0-10.0-0.2","SS1611976444667","","null","","","<p><img src= images/blank.png width =""200"" height = ""200"" style = ""float:right""></p><p><img src=images/blank.png width =""800"" height = ""200""></p>","","","","","","","","","",""
"","729.6349999960512","trial","sequential-stimulus-presentation","32","285479","0.0-10.0-1.2","SS1611976444667","","40","900","1629.6349999960512","","","","1","images/stimuli/spore_stims/complex_15_B_a.gif","right","","","","",""
"","null","","html-keyboard-response","33","286650","0.0-10.0-0.3","SS1611976444667","","null","","","<p><img src= images/blank.png width =""200"" height = ""200"" style = ""float:right""></p><p><img src=images/blank.png width =""800"" height = ""200""></p>","","","","","","","","","",""
"","269.22999997623265","trial","sequential-stimulus-presentation","34","287838","0.0-10.0-1.3","SS1611976444667","","40","900","1169.2299999762326","","","","1","images/stimuli/spore_stims/complex_15_B_a.gif","right","","","","",""
"","null","","html-keyboard-response","35","289114","0.0-10.0-0.4","SS1611976444667","","null","","","<p><img src= images/blank.png width =""200"" height = ""200"" style = ""float:right""></p><p><img src=images/blank.png width =""800"" height = ""200""></p>","","","","","","","","","",""
"","280.544999986887","trial","sequential-stimulus-presentation","36","290314","0.0-10.0-1.4","SS1611976444667","","40","900","1180.544999986887","","","","1","images/stimuli/spore_stims/complex_15_B_a.gif","right","","","","",""
"","null","","html-keyboard-response","37","291446","0.0-10.0-0.5","SS1611976444667","","null","","","<p><img src= images/blank.png width =""200"" height = ""200"" style = ""float:right""></p><p><img src=images/blank.png width =""800"" height = ""200""></p>","","","","","","","","","",""
"","242.52500000875443","trial","sequential-stimulus-presentation","38","292605","0.0-10.0-1.5","SS1611976444667","","40","900","1142.5250000087544","","","","1","images/stimuli/spore_stims/complex_15_B_a.gif","right","","","","",""
"","null","","html-keyboard-response","39","293625","0.0-10.0-0.6","SS1611976444667","","null","","","<p><img src= images/blank.png width =""200"" height = ""200"" style = ""float:right""></p><p><img src=images/blank.png width =""800"" height = ""200""></p>","","","","","","","","","",""
"","2131.3150000059977","trial","sequential-stimulus-presentation","40","296680","0.0-10.0-1.6","SS1611976444667","","40","900","3031.3150000059977","","","","1","images/stimuli/spore_stims/complex_15_A_a.gif","left","","","","",""
"","null","","html-keyboard-response","41","297737","0.0-10.0-0.7","SS1611976444667","","null","","","<p><img src= images/blank.png width =""200"" height = ""200"" style = ""float:right""></p><p><img src=images/blank.png width =""800"" height = ""200""></p>","","","","","","","","","",""
"","627.4299999931827","trial","sequential-stimulus-presentation","42","299288","0.0-10.0-1.7","SS1611976444667","","40","900","1527.4299999931827","","","","1","images/stimuli/spore_stims/complex_15_B_a.gif","right","","","","",""
"","2028.2400000141934","pref_question","html-keyboard-response","43","301334","0.0-11.0","SS1611976444667","","50","","","<img src=images/stimuli/pokeballs_pref.jpg width =""800"" height = ""200"" style=""padding-top: 33%"">","2","middle","1","","","","","","",""
"","3555.9949999442324","pref_reveal","sequential-stimulus-presentation","44","305810","0.0-12.0","SS1611976444667","","40","900","4455.994999944232","","","","1","","","novel","","","",""
"","null","","html-keyboard-response","45","306975","0.0-13.0-0.0","SS1611976444667","","null","","","<p><img src= images/blank.png width =""200"" height = ""200"" style = ""float:right""></p><p><img src=images/blank.png width =""800"" height = ""200""></p>","","","","","","","","","",""
"","806.7949999822304","trial","sequential-stimulus-presentation","46","308717","0.0-13.0-1.0","SS1611976444667","","40","900","1706.7949999822304","","","","2","images/stimuli/spore_stims/complex_01_A_b.gif","middle","","","","",""
"","null","","html-keyboard-response","47","309907","0.0-13.0-0.1","SS1611976444667","","null","","","<p><img src= images/blank.png width =""200"" height = ""200"" style = ""float:right""></p><p><img src=images/blank.png width =""800"" height = ""200""></p>","","","","","","","","","",""
"","1917.4500000663102","trial","sequential-stimulus-presentation","48","312749","0.0-13.0-1.1","SS1611976444667","","40","900","2817.45000006631","","","","2","images/stimuli/spore_stims/complex_01_A_b.gif","middle","","","","",""
"","null","","html-keyboard-response","49","313785","0.0-13.0-0.2","SS1611976444667","","null","","","<p><img src= images/blank.png width =""200"" height = ""200"" style = ""float:right""></p><p><img src=images/blank.png width =""800"" height = ""200""></p>","","","","","","","","","",""
"","488.770000054501","trial","sequential-stimulus-presentation","50","315195","0.0-13.0-1.2","SS1611976444667","","40","900","1388.770000054501","","","","2","images/stimuli/spore_stims/complex_01_A_b.gif","middle","","","","",""
"","null","","html-keyboard-response","51","316179","0.0-13.0-0.3","SS1611976444667","","null","","","<p><img src= images/blank.png width =""200"" height = ""200"" style = ""float:right""></p><p><img src=images/blank.png width =""800"" height = ""200""></p>","","","","","","","","","",""
"","285.2600000333041","trial","sequential-stimulus-presentation","52","317387","0.0-13.0-1.3","SS1611976444667","","40","900","1185.260000033304","","","","2","images/stimuli/spore_stims/complex_01_A_b.gif","middle","","","","",""
"","null","","html-keyboard-response","53","318526","0.0-13.0-0.4","SS1611976444667","","null","","","<p><img src= images/blank.png width =""200"" height = ""200"" style = ""float:right""></p><p><img src=images/blank.png width =""800"" height = ""200""></p>","","","","","","","","","",""
"","278.64999999292195","trial","sequential-stimulus-presentation","54","319728","0.0-13.0-1.4","SS1611976444667","","40","900","1178.649999992922","","","","2","images/stimuli/spore_stims/complex_01_A_b.gif","middle","","","","",""
"","null","","html-keyboard-response","55","320570","0.0-13.0-0.5","SS1611976444667","","null","","","<p><img src= images/blank.png width =""200"" height = ""200"" style = ""float:right""></p><p><img src=images/blank.png width =""800"" height = ""200""></p>","","","","","","","","","",""
"","249.55999990925193","trial","sequential-stimulus-presentation","56","321748","0.0-13.0-1.5","SS1611976444667","","40","900","1149.559999909252","","","","2","images/stimuli/spore_stims/complex_01_A_b.gif","middle","","","","",""
"","null","","html-keyboard-response","57","322897","0.0-13.0-0.6","SS1611976444667","","null","","","<p><img src= images/blank.png width =""200"" height = ""200"" style = ""float:right""></p><p><img src=images/blank.png width =""800"" height = ""200""></p>","","","","","","","","","",""
"","1434.9100000690669","trial","sequential-stimulus-presentation","58","325257","0.0-13.0-1.6","SS1611976444667","","40","900","2334.910000069067","","","","2","images/stimuli/spore_stims/complex_01_A_b.gif","middle","","","","",""
"","null","","html-keyboard-response","59","326415","0.0-13.0-0.7","SS1611976444667","","null","","","<p><img src= images/blank.png width =""200"" height = ""200"" style = ""float:right""></p><p><img src=images/blank.png width =""800"" height = ""200""></p>","","","","","","","","","",""
"","349.72499997820705","trial","sequential-stimulus-presentation","60","327693","0.0-13.0-1.7","SS1611976444667","","40","900","1249.724999978207","","","","2","images/stimuli/spore_stims/complex_01_A_b.gif","middle","","","","",""
"","null","","html-keyboard-response","61","328994","0.0-13.0-0.8","SS1611976444667","","null","","","<p><img src= images/blank.png width =""200"" height = ""200"" style = ""float:right""></p><p><img src=images/blank.png width =""800"" height = ""200""></p>","","","","","","","","","",""
"","709.6499999752268","trial","sequential-stimulus-presentation","62","330634","0.0-13.0-1.8","SS1611976444667","","40","900","1609.6499999752268","","","","2","images/stimuli/spore_stims/complex_01_B_b.gif","left","","","","",""
"","2636.6300000809133","pref_question","html-keyboard-response","63","333294","0.0-14.0","SS1611976444667","","51","","","<img src=images/stimuli/pokeballs_pref.jpg width =""800"" height = ""200"" style=""padding-top: 33%"">","3","right","2","","","","","","",""
"","3435.3399999672547","pref_reveal","sequential-stimulus-presentation","64","337655","0.0-15.0","SS1611976444667","","40","900","4335.339999967255","","","","2","","","novel","","","",""
"","null","","html-keyboard-response","65","338626","0.0-16.0-0.0","SS1611976444667","","null","","","<p><img src= images/blank.png width =""200"" height = ""200"" style = ""float:right""></p><p><img src=images/blank.png width =""800"" height = ""200""></p>","","","","","","","","","",""
"","105.58999993372709","trial","sequential-stimulus-presentation","66","339666","0.0-16.0-1.0","SS1611976444667","","40","900","1005.5899999337271","","","","3","images/stimuli/spore_stims/simple_11_A_c.gif","right","","","","",""
"","null","","html-keyboard-response","67","340758","0.0-16.0-0.1","SS1611976444667","","null","","","<p><img src= images/blank.png width =""200"" height = ""200"" style = ""float:right""></p><p><img src=images/blank.png width =""800"" height = ""200""></p>","","","","","","","","","",""
"","1856.2450000317767","trial","sequential-stimulus-presentation","68","343545","0.0-16.0-1.1","SS1611976444667","","40","900","2756.2450000317767","","","","3","images/stimuli/spore_stims/simple_11_A_c.gif","right","","","","",""
"","null","","html-keyboard-response","69","344855","0.0-16.0-0.2","SS1611976444667","","null","","","<p><img src= images/blank.png width =""200"" height = ""200"" style = ""float:right""></p><p><img src=images/blank.png width =""800"" height = ""200""></p>","","","","","","","","","",""
"","330.8449999894947","trial","sequential-stimulus-presentation","70","346115","0.0-16.0-1.2","SS1611976444667","","40","900","1230.8449999894947","","","","3","images/stimuli/spore_stims/simple_11_A_c.gif","right","","","","",""
"","null","","html-keyboard-response","71","347356","0.0-16.0-0.3","SS1611976444667","","null","","","<p><img src= images/blank.png width =""200"" height = ""200"" style = ""float:right""></p><p><img src=images/blank.png width =""800"" height = ""200""></p>","","","","","","","","","",""
"","409.6900000004098","trial","sequential-stimulus-presentation","72","348694","0.0-16.0-1.3","SS1611976444667","","40","900","1309.6900000004098","","","","3","images/stimuli/spore_stims/simple_11_A_c.gif","right","","","","",""
"","null","","html-keyboard-response","73","349974","0.0-16.0-0.4","SS1611976444667","","null","","","<p><img src= images/blank.png width =""200"" height = ""200"" style = ""float:right""></p><p><img src=images/blank.png width =""800"" height = ""200""></p>","","","","","","","","","",""
"","344.0349999582395","trial","sequential-stimulus-presentation","74","351248","0.0-16.0-1.4","SS1611976444667","","40","900","1244.0349999582395","","","","3","images/stimuli/spore_stims/simple_11_A_c.gif","right","","","","",""
"","null","","html-keyboard-response","75","352282","0.0-16.0-0.5","SS1611976444667","","null","","","<p><img src= images/blank.png width =""200"" height = ""200"" style = ""float:right""></p><p><img src=images/blank.png width =""800"" height = ""200""></p>","","","","","","","","","",""
"","510.73000009637326","trial","sequential-stimulus-presentation","76","353724","0.0-16.0-1.5","SS1611976444667","","40","900","1410.7300000963733","","","","3","images/stimuli/spore_stims/simple_11_A_c.gif","right","","","","",""
"","null","","html-keyboard-response","77","355048","0.0-16.0-0.6","SS1611976444667","","null","","","<p><img src= images/blank.png width =""200"" height = ""200"" style = ""float:right""></p><p><img src=images/blank.png width =""800"" height = ""200""></p>","","","","","","","","","",""
"","328.48000002559274","trial","sequential-stimulus-presentation","78","356311","0.0-16.0-1.6","SS1611976444667","","40","900","1228.4800000255927","","","","3","images/stimuli/spore_stims/simple_11_A_c.gif","right","","","","",""
"","null","","html-keyboard-response","79","357255","0.0-16.0-0.7","SS1611976444667","","null","","","<p><img src= images/blank.png width =""200"" height = ""200"" style = ""float:right""></p><p><img src=images/blank.png width =""800"" height = ""200""></p>","","","","","","","","","",""
"","6617.715000058524","trial","sequential-stimulus-presentation","80","364810","0.0-16.0-1.7","SS1611976444667","","40","900","7517.715000058524","","","","3","images/stimuli/spore_stims/simple_11_B_c.gif","middle","","","","",""
"","2583.504999987781","pref_question","html-keyboard-response","81","367419","0.0-17.0","SS1611976444667","","51","","","<img src=images/stimuli/pokeballs_pref.jpg width =""800"" height = ""200"" style=""padding-top: 33%"">","3","right","3","","","","","","",""
"","846.2600000202656","pref_reveal","sequential-stimulus-presentation","82","369202","0.0-18.0","SS1611976444667","","40","900","1746.2600000202656","","","","3","","","background","","","",""
"","null","","html-keyboard-response","83","370462","0.0-19.0-0.0","SS1611976444667","","null","","","<p><img src= images/blank.png width =""200"" height = ""200"" style = ""float:right""></p><p><img src=images/blank.png width =""800"" height = ""200""></p>","","","","","","","","","",""
"","3478.999999933876","trial","sequential-stimulus-presentation","84","374878","0.0-19.0-1.0","SS1611976444667","","40","900","4378.999999933876","","","","4","images/stimuli/spore_stims/complex_10_B_d.gif","right","","","","",""
"","null","","html-keyboard-response","85","376106","0.0-19.0-0.1","SS1611976444667","","null","","","<p><img src= images/blank.png width =""200"" height = ""200"" style = ""float:right""></p><p><img src=images/blank.png width =""800"" height = ""200""></p>","","","","","","","","","",""
"","384.00499999988824","trial","sequential-stimulus-presentation","86","377426","0.0-19.0-1.1","SS1611976444667","","40","900","1284.0049999998882","","","","4","images/stimuli/spore_stims/complex_10_B_d.gif","right","","","","",""
"","null","","html-keyboard-response","87","378607","0.0-19.0-0.2","SS1611976444667","","null","","","<p><img src= images/blank.png width =""200"" height = ""200"" style = ""float:right""></p><p><img src=images/blank.png width =""800"" height = ""200""></p>","","","","","","","","","",""
"","341.8300000485033","trial","sequential-stimulus-presentation","88","379884","0.0-19.0-1.2","SS1611976444667","","40","900","1241.8300000485033","","","","4","images/stimuli/spore_stims/complex_10_B_d.gif","right","","","","",""
"","null","","html-keyboard-response","89","381218","0.0-19.0-0.3","SS1611976444667","","null","","","<p><img src= images/blank.png width =""200"" height = ""200"" style = ""float:right""></p><p><img src=images/blank.png width =""800"" height = ""200""></p>","","","","","","","","","",""
"","333.9200000045821","trial","sequential-stimulus-presentation","90","382486","0.0-19.0-1.3","SS1611976444667","","40","900","1233.920000004582","","","","4","images/stimuli/spore_stims/complex_10_B_d.gif","right","","","","",""
"","null","","html-keyboard-response","91","383799","0.0-19.0-0.4","SS1611976444667","","null","","","<p><img src= images/blank.png width =""200"" height = ""200"" style = ""float:right""></p><p><img src=images/blank.png width =""800"" height = ""200""></p>","","","","","","","","","",""
"","373.50500002503395","trial","sequential-stimulus-presentation","92","385107","0.0-19.0-1.4","SS1611976444667","","40","900","1273.505000025034","","","","4","images/stimuli/spore_stims/complex_10_B_d.gif","right","","","","",""
"","null","","html-keyboard-response","93","386056","0.0-19.0-0.5","SS1611976444667","","null","","","<p><img src= images/blank.png width =""200"" height = ""200"" style = ""float:right""></p><p><img src=images/blank.png width =""800"" height = ""200""></p>","","","","","","","","","",""
"","1223.9449999760836","trial","sequential-stimulus-presentation","94","388220","0.0-19.0-1.5","SS1611976444667","","40","900","2123.9449999760836","","","","4","images/stimuli/spore_stims/complex_10_A_d.gif","middle","","","","",""
"","null","","html-keyboard-response","95","389141","0.0-19.0-0.6","SS1611976444667","","null","","","<p><img src= images/blank.png width =""200"" height = ""200"" style = ""float:right""></p><p><img src=images/blank.png width =""800"" height = ""200""></p>","","","","","","","","","",""
"","431.70000007376075","trial","sequential-stimulus-presentation","96","390508","0.0-19.0-1.6","SS1611976444667","","40","900","1331.7000000737607","","","","4","images/stimuli/spore_stims/complex_10_B_d.gif","right","","","","",""
"","null","","html-keyboard-response","97","391508","0.0-19.0-0.7","SS1611976444667","","null","","","<p><img src= images/blank.png width =""200"" height = ""200"" style = ""float:right""></p><p><img src=images/blank.png width =""800"" height = ""200""></p>","","","","","","","","","",""
"","417.2099999850616","trial","sequential-stimulus-presentation","98","392864","0.0-19.0-1.7","SS1611976444667","","40","900","1317.2099999850616","","","","4","images/stimuli/spore_stims/complex_10_B_d.gif","right","","","","",""
"","1711.8600000394508","pref_question","html-keyboard-response","99","394613","0.0-20.0","SS1611976444667","","49","","","<img src=images/stimuli/pokeballs_pref.jpg width =""800"" height = ""200"" style=""padding-top: 33%"">","1","left","4","","","","","","",""
"","3772.3649999825284","pref_reveal","sequential-stimulus-presentation","100","399328","0.0-21.0","SS1611976444667","","40","900","4672.364999982528","","","","4","","","novel","","","",""
"","null","","html-keyboard-response","101","400572","0.0-22.0-0.0","SS1611976444667","","null","","","<p><img src= images/blank.png width =""200"" height = ""200"" style = ""float:right""></p><p><img src=images/blank.png width =""800"" height = ""200""></p>","","","","","","","","","",""
"","1129.8799999058247","trial","sequential-stimulus-presentation","102","402648","0.0-22.0-1.0","SS1611976444667","","40","900","2029.8799999058247","","","","5","images/stimuli/spore_stims/complex_20_B_a.gif","right","","","","",""
"","null","","html-keyboard-response","103","403961","0.0-22.0-0.1","SS1611976444667","","null","","","<p><img src= images/blank.png width =""200"" height = ""200"" style = ""float:right""></p><p><img src=images/blank.png width =""800"" height = ""200""></p>","","","","","","","","","",""
"","401.9550000084564","trial","sequential-stimulus-presentation","104","405303","0.0-22.0-1.1","SS1611976444667","","40","900","1301.9550000084564","","","","5","images/stimuli/spore_stims/complex_20_B_a.gif","right","","","","",""
"","null","","html-keyboard-response","105","406379","0.0-22.0-0.2","SS1611976444667","","null","","","<p><img src= images/blank.png width =""200"" height = ""200"" style = ""float:right""></p><p><img src=images/blank.png width =""800"" height = ""200""></p>","","","","","","","","","",""
"","290.02999991644174","trial","sequential-stimulus-presentation","106","407609","0.0-22.0-1.2","SS1611976444667","","40","900","1190.0299999164417","","","","5","images/stimuli/spore_stims/complex_20_B_a.gif","right","","","","",""
"","null","","html-keyboard-response","107","408783","0.0-22.0-0.3","SS1611976444667","","null","","","<p><img src= images/blank.png width =""200"" height = ""200"" style = ""float:right""></p><p><img src=images/blank.png width =""800"" height = ""200""></p>","","","","","","","","","",""
"","276.4599999645725","trial","sequential-stimulus-presentation","108","410000","0.0-22.0-1.3","SS1611976444667","","40","900","1176.4599999645725","","","","5","images/stimuli/spore_stims/complex_20_B_a.gif","right","","","","",""
"","null","","html-keyboard-response","109","411313","0.0-22.0-0.4","SS1611976444667","","null","","","<p><img src= images/blank.png width =""200"" height = ""200"" style = ""float:right""></p><p><img src=images/blank.png width =""800"" height = ""200""></p>","","","","","","","","","",""
"","263.1299999775365","trial","sequential-stimulus-presentation","110","412518","0.0-22.0-1.4","SS1611976444667","","40","900","1163.1299999775365","","","","5","images/stimuli/spore_stims/complex_20_B_a.gif","right","","","","",""
"","null","","html-keyboard-response","111","413474","0.0-22.0-0.5","SS1611976444667","","null","","","<p><img src= images/blank.png width =""200"" height = ""200"" style = ""float:right""></p><p><img src=images/blank.png width =""800"" height = ""200""></p>","","","","","","","","","",""
"","304.4950000476092","trial","sequential-stimulus-presentation","112","414719","0.0-22.0-1.5","SS1611976444667","","40","900","1204.4950000476092","","","","5","images/stimuli/spore_stims/complex_20_B_a.gif","right","","","","",""
"","null","","html-keyboard-response","113","415931","0.0-22.0-0.6","SS1611976444667","","null","","","<p><img src= images/blank.png width =""200"" height = ""200"" style = ""float:right""></p><p><img src=images/blank.png width =""800"" height = ""200""></p>","","","","","","","","","",""
"","279.6099999686703","trial","sequential-stimulus-presentation","114","417153","0.0-22.0-1.6","SS1611976444667","","40","900","1179.6099999686703","","","","5","images/stimuli/spore_stims/complex_20_B_a.gif","right","","","","",""
"","null","","html-keyboard-response","115","418213","0.0-22.0-0.7","SS1611976444667","","null","","","<p><img src= images/blank.png width =""200"" height = ""200"" style = ""float:right""></p><p><img src=images/blank.png width =""800"" height = ""200""></p>","","","","","","","","","",""
"","774.9350001104176","trial","sequential-stimulus-presentation","116","419933","0.0-22.0-1.7","SS1611976444667","","40","900","1674.9350001104176","","","","5","images/stimuli/spore_stims/complex_20_A_a.gif","left","","","","",""
"","2540.665000095032","pref_question","html-keyboard-response","117","422512","0.0-23.0","SS1611976444667","","50","","","<img src=images/stimuli/pokeballs_pref.jpg width =""800"" height = ""200"" style=""padding-top: 33%"">","2","middle","5","","","","","","",""
"","937.1150000952184","pref_reveal","sequential-stimulus-presentation","118","424388","0.0-24.0","SS1611976444667","","40","900","1837.1150000952184","","","","5","","","novel","","","",""
"","null","","html-keyboard-response","119","425519","0.0-25.0-0.0","SS1611976444667","","null","","","<p><img src= images/blank.png width =""200"" height = ""200"" style = ""float:right""></p><p><img src=images/blank.png width =""800"" height = ""200""></p>","","","","","","","","","",""
"","2111.1950000049546","trial","sequential-stimulus-presentation","120","428582","0.0-25.0-1.0","SS1611976444667","","40","900","3011.1950000049546","","","","6","images/stimuli/spore_stims/simple_08_A_c.gif","left","","","","",""
"","null","","html-keyboard-response","121","429702","0.0-25.0-0.1","SS1611976444667","","null","","","<p><img src= images/blank.png width =""200"" height = ""200"" style = ""float:right""></p><p><img src=images/blank.png width =""800"" height = ""200""></p>","","","","","","","","","",""
"","1055.5150000145659","trial","sequential-stimulus-presentation","122","431700","0.0-25.0-1.1","SS1611976444667","","40","900","1955.5150000145659","","","","6","images/stimuli/spore_stims/simple_08_A_c.gif","left","","","","",""
"","null","","html-keyboard-response","123","432924","0.0-25.0-0.2","SS1611976444667","","null","","","<p><img src= images/blank.png width =""200"" height = ""200"" style = ""float:right""></p><p><img src=images/blank.png width =""800"" height = ""200""></p>","","","","","","","","","",""
"","273.67500006221235","trial","sequential-stimulus-presentation","124","434143","0.0-25.0-1.2","SS1611976444667","","40","900","1173.6750000622123","","","","6","images/stimuli/spore_stims/simple_08_A_c.gif","left","","","","",""
"","null","","html-keyboard-response","125","435122","0.0-25.0-0.3","SS1611976444667","","null","","","<p><img src= images/blank.png width =""200"" height = ""200"" style = ""float:right""></p><p><img src=images/blank.png width =""800"" height = ""200""></p>","","","","","","","","","",""
"","278.2850000075996","trial","sequential-stimulus-presentation","126","436349","0.0-25.0-1.3","SS1611976444667","","40","900","1178.2850000075996","","","","6","images/stimuli/spore_stims/simple_08_A_c.gif","left","","","","",""
"","null","","html-keyboard-response","127","437204","0.0-25.0-0.4","SS1611976444667","","null","","","<p><img src= images/blank.png width =""200"" height = ""200"" style = ""float:right""></p><p><img src=images/blank.png width =""800"" height = ""200""></p>","","","","","","","","","",""
"","398.65999994799495","trial","sequential-stimulus-presentation","128","438548","0.0-25.0-1.4","SS1611976444667","","40","900","1298.659999947995","","","","6","images/stimuli/spore_stims/simple_08_A_c.gif","left","","","","",""
"","null","","html-keyboard-response","129","439455","0.0-25.0-0.5","SS1611976444667","","null","","","<p><img src= images/blank.png width =""200"" height = ""200"" style = ""float:right""></p><p><img src=images/blank.png width =""800"" height = ""200""></p>","","","","","","","","","",""
"","547.2650000592694","trial","sequential-stimulus-presentation","130","440950","0.0-25.0-1.5","SS1611976444667","","40","900","1447.2650000592694","","","","6","images/stimuli/spore_stims/simple_10_A_a.gif","right","","","","",""
"","null","","html-keyboard-response","131","442155","0.0-25.0-0.6","SS1611976444667","","null","","","<p><img src= images/blank.png width =""200"" height = ""200"" style = ""float:right""></p><p><img src=images/blank.png width =""800"" height = ""200""></p>","","","","","","","","","",""
"","447.6900000590831","trial","sequential-stimulus-presentation","132","443548","0.0-25.0-1.6","SS1611976444667","","40","900","1347.690000059083","","","","6","images/stimuli/spore_stims/simple_08_A_c.gif","left","","","","",""
"","null","","html-keyboard-response","133","444664","0.0-25.0-0.7","SS1611976444667","","null","","","<p><img src= images/blank.png width =""200"" height = ""200"" style = ""float:right""></p><p><img src=images/blank.png width =""800"" height = ""200""></p>","","","","","","","","","",""
"","304.5799999963492","trial","sequential-stimulus-presentation","134","445916","0.0-25.0-1.7","SS1611976444667","","40","900","1204.5799999963492","","","","6","images/stimuli/spore_stims/simple_08_A_c.gif","left","","","","",""
"","1414.9350000079721","pref_question","html-keyboard-response","135","447377","0.0-26.0","SS1611976444667","","50","","","<img src=images/stimuli/pokeballs_pref.jpg width =""800"" height = ""200"" style=""padding-top: 33%"">","2","middle","6","","","","","","",""
"","2036.530000041239","pref_reveal","sequential-stimulus-presentation","136","450359","0.0-27.0","SS1611976444667","","40","900","2936.530000041239","","","","6","","","novel","","","",""
"","null","","html-keyboard-response","137","451497","0.0-28.0-0.0","SS1611976444667","","null","","","<p><img src= images/blank.png width =""200"" height = ""200"" style = ""float:right""></p><p><img src=images/blank.png width =""800"" height = ""200""></p>","","","","","","","","","",""
"","1816.8500000610948","trial","sequential-stimulus-presentation","138","454264","0.0-28.0-1.0","SS1611976444667","","40","900","2716.8500000610948","","","","7","images/stimuli/spore_stims/complex_03_A_d.gif","right","","","","",""
"","null","","html-keyboard-response","139","455182","0.0-28.0-0.1","SS1611976444667","","null","","","<p><img src= images/blank.png width =""200"" height = ""200"" style = ""float:right""></p><p><img src=images/blank.png width =""800"" height = ""200""></p>","","","","","","","","","",""
"","392.45499996468425","trial","sequential-stimulus-presentation","140","456532","0.0-28.0-1.1","SS1611976444667","","40","900","1292.4549999646842","","","","7","images/stimuli/spore_stims/complex_03_A_d.gif","right","","","","",""
"","null","","html-keyboard-response","141","457733","0.0-28.0-0.2","SS1611976444667","","null","","","<p><img src= images/blank.png width =""200"" height = ""200"" style = ""float:right""></p><p><img src=images/blank.png width =""800"" height = ""200""></p>","","","","","","","","","",""
"","302.2849999833852","trial","sequential-stimulus-presentation","142","458985","0.0-28.0-1.2","SS1611976444667","","40","900","1202.2849999833852","","","","7","images/stimuli/spore_stims/complex_03_A_d.gif","right","","","","",""
"","null","","html-keyboard-response","143","459950","0.0-28.0-0.3","SS1611976444667","","null","","","<p><img src= images/blank.png width =""200"" height = ""200"" style = ""float:right""></p><p><img src=images/blank.png width =""800"" height = ""200""></p>","","","","","","","","","",""
"","4747.249999898486","trial","sequential-stimulus-presentation","144","465659","0.0-28.0-1.3","SS1611976444667","","40","900","5647.249999898486","","","","7","images/stimuli/spore_stims/complex_13_A_c.gif","middle","","","","",""
"","null","","html-keyboard-response","145","466740","0.0-28.0-0.4","SS1611976444667","","null","","","<p><img src= images/blank.png width =""200"" height = ""200"" style = ""float:right""></p><p><img src=images/blank.png width =""800"" height = ""200""></p>","","","","","","","","","",""
"","753.3050000201911","trial","sequential-stimulus-presentation","146","468445","0.0-28.0-1.4","SS1611976444667","","40","900","1653.305000020191","","","","7","images/stimuli/spore_stims/complex_03_A_d.gif","right","","","","",""
"","null","","html-keyboard-response","147","469498","0.0-28.0-0.5","SS1611976444667","","null","","","<p><img src= images/blank.png width =""200"" height = ""200"" style = ""float:right""></p><p><img src=images/blank.png width =""800"" height = ""200""></p>","","","","","","","","","",""
"","313.20999993477017","trial","sequential-stimulus-presentation","148","470763","0.0-28.0-1.5","SS1611976444667","","40","900","1213.2099999347702","","","","7","images/stimuli/spore_stims/complex_03_A_d.gif","right","","","","",""
"","null","","html-keyboard-response","149","472060","0.0-28.0-0.6","SS1611976444667","","null","","","<p><img src= images/blank.png width =""200"" height = ""200"" style = ""float:right""></p><p><img src=images/blank.png width =""800"" height = ""200""></p>","","","","","","","","","",""
"","355.77000002376735","trial","sequential-stimulus-presentation","150","473370","0.0-28.0-1.6","SS1611976444667","","40","900","1255.7700000237674","","","","7","images/stimuli/spore_stims/complex_03_A_d.gif","right","","","","",""
"","null","","html-keyboard-response","151","474552","0.0-28.0-0.7","SS1611976444667","","null","","","<p><img src= images/blank.png width =""200"" height = ""200"" style = ""float:right""></p><p><img src=images/blank.png width =""800"" height = ""200""></p>","","","","","","","","","",""
"","290.77500000130385","trial","sequential-stimulus-presentation","152","475793","0.0-28.0-1.7","SS1611976444667","","40","900","1190.7750000013039","","","","7","images/stimuli/spore_stims/complex_03_A_d.gif","right","","","","",""
"","1380.5999999167398","pref_question","html-keyboard-response","153","477221","0.0-29.0","SS1611976444667","","49","","","<img src=images/stimuli/pokeballs_pref.jpg width =""800"" height = ""200"" style=""padding-top: 33%"">","1","left","7","","","","","","",""
"","1401.384999975562","pref_reveal","sequential-stimulus-presentation","154","479576","0.0-30.0","SS1611976444667","","40","900","2301.384999975562","","","","7","","","novel","","","",""
"","null","","html-keyboard-response","155","480672","0.0-31.0-0.0","SS1611976444667","","null","","","<p><img src= images/blank.png width =""200"" height = ""200"" style = ""float:right""></p><p><img src=images/blank.png width =""800"" height = ""200""></p>","","","","","","","","","",""
"","1177.1799999987707","trial","sequential-stimulus-presentation","156","482806","0.0-31.0-1.0","SS1611976444667","","40","900","2077.1799999987707","","","","8","images/stimuli/spore_stims/simple_07_A_d.gif","left","","","","",""
"","null","","html-keyboard-response","157","483774","0.0-31.0-0.1","SS1611976444667","","null","","","<p><img src= images/blank.png width =""200"" height = ""200"" style = ""float:right""></p><p><img src=images/blank.png width =""800"" height = ""200""></p>","","","","","","","","","",""
"","249.21999999787658","trial","sequential-stimulus-presentation","158","484976","0.0-31.0-1.1","SS1611976444667","","40","900","1149.2199999978766","","","","8","images/stimuli/spore_stims/simple_07_A_d.gif","left","","","","",""
"","null","","html-keyboard-response","159","485931","0.0-31.0-0.2","SS1611976444667","","null","","","<p><img src= images/blank.png width =""200"" height = ""200"" style = ""float:right""></p><p><img src=images/blank.png width =""800"" height = ""200""></p>","","","","","","","","","",""
"","356.1850000405684","trial","sequential-stimulus-presentation","160","487216","0.0-31.0-1.2","SS1611976444667","","40","900","1256.1850000405684","","","","8","images/stimuli/spore_stims/simple_07_A_d.gif","left","","","","",""
"","null","","html-keyboard-response","161","488352","0.0-31.0-0.3","SS1611976444667","","null","","","<p><img src= images/blank.png width =""200"" height = ""200"" style = ""float:right""></p><p><img src=images/blank.png width =""800"" height = ""200""></p>","","","","","","","","","",""
"","300.1149999909103","trial","sequential-stimulus-presentation","162","489614","0.0-31.0-1.3","SS1611976444667","","40","900","1200.1149999909103","","","","8","images/stimuli/spore_stims/simple_07_A_d.gif","left","","","","",""
"","null","","html-keyboard-response","163","490959","0.0-31.0-0.4","SS1611976444667","","null","","","<p><img src= images/blank.png width =""200"" height = ""200"" style = ""float:right""></p><p><img src=images/blank.png width =""800"" height = ""200""></p>","","","","","","","","","",""
"","246.599999954924","trial","sequential-stimulus-presentation","164","492159","0.0-31.0-1.4","SS1611976444667","","40","900","1146.599999954924","","","","8","images/stimuli/spore_stims/simple_07_A_d.gif","left","","","","",""
"","null","","html-keyboard-response","165","493000","0.0-31.0-0.5","SS1611976444667","","null","","","<p><img src= images/blank.png width =""200"" height = ""200"" style = ""float:right""></p><p><img src=images/blank.png width =""800"" height = ""200""></p>","","","","","","","","","",""
"","1155.8300000615418","trial","sequential-stimulus-presentation","166","495115","0.0-31.0-1.5","SS1611976444667","","40","900","2055.830000061542","","","","8","images/stimuli/spore_stims/simple_12_B_d.gif","middle","","","","",""
"","null","","html-keyboard-response","167","496340","0.0-31.0-0.6","SS1611976444667","","null","","","<p><img src= images/blank.png width =""200"" height = ""200"" style = ""float:right""></p><p><img src=images/blank.png width =""800"" height = ""200""></p>","","","","","","","","","",""
"","543.790000025183","trial","sequential-stimulus-presentation","168","497841","0.0-31.0-1.6","SS1611976444667","","40","900","1443.790000025183","","","","8","images/stimuli/spore_stims/simple_07_A_d.gif","left","","","","",""
"","null","","html-keyboard-response","169","499116","0.0-31.0-0.7","SS1611976444667","","null","","","<p><img src= images/blank.png width =""200"" height = ""200"" style = ""float:right""></p><p><img src=images/blank.png width =""800"" height = ""200""></p>","","","","","","","","","",""
"","298.06000005919486","trial","sequential-stimulus-presentation","170","500370","0.0-31.0-1.7","SS1611976444667","","40","900","1198.0600000591949","","","","8","images/stimuli/spore_stims/simple_07_A_d.gif","left","","","","",""
"","1601.8400000175461","pref_question","html-keyboard-response","171","502027","0.0-32.0","SS1611976444667","","51","","","<img src=images/stimuli/pokeballs_pref.jpg width =""800"" height = ""200"" style=""padding-top: 33%"">","3","right","8","","","","","","",""
"","1414.905000012368","pref_reveal","sequential-stimulus-presentation","172","504398","0.0-33.0","SS1611976444667","","40","900","2314.905000012368","","","","8","","","novel","","","",""
"","null","","html-keyboard-response","173","505663","0.0-34.0-0.0","SS1611976444667","","null","","","<p><img src= images/blank.png width =""200"" height = ""200"" style = ""float:right""></p><p><img src=images/blank.png width =""800"" height = ""200""></p>","","","","","","","","","",""
"","813.4449999779463","trial","sequential-stimulus-presentation","174","507438","0.0-34.0-1.0","SS1611976444667","","40","900","1713.4449999779463","","","","9","images/stimuli/spore_stims/simple_03_B_d.gif","left","","","","",""
"","null","","html-keyboard-response","175","508787","0.0-34.0-0.1","SS1611976444667","","null","","","<p><img src= images/blank.png width =""200"" height = ""200"" style = ""float:right""></p><p><img src=images/blank.png width =""800"" height = ""200""></p>","","","","","","","","","",""
"","339.2600000370294","trial","sequential-stimulus-presentation","176","510087","0.0-34.0-1.1","SS1611976444667","","40","900","1239.2600000370294","","","","9","images/stimuli/spore_stims/simple_03_B_d.gif","left","","","","",""
"","null","","html-keyboard-response","177","511200","0.0-34.0-0.2","SS1611976444667","","null","","","<p><img src= images/blank.png width =""200"" height = ""200"" style = ""float:right""></p><p><img src=images/blank.png width =""800"" height = ""200""></p>","","","","","","","","","",""
"","335.33000003080815","trial","sequential-stimulus-presentation","178","512495","0.0-34.0-1.2","SS1611976444667","","40","900","1235.3300000308082","","","","9","images/stimuli/spore_stims/simple_03_B_d.gif","left","","","","",""
"","null","","html-keyboard-response","179","513722","0.0-34.0-0.3","SS1611976444667","","null","","","<p><img src= images/blank.png width =""200"" height = ""200"" style = ""float:right""></p><p><img src=images/blank.png width =""800"" height = ""200""></p>","","","","","","","","","",""
"","306.5449999412522","trial","sequential-stimulus-presentation","180","514989","0.0-34.0-1.3","SS1611976444667","","40","900","1206.5449999412522","","","","9","images/stimuli/spore_stims/simple_03_B_d.gif","left","","","","",""
"","null","","html-keyboard-response","181","516140","0.0-34.0-0.4","SS1611976444667","","null","","","<p><img src= images/blank.png width =""200"" height = ""200"" style = ""float:right""></p><p><img src=images/blank.png width =""800"" height = ""200""></p>","","","","","","","","","",""
"","282.0549999596551","trial","sequential-stimulus-presentation","182","517382","0.0-34.0-1.4","SS1611976444667","","40","900","1182.054999959655","","","","9","images/stimuli/spore_stims/simple_03_B_d.gif","left","","","","",""
"","null","","html-keyboard-response","183","518380","0.0-34.0-0.5","SS1611976444667","","null","","","<p><img src= images/blank.png width =""200"" height = ""200"" style = ""float:right""></p><p><img src=images/blank.png width =""800"" height = ""200""></p>","","","","","","","","","",""
"","546.280000009574","trial","sequential-stimulus-presentation","184","519888","0.0-34.0-1.5","SS1611976444667","","40","900","1446.280000009574","","","","9","images/stimuli/spore_stims/simple_03_A_d.gif","right","","","","",""
"","null","","html-keyboard-response","185","521153","0.0-34.0-0.6","SS1611976444667","","null","","","<p><img src= images/blank.png width =""200"" height = ""200"" style = ""float:right""></p><p><img src=images/blank.png width =""800"" height = ""200""></p>","","","","","","","","","",""
"","350.65499995835125","trial","sequential-stimulus-presentation","186","522466","0.0-34.0-1.6","SS1611976444667","","40","900","1250.6549999583513","","","","9","images/stimuli/spore_stims/simple_03_B_d.gif","left","","","","",""
"","null","","html-keyboard-response","187","523422","0.0-34.0-0.7","SS1611976444667","","null","","","<p><img src= images/blank.png width =""200"" height = ""200"" style = ""float:right""></p><p><img src=images/blank.png width =""800"" height = ""200""></p>","","","","","","","","","",""
"","338.6349999345839","trial","sequential-stimulus-presentation","188","524721","0.0-34.0-1.7","SS1611976444667","","40","900","1238.634999934584","","","","9","images/stimuli/spore_stims/simple_03_B_d.gif","left","","","","",""
"","1388.0699999863282","pref_question","html-keyboard-response","189","526172","0.0-35.0","SS1611976444667","","50","","","<img src=images/stimuli/pokeballs_pref.jpg width =""800"" height = ""200"" style=""padding-top: 33%"">","2","middle","9","","","","","","",""
"","1753.900000010617","pref_reveal","sequential-stimulus-presentation","190","528885","0.0-36.0","SS1611976444667","","40","900","2653.900000010617","","","","9","","","novel","","","",""
"","null","","html-keyboard-response","191","530121","0.0-37.0-0.0","SS1611976444667","","null","","","<p><img src= images/blank.png width =""200"" height = ""200"" style = ""float:right""></p><p><img src=images/blank.png width =""800"" height = ""200""></p>","","","","","","","","","",""
"","1208.7899999460205","trial","sequential-stimulus-presentation","192","532305","0.0-37.0-1.0","SS1611976444667","","40","900","2108.7899999460205","","","","10","images/stimuli/spore_stims/simple_16_B_a.gif","middle","","","","",""
"","null","","html-keyboard-response","193","533671","0.0-37.0-0.1","SS1611976444667","","null","","","<p><img src= images/blank.png width =""200"" height = ""200"" style = ""float:right""></p><p><img src=images/blank.png width =""800"" height = ""200""></p>","","","","","","","","","",""
"","434.88499999511987","trial","sequential-stimulus-presentation","194","535071","0.0-37.0-1.1","SS1611976444667","","40","900","1334.8849999951199","","","","10","images/stimuli/spore_stims/simple_16_B_a.gif","middle","","","","",""
"","null","","html-keyboard-response","195","535978","0.0-37.0-0.2","SS1611976444667","","null","","","<p><img src= images/blank.png width =""200"" height = ""200"" style = ""float:right""></p><p><img src=images/blank.png width =""800"" height = ""200""></p>","","","","","","","","","",""
"","651.9199999747798","trial","sequential-stimulus-presentation","196","537599","0.0-37.0-1.2","SS1611976444667","","40","900","1551.9199999747798","","","","10","images/stimuli/spore_stims/simple_16_B_a.gif","middle","","","","",""
"","null","","html-keyboard-response","197","538915","0.0-37.0-0.3","SS1611976444667","","null","","","<p><img src= images/blank.png width =""200"" height = ""200"" style = ""float:right""></p><p><img src=images/blank.png width =""800"" height = ""200""></p>","","","","","","","","","",""
"","479.300000006333","trial","sequential-stimulus-presentation","198","540362","0.0-37.0-1.3","SS1611976444667","","40","900","1379.300000006333","","","","10","images/stimuli/spore_stims/simple_16_A_a.gif","left","","","","",""
"","null","","html-keyboard-response","199","541414","0.0-37.0-0.4","SS1611976444667","","null","","","<p><img src= images/blank.png width =""200"" height = ""200"" style = ""float:right""></p><p><img src=images/blank.png width =""800"" height = ""200""></p>","","","","","","","","","",""
"","333.83000001776963","trial","sequential-stimulus-presentation","200","542708","0.0-37.0-1.4","SS1611976444667","","40","900","1233.8300000177696","","","","10","images/stimuli/spore_stims/simple_16_B_a.gif","middle","","","","",""
"","null","","html-keyboard-response","201","543882","0.0-37.0-0.5","SS1611976444667","","null","","","<p><img src= images/blank.png width =""200"" height = ""200"" style = ""float:right""></p><p><img src=images/blank.png width =""800"" height = ""200""></p>","","","","","","","","","",""
"","339.78500007651746","trial","sequential-stimulus-presentation","202","545189","0.0-37.0-1.5","SS1611976444667","","40","900","1239.7850000765175","","","","10","images/stimuli/spore_stims/simple_16_B_a.gif","middle","","","","",""
"","null","","html-keyboard-response","203","546264","0.0-37.0-0.6","SS1611976444667","","null","","","<p><img src= images/blank.png width =""200"" height = ""200"" style = ""float:right""></p><p><img src=images/blank.png width =""800"" height = ""200""></p>","","","","","","","","","",""
"","363.9950000215322","trial","sequential-stimulus-presentation","204","547594","0.0-37.0-1.6","SS1611976444667","","40","900","1263.9950000215322","","","","10","images/stimuli/spore_stims/simple_16_B_a.gif","middle","","","","",""
"","null","","html-keyboard-response","205","548847","0.0-37.0-0.7","SS1611976444667","","null","","","<p><img src= images/blank.png width =""200"" height = ""200"" style = ""float:right""></p><p><img src=images/blank.png width =""800"" height = ""200""></p>","","","","","","","","","",""
"","256.2300000572577","trial","sequential-stimulus-presentation","206","550070","0.0-37.0-1.7","SS1611976444667","","40","900","1156.2300000572577","","","","10","images/stimuli/spore_stims/simple_16_B_a.gif","middle","","","","",""
"","1642.1400000108406","pref_question","html-keyboard-response","207","551778","0.0-38.0","SS1611976444667","","51","","","<img src=images/stimuli/pokeballs_pref.jpg width =""800"" height = ""200"" style=""padding-top: 33%"">","3","right","10","","","","","","",""
"","1253.4900000318885","pref_reveal","sequential-stimulus-presentation","208","554001","0.0-39.0","SS1611976444667","","40","900","2153.4900000318885","","","","10","","","novel","","","",""
"","null","","html-keyboard-response","209","554940","0.0-40.0-0.0","SS1611976444667","","null","","","<p><img src= images/blank.png width =""200"" height = ""200"" style = ""float:right""></p><p><img src=images/blank.png width =""800"" height = ""200""></p>","","","","","","","","","",""
"","395.4750000266358","trial","sequential-stimulus-presentation","210","556302","0.0-40.0-1.0","SS1611976444667","","40","900","1295.4750000266358","","","","11","images/stimuli/spore_stims/complex_11_A_b.gif","middle","","","","",""
"","null","","html-keyboard-response","211","557481","0.0-40.0-0.1","SS1611976444667","","null","","","<p><img src= images/blank.png width =""200"" height = ""200"" style = ""float:right""></p><p><img src=images/blank.png width =""800"" height = ""200""></p>","","","","","","","","","",""
"","1115.5050001107156","trial","sequential-stimulus-presentation","212","559566","0.0-40.0-1.1","SS1611976444667","","40","900","2015.5050001107156","","","","11","images/stimuli/spore_stims/complex_11_A_b.gif","middle","","","","",""
"","null","","html-keyboard-response","213","560672","0.0-40.0-0.2","SS1611976444667","","null","","","<p><img src= images/blank.png width =""200"" height = ""200"" style = ""float:right""></p><p><img src=images/blank.png width =""800"" height = ""200""></p>","","","","","","","","","",""
"","376.5300000086427","trial","sequential-stimulus-presentation","214","562019","0.0-40.0-1.2","SS1611976444667","","40","900","1276.5300000086427","","","","11","images/stimuli/spore_stims/complex_11_A_b.gif","middle","","","","",""
"","null","","html-keyboard-response","215","563221","0.0-40.0-0.3","SS1611976444667","","null","","","<p><img src= images/blank.png width =""200"" height = ""200"" style = ""float:right""></p><p><img src=images/blank.png width =""800"" height = ""200""></p>","","","","","","","","","",""
"","476.51499998755753","trial","sequential-stimulus-presentation","216","564666","0.0-40.0-1.3","SS1611976444667","","40","900","1376.5149999875575","","","","11","images/stimuli/spore_stims/complex_11_B_b.gif","right","","","","",""
"","null","","html-keyboard-response","217","565874","0.0-40.0-0.4","SS1611976444667","","null","","","<p><img src= images/blank.png width =""200"" height = ""200"" style = ""float:right""></p><p><img src=images/blank.png width =""800"" height = ""200""></p>","","","","","","","","","",""
"","385.7850000495091","trial","sequential-stimulus-presentation","218","567240","0.0-40.0-1.4","SS1611976444667","","40","900","1285.785000049509","","","","11","images/stimuli/spore_stims/complex_11_A_b.gif","middle","","","","",""
"","null","","html-keyboard-response","219","568510","0.0-40.0-0.5","SS1611976444667","","null","","","<p><img src= images/blank.png width =""200"" height = ""200"" style = ""float:right""></p><p><img src=images/blank.png width =""800"" height = ""200""></p>","","","","","","","","","",""
"","295.10500002652407","trial","sequential-stimulus-presentation","220","569776","0.0-40.0-1.5","SS1611976444667","","40","900","1195.105000026524","","","","11","images/stimuli/spore_stims/complex_11_A_b.gif","middle","","","","",""
"","null","","html-keyboard-response","221","570663","0.0-40.0-0.6","SS1611976444667","","null","","","<p><img src= images/blank.png width =""200"" height = ""200"" style = ""float:right""></p><p><img src=images/blank.png width =""800"" height = ""200""></p>","","","","","","","","","",""
"","421.16000002715737","trial","sequential-stimulus-presentation","222","572060","0.0-40.0-1.6","SS1611976444667","","40","900","1321.1600000271574","","","","11","images/stimuli/spore_stims/complex_11_A_b.gif","middle","","","","",""
"","null","","html-keyboard-response","223","573081","0.0-40.0-0.7","SS1611976444667","","null","","","<p><img src= images/blank.png width =""200"" height = ""200"" style = ""float:right""></p><p><img src=images/blank.png width =""800"" height = ""200""></p>","","","","","","","","","",""
"","288.2499999832362","trial","sequential-stimulus-presentation","224","574339","0.0-40.0-1.7","SS1611976444667","","40","900","1188.2499999832362","","","","11","images/stimuli/spore_stims/complex_11_A_b.gif","middle","","","","",""
"","1508.849999983795","pref_question","html-keyboard-response","225","575913","0.0-41.0","SS1611976444667","","49","","","<img src=images/stimuli/pokeballs_pref.jpg width =""800"" height = ""200"" style=""padding-top: 33%"">","1","left","11","","","","","","",""
"","2001.204999978654","pref_reveal","sequential-stimulus-presentation","226","578885","0.0-42.0","SS1611976444667","","40","900","2901.204999978654","","","","11","","","novel","","","",""
"","null","","html-keyboard-response","227","580087","0.0-43.0-0.0","SS1611976444667","","null","","","<p><img src= images/blank.png width =""200"" height = ""200"" style = ""float:right""></p><p><img src=images/blank.png width =""800"" height = ""200""></p>","","","","","","","","","",""
"","2149.9399999156594","trial","sequential-stimulus-presentation","228","583217","0.0-43.0-1.0","SS1611976444667","","40","900","3049.9399999156594","","","","12","images/stimuli/spore_stims/complex_07_B_d.gif","left","","","","",""
"","null","","html-keyboard-response","229","584470","0.0-43.0-0.1","SS1611976444667","","null","","","<p><img src= images/blank.png width =""200"" height = ""200"" style = ""float:right""></p><p><img src=images/blank.png width =""800"" height = ""200""></p>","","","","","","","","","",""
"","310.85499993059784","trial","sequential-stimulus-presentation","230","585754","0.0-43.0-1.1","SS1611976444667","","40","900","1210.8549999305978","","","","12","images/stimuli/spore_stims/complex_07_B_d.gif","left","","","","",""
"","null","","html-keyboard-response","231","586769","0.0-43.0-0.2","SS1611976444667","","null","","","<p><img src= images/blank.png width =""200"" height = ""200"" style = ""float:right""></p><p><img src=images/blank.png width =""800"" height = ""200""></p>","","","","","","","","","",""
"","364.5500000566244","trial","sequential-stimulus-presentation","232","588102","0.0-43.0-1.2","SS1611976444667","","40","900","1264.5500000566244","","","","12","images/stimuli/spore_stims/complex_07_B_d.gif","left","","","","",""
"","null","","html-keyboard-response","233","589133","0.0-43.0-0.3","SS1611976444667","","null","","","<p><img src= images/blank.png width =""200"" height = ""200"" style = ""float:right""></p><p><img src=images/blank.png width =""800"" height = ""200""></p>","","","","","","","","","",""
"","265.9749999875203","trial","sequential-stimulus-presentation","234","590373","0.0-43.0-1.3","SS1611976444667","","40","900","1165.9749999875203","","","","12","images/stimuli/spore_stims/complex_07_B_d.gif","left","","","","",""
"","null","","html-keyboard-response","235","591323","0.0-43.0-0.4","SS1611976444667","","null","","","<p><img src= images/blank.png width =""200"" height = ""200"" style = ""float:right""></p><p><img src=images/blank.png width =""800"" height = ""200""></p>","","","","","","","","","",""
"","341.9599999906495","trial","sequential-stimulus-presentation","236","592629","0.0-43.0-1.4","SS1611976444667","","40","900","1241.9599999906495","","","","12","images/stimuli/spore_stims/complex_07_B_d.gif","left","","","","",""
"","null","","html-keyboard-response","237","593567","0.0-43.0-0.5","SS1611976444667","","null","","","<p><img src= images/blank.png width =""200"" height = ""200"" style = ""float:right""></p><p><img src=images/blank.png width =""800"" height = ""200""></p>","","","","","","","","","",""
"","2244.1450000042096","trial","sequential-stimulus-presentation","238","596793","0.0-43.0-1.5","SS1611976444667","","40","900","3144.1450000042096","","","","12","images/stimuli/spore_stims/complex_13_B_d.gif","middle","","","","",""
"","null","","html-keyboard-response","239","598034","0.0-43.0-0.6","SS1611976444667","","null","","","<p><img src= images/blank.png width =""200"" height = ""200"" style = ""float:right""></p><p><img src=images/blank.png width =""800"" height = ""200""></p>","","","","","","","","","",""
"","889.4699999364093","trial","sequential-stimulus-presentation","240","599899","0.0-43.0-1.6","SS1611976444667","","40","900","1789.4699999364093","","","","12","images/stimuli/spore_stims/complex_07_B_d.gif","left","","","","",""
"","null","","html-keyboard-response","241","601017","0.0-43.0-0.7","SS1611976444667","","null","","","<p><img src= images/blank.png width =""200"" height = ""200"" style = ""float:right""></p><p><img src=images/blank.png width =""800"" height = ""200""></p>","","","","","","","","","",""
"","316.71499996446073","trial","sequential-stimulus-presentation","242","602309","0.0-43.0-1.7","SS1611976444667","","40","900","1216.7149999644607","","","","12","images/stimuli/spore_stims/complex_07_B_d.gif","left","","","","",""
"","707.3200000450015","pref_question","html-keyboard-response","243","603088","0.0-44.0","SS1611976444667","","51","","","<img src=images/stimuli/pokeballs_pref.jpg width =""800"" height = ""200"" style=""padding-top: 33%"">","3","right","12","","","","","","",""
"","1200.414999970235","pref_reveal","sequential-stimulus-presentation","244","605260","0.0-45.0","SS1611976444667","","40","900","2100.414999970235","","","","12","","","novel","","","",""
"","null","","html-keyboard-response","245","606576","0.0-46.0-0.0","SS1611976444667","","null","","","<p><img src= images/blank.png width =""200"" height = ""200"" style = ""float:right""></p><p><img src=images/blank.png width =""800"" height = ""200""></p>","","","","","","","","","",""
"","1366.1700000520796","trial","sequential-stimulus-presentation","246","608926","0.0-46.0-1.0","SS1611976444667","","40","900","2266.1700000520796","","","","13","images/stimuli/spore_stims/complex_05_A_c.gif","middle","","","","",""
"","null","","html-keyboard-response","247","610242","0.0-46.0-0.1","SS1611976444667","","null","","","<p><img src= images/blank.png width =""200"" height = ""200"" style = ""float:right""></p><p><img src=images/blank.png width =""800"" height = ""200""></p>","","","","","","","","","",""
"","2182.9100000904873","trial","sequential-stimulus-presentation","248","613404","0.0-46.0-1.1","SS1611976444667","","40","900","3082.9100000904873","","","","13","images/stimuli/spore_stims/complex_05_A_c.gif","middle","","","","",""
"","null","","html-keyboard-response","249","614325","0.0-46.0-0.2","SS1611976444667","","null","","","<p><img src= images/blank.png width =""200"" height = ""200"" style = ""float:right""></p><p><img src=images/blank.png width =""800"" height = ""200""></p>","","","","","","","","","",""
"","357.43500001262873","trial","sequential-stimulus-presentation","250","615661","0.0-46.0-1.2","SS1611976444667","","40","900","1257.4350000126287","","","","13","images/stimuli/spore_stims/complex_05_A_c.gif","middle","","","","",""
"","null","","html-keyboard-response","251","616971","0.0-46.0-0.3","SS1611976444667","","null","","","<p><img src= images/blank.png width =""200"" height = ""200"" style = ""float:right""></p><p><img src=images/blank.png width =""800"" height = ""200""></p>","","","","","","","","","",""
"","639.5600000396371","trial","sequential-stimulus-presentation","252","618590","0.0-46.0-1.3","SS1611976444667","","40","900","1539.560000039637","","","","13","images/stimuli/spore_stims/complex_05_A_c.gif","middle","","","","",""
"","null","","html-keyboard-response","253","619931","0.0-46.0-0.4","SS1611976444667","","null","","","<p><img src= images/blank.png width =""200"" height = ""200"" style = ""float:right""></p><p><img src=images/blank.png width =""800"" height = ""200""></p>","","","","","","","","","",""
"","352.07000002264977","trial","sequential-stimulus-presentation","254","621263","0.0-46.0-1.4","SS1611976444667","","40","900","1252.0700000226498","","","","13","images/stimuli/spore_stims/complex_05_A_c.gif","middle","","","","",""
"","null","","html-keyboard-response","255","622533","0.0-46.0-0.5","SS1611976444667","","null","","","<p><img src= images/blank.png width =""200"" height = ""200"" style = ""float:right""></p><p><img src=images/blank.png width =""800"" height = ""200""></p>","","","","","","","","","",""
"","1384.8350000334904","trial","sequential-stimulus-presentation","256","624898","0.0-46.0-1.5","SS1611976444667","","40","900","2284.8350000334904","","","","13","images/stimuli/spore_stims/complex_10_A_d.gif","right","","","","",""
"","null","","html-keyboard-response","257","626230","0.0-46.0-0.6","SS1611976444667","","null","","","<p><img src= images/blank.png width =""200"" height = ""200"" style = ""float:right""></p><p><img src=images/blank.png width =""800"" height = ""200""></p>","","","","","","","","","",""
"","274.19500006362796","trial","sequential-stimulus-presentation","258","627486","0.0-46.0-1.6","SS1611976444667","","40","900","1174.195000063628","","","","13","images/stimuli/spore_stims/complex_05_A_c.gif","middle","","","","",""
"","null","","html-keyboard-response","259","628655","0.0-46.0-0.7","SS1611976444667","","null","","","<p><img src= images/blank.png width =""200"" height = ""200"" style = ""float:right""></p><p><img src=images/blank.png width =""800"" height = ""200""></p>","","","","","","","","","",""
"","256.5499999327585","trial","sequential-stimulus-presentation","260","629886","0.0-46.0-1.7","SS1611976444667","","40","900","1156.5499999327585","","","","13","images/stimuli/spore_stims/complex_05_A_c.gif","middle","","","","",""
"","699.9349999241531","pref_question","html-keyboard-response","261","630664","0.0-47.0","SS1611976444667","","49","","","<img src=images/stimuli/pokeballs_pref.jpg width =""800"" height = ""200"" style=""padding-top: 33%"">","1","left","13","","","","","","",""
"","3428.0349999899045","pref_reveal","sequential-stimulus-presentation","262","635073","0.0-48.0","SS1611976444667","","40","900","4328.0349999899045","","","","13","","","novel","","","",""
"","null","","html-keyboard-response","263","636306","0.0-49.0-0.0","SS1611976444667","","null","","","<p><img src= images/blank.png width =""200"" height = ""200"" style = ""float:right""></p><p><img src=images/blank.png width =""800"" height = ""200""></p>","","","","","","","","","",""
"","1550.4149999469519","trial","sequential-stimulus-presentation","264","638839","0.0-49.0-1.0","SS1611976444667","","40","900","2450.414999946952","","","","14","images/stimuli/spore_stims/simple_15_A_d.gif","left","","","","",""
"","null","","html-keyboard-response","265","639955","0.0-49.0-0.1","SS1611976444667","","null","","","<p><img src= images/blank.png width =""200"" height = ""200"" style = ""float:right""></p><p><img src=images/blank.png width =""800"" height = ""200""></p>","","","","","","","","","",""
"","792.0350000495091","trial","sequential-stimulus-presentation","266","641728","0.0-49.0-1.1","SS1611976444667","","40","900","1692.035000049509","","","","14","images/stimuli/spore_stims/simple_15_A_d.gif","left","","","","",""
"","null","","html-keyboard-response","267","642734","0.0-49.0-0.2","SS1611976444667","","null","","","<p><img src= images/blank.png width =""200"" height = ""200"" style = ""float:right""></p><p><img src=images/blank.png width =""800"" height = ""200""></p>","","","","","","","","","",""
"","454.87999997567385","trial","sequential-stimulus-presentation","268","644170","0.0-49.0-1.2","SS1611976444667","","40","900","1354.8799999756739","","","","14","images/stimuli/spore_stims/simple_15_A_d.gif","left","","","","",""
"","null","","html-keyboard-response","269","645063","0.0-49.0-0.3","SS1611976444667","","null","","","<p><img src= images/blank.png width =""200"" height = ""200"" style = ""float:right""></p><p><img src=images/blank.png width =""800"" height = ""200""></p>","","","","","","","","","",""
"","304.99499989673495","trial","sequential-stimulus-presentation","270","646350","0.0-49.0-1.3","SS1611976444667","","40","900","1204.994999896735","","","","14","images/stimuli/spore_stims/simple_15_A_d.gif","left","","","","",""
"","null","","html-keyboard-response","271","647641","0.0-49.0-0.4","SS1611976444667","","null","","","<p><img src= images/blank.png width =""200"" height = ""200"" style = ""float:right""></p><p><img src=images/blank.png width =""800"" height = ""200""></p>","","","","","","","","","",""
"","531.33499994874","trial","sequential-stimulus-presentation","272","649157","0.0-49.0-1.4","SS1611976444667","","40","900","1431.33499994874","","","","14","images/stimuli/spore_stims/simple_15_A_d.gif","left","","","","",""
"","null","","html-keyboard-response","273","650188","0.0-49.0-0.5","SS1611976444667","","null","","","<p><img src= images/blank.png width =""200"" height = ""200"" style = ""float:right""></p><p><img src=images/blank.png width =""800"" height = ""200""></p>","","","","","","","","","",""
"","2201.8450000323355","trial","sequential-stimulus-presentation","274","653372","0.0-49.0-1.5","SS1611976444667","","40","900","3101.8450000323355","","","","14","images/stimuli/spore_stims/simple_09_A_c.gif","middle","","","","",""
"","null","","html-keyboard-response","275","654670","0.0-49.0-0.6","SS1611976444667","","null","","","<p><img src= images/blank.png width =""200"" height = ""200"" style = ""float:right""></p><p><img src=images/blank.png width =""800"" height = ""200""></p>","","","","","","","","","",""
"","831.1649999814108","trial","sequential-stimulus-presentation","276","656485","0.0-49.0-1.6","SS1611976444667","","40","900","1731.1649999814108","","","","14","images/stimuli/spore_stims/simple_15_A_d.gif","left","","","","",""
"","null","","html-keyboard-response","277","657854","0.0-49.0-0.7","SS1611976444667","","null","","","<p><img src= images/blank.png width =""200"" height = ""200"" style = ""float:right""></p><p><img src=images/blank.png width =""800"" height = ""200""></p>","","","","","","","","","",""
"","467.6949999993667","trial","sequential-stimulus-presentation","278","659305","0.0-49.0-1.7","SS1611976444667","","40","900","1367.6949999993667","","","","14","images/stimuli/spore_stims/simple_15_A_d.gif","left","","","","",""
"","1585.4149999795482","pref_question","html-keyboard-response","279","660978","0.0-50.0","SS1611976444667","","51","","","<img src=images/stimuli/pokeballs_pref.jpg width =""800"" height = ""200"" style=""padding-top: 33%"">","3","right","14","","","","","","",""
"","3520.7300001056865","pref_reveal","sequential-stimulus-presentation","280","665484","0.0-51.0","SS1611976444667","","40","900","4420.7300001056865","","","","14","","","novel","","","",""
"","null","","html-keyboard-response","281","666750","0.0-52.0-0.0","SS1611976444667","","null","","","<p><img src= images/blank.png width =""200"" height = ""200"" style = ""float:right""></p><p><img src=images/blank.png width =""800"" height = ""200""></p>","","","","","","","","","",""
"","1542.9299999959767","trial","sequential-stimulus-presentation","282","669281","0.0-52.0-1.0","SS1611976444667","","40","900","2442.9299999959767","","","","15","images/stimuli/spore_stims/simple_18_A_b.gif","middle","","","","",""
"","null","","html-keyboard-response","283","670379","0.0-52.0-0.1","SS1611976444667","","null","","","<p><img src= images/blank.png width =""200"" height = ""200"" style = ""float:right""></p><p><img src=images/blank.png width =""800"" height = ""200""></p>","","","","","","","","","",""
"","274.184999987483","trial","sequential-stimulus-presentation","284","671629","0.0-52.0-1.1","SS1611976444667","","40","900","1174.184999987483","","","","15","images/stimuli/spore_stims/simple_18_A_b.gif","middle","","","","",""
"","null","","html-keyboard-response","285","672589","0.0-52.0-0.2","SS1611976444667","","null","","","<p><img src= images/blank.png width =""200"" height = ""200"" style = ""float:right""></p><p><img src=images/blank.png width =""800"" height = ""200""></p>","","","","","","","","","",""
"","439.76500001735985","trial","sequential-stimulus-presentation","286","674022","0.0-52.0-1.2","SS1611976444667","","40","900","1339.7650000173599","","","","15","images/stimuli/spore_stims/simple_18_A_b.gif","middle","","","","",""
"","null","","html-keyboard-response","287","675155","0.0-52.0-0.3","SS1611976444667","","null","","","<p><img src= images/blank.png width =""200"" height = ""200"" style = ""float:right""></p><p><img src=images/blank.png width =""800"" height = ""200""></p>","","","","","","","","","",""
"","671.7699998989701","trial","sequential-stimulus-presentation","288","676813","0.0-52.0-1.3","SS1611976444667","","40","900","1571.7699998989701","","","","15","images/stimuli/spore_stims/simple_18_A_b.gif","middle","","","","",""
"","null","","html-keyboard-response","289","677847","0.0-52.0-0.4","SS1611976444667","","null","","","<p><img src= images/blank.png width =""200"" height = ""200"" style = ""float:right""></p><p><img src=images/blank.png width =""800"" height = ""200""></p>","","","","","","","","","",""
"","327.5150000117719","trial","sequential-stimulus-presentation","290","679161","0.0-52.0-1.4","SS1611976444667","","40","900","1227.515000011772","","","","15","images/stimuli/spore_stims/simple_18_A_b.gif","middle","","","","",""
"","null","","html-keyboard-response","291","680254","0.0-52.0-0.5","SS1611976444667","","null","","","<p><img src= images/blank.png width =""200"" height = ""200"" style = ""float:right""></p><p><img src=images/blank.png width =""800"" height = ""200""></p>","","","","","","","","","",""
"","365.529999951832","trial","sequential-stimulus-presentation","292","681602","0.0-52.0-1.5","SS1611976444667","","40","900","1265.529999951832","","","","15","images/stimuli/spore_stims/simple_18_A_b.gif","middle","","","","",""
"","null","","html-keyboard-response","293","682717","0.0-52.0-0.6","SS1611976444667","","null","","","<p><img src= images/blank.png width =""200"" height = ""200"" style = ""float:right""></p><p><img src=images/blank.png width =""800"" height = ""200""></p>","","","","","","","","","",""
"","279.41999991890043","trial","sequential-stimulus-presentation","294","683982","0.0-52.0-1.6","SS1611976444667","","40","900","1179.4199999189004","","","","15","images/stimuli/spore_stims/simple_18_A_b.gif","middle","","","","",""
"","null","","html-keyboard-response","295","685253","0.0-52.0-0.7","SS1611976444667","","null","","","<p><img src= images/blank.png width =""200"" height = ""200"" style = ""float:right""></p><p><img src=images/blank.png width =""800"" height = ""200""></p>","","","","","","","","","",""
"","396.4299999643117","trial","sequential-stimulus-presentation","296","686636","0.0-52.0-1.7","SS1611976444667","","40","900","1296.4299999643117","","","","15","images/stimuli/spore_stims/simple_18_A_b.gif","middle","","","","",""
"","null","","html-keyboard-response","297","687622","0.0-52.0-0.8","SS1611976444667","","null","","","<p><img src= images/blank.png width =""200"" height = ""200"" style = ""float:right""></p><p><img src=images/blank.png width =""800"" height = ""200""></p>","","","","","","","","","",""
"","1385.6599999126047","trial","sequential-stimulus-presentation","298","689997","0.0-52.0-1.8","SS1611976444667","","40","900","2285.6599999126047","","","","15","images/stimuli/spore_stims/simple_15_B_a.gif","left","","","","",""
"","981.1299999710172","pref_question","html-keyboard-response","299","691062","0.0-53.0","SS1611976444667","","51","","","<img src=images/stimuli/pokeballs_pref.jpg width =""800"" height = ""200"" style=""padding-top: 33%"">","3","right","15","","","","","","",""
"","2371.5350000420585","pref_reveal","sequential-stimulus-presentation","300","694423","0.0-54.0","SS1611976444667","","40","900","3271.5350000420585","","","","15","","","novel","","","",""
"","null","","html-keyboard-response","301","695514","0.0-55.0-0.0","SS1611976444667","","null","","","<p><img src= images/blank.png width =""200"" height = ""200"" style = ""float:right""></p><p><img src=images/blank.png width =""800"" height = ""200""></p>","","","","","","","","","",""
"","1861.9249999755993","trial","sequential-stimulus-presentation","302","698365","0.0-55.0-1.0","SS1611976444667","","40","900","2761.9249999755993","","","","16","images/stimuli/spore_stims/complex_18_A_b.gif","middle","","","","",""
"","null","","html-keyboard-response","303","699590","0.0-55.0-0.1","SS1611976444667","","null","","","<p><img src= images/blank.png width =""200"" height = ""200"" style = ""float:right""></p><p><img src=images/blank.png width =""800"" height = ""200""></p>","","","","","","","","","",""
"","965.6500000273809","trial","sequential-stimulus-presentation","304","701544","0.0-55.0-1.1","SS1611976444667","","40","900","1865.6500000273809","","","","16","images/stimuli/spore_stims/complex_18_A_b.gif","middle","","","","",""
"","null","","html-keyboard-response","305","702840","0.0-55.0-0.2","SS1611976444667","","null","","","<p><img src= images/blank.png width =""200"" height = ""200"" style = ""float:right""></p><p><img src=images/blank.png width =""800"" height = ""200""></p>","","","","","","","","","",""
"","690.5650000553578","trial","sequential-stimulus-presentation","306","704521","0.0-55.0-1.2","SS1611976444667","","40","900","1590.5650000553578","","","","16","images/stimuli/spore_stims/complex_18_A_b.gif","middle","","","","",""
"","null","","html-keyboard-response","307","705813","0.0-55.0-0.3","SS1611976444667","","null","","","<p><img src= images/blank.png width =""200"" height = ""200"" style = ""float:right""></p><p><img src=images/blank.png width =""800"" height = ""200""></p>","","","","","","","","","",""
"","686.1149999313056","trial","sequential-stimulus-presentation","308","707490","0.0-55.0-1.3","SS1611976444667","","40","900","1586.1149999313056","","","","16","images/stimuli/spore_stims/complex_18_A_b.gif","middle","","","","",""
"","null","","html-keyboard-response","309","708826","0.0-55.0-0.4","SS1611976444667","","null","","","<p><img src= images/blank.png width =""200"" height = ""200"" style = ""float:right""></p><p><img src=images/blank.png width =""800"" height = ""200""></p>","","","","","","","","","",""
"","386.1350000370294","trial","sequential-stimulus-presentation","310","710201","0.0-55.0-1.4","SS1611976444667","","40","900","1286.1350000370294","","","","16","images/stimuli/spore_stims/complex_18_A_b.gif","middle","","","","",""
"","null","","html-keyboard-response","311","711339","0.0-55.0-0.5","SS1611976444667","","null","","","<p><img src= images/blank.png width =""200"" height = ""200"" style = ""float:right""></p><p><img src=images/blank.png width =""800"" height = ""200""></p>","","","","","","","","","",""
"","4382.92999996338","trial","sequential-stimulus-presentation","312","716707","0.0-55.0-1.5","SS1611976444667","","40","900","5282.92999996338","","","","16","images/stimuli/spore_stims/complex_17_A_a.gif","left","","","","",""
"","null","","html-keyboard-response","313","717736","0.0-55.0-0.6","SS1611976444667","","null","","","<p><img src= images/blank.png width =""200"" height = ""200"" style = ""float:right""></p><p><img src=images/blank.png width =""800"" height = ""200""></p>","","","","","","","","","",""
"","5434.089999995194","trial","sequential-stimulus-presentation","314","724163","0.0-55.0-1.6","SS1611976444667","","40","900","6334.089999995194","","","","16","images/stimuli/spore_stims/complex_18_A_b.gif","middle","","","","",""
"","null","","html-keyboard-response","315","725403","0.0-55.0-0.7","SS1611976444667","","null","","","<p><img src= images/blank.png width =""200"" height = ""200"" style = ""float:right""></p><p><img src=images/blank.png width =""800"" height = ""200""></p>","","","","","","","","","",""
"","263.6150000616908","trial","sequential-stimulus-presentation","316","726659","0.0-55.0-1.7","SS1611976444667","","40","900","1163.6150000616908","","","","16","images/stimuli/spore_stims/complex_18_A_b.gif","middle","","","","",""
"","779.1250000009313","pref_question","html-keyboard-response","317","727525","0.0-56.0","SS1611976444667","","51","","","<img src=images/stimuli/pokeballs_pref.jpg width =""800"" height = ""200"" style=""padding-top: 33%"">","3","right","16","","","","","","",""
"","1789.8449999047443","pref_reveal","sequential-stimulus-presentation","318","730306","0.0-57.0","SS1611976444667","","40","900","2689.8449999047443","","","","16","","","novel","","","",""
"","null","","html-keyboard-response","319","731396","0.0-58.0-0.0","SS1611976444667","","null","","","<p><img src= images/blank.png width =""200"" height = ""200"" style = ""float:right""></p><p><img src=images/blank.png width =""800"" height = ""200""></p>","","","","","","","","","",""
"","1046.3349999627098","trial","sequential-stimulus-presentation","320","733433","0.0-58.0-1.0","SS1611976444667","","40","900","1946.3349999627098","","","","17","images/stimuli/spore_stims/simple_20_A_b.gif","right","","","","",""
"","null","","html-keyboard-response","321","734480","0.0-58.0-0.1","SS1611976444667","","null","","","<p><img src= images/blank.png width =""200"" height = ""200"" style = ""float:right""></p><p><img src=images/blank.png width =""800"" height = ""200""></p>","","","","","","","","","",""
"","306.58500001300126","trial","sequential-stimulus-presentation","322","735777","0.0-58.0-1.1","SS1611976444667","","40","900","1206.5850000130013","","","","17","images/stimuli/spore_stims/simple_20_A_b.gif","right","","","","",""
"","null","","html-keyboard-response","323","737139","0.0-58.0-0.2","SS1611976444667","","null","","","<p><img src= images/blank.png width =""200"" height = ""200"" style = ""float:right""></p><p><img src=images/blank.png width =""800"" height = ""200""></p>","","","","","","","","","",""
"","372.12499999441206","trial","sequential-stimulus-presentation","324","738472","0.0-58.0-1.2","SS1611976444667","","40","900","1272.124999994412","","","","17","images/stimuli/spore_stims/simple_20_A_b.gif","right","","","","",""
"","null","","html-keyboard-response","325","739690","0.0-58.0-0.3","SS1611976444667","","null","","","<p><img src= images/blank.png width =""200"" height = ""200"" style = ""float:right""></p><p><img src=images/blank.png width =""800"" height = ""200""></p>","","","","","","","","","",""
"","612.2099999338388","trial","sequential-stimulus-presentation","326","741295","0.0-58.0-1.3","SS1611976444667","","40","900","1512.2099999338388","","","","17","images/stimuli/spore_stims/simple_20_A_b.gif","right","","","","",""
"","null","","html-keyboard-response","327","742298","0.0-58.0-0.4","SS1611976444667","","null","","","<p><img src= images/blank.png width =""200"" height = ""200"" style = ""float:right""></p><p><img src=images/blank.png width =""800"" height = ""200""></p>","","","","","","","","","",""
"","400.5400000605732","trial","sequential-stimulus-presentation","328","743690","0.0-58.0-1.4","SS1611976444667","","40","900","1300.5400000605732","","","","17","images/stimuli/spore_stims/simple_20_A_b.gif","right","","","","",""
"","null","","html-keyboard-response","329","744663","0.0-58.0-0.5","SS1611976444667","","null","","","<p><img src= images/blank.png width =""200"" height = ""200"" style = ""float:right""></p><p><img src=images/blank.png width =""800"" height = ""200""></p>","","","","","","","","","",""
"","306.8399999756366","trial","sequential-stimulus-presentation","330","745962","0.0-58.0-1.5","SS1611976444667","","40","900","1206.8399999756366","","","","17","images/stimuli/spore_stims/simple_20_A_b.gif","right","","","","",""
"","null","","html-keyboard-response","331","747308","0.0-58.0-0.6","SS1611976444667","","null","","","<p><img src= images/blank.png width =""200"" height = ""200"" style = ""float:right""></p><p><img src=images/blank.png width =""800"" height = ""200""></p>","","","","","","","","","",""
"","744.014999945648","trial","sequential-stimulus-presentation","332","749048","0.0-58.0-1.6","SS1611976444667","","40","900","1644.014999945648","","","","17","images/stimuli/spore_stims/simple_20_B_b.gif","left","","","","",""
"","null","","html-keyboard-response","333","750279","0.0-58.0-0.7","SS1611976444667","","null","","","<p><img src= images/blank.png width =""200"" height = ""200"" style = ""float:right""></p><p><img src=images/blank.png width =""800"" height = ""200""></p>","","","","","","","","","",""
"","294.010000070557","trial","sequential-stimulus-presentation","334","751565","0.0-58.0-1.7","SS1611976444667","","40","900","1194.010000070557","","","","17","images/stimuli/spore_stims/simple_20_A_b.gif","right","","","","",""
"","1227.5399999925867","pref_question","html-keyboard-response","335","752882","0.0-59.0","SS1611976444667","","50","","","<img src=images/stimuli/pokeballs_pref.jpg width =""800"" height = ""200"" style=""padding-top: 33%"">","2","middle","17","","","","","","",""
"","807.7100000809878","pref_reveal","sequential-stimulus-presentation","336","754682","0.0-60.0","SS1611976444667","","40","900","1707.7100000809878","","","","17","","","novel","","","",""
"","null","","html-keyboard-response","337","756067","0.0-61.0-0.0","SS1611976444667","","null","","","<p><img src= images/blank.png width =""200"" height = ""200"" style = ""float:right""></p><p><img src=images/blank.png width =""800"" height = ""200""></p>","","","","","","","","","",""
"","367.7750000497326","trial","sequential-stimulus-presentation","338","757428","0.0-61.0-1.0","SS1611976444667","","40","900","1267.7750000497326","","","","18","images/stimuli/spore_stims/simple_17_A_c.gif","left","","","","",""
"","null","","html-keyboard-response","339","758550","0.0-61.0-0.1","SS1611976444667","","null","","","<p><img src= images/blank.png width =""200"" height = ""200"" style = ""float:right""></p><p><img src=images/blank.png width =""800"" height = ""200""></p>","","","","","","","","","",""
"","339.06499994918704","trial","sequential-stimulus-presentation","340","759884","0.0-61.0-1.1","SS1611976444667","","40","900","1239.064999949187","","","","18","images/stimuli/spore_stims/simple_17_A_c.gif","left","","","","",""
"","null","","html-keyboard-response","341","760860","0.0-61.0-0.2","SS1611976444667","","null","","","<p><img src= images/blank.png width =""200"" height = ""200"" style = ""float:right""></p><p><img src=images/blank.png width =""800"" height = ""200""></p>","","","","","","","","","",""
"","386.8800000054762","trial","sequential-stimulus-presentation","342","762243","0.0-61.0-1.2","SS1611976444667","","40","900","1286.8800000054762","","","","18","images/stimuli/spore_stims/simple_17_A_c.gif","left","","","","",""
"","null","","html-keyboard-response","343","763162","0.0-61.0-0.3","SS1611976444667","","null","","","<p><img src= images/blank.png width =""200"" height = ""200"" style = ""float:right""></p><p><img src=images/blank.png width =""800"" height = ""200""></p>","","","","","","","","","",""
"","322.08499999251217","trial","sequential-stimulus-presentation","344","764479","0.0-61.0-1.3","SS1611976444667","","40","900","1222.0849999925122","","","","18","images/stimuli/spore_stims/simple_17_A_c.gif","left","","","","",""
"","null","","html-keyboard-response","345","765379","0.0-61.0-0.4","SS1611976444667","","null","","","<p><img src= images/blank.png width =""200"" height = ""200"" style = ""float:right""></p><p><img src=images/blank.png width =""800"" height = ""200""></p>","","","","","","","","","",""
"","434.69499994535","trial","sequential-stimulus-presentation","346","766810","0.0-61.0-1.4","SS1611976444667","","40","900","1334.69499994535","","","","18","images/stimuli/spore_stims/simple_17_A_c.gif","left","","","","",""
"","null","","html-keyboard-response","347","768142","0.0-61.0-0.5","SS1611976444667","","null","","","<p><img src= images/blank.png width =""200"" height = ""200"" style = ""float:right""></p><p><img src=images/blank.png width =""800"" height = ""200""></p>","","","","","","","","","",""
"","695.3300000168383","trial","sequential-stimulus-presentation","348","769834","0.0-61.0-1.5","SS1611976444667","","40","900","1595.3300000168383","","","","18","images/stimuli/spore_stims/simple_17_B_c.gif","middle","","","","",""
"","null","","html-keyboard-response","349","770932","0.0-61.0-0.6","SS1611976444667","","null","","","<p><img src= images/blank.png width =""200"" height = ""200"" style = ""float:right""></p><p><img src=images/blank.png width =""800"" height = ""200""></p>","","","","","","","","","",""
"","339.3049999140203","trial","sequential-stimulus-presentation","350","772270","0.0-61.0-1.6","SS1611976444667","","40","900","1239.3049999140203","","","","18","images/stimuli/spore_stims/simple_17_A_c.gif","left","","","","",""
"","null","","html-keyboard-response","351","773620","0.0-61.0-0.7","SS1611976444667","","null","","","<p><img src= images/blank.png width =""200"" height = ""200"" style = ""float:right""></p><p><img src=images/blank.png width =""800"" height = ""200""></p>","","","","","","","","","",""
"","284.2299999902025","trial","sequential-stimulus-presentation","352","774901","0.0-61.0-1.7","SS1611976444667","","40","900","1184.2299999902025","","","","18","images/stimuli/spore_stims/simple_17_A_c.gif","left","","","","",""
"","867.2200000146404","pref_question","html-keyboard-response","353","775859","0.0-62.0","SS1611976444667","","51","","","<img src=images/stimuli/pokeballs_pref.jpg width =""800"" height = ""200"" style=""padding-top: 33%"">","3","right","18","","","","","","",""
"","1706.7249999381602","pref_reveal","sequential-stimulus-presentation","354","778561","0.0-63.0","SS1611976444667","","40","900","2606.72499993816","","","","18","","","novel","","","",""
"","null","","html-keyboard-response","355","779641","0.0-64.0-0.0","SS1611976444667","","null","","","<p><img src= images/blank.png width =""200"" height = ""200"" style = ""float:right""></p><p><img src=images/blank.png width =""800"" height = ""200""></p>","","","","","","","","","",""
"","1411.1100001027808","trial","sequential-stimulus-presentation","356","782051","0.0-64.0-1.0","SS1611976444667","","40","900","2311.1100001027808","","","","19","images/stimuli/spore_stims/simple_02_A_d.gif","left","","","","",""
"","null","","html-keyboard-response","357","782968","0.0-64.0-0.1","SS1611976444667","","null","","","<p><img src= images/blank.png width =""200"" height = ""200"" style = ""float:right""></p><p><img src=images/blank.png width =""800"" height = ""200""></p>","","","","","","","","","",""
"","829.5299999881536","trial","sequential-stimulus-presentation","358","784796","0.0-64.0-1.1","SS1611976444667","","40","900","1729.5299999881536","","","","19","images/stimuli/spore_stims/simple_02_A_d.gif","left","","","","",""
"","null","","html-keyboard-response","359","785862","0.0-64.0-0.2","SS1611976444667","","null","","","<p><img src= images/blank.png width =""200"" height = ""200"" style = ""float:right""></p><p><img src=images/blank.png width =""800"" height = ""200""></p>","","","","","","","","","",""
"","222.7949999505654","trial","sequential-stimulus-presentation","360","787082","0.0-64.0-1.2","SS1611976444667","","40","900","1122.7949999505654","","","","19","images/stimuli/spore_stims/simple_02_A_d.gif","left","","","","",""
"","null","","html-keyboard-response","361","788300","0.0-64.0-0.3","SS1611976444667","","null","","","<p><img src= images/blank.png width =""200"" height = ""200"" style = ""float:right""></p><p><img src=images/blank.png width =""800"" height = ""200""></p>","","","","","","","","","",""
"","274.00499989744276","trial","sequential-stimulus-presentation","362","789574","0.0-64.0-1.3","SS1611976444667","","40","900","1174.0049998974428","","","","19","images/stimuli/spore_stims/simple_02_A_d.gif","left","","","","",""
"","null","","html-keyboard-response","363","790901","0.0-64.0-0.4","SS1611976444667","","null","","","<p><img src= images/blank.png width =""200"" height = ""200"" style = ""float:right""></p><p><img src=images/blank.png width =""800"" height = ""200""></p>","","","","","","","","","",""
"","730.7199999922886","trial","sequential-stimulus-presentation","364","792629","0.0-64.0-1.4","SS1611976444667","","40","900","1630.7199999922886","","","","19","images/stimuli/spore_stims/simple_08_B_d.gif","right","","","","",""
"","null","","html-keyboard-response","365","793649","0.0-64.0-0.5","SS1611976444667","","null","","","<p><img src= images/blank.png width =""200"" height = ""200"" style = ""float:right""></p><p><img src=images/blank.png width =""800"" height = ""200""></p>","","","","","","","","","",""
"","622.525000013411","trial","sequential-stimulus-presentation","366","795275","0.0-64.0-1.5","SS1611976444667","","40","900","1522.525000013411","","","","19","images/stimuli/spore_stims/simple_02_A_d.gif","left","","","","",""
"","null","","html-keyboard-response","367","796198","0.0-64.0-0.6","SS1611976444667","","null","","","<p><img src= images/blank.png width =""200"" height = ""200"" style = ""float:right""></p><p><img src=images/blank.png width =""800"" height = ""200""></p>","","","","","","","","","",""
"","267.4899999983609","trial","sequential-stimulus-presentation","368","797466","0.0-64.0-1.6","SS1611976444667","","40","900","1167.4899999983609","","","","19","images/stimuli/spore_stims/simple_02_A_d.gif","left","","","","",""
"","null","","html-keyboard-response","369","798508","0.0-64.0-0.7","SS1611976444667","","null","","","<p><img src= images/blank.png width =""200"" height = ""200"" style = ""float:right""></p><p><img src=images/blank.png width =""800"" height = ""200""></p>","","","","","","","","","",""
"","395.0049999402836","trial","sequential-stimulus-presentation","370","799900","0.0-64.0-1.7","SS1611976444667","","40","900","1295.0049999402836","","","","19","images/stimuli/spore_stims/simple_02_A_d.gif","left","","","","",""
"","1266.3549999706447","pref_question","html-keyboard-response","371","801261","0.0-65.0","SS1611976444667","","50","","","<img src=images/stimuli/pokeballs_pref.jpg width =""800"" height = ""200"" style=""padding-top: 33%"">","2","middle","19","","","","","","",""
"","1276.9150000531226","pref_reveal","sequential-stimulus-presentation","372","803535","0.0-66.0","SS1611976444667","","40","900","2176.9150000531226","","","","19","","","novel","","","",""
"[{""page_index"":0,""viewing_time"":93180.65500003286}]","93181.12000008114","instructions","instructions","373","896810","0.0-67.0","SS1611976444667","","","","","","","","","","","","","","",""
"","182465.31500003766","similarity_question","survey-likert","374","1079394","0.0-68.0","SS1611976444667","","","","","","","","","","","","{""Q0"":4}","[0]","images/stimuli/spore_stims/complex_15_A_a.gif","images/stimuli/spore_stims/complex_15_B_a.gif"
"","4815.000000060536","similarity_question","survey-likert","375","1084308","0.0-69.0","SS1611976444667","","","","","","","","","","","","{""Q0"":4}","[0]","images/stimuli/spore_stims/simple_02_A_d.gif","images/stimuli/spore_stims/simple_08_B_d.gif"
"","4851.150000002235","similarity_question","survey-likert","376","1089262","0.0-70.0","SS1611976444667","","","","","","","","","","","","{""Q0"":6}","[0]","images/stimuli/spore_stims/simple_16_B_a.gif","images/stimuli/spore_stims/simple_16_A_a.gif"
"","7497.19499994535","similarity_question","survey-likert","377","1096867","0.0-71.0","SS1611976444667","","","","","","","","","","","","{""Q0"":3}","[0]","images/stimuli/spore_stims/simple_09_A_c.gif","images/stimuli/spore_stims/simple_15_A_d.gif"
"","3909.7799999872223","similarity_question","survey-likert","378","1100870","0.0-72.0","SS1611976444667","","","","","","","","","","","","{""Q0"":3}","[0]","images/stimuli/spore_stims/simple_15_B_a.gif","images/stimuli/spore_stims/simple_18_A_b.gif"
"","3929.824999999255","similarity_question","survey-likert","379","1104906","0.0-73.0","SS1611976444667","","","","","","","","","","","","{""Q0"":2}","[0]","images/stimuli/spore_stims/complex_13_A_c.gif","images/stimuli/spore_stims/complex_03_A_d.gif"
"","5355.924999923445","similarity_question","survey-likert","380","1110367","0.0-74.0","SS1611976444667","","","","","","","","","","","","{""Q0"":1}","[0]","images/stimuli/spore_stims/complex_05_A_c.gif","images/stimuli/spore_stims/complex_10_A_d.gif"
"","4312.885000021197","similarity_question","survey-likert","381","1114783","0.0-75.0","SS1611976444667","","","","","","","","","","","","{""Q0"":6}","[0]","images/stimuli/spore_stims/complex_10_B_d.gif","images/stimuli/spore_stims/complex_10_A_d.gif"
"","7342.185000074096","similarity_question","survey-likert","382","1122225","0.0-76.0","SS1611976444667","","","","","","","","","","","","{""Q0"":5}","[0]","images/stimuli/spore_stims/simple_12_B_d.gif","images/stimuli/spore_stims/simple_07_A_d.gif"
"","5550.120000028983","similarity_question","survey-likert","383","1127878","0.0-77.0","SS1611976444667","","","","","","","","","","","","{""Q0"":1}","[0]","images/stimuli/spore_stims/complex_13_B_d.gif","images/stimuli/spore_stims/complex_07_B_d.gif"
"","5636.960000032559","similarity_question","survey-likert","384","1133615","0.0-78.0","SS1611976444667","","","","","","","","","","","","{""Q0"":5}","[0]","images/stimuli/spore_stims/complex_11_A_b.gif","images/stimuli/spore_stims/complex_11_B_b.gif"
"","3318.3149999240413","similarity_question","survey-likert","385","1137039","0.0-79.0","SS1611976444667","","","","","","","","","","","","{""Q0"":4}","[0]","images/stimuli/spore_stims/simple_10_A_a.gif","images/stimuli/spore_stims/simple_08_A_c.gif"
