"view_history","rt","stimulus_type","trial_type","trial_index","time_elapsed","internal_node_id","subject","trial_stimulus","key_press","minimum_viewing_duration","trial_looking_time","stimulus","ball_pref","location","block_number","block_type","stimulus_displayed","position_displayed","stim_type_selected","responses","question_order","stimulus_left","stimulus_right"
"[{""page_index"":0,""viewing_time"":4666.0699999993085},{""page_index"":1,""viewing_time"":4720.334999998158}]","9387.455000000045","instructions","instructions","0","9389","0.0-0.0","SS1612117478452","","","","","","","","","","","","","","","",""
"","3500.6199999988894","","sequential-stimulus-presentation","1","13798","0.0-1.0","SS1612117478452","","40","900","4400.619999998889","","","","","","","","","","","",""
"","3236.994999999297","","sequential-stimulus-presentation","2","17938","0.0-2.0","SS1612117478452","","40","900","4136.994999999297","","","","","","","","","","","",""
"[{""page_index"":0,""viewing_time"":3706.754999999248}]","3706.9749999973283","instructions","instructions","3","21646","0.0-3.0","SS1612117478452","","","","","","","","","","","","","","","",""
"","12189.220000000205","instructions","html-keyboard-response","4","33837","0.0-4.0","SS1612117478452","","51","","","<img src=images/stimuli/pokeballs_pref.jpg width =""800"" height = ""200"" style=""padding-top: 33%"">","3","right","","","","","","","","",""
"","2879.54499999978","pref_reveal","sequential-stimulus-presentation","5","37626","0.0-5.0","SS1612117478452","","40","900","3779.54499999978","","","","","","","","","","","",""
"[{""page_index"":0,""viewing_time"":6902.089999999589},{""page_index"":1,""viewing_time"":4188.174999999319},{""page_index"":2,""viewing_time"":1218.44499999861},{""page_index"":3,""viewing_time"":1083.0449999994016}]","13391.98000000033","instructions","instructions","6","51019","0.0-6.0","SS1612117478452","","","","","","","","","","","","","","","",""
"","null","","html-keyboard-response","7","52187","0.0-7.0-0.0","SS1612117478452","","null","","","<p><img src= images/blank.png width =""200"" height = ""200"" style = ""float:right""></p><p><img src=images/blank.png width =""800"" height = ""200""></p>","","","","","","","","","","",""
"","2058.5449999998673","trial","sequential-stimulus-presentation","8","54950","0.0-7.0-1.0","SS1612117478452","","40","700","2758.5449999998673","","","","0","complex_similar","images/stimuli/spore_stims/complex_15_A_d.gif","left","","","","",""
"","null","","html-keyboard-response","9","55948","0.0-7.0-0.1","SS1612117478452","","null","","","<p><img src= images/blank.png width =""200"" height = ""200"" style = ""float:right""></p><p><img src=images/blank.png width =""800"" height = ""200""></p>","","","","","","","","","","",""
"","2017.4649999971734","trial","sequential-stimulus-presentation","10","58672","0.0-7.0-1.1","SS1612117478452","","40","700","2717.4649999971734","","","","0","complex_similar","images/stimuli/spore_stims/complex_15_A_d.gif","left","","","","",""
"","null","","html-keyboard-response","11","59942","0.0-7.0-0.2","SS1612117478452","","null","","","<p><img src= images/blank.png width =""200"" height = ""200"" style = ""float:right""></p><p><img src=images/blank.png width =""800"" height = ""200""></p>","","","","","","","","","","",""
"","1297.0099999984086","trial","sequential-stimulus-presentation","12","61948","0.0-7.0-1.2","SS1612117478452","","40","700","1997.0099999984086","","","","0","complex_similar","images/stimuli/spore_stims/complex_15_A_d.gif","left","","","","",""
"","null","","html-keyboard-response","13","62897","0.0-7.0-0.3","SS1612117478452","","null","","","<p><img src= images/blank.png width =""200"" height = ""200"" style = ""float:right""></p><p><img src=images/blank.png width =""800"" height = ""200""></p>","","","","","","","","","","",""
"","778.1950000025972","trial","sequential-stimulus-presentation","14","64384","0.0-7.0-1.3","SS1612117478452","","40","700","1478.1950000025972","","","","0","complex_similar","images/stimuli/spore_stims/complex_15_B_d.gif","right","","","","",""
"","null","","html-keyboard-response","15","65345","0.0-7.0-0.4","SS1612117478452","","null","","","<p><img src= images/blank.png width =""200"" height = ""200"" style = ""float:right""></p><p><img src=images/blank.png width =""800"" height = ""200""></p>","","","","","","","","","","",""
"","808.5150000006252","trial","sequential-stimulus-presentation","16","66859","0.0-7.0-1.4","SS1612117478452","","40","700","1508.5150000006252","","","","0","complex_similar","images/stimuli/spore_stims/complex_15_A_d.gif","left","","","","",""
"","null","","html-keyboard-response","17","68138","0.0-7.0-0.5","SS1612117478452","","null","","","<p><img src= images/blank.png width =""200"" height = ""200"" style = ""float:right""></p><p><img src=images/blank.png width =""800"" height = ""200""></p>","","","","","","","","","","",""
"","1528.4600000013597","trial","sequential-stimulus-presentation","18","70372","0.0-7.0-1.5","SS1612117478452","","40","700","2228.4600000013597","","","","0","complex_similar","images/stimuli/spore_stims/complex_15_A_d.gif","left","","","","",""
"","null","","html-keyboard-response","19","71583","0.0-7.0-0.6","SS1612117478452","","null","","","<p><img src= images/blank.png width =""200"" height = ""200"" style = ""float:right""></p><p><img src=images/blank.png width =""800"" height = ""200""></p>","","","","","","","","","","",""
"","240.77000000033877","trial","sequential-stimulus-presentation","20","72529","0.0-7.0-1.6","SS1612117478452","","40","700","940.7700000003388","","","","0","complex_similar","images/stimuli/spore_stims/complex_15_A_d.gif","left","","","","",""
"","null","","html-keyboard-response","21","73714","0.0-7.0-0.7","SS1612117478452","","null","","","<p><img src= images/blank.png width =""200"" height = ""200"" style = ""float:right""></p><p><img src=images/blank.png width =""800"" height = ""200""></p>","","","","","","","","","","",""
"","292.06499999781954","trial","sequential-stimulus-presentation","22","74714","0.0-7.0-1.7","SS1612117478452","","40","700","992.0649999978195","","","","0","complex_similar","images/stimuli/spore_stims/complex_15_A_d.gif","left","","","","",""
"","2717.259999997623","pref_question","html-keyboard-response","23","77433","0.0-8.0","SS1612117478452","","51","","","<img src=images/stimuli/pokeballs_pref.jpg width =""800"" height = ""200"" style=""padding-top: 33%"">","3","right","0","","","","","","","",""
"","1926.3200000023062","pref_reveal","sequential-stimulus-presentation","24","80068","0.0-9.0","SS1612117478452","","40","700","2626.320000002306","","","","0","","","","deviant","","","",""
"","null","","html-keyboard-response","25","81299","0.0-10.0-0.0","SS1612117478452","","null","","","<p><img src= images/blank.png width =""200"" height = ""200"" style = ""float:right""></p><p><img src=images/blank.png width =""800"" height = ""200""></p>","","","","","","","","","","",""
"","1524.0499999999884","trial","sequential-stimulus-presentation","26","83530","0.0-10.0-1.0","SS1612117478452","","40","700","2224.0499999999884","","","","1","complex_similar","images/stimuli/spore_stims/complex_14_B_d.gif","middle","","","","",""
"","null","","html-keyboard-response","27","84344","0.0-10.0-0.1","SS1612117478452","","null","","","<p><img src= images/blank.png width =""200"" height = ""200"" style = ""float:right""></p><p><img src=images/blank.png width =""800"" height = ""200""></p>","","","","","","","","","","",""
"","901.1449999998149","trial","sequential-stimulus-presentation","28","85951","0.0-10.0-1.1","SS1612117478452","","40","700","1601.144999999815","","","","1","complex_similar","images/stimuli/spore_stims/complex_14_B_d.gif","middle","","","","",""
"","null","","html-keyboard-response","29","86905","0.0-10.0-0.2","SS1612117478452","","null","","","<p><img src= images/blank.png width =""200"" height = ""200"" style = ""float:right""></p><p><img src=images/blank.png width =""800"" height = ""200""></p>","","","","","","","","","","",""
"","1285.955000003014","trial","sequential-stimulus-presentation","30","88900","0.0-10.0-1.2","SS1612117478452","","40","700","1985.955000003014","","","","1","complex_similar","images/stimuli/spore_stims/complex_14_B_d.gif","middle","","","","",""
"","null","","html-keyboard-response","31","90070","0.0-10.0-0.3","SS1612117478452","","null","","","<p><img src= images/blank.png width =""200"" height = ""200"" style = ""float:right""></p><p><img src=images/blank.png width =""800"" height = ""200""></p>","","","","","","","","","","",""
"","1010.9049999991839","trial","sequential-stimulus-presentation","32","91790","0.0-10.0-1.3","SS1612117478452","","40","700","1710.904999999184","","","","1","complex_similar","images/stimuli/spore_stims/complex_14_B_d.gif","middle","","","","",""
"","null","","html-keyboard-response","33","92896","0.0-10.0-0.4","SS1612117478452","","null","","","<p><img src= images/blank.png width =""200"" height = ""200"" style = ""float:right""></p><p><img src=images/blank.png width =""800"" height = ""200""></p>","","","","","","","","","","",""
"","861.574999998993","trial","sequential-stimulus-presentation","34","94467","0.0-10.0-1.4","SS1612117478452","","40","700","1561.574999998993","","","","1","complex_similar","images/stimuli/spore_stims/complex_14_B_d.gif","middle","","","","",""
"","null","","html-keyboard-response","35","95654","0.0-10.0-0.5","SS1612117478452","","null","","","<p><img src= images/blank.png width =""200"" height = ""200"" style = ""float:right""></p><p><img src=images/blank.png width =""800"" height = ""200""></p>","","","","","","","","","","",""
"","255.12499999967986","trial","sequential-stimulus-presentation","36","96617","0.0-10.0-1.5","SS1612117478452","","40","700","955.1249999996799","","","","1","complex_similar","images/stimuli/spore_stims/complex_14_B_d.gif","middle","","","","",""
"","null","","html-keyboard-response","37","97638","0.0-10.0-0.6","SS1612117478452","","null","","","<p><img src= images/blank.png width =""200"" height = ""200"" style = ""float:right""></p><p><img src=images/blank.png width =""800"" height = ""200""></p>","","","","","","","","","","",""
"","827.7999999991152","trial","sequential-stimulus-presentation","38","99173","0.0-10.0-1.6","SS1612117478452","","40","700","1527.7999999991152","","","","1","complex_similar","images/stimuli/spore_stims/complex_14_B_d.gif","middle","","","","",""
"","null","","html-keyboard-response","39","100349","0.0-10.0-0.7","SS1612117478452","","null","","","<p><img src= images/blank.png width =""200"" height = ""200"" style = ""float:right""></p><p><img src=images/blank.png width =""800"" height = ""200""></p>","","","","","","","","","","",""
"","1963.885000001028","trial","sequential-stimulus-presentation","40","103021","0.0-10.0-1.7","SS1612117478452","","40","700","2663.885000001028","","","","1","complex_similar","images/stimuli/spore_stims/complex_14_A_d.gif","left","","","","",""
"","2667.890000000625","pref_question","html-keyboard-response","41","105691","0.0-11.0","SS1612117478452","","51","","","<img src=images/stimuli/pokeballs_pref.jpg width =""800"" height = ""200"" style=""padding-top: 33%"">","3","right","1","","","","","","","",""
"","2232.544999998936","pref_reveal","sequential-stimulus-presentation","42","108632","0.0-12.0","SS1612117478452","","40","700","2932.544999998936","","","","1","","","","novel","","","",""
"","null","","html-keyboard-response","43","109662","0.0-13.0-0.0","SS1612117478452","","null","","","<p><img src= images/blank.png width =""200"" height = ""200"" style = ""float:right""></p><p><img src=images/blank.png width =""800"" height = ""200""></p>","","","","","","","","","","",""
"","604.1450000011537","trial","sequential-stimulus-presentation","44","110973","0.0-13.0-1.0","SS1612117478452","","40","700","1304.1450000011537","","","","2","simple_similar","images/stimuli/spore_stims/simple_12_A_c.gif","middle","","","","",""
"","null","","html-keyboard-response","45","111816","0.0-13.0-0.1","SS1612117478452","","null","","","<p><img src= images/blank.png width =""200"" height = ""200"" style = ""float:right""></p><p><img src=images/blank.png width =""800"" height = ""200""></p>","","","","","","","","","","",""
"","711.765000000014","trial","sequential-stimulus-presentation","46","113234","0.0-13.0-1.1","SS1612117478452","","40","700","1411.765000000014","","","","2","simple_similar","images/stimuli/spore_stims/simple_12_A_c.gif","middle","","","","",""
"","null","","html-keyboard-response","47","114404","0.0-13.0-0.2","SS1612117478452","","null","","","<p><img src= images/blank.png width =""200"" height = ""200"" style = ""float:right""></p><p><img src=images/blank.png width =""800"" height = ""200""></p>","","","","","","","","","","",""
"","625.0450000006822","trial","sequential-stimulus-presentation","48","115737","0.0-13.0-1.2","SS1612117478452","","40","700","1325.0450000006822","","","","2","simple_similar","images/stimuli/spore_stims/simple_12_A_c.gif","middle","","","","",""
"","null","","html-keyboard-response","49","116953","0.0-13.0-0.3","SS1612117478452","","null","","","<p><img src= images/blank.png width =""200"" height = ""200"" style = ""float:right""></p><p><img src=images/blank.png width =""800"" height = ""200""></p>","","","","","","","","","","",""
"","785.570000000007","trial","sequential-stimulus-presentation","50","118444","0.0-13.0-1.3","SS1612117478452","","40","700","1485.570000000007","","","","2","simple_similar","images/stimuli/spore_stims/simple_12_B_c.gif","left","","","","",""
"","null","","html-keyboard-response","51","119422","0.0-13.0-0.4","SS1612117478452","","null","","","<p><img src= images/blank.png width =""200"" height = ""200"" style = ""float:right""></p><p><img src=images/blank.png width =""800"" height = ""200""></p>","","","","","","","","","","",""
"","268.41000000058557","trial","sequential-stimulus-presentation","52","120397","0.0-13.0-1.4","SS1612117478452","","40","700","968.4100000005856","","","","2","simple_similar","images/stimuli/spore_stims/simple_12_A_c.gif","middle","","","","",""
"","null","","html-keyboard-response","53","121231","0.0-13.0-0.5","SS1612117478452","","null","","","<p><img src= images/blank.png width =""200"" height = ""200"" style = ""float:right""></p><p><img src=images/blank.png width =""800"" height = ""200""></p>","","","","","","","","","","",""
"","330.00499999980093","trial","sequential-stimulus-presentation","54","122266","0.0-13.0-1.5","SS1612117478452","","40","700","1030.004999999801","","","","2","simple_similar","images/stimuli/spore_stims/simple_12_A_c.gif","middle","","","","",""
"","null","","html-keyboard-response","55","123096","0.0-13.0-0.6","SS1612117478452","","null","","","<p><img src= images/blank.png width =""200"" height = ""200"" style = ""float:right""></p><p><img src=images/blank.png width =""800"" height = ""200""></p>","","","","","","","","","","",""
"","317.45000000228174","trial","sequential-stimulus-presentation","56","124119","0.0-13.0-1.6","SS1612117478452","","40","700","1017.4500000022817","","","","2","simple_similar","images/stimuli/spore_stims/simple_12_A_c.gif","middle","","","","",""
"","null","","html-keyboard-response","57","125256","0.0-13.0-0.7","SS1612117478452","","null","","","<p><img src= images/blank.png width =""200"" height = ""200"" style = ""float:right""></p><p><img src=images/blank.png width =""800"" height = ""200""></p>","","","","","","","","","","",""
"","427.9549999992014","trial","sequential-stimulus-presentation","58","126390","0.0-13.0-1.7","SS1612117478452","","40","700","1127.9549999992014","","","","2","simple_similar","images/stimuli/spore_stims/simple_12_A_c.gif","middle","","","","",""
"","1295.0999999993655","pref_question","html-keyboard-response","59","127687","0.0-14.0","SS1612117478452","","49","","","<img src=images/stimuli/pokeballs_pref.jpg width =""800"" height = ""200"" style=""padding-top: 33%"">","1","left","2","","","","","","","",""
"","1375.7449999975506","pref_reveal","sequential-stimulus-presentation","60","129767","0.0-15.0","SS1612117478452","","40","700","2075.7449999975506","","","","2","","","","deviant","","","",""
"","null","","html-keyboard-response","61","130617","0.0-16.0-0.0","SS1612117478452","","null","","","<p><img src= images/blank.png width =""200"" height = ""200"" style = ""float:right""></p><p><img src=images/blank.png width =""800"" height = ""200""></p>","","","","","","","","","","",""
"","1197.8049999997893","trial","sequential-stimulus-presentation","62","132523","0.0-16.0-1.0","SS1612117478452","","40","700","1897.8049999997893","","","","3","simple_dissimilar","images/stimuli/spore_stims/simple_02_B_a.gif","left","","","","",""
"","null","","html-keyboard-response","63","133470","0.0-16.0-0.1","SS1612117478452","","null","","","<p><img src= images/blank.png width =""200"" height = ""200"" style = ""float:right""></p><p><img src=images/blank.png width =""800"" height = ""200""></p>","","","","","","","","","","",""
"","956.7600000009406","trial","sequential-stimulus-presentation","64","135132","0.0-16.0-1.1","SS1612117478452","","40","700","1656.7600000009406","","","","3","simple_dissimilar","images/stimuli/spore_stims/simple_02_B_a.gif","left","","","","",""
"","null","","html-keyboard-response","65","136052","0.0-16.0-0.2","SS1612117478452","","null","","","<p><img src= images/blank.png width =""200"" height = ""200"" style = ""float:right""></p><p><img src=images/blank.png width =""800"" height = ""200""></p>","","","","","","","","","","",""
"","929.3299999990268","trial","sequential-stimulus-presentation","66","137687","0.0-16.0-1.2","SS1612117478452","","40","700","1629.3299999990268","","","","3","simple_dissimilar","images/stimuli/spore_stims/simple_02_B_a.gif","left","","","","",""
"","null","","html-keyboard-response","67","138896","0.0-16.0-0.3","SS1612117478452","","null","","","<p><img src= images/blank.png width =""200"" height = ""200"" style = ""float:right""></p><p><img src=images/blank.png width =""800"" height = ""200""></p>","","","","","","","","","","",""
"","474.09499999776017","trial","sequential-stimulus-presentation","68","140077","0.0-16.0-1.3","SS1612117478452","","40","700","1174.0949999977602","","","","3","simple_dissimilar","images/stimuli/spore_stims/simple_02_B_a.gif","left","","","","",""
"","null","","html-keyboard-response","69","141358","0.0-16.0-0.4","SS1612117478452","","null","","","<p><img src= images/blank.png width =""200"" height = ""200"" style = ""float:right""></p><p><img src=images/blank.png width =""800"" height = ""200""></p>","","","","","","","","","","",""
"","1830.4400000015448","trial","sequential-stimulus-presentation","70","143898","0.0-16.0-1.4","SS1612117478452","","40","700","2530.440000001545","","","","3","simple_dissimilar","images/stimuli/spore_stims/simple_18_B_a.gif","right","","","","",""
"","null","","html-keyboard-response","71","145089","0.0-16.0-0.5","SS1612117478452","","null","","","<p><img src= images/blank.png width =""200"" height = ""200"" style = ""float:right""></p><p><img src=images/blank.png width =""800"" height = ""200""></p>","","","","","","","","","","",""
"","806.655000000319","trial","sequential-stimulus-presentation","72","146603","0.0-16.0-1.5","SS1612117478452","","40","700","1506.655000000319","","","","3","simple_dissimilar","images/stimuli/spore_stims/simple_02_B_a.gif","left","","","","",""
"","null","","html-keyboard-response","73","147781","0.0-16.0-0.6","SS1612117478452","","null","","","<p><img src= images/blank.png width =""200"" height = ""200"" style = ""float:right""></p><p><img src=images/blank.png width =""800"" height = ""200""></p>","","","","","","","","","","",""
"","1106.0649999999441","trial","sequential-stimulus-presentation","74","149596","0.0-16.0-1.6","SS1612117478452","","40","700","1806.0649999999441","","","","3","simple_dissimilar","images/stimuli/spore_stims/simple_02_B_a.gif","left","","","","",""
"","null","","html-keyboard-response","75","150432","0.0-16.0-0.7","SS1612117478452","","null","","","<p><img src= images/blank.png width =""200"" height = ""200"" style = ""float:right""></p><p><img src=images/blank.png width =""800"" height = ""200""></p>","","","","","","","","","","",""
"","969.6050000020477","trial","sequential-stimulus-presentation","76","152107","0.0-16.0-1.7","SS1612117478452","","40","700","1669.6050000020477","","","","3","simple_dissimilar","images/stimuli/spore_stims/simple_02_B_a.gif","left","","","","",""
"","1449.850000000879","pref_question","html-keyboard-response","77","153559","0.0-17.0","SS1612117478452","","50","","","<img src=images/stimuli/pokeballs_pref.jpg width =""800"" height = ""200"" style=""padding-top: 33%"">","2","middle","3","","","","","","","",""
"","3067.895000000135","pref_reveal","sequential-stimulus-presentation","78","157332","0.0-18.0","SS1612117478452","","40","700","3767.895000000135","","","","3","","","","novel","","","",""
"","null","","html-keyboard-response","79","158247","0.0-19.0-0.0","SS1612117478452","","null","","","<p><img src= images/blank.png width =""200"" height = ""200"" style = ""float:right""></p><p><img src=images/blank.png width =""800"" height = ""200""></p>","","","","","","","","","","",""
"","1675.8349999981874","trial","sequential-stimulus-presentation","80","160630","0.0-19.0-1.0","SS1612117478452","","40","700","2375.8349999981874","","","","4","complex_similar","images/stimuli/spore_stims/complex_17_A_b.gif","right","","","","",""
"","null","","html-keyboard-response","81","161564","0.0-19.0-0.1","SS1612117478452","","null","","","<p><img src= images/blank.png width =""200"" height = ""200"" style = ""float:right""></p><p><img src=images/blank.png width =""800"" height = ""200""></p>","","","","","","","","","","",""
"","673.9349999988917","trial","sequential-stimulus-presentation","82","162947","0.0-19.0-1.1","SS1612117478452","","40","700","1373.9349999988917","","","","4","complex_similar","images/stimuli/spore_stims/complex_17_A_b.gif","right","","","","",""
"","null","","html-keyboard-response","83","163977","0.0-19.0-0.2","SS1612117478452","","null","","","<p><img src= images/blank.png width =""200"" height = ""200"" style = ""float:right""></p><p><img src=images/blank.png width =""800"" height = ""200""></p>","","","","","","","","","","",""
"","1358.1500000000233","trial","sequential-stimulus-presentation","84","166046","0.0-19.0-1.2","SS1612117478452","","40","700","2058.1500000000233","","","","4","complex_similar","images/stimuli/spore_stims/complex_17_A_b.gif","right","","","","",""
"","null","","html-keyboard-response","85","167158","0.0-19.0-0.3","SS1612117478452","","null","","","<p><img src= images/blank.png width =""200"" height = ""200"" style = ""float:right""></p><p><img src=images/blank.png width =""800"" height = ""200""></p>","","","","","","","","","","",""
"","864.8499999981141","trial","sequential-stimulus-presentation","86","168729","0.0-19.0-1.3","SS1612117478452","","40","700","1564.849999998114","","","","4","complex_similar","images/stimuli/spore_stims/complex_17_A_b.gif","right","","","","",""
"","null","","html-keyboard-response","87","169973","0.0-19.0-0.4","SS1612117478452","","null","","","<p><img src= images/blank.png width =""200"" height = ""200"" style = ""float:right""></p><p><img src=images/blank.png width =""800"" height = ""200""></p>","","","","","","","","","","",""
"","460.8299999999872","trial","sequential-stimulus-presentation","88","171143","0.0-19.0-1.4","SS1612117478452","","40","700","1160.8299999999872","","","","4","complex_similar","images/stimuli/spore_stims/complex_17_A_b.gif","right","","","","",""
"","null","","html-keyboard-response","89","172144","0.0-19.0-0.5","SS1612117478452","","null","","","<p><img src= images/blank.png width =""200"" height = ""200"" style = ""float:right""></p><p><img src=images/blank.png width =""800"" height = ""200""></p>","","","","","","","","","","",""
"","1333.5000000006403","trial","sequential-stimulus-presentation","90","174183","0.0-19.0-1.5","SS1612117478452","","40","700","2033.5000000006403","","","","4","complex_similar","images/stimuli/spore_stims/complex_17_A_b.gif","right","","","","",""
"","null","","html-keyboard-response","91","175387","0.0-19.0-0.6","SS1612117478452","","null","","","<p><img src= images/blank.png width =""200"" height = ""200"" style = ""float:right""></p><p><img src=images/blank.png width =""800"" height = ""200""></p>","","","","","","","","","","",""
"","2401.429999998072","trial","sequential-stimulus-presentation","92","178497","0.0-19.0-1.6","SS1612117478452","","40","700","3101.429999998072","","","","4","complex_similar","images/stimuli/spore_stims/complex_17_A_b.gif","right","","","","",""
"","null","","html-keyboard-response","93","179310","0.0-19.0-0.7","SS1612117478452","","null","","","<p><img src= images/blank.png width =""200"" height = ""200"" style = ""float:right""></p><p><img src=images/blank.png width =""800"" height = ""200""></p>","","","","","","","","","","",""
"","1391.3700000011886","trial","sequential-stimulus-presentation","94","181408","0.0-19.0-1.7","SS1612117478452","","40","700","2091.3700000011886","","","","4","complex_similar","images/stimuli/spore_stims/complex_17_B_b.gif","middle","","","","",""
"","2557.15500000224","pref_question","html-keyboard-response","95","183968","0.0-20.0","SS1612117478452","","49","","","<img src=images/stimuli/pokeballs_pref.jpg width =""800"" height = ""200"" style=""padding-top: 33%"">","1","left","4","","","","","","","",""
"","2450.7200000007288","pref_reveal","sequential-stimulus-presentation","96","187127","0.0-21.0","SS1612117478452","","40","700","3150.7200000007288","","","","4","","","","novel","","","",""
"","null","","html-keyboard-response","97","188431","0.0-22.0-0.0","SS1612117478452","","null","","","<p><img src= images/blank.png width =""200"" height = ""200"" style = ""float:right""></p><p><img src=images/blank.png width =""800"" height = ""200""></p>","","","","","","","","","","",""
"","886.06499999878","trial","sequential-stimulus-presentation","98","190023","0.0-22.0-1.0","SS1612117478452","","40","700","1586.06499999878","","","","5","complex_dissimilar","images/stimuli/spore_stims/complex_07_A_a.gif","right","","","","",""
"","null","","html-keyboard-response","99","191142","0.0-22.0-0.1","SS1612117478452","","null","","","<p><img src= images/blank.png width =""200"" height = ""200"" style = ""float:right""></p><p><img src=images/blank.png width =""800"" height = ""200""></p>","","","","","","","","","","",""
"","1420.3049999996438","trial","sequential-stimulus-presentation","100","193273","0.0-22.0-1.1","SS1612117478452","","40","700","2120.3049999996438","","","","5","complex_dissimilar","images/stimuli/spore_stims/complex_07_A_a.gif","right","","","","",""
"","null","","html-keyboard-response","101","194099","0.0-22.0-0.2","SS1612117478452","","null","","","<p><img src= images/blank.png width =""200"" height = ""200"" style = ""float:right""></p><p><img src=images/blank.png width =""800"" height = ""200""></p>","","","","","","","","","","",""
"","1978.4249999975145","trial","sequential-stimulus-presentation","102","196784","0.0-22.0-1.2","SS1612117478452","","40","700","2678.4249999975145","","","","5","complex_dissimilar","images/stimuli/spore_stims/complex_07_A_a.gif","right","","","","",""
"","null","","html-keyboard-response","103","197977","0.0-22.0-0.3","SS1612117478452","","null","","","<p><img src= images/blank.png width =""200"" height = ""200"" style = ""float:right""></p><p><img src=images/blank.png width =""800"" height = ""200""></p>","","","","","","","","","","",""
"","1437.6150000025518","trial","sequential-stimulus-presentation","104","200125","0.0-22.0-1.3","SS1612117478452","","40","700","2137.615000002552","","","","5","complex_dissimilar","images/stimuli/spore_stims/complex_07_A_a.gif","right","","","","",""
"","null","","html-keyboard-response","105","201359","0.0-22.0-0.4","SS1612117478452","","null","","","<p><img src= images/blank.png width =""200"" height = ""200"" style = ""float:right""></p><p><img src=images/blank.png width =""800"" height = ""200""></p>","","","","","","","","","","",""
"","842.6049999980023","trial","sequential-stimulus-presentation","106","202908","0.0-22.0-1.4","SS1612117478452","","40","700","1542.6049999980023","","","","5","complex_dissimilar","images/stimuli/spore_stims/complex_07_A_a.gif","right","","","","",""
"","null","","html-keyboard-response","107","203743","0.0-22.0-0.5","SS1612117478452","","null","","","<p><img src= images/blank.png width =""200"" height = ""200"" style = ""float:right""></p><p><img src=images/blank.png width =""800"" height = ""200""></p>","","","","","","","","","","",""
"","922.1250000009604","trial","sequential-stimulus-presentation","108","205372","0.0-22.0-1.5","SS1612117478452","","40","700","1622.1250000009604","","","","5","complex_dissimilar","images/stimuli/spore_stims/complex_07_A_a.gif","right","","","","",""
"","null","","html-keyboard-response","109","206244","0.0-22.0-0.6","SS1612117478452","","null","","","<p><img src= images/blank.png width =""200"" height = ""200"" style = ""float:right""></p><p><img src=images/blank.png width =""800"" height = ""200""></p>","","","","","","","","","","",""
"","2080.4749999988417","trial","sequential-stimulus-presentation","110","209031","0.0-22.0-1.6","SS1612117478452","","40","700","2780.4749999988417","","","","5","complex_dissimilar","images/stimuli/spore_stims/complex_01_A_c.gif","middle","","","","",""
"","null","","html-keyboard-response","111","209897","0.0-22.0-0.7","SS1612117478452","","null","","","<p><img src= images/blank.png width =""200"" height = ""200"" style = ""float:right""></p><p><img src=images/blank.png width =""800"" height = ""200""></p>","","","","","","","","","","",""
"","840.1400000002468","trial","sequential-stimulus-presentation","112","211445","0.0-22.0-1.7","SS1612117478452","","40","700","1540.1400000002468","","","","5","complex_dissimilar","images/stimuli/spore_stims/complex_07_A_a.gif","right","","","","",""
"","1700.1349999991362","pref_question","html-keyboard-response","113","213147","0.0-23.0","SS1612117478452","","49","","","<img src=images/stimuli/pokeballs_pref.jpg width =""800"" height = ""200"" style=""padding-top: 33%"">","1","left","5","","","","","","","",""
"","2003.035000001546","pref_reveal","sequential-stimulus-presentation","114","215855","0.0-24.0","SS1612117478452","","40","700","2703.035000001546","","","","5","","","","novel","","","",""
"","null","","html-keyboard-response","115","217137","0.0-25.0-0.0","SS1612117478452","","null","","","<p><img src= images/blank.png width =""200"" height = ""200"" style = ""float:right""></p><p><img src=images/blank.png width =""800"" height = ""200""></p>","","","","","","","","","","",""
"","1513.025000000198","trial","sequential-stimulus-presentation","116","219360","0.0-25.0-1.0","SS1612117478452","","40","700","2213.025000000198","","","","6","simple_dissimilar","images/stimuli/spore_stims/simple_17_A_b.gif","middle","","","","",""
"","null","","html-keyboard-response","117","220435","0.0-25.0-0.1","SS1612117478452","","null","","","<p><img src= images/blank.png width =""200"" height = ""200"" style = ""float:right""></p><p><img src=images/blank.png width =""800"" height = ""200""></p>","","","","","","","","","","",""
"","1127.55499999912","trial","sequential-stimulus-presentation","118","222270","0.0-25.0-1.1","SS1612117478452","","40","700","1827.55499999912","","","","6","simple_dissimilar","images/stimuli/spore_stims/simple_17_A_b.gif","middle","","","","",""
"","null","","html-keyboard-response","119","223098","0.0-25.0-0.2","SS1612117478452","","null","","","<p><img src= images/blank.png width =""200"" height = ""200"" style = ""float:right""></p><p><img src=images/blank.png width =""800"" height = ""200""></p>","","","","","","","","","","",""
"","1340.1499999999942","trial","sequential-stimulus-presentation","120","225142","0.0-25.0-1.2","SS1612117478452","","40","700","2040.1499999999942","","","","6","simple_dissimilar","images/stimuli/spore_stims/simple_17_A_b.gif","middle","","","","",""
"","null","","html-keyboard-response","121","226003","0.0-25.0-0.3","SS1612117478452","","null","","","<p><img src= images/blank.png width =""200"" height = ""200"" style = ""float:right""></p><p><img src=images/blank.png width =""800"" height = ""200""></p>","","","","","","","","","","",""
"","749.1900000022724","trial","sequential-stimulus-presentation","122","227460","0.0-25.0-1.3","SS1612117478452","","40","700","1449.1900000022724","","","","6","simple_dissimilar","images/stimuli/spore_stims/simple_04_A_b.gif","left","","","","",""
"","null","","html-keyboard-response","123","228444","0.0-25.0-0.4","SS1612117478452","","null","","","<p><img src= images/blank.png width =""200"" height = ""200"" style = ""float:right""></p><p><img src=images/blank.png width =""800"" height = ""200""></p>","","","","","","","","","","",""
"","829.7249999995984","trial","sequential-stimulus-presentation","124","229981","0.0-25.0-1.4","SS1612117478452","","40","700","1529.7249999995984","","","","6","simple_dissimilar","images/stimuli/spore_stims/simple_17_A_b.gif","middle","","","","",""
"","null","","html-keyboard-response","125","231069","0.0-25.0-0.5","SS1612117478452","","null","","","<p><img src= images/blank.png width =""200"" height = ""200"" style = ""float:right""></p><p><img src=images/blank.png width =""800"" height = ""200""></p>","","","","","","","","","","",""
"","1270.619999999326","trial","sequential-stimulus-presentation","126","233047","0.0-25.0-1.5","SS1612117478452","","40","700","1970.619999999326","","","","6","simple_dissimilar","images/stimuli/spore_stims/simple_17_A_b.gif","middle","","","","",""
"","null","","html-keyboard-response","127","234332","0.0-25.0-0.6","SS1612117478452","","null","","","<p><img src= images/blank.png width =""200"" height = ""200"" style = ""float:right""></p><p><img src=images/blank.png width =""800"" height = ""200""></p>","","","","","","","","","","",""
"","897.5400000017544","trial","sequential-stimulus-presentation","128","235938","0.0-25.0-1.6","SS1612117478452","","40","700","1597.5400000017544","","","","6","simple_dissimilar","images/stimuli/spore_stims/simple_17_A_b.gif","middle","","","","",""
"","null","","html-keyboard-response","129","237107","0.0-25.0-0.7","SS1612117478452","","null","","","<p><img src= images/blank.png width =""200"" height = ""200"" style = ""float:right""></p><p><img src=images/blank.png width =""800"" height = ""200""></p>","","","","","","","","","","",""
"","739.0549999981886","trial","sequential-stimulus-presentation","130","238554","0.0-25.0-1.7","SS1612117478452","","40","700","1439.0549999981886","","","","6","simple_dissimilar","images/stimuli/spore_stims/simple_17_A_b.gif","middle","","","","",""
"","1455.1350000001548","pref_question","html-keyboard-response","131","240013","0.0-26.0","SS1612117478452","","51","","","<img src=images/stimuli/pokeballs_pref.jpg width =""800"" height = ""200"" style=""padding-top: 33%"">","3","right","6","","","","","","","",""
"","3722.5800000014715","pref_reveal","sequential-stimulus-presentation","132","244461","0.0-27.0","SS1612117478452","","40","700","4422.5800000014715","","","","6","","","","novel","","","",""
"","null","","html-keyboard-response","133","245562","0.0-28.0-0.0","SS1612117478452","","null","","","<p><img src= images/blank.png width =""200"" height = ""200"" style = ""float:right""></p><p><img src=images/blank.png width =""800"" height = ""200""></p>","","","","","","","","","","",""
"","1721.785000001546","trial","sequential-stimulus-presentation","134","247990","0.0-28.0-1.0","SS1612117478452","","40","700","2421.785000001546","","","","7","complex_dissimilar","images/stimuli/spore_stims/complex_10_A_b.gif","left","","","","",""
"","null","","html-keyboard-response","135","248884","0.0-28.0-0.1","SS1612117478452","","null","","","<p><img src= images/blank.png width =""200"" height = ""200"" style = ""float:right""></p><p><img src=images/blank.png width =""800"" height = ""200""></p>","","","","","","","","","","",""
"","427.1599999992759","trial","sequential-stimulus-presentation","136","250019","0.0-28.0-1.1","SS1612117478452","","40","700","1127.159999999276","","","","7","complex_dissimilar","images/stimuli/spore_stims/complex_10_A_b.gif","left","","","","",""
"","null","","html-keyboard-response","137","250929","0.0-28.0-0.2","SS1612117478452","","null","","","<p><img src= images/blank.png width =""200"" height = ""200"" style = ""float:right""></p><p><img src=images/blank.png width =""800"" height = ""200""></p>","","","","","","","","","","",""
"","3065.7350000001315","trial","sequential-stimulus-presentation","138","254704","0.0-28.0-1.2","SS1612117478452","","40","700","3765.7350000001315","","","","7","complex_dissimilar","images/stimuli/spore_stims/complex_10_A_b.gif","left","","","","",""
"","null","","html-keyboard-response","139","255923","0.0-28.0-0.3","SS1612117478452","","null","","","<p><img src= images/blank.png width =""200"" height = ""200"" style = ""float:right""></p><p><img src=images/blank.png width =""800"" height = ""200""></p>","","","","","","","","","","",""
"","677.8149999991001","trial","sequential-stimulus-presentation","140","257311","0.0-28.0-1.3","SS1612117478452","","40","700","1377.8149999991","","","","7","complex_dissimilar","images/stimuli/spore_stims/complex_10_A_b.gif","left","","","","",""
"","null","","html-keyboard-response","141","258271","0.0-28.0-0.4","SS1612117478452","","null","","","<p><img src= images/blank.png width =""200"" height = ""200"" style = ""float:right""></p><p><img src=images/blank.png width =""800"" height = ""200""></p>","","","","","","","","","","",""
"","812.4049999969429","trial","sequential-stimulus-presentation","142","259791","0.0-28.0-1.4","SS1612117478452","","40","700","1512.404999996943","","","","7","complex_dissimilar","images/stimuli/spore_stims/complex_10_A_b.gif","left","","","","",""
"","null","","html-keyboard-response","143","260943","0.0-28.0-0.5","SS1612117478452","","null","","","<p><img src= images/blank.png width =""200"" height = ""200"" style = ""float:right""></p><p><img src=images/blank.png width =""800"" height = ""200""></p>","","","","","","","","","","",""
"","623.9499999973923","trial","sequential-stimulus-presentation","144","262274","0.0-28.0-1.5","SS1612117478452","","40","700","1323.9499999973923","","","","7","complex_dissimilar","images/stimuli/spore_stims/complex_10_A_b.gif","left","","","","",""
"","null","","html-keyboard-response","145","263263","0.0-28.0-0.6","SS1612117478452","","null","","","<p><img src= images/blank.png width =""200"" height = ""200"" style = ""float:right""></p><p><img src=images/blank.png width =""800"" height = ""200""></p>","","","","","","","","","","",""
"","555.915000000794","trial","sequential-stimulus-presentation","146","264525","0.0-28.0-1.6","SS1612117478452","","40","700","1255.915000000794","","","","7","complex_dissimilar","images/stimuli/spore_stims/complex_10_A_b.gif","left","","","","",""
"","null","","html-keyboard-response","147","265556","0.0-28.0-0.7","SS1612117478452","","null","","","<p><img src= images/blank.png width =""200"" height = ""200"" style = ""float:right""></p><p><img src=images/blank.png width =""800"" height = ""200""></p>","","","","","","","","","","",""
"","973.6349999984377","trial","sequential-stimulus-presentation","148","267239","0.0-28.0-1.7","SS1612117478452","","40","700","1673.6349999984377","","","","7","complex_dissimilar","images/stimuli/spore_stims/complex_10_A_b.gif","left","","","","",""
"","null","","html-keyboard-response","149","268184","0.0-28.0-0.8","SS1612117478452","","null","","","<p><img src= images/blank.png width =""200"" height = ""200"" style = ""float:right""></p><p><img src=images/blank.png width =""800"" height = ""200""></p>","","","","","","","","","","",""
"","1083.6099999978906","trial","sequential-stimulus-presentation","150","269974","0.0-28.0-1.8","SS1612117478452","","40","700","1783.6099999978906","","","","7","complex_dissimilar","images/stimuli/spore_stims/complex_03_A_b.gif","middle","","","","",""
"","1226.3500000007916","pref_question","html-keyboard-response","151","271203","0.0-29.0","SS1612117478452","","51","","","<img src=images/stimuli/pokeballs_pref.jpg width =""800"" height = ""200"" style=""padding-top: 33%"">","3","right","7","","","","","","","",""
"","2615.474999998696","pref_reveal","sequential-stimulus-presentation","152","274529","0.0-30.0","SS1612117478452","","40","700","3315.474999998696","","","","7","","","","novel","","","",""
"","null","","html-keyboard-response","153","275511","0.0-31.0-0.0","SS1612117478452","","null","","","<p><img src= images/blank.png width =""200"" height = ""200"" style = ""float:right""></p><p><img src=images/blank.png width =""800"" height = ""200""></p>","","","","","","","","","","",""
"","2372.849999999744","trial","sequential-stimulus-presentation","154","278594","0.0-31.0-1.0","SS1612117478452","","40","700","3072.849999999744","","","","8","complex_dissimilar","images/stimuli/spore_stims/complex_05_B_a.gif","right","","","","",""
"","null","","html-keyboard-response","155","279755","0.0-31.0-0.1","SS1612117478452","","null","","","<p><img src= images/blank.png width =""200"" height = ""200"" style = ""float:right""></p><p><img src=images/blank.png width =""800"" height = ""200""></p>","","","","","","","","","","",""
"","2205.3649999980116","trial","sequential-stimulus-presentation","156","282672","0.0-31.0-1.1","SS1612117478452","","40","700","2905.3649999980116","","","","8","complex_dissimilar","images/stimuli/spore_stims/complex_05_B_a.gif","right","","","","",""
"","null","","html-keyboard-response","157","283657","0.0-31.0-0.2","SS1612117478452","","null","","","<p><img src= images/blank.png width =""200"" height = ""200"" style = ""float:right""></p><p><img src=images/blank.png width =""800"" height = ""200""></p>","","","","","","","","","","",""
"","2000.5749999982072","trial","sequential-stimulus-presentation","158","286366","0.0-31.0-1.2","SS1612117478452","","40","700","2700.574999998207","","","","8","complex_dissimilar","images/stimuli/spore_stims/complex_05_B_a.gif","right","","","","",""
"","null","","html-keyboard-response","159","287240","0.0-31.0-0.3","SS1612117478452","","null","","","<p><img src= images/blank.png width =""200"" height = ""200"" style = ""float:right""></p><p><img src=images/blank.png width =""800"" height = ""200""></p>","","","","","","","","","","",""
"","1123.765000000305","trial","sequential-stimulus-presentation","160","289073","0.0-31.0-1.3","SS1612117478452","","40","700","1823.765000000305","","","","8","complex_dissimilar","images/stimuli/spore_stims/complex_05_B_a.gif","right","","","","",""
"","null","","html-keyboard-response","161","290250","0.0-31.0-0.4","SS1612117478452","","null","","","<p><img src= images/blank.png width =""200"" height = ""200"" style = ""float:right""></p><p><img src=images/blank.png width =""800"" height = ""200""></p>","","","","","","","","","","",""
"","268.1350000020466","trial","sequential-stimulus-presentation","162","291227","0.0-31.0-1.4","SS1612117478452","","40","700","968.1350000020466","","","","8","complex_dissimilar","images/stimuli/spore_stims/complex_05_B_a.gif","right","","","","",""
"","null","","html-keyboard-response","163","292238","0.0-31.0-0.5","SS1612117478452","","null","","","<p><img src= images/blank.png width =""200"" height = ""200"" style = ""float:right""></p><p><img src=images/blank.png width =""800"" height = ""200""></p>","","","","","","","","","","",""
"","306.05500000092434","trial","sequential-stimulus-presentation","164","293250","0.0-31.0-1.5","SS1612117478452","","40","700","1006.0550000009243","","","","8","complex_dissimilar","images/stimuli/spore_stims/complex_05_B_a.gif","right","","","","",""
"","null","","html-keyboard-response","165","294145","0.0-31.0-0.6","SS1612117478452","","null","","","<p><img src= images/blank.png width =""200"" height = ""200"" style = ""float:right""></p><p><img src=images/blank.png width =""800"" height = ""200""></p>","","","","","","","","","","",""
"","256.05999999970663","trial","sequential-stimulus-presentation","166","295109","0.0-31.0-1.6","SS1612117478452","","40","700","956.0599999997066","","","","8","complex_dissimilar","images/stimuli/spore_stims/complex_05_B_a.gif","right","","","","",""
"","null","","html-keyboard-response","167","296281","0.0-31.0-0.7","SS1612117478452","","null","","","<p><img src= images/blank.png width =""200"" height = ""200"" style = ""float:right""></p><p><img src=images/blank.png width =""800"" height = ""200""></p>","","","","","","","","","","",""
"","412.8949999976903","trial","sequential-stimulus-presentation","168","297400","0.0-31.0-1.7","SS1612117478452","","40","700","1112.8949999976903","","","","8","complex_dissimilar","images/stimuli/spore_stims/complex_05_B_a.gif","right","","","","",""
"","null","","html-keyboard-response","169","298642","0.0-31.0-0.8","SS1612117478452","","null","","","<p><img src= images/blank.png width =""200"" height = ""200"" style = ""float:right""></p><p><img src=images/blank.png width =""800"" height = ""200""></p>","","","","","","","","","","",""
"","2268.9250000002794","trial","sequential-stimulus-presentation","170","301621","0.0-31.0-1.8","SS1612117478452","","40","700","2968.9250000002794","","","","8","complex_dissimilar","images/stimuli/spore_stims/complex_04_B_d.gif","left","","","","",""
"","1572.6400000021094","pref_question","html-keyboard-response","171","303197","0.0-32.0","SS1612117478452","","49","","","<img src=images/stimuli/pokeballs_pref.jpg width =""800"" height = ""200"" style=""padding-top: 33%"">","1","left","8","","","","","","","",""
"","2279.114999997546","pref_reveal","sequential-stimulus-presentation","172","306185","0.0-33.0","SS1612117478452","","40","700","2979.114999997546","","","","8","","","","deviant","","","",""
"","null","","html-keyboard-response","173","307156","0.0-34.0-0.0","SS1612117478452","","null","","","<p><img src= images/blank.png width =""200"" height = ""200"" style = ""float:right""></p><p><img src=images/blank.png width =""800"" height = ""200""></p>","","","","","","","","","","",""
"","2098.324999999022","trial","sequential-stimulus-presentation","174","309966","0.0-34.0-1.0","SS1612117478452","","40","700","2798.324999999022","","","","9","complex_similar","images/stimuli/spore_stims/complex_16_B_a.gif","left","","","","",""
"","null","","html-keyboard-response","175","310880","0.0-34.0-0.1","SS1612117478452","","null","","","<p><img src= images/blank.png width =""200"" height = ""200"" style = ""float:right""></p><p><img src=images/blank.png width =""800"" height = ""200""></p>","","","","","","","","","","",""
"","693.6900000000605","trial","sequential-stimulus-presentation","176","312284","0.0-34.0-1.1","SS1612117478452","","40","700","1393.6900000000605","","","","9","complex_similar","images/stimuli/spore_stims/complex_16_B_a.gif","left","","","","",""
"","null","","html-keyboard-response","177","313146","0.0-34.0-0.2","SS1612117478452","","null","","","<p><img src= images/blank.png width =""200"" height = ""200"" style = ""float:right""></p><p><img src=images/blank.png width =""800"" height = ""200""></p>","","","","","","","","","","",""
"","1169.6650000012596","trial","sequential-stimulus-presentation","178","315028","0.0-34.0-1.2","SS1612117478452","","40","700","1869.6650000012596","","","","9","complex_similar","images/stimuli/spore_stims/complex_16_B_a.gif","left","","","","",""
"","null","","html-keyboard-response","179","315880","0.0-34.0-0.3","SS1612117478452","","null","","","<p><img src= images/blank.png width =""200"" height = ""200"" style = ""float:right""></p><p><img src=images/blank.png width =""800"" height = ""200""></p>","","","","","","","","","","",""
"","897.6050000019022","trial","sequential-stimulus-presentation","180","317489","0.0-34.0-1.3","SS1612117478452","","40","700","1597.6050000019022","","","","9","complex_similar","images/stimuli/spore_stims/complex_16_A_a.gif","right","","","","",""
"","null","","html-keyboard-response","181","318297","0.0-34.0-0.4","SS1612117478452","","null","","","<p><img src= images/blank.png width =""200"" height = ""200"" style = ""float:right""></p><p><img src=images/blank.png width =""800"" height = ""200""></p>","","","","","","","","","","",""
"","386.0050000002957","trial","sequential-stimulus-presentation","182","319390","0.0-34.0-1.4","SS1612117478452","","40","700","1086.0050000002957","","","","9","complex_similar","images/stimuli/spore_stims/complex_16_B_a.gif","left","","","","",""
"","null","","html-keyboard-response","183","320670","0.0-34.0-0.5","SS1612117478452","","null","","","<p><img src= images/blank.png width =""200"" height = ""200"" style = ""float:right""></p><p><img src=images/blank.png width =""800"" height = ""200""></p>","","","","","","","","","","",""
"","4158.780000001541","trial","sequential-stimulus-presentation","184","325539","0.0-34.0-1.5","SS1612117478452","","40","700","4858.780000001541","","","","9","complex_similar","images/stimuli/spore_stims/complex_16_B_a.gif","left","","","","",""
"","null","","html-keyboard-response","185","326349","0.0-34.0-0.6","SS1612117478452","","null","","","<p><img src= images/blank.png width =""200"" height = ""200"" style = ""float:right""></p><p><img src=images/blank.png width =""800"" height = ""200""></p>","","","","","","","","","","",""
"","980.9350000032573","trial","sequential-stimulus-presentation","186","328035","0.0-34.0-1.6","SS1612117478452","","40","700","1680.9350000032573","","","","9","complex_similar","images/stimuli/spore_stims/complex_16_B_a.gif","left","","","","",""
"","null","","html-keyboard-response","187","329101","0.0-34.0-0.7","SS1612117478452","","null","","","<p><img src= images/blank.png width =""200"" height = ""200"" style = ""float:right""></p><p><img src=images/blank.png width =""800"" height = ""200""></p>","","","","","","","","","","",""
"","2945.6300000019837","trial","sequential-stimulus-presentation","188","332837","0.0-34.0-1.7","SS1612117478452","","40","700","3645.6300000019837","","","","9","complex_similar","images/stimuli/spore_stims/complex_16_B_a.gif","left","","","","",""
"","34915.05999999936","pref_question","html-keyboard-response","189","367754","0.0-35.0","SS1612117478452","","50","","","<img src=images/stimuli/pokeballs_pref.jpg width =""800"" height = ""200"" style=""padding-top: 33%"">","2","middle","9","","","","","","","",""
"","1318.8399999999674","pref_reveal","sequential-stimulus-presentation","190","369778","0.0-36.0","SS1612117478452","","40","700","2018.8399999999674","","","","9","","","","novel","","","",""
"","null","","html-keyboard-response","191","370711","0.0-37.0-0.0","SS1612117478452","","null","","","<p><img src= images/blank.png width =""200"" height = ""200"" style = ""float:right""></p><p><img src=images/blank.png width =""800"" height = ""200""></p>","","","","","","","","","","",""
"","6541.4549999986775","trial","sequential-stimulus-presentation","192","377960","0.0-37.0-1.0","SS1612117478452","","40","700","7241.4549999986775","","","","10","complex_dissimilar","images/stimuli/spore_stims/complex_09_A_a.gif","right","","","","",""
"","null","","html-keyboard-response","193","379018","0.0-37.0-0.1","SS1612117478452","","null","","","<p><img src= images/blank.png width =""200"" height = ""200"" style = ""float:right""></p><p><img src=images/blank.png width =""800"" height = ""200""></p>","","","","","","","","","","",""
"","3071.944999999716","trial","sequential-stimulus-presentation","194","382794","0.0-37.0-1.1","SS1612117478452","","40","700","3771.944999999716","","","","10","complex_dissimilar","images/stimuli/spore_stims/complex_09_A_a.gif","right","","","","",""
"","null","","html-keyboard-response","195","383694","0.0-37.0-0.2","SS1612117478452","","null","","","<p><img src= images/blank.png width =""200"" height = ""200"" style = ""float:right""></p><p><img src=images/blank.png width =""800"" height = ""200""></p>","","","","","","","","","","",""
"","1302.1399999997811","trial","sequential-stimulus-presentation","196","385704","0.0-37.0-1.2","SS1612117478452","","40","700","2002.1399999997811","","","","10","complex_dissimilar","images/stimuli/spore_stims/complex_09_A_a.gif","right","","","","",""
"","null","","html-keyboard-response","197","386860","0.0-37.0-0.3","SS1612117478452","","null","","","<p><img src= images/blank.png width =""200"" height = ""200"" style = ""float:right""></p><p><img src=images/blank.png width =""800"" height = ""200""></p>","","","","","","","","","","",""
"","1276.8099999993574","trial","sequential-stimulus-presentation","198","388845","0.0-37.0-1.3","SS1612117478452","","40","700","1976.8099999993574","","","","10","complex_dissimilar","images/stimuli/spore_stims/complex_09_A_a.gif","right","","","","",""
"","null","","html-keyboard-response","199","390110","0.0-37.0-0.4","SS1612117478452","","null","","","<p><img src= images/blank.png width =""200"" height = ""200"" style = ""float:right""></p><p><img src=images/blank.png width =""800"" height = ""200""></p>","","","","","","","","","","",""
"","1147.0200000003097","trial","sequential-stimulus-presentation","200","391965","0.0-37.0-1.4","SS1612117478452","","40","700","1847.0200000003097","","","","10","complex_dissimilar","images/stimuli/spore_stims/complex_09_A_a.gif","right","","","","",""
"","null","","html-keyboard-response","201","393183","0.0-37.0-0.5","SS1612117478452","","null","","","<p><img src= images/blank.png width =""200"" height = ""200"" style = ""float:right""></p><p><img src=images/blank.png width =""800"" height = ""200""></p>","","","","","","","","","","",""
"","1295.705000000482","trial","sequential-stimulus-presentation","202","395185","0.0-37.0-1.5","SS1612117478452","","40","700","1995.705000000482","","","","10","complex_dissimilar","images/stimuli/spore_stims/complex_01_B_a.gif","left","","","","",""
"","null","","html-keyboard-response","203","396096","0.0-37.0-0.6","SS1612117478452","","null","","","<p><img src= images/blank.png width =""200"" height = ""200"" style = ""float:right""></p><p><img src=images/blank.png width =""800"" height = ""200""></p>","","","","","","","","","","",""
"","5147.745000002033","trial","sequential-stimulus-presentation","204","401950","0.0-37.0-1.6","SS1612117478452","","40","700","5847.745000002033","","","","10","complex_dissimilar","images/stimuli/spore_stims/complex_09_A_a.gif","right","","","","",""
"","null","","html-keyboard-response","205","403252","0.0-37.0-0.7","SS1612117478452","","null","","","<p><img src= images/blank.png width =""200"" height = ""200"" style = ""float:right""></p><p><img src=images/blank.png width =""800"" height = ""200""></p>","","","","","","","","","","",""
"","560.9050000020652","trial","sequential-stimulus-presentation","206","404520","0.0-37.0-1.7","SS1612117478452","","40","700","1260.9050000020652","","","","10","complex_dissimilar","images/stimuli/spore_stims/complex_09_A_a.gif","right","","","","",""
"","3699.3150000016904","pref_question","html-keyboard-response","207","408222","0.0-38.0","SS1612117478452","","51","","","<img src=images/stimuli/pokeballs_pref.jpg width =""800"" height = ""200"" style=""padding-top: 33%"">","3","right","10","","","","","","","",""
"","2475.0500000008615","pref_reveal","sequential-stimulus-presentation","208","411405","0.0-39.0","SS1612117478452","","40","700","3175.0500000008615","","","","10","","","","background","","","",""
"","null","","html-keyboard-response","209","412605","0.0-40.0-0.0","SS1612117478452","","null","","","<p><img src= images/blank.png width =""200"" height = ""200"" style = ""float:right""></p><p><img src=images/blank.png width =""800"" height = ""200""></p>","","","","","","","","","","",""
"","839.2349999995204","trial","sequential-stimulus-presentation","210","414154","0.0-40.0-1.0","SS1612117478452","","40","700","1539.2349999995204","","","","11","simple_dissimilar","images/stimuli/spore_stims/simple_02_A_b.gif","right","","","","",""
"","null","","html-keyboard-response","211","415137","0.0-40.0-0.1","SS1612117478452","","null","","","<p><img src= images/blank.png width =""200"" height = ""200"" style = ""float:right""></p><p><img src=images/blank.png width =""800"" height = ""200""></p>","","","","","","","","","","",""
"","898.1249999996508","trial","sequential-stimulus-presentation","212","416740","0.0-40.0-1.1","SS1612117478452","","40","700","1598.1249999996508","","","","11","simple_dissimilar","images/stimuli/spore_stims/simple_02_A_b.gif","right","","","","",""
"","null","","html-keyboard-response","213","417921","0.0-40.0-0.2","SS1612117478452","","null","","","<p><img src= images/blank.png width =""200"" height = ""200"" style = ""float:right""></p><p><img src=images/blank.png width =""800"" height = ""200""></p>","","","","","","","","","","",""
"","966.309999999823","trial","sequential-stimulus-presentation","214","419595","0.0-40.0-1.2","SS1612117478452","","40","700","1666.309999999823","","","","11","simple_dissimilar","images/stimuli/spore_stims/simple_02_A_b.gif","right","","","","",""
"","null","","html-keyboard-response","215","420757","0.0-40.0-0.3","SS1612117478452","","null","","","<p><img src= images/blank.png width =""200"" height = ""200"" style = ""float:right""></p><p><img src=images/blank.png width =""800"" height = ""200""></p>","","","","","","","","","","",""
"","3259.1399999982677","trial","sequential-stimulus-presentation","216","424722","0.0-40.0-1.3","SS1612117478452","","40","700","3959.1399999982677","","","","11","simple_dissimilar","images/stimuli/spore_stims/simple_02_A_b.gif","right","","","","",""
"","null","","html-keyboard-response","217","425728","0.0-40.0-0.4","SS1612117478452","","null","","","<p><img src= images/blank.png width =""200"" height = ""200"" style = ""float:right""></p><p><img src=images/blank.png width =""800"" height = ""200""></p>","","","","","","","","","","",""
"","1624.6500000015367","trial","sequential-stimulus-presentation","218","428058","0.0-40.0-1.4","SS1612117478452","","40","700","2324.6500000015367","","","","11","simple_dissimilar","images/stimuli/spore_stims/simple_02_A_b.gif","right","","","","",""
"","null","","html-keyboard-response","219","429336","0.0-40.0-0.5","SS1612117478452","","null","","","<p><img src= images/blank.png width =""200"" height = ""200"" style = ""float:right""></p><p><img src=images/blank.png width =""800"" height = ""200""></p>","","","","","","","","","","",""
"","13316.085000002233","trial","sequential-stimulus-presentation","220","443357","0.0-40.0-1.5","SS1612117478452","","40","700","14016.085000002233","","","","11","simple_dissimilar","images/stimuli/spore_stims/simple_02_A_b.gif","right","","","","",""
"","null","","html-keyboard-response","221","444482","0.0-40.0-0.6","SS1612117478452","","null","","","<p><img src= images/blank.png width =""200"" height = ""200"" style = ""float:right""></p><p><img src=images/blank.png width =""800"" height = ""200""></p>","","","","","","","","","","",""
"","544.289999998","trial","sequential-stimulus-presentation","222","445733","0.0-40.0-1.6","SS1612117478452","","40","700","1244.289999998","","","","11","simple_dissimilar","images/stimuli/spore_stims/simple_02_A_b.gif","right","","","","",""
"","null","","html-keyboard-response","223","446889","0.0-40.0-0.7","SS1612117478452","","null","","","<p><img src= images/blank.png width =""200"" height = ""200"" style = ""float:right""></p><p><img src=images/blank.png width =""800"" height = ""200""></p>","","","","","","","","","","",""
"","635.3799999997136","trial","sequential-stimulus-presentation","224","448229","0.0-40.0-1.7","SS1612117478452","","40","700","1335.3799999997136","","","","11","simple_dissimilar","images/stimuli/spore_stims/simple_02_A_b.gif","right","","","","",""
"","null","","html-keyboard-response","225","449493","0.0-40.0-0.8","SS1612117478452","","null","","","<p><img src= images/blank.png width =""200"" height = ""200"" style = ""float:right""></p><p><img src=images/blank.png width =""800"" height = ""200""></p>","","","","","","","","","","",""
"","1469.3049999987707","trial","sequential-stimulus-presentation","226","451667","0.0-40.0-1.8","SS1612117478452","","40","700","2169.3049999987707","","","","11","simple_dissimilar","images/stimuli/spore_stims/simple_07_B_c.gif","left","","","","",""
"","3904.4600000015926","pref_question","html-keyboard-response","227","455575","0.0-41.0","SS1612117478452","","51","","","<img src=images/stimuli/pokeballs_pref.jpg width =""800"" height = ""200"" style=""padding-top: 33%"">","3","right","11","","","","","","","",""
"","3151.3750000012806","pref_reveal","sequential-stimulus-presentation","228","459432","0.0-42.0","SS1612117478452","","40","700","3851.3750000012806","","","","11","","","","background","","","",""
"","null","","html-keyboard-response","229","460461","0.0-43.0-0.0","SS1612117478452","","null","","","<p><img src= images/blank.png width =""200"" height = ""200"" style = ""float:right""></p><p><img src=images/blank.png width =""800"" height = ""200""></p>","","","","","","","","","","",""
"","6031.384999998438","trial","sequential-stimulus-presentation","230","467200","0.0-43.0-1.0","SS1612117478452","","40","700","6731.384999998438","","","","12","simple_dissimilar","images/stimuli/spore_stims/simple_19_B_a.gif","right","","","","",""
"","null","","html-keyboard-response","231","468125","0.0-43.0-0.1","SS1612117478452","","null","","","<p><img src= images/blank.png width =""200"" height = ""200"" style = ""float:right""></p><p><img src=images/blank.png width =""800"" height = ""200""></p>","","","","","","","","","","",""
"","4639.070000001055","trial","sequential-stimulus-presentation","232","473474","0.0-43.0-1.1","SS1612117478452","","40","700","5339.070000001055","","","","12","simple_dissimilar","images/stimuli/spore_stims/simple_19_B_a.gif","right","","","","",""
"","null","","html-keyboard-response","233","474604","0.0-43.0-0.2","SS1612117478452","","null","","","<p><img src= images/blank.png width =""200"" height = ""200"" style = ""float:right""></p><p><img src=images/blank.png width =""800"" height = ""200""></p>","","","","","","","","","","",""
"","6977.89499999996","trial","sequential-stimulus-presentation","234","482294","0.0-43.0-1.2","SS1612117478452","","40","700","7677.89499999996","","","","12","simple_dissimilar","images/stimuli/spore_stims/simple_19_B_a.gif","right","","","","",""
"","null","","html-keyboard-response","235","483177","0.0-43.0-0.3","SS1612117478452","","null","","","<p><img src= images/blank.png width =""200"" height = ""200"" style = ""float:right""></p><p><img src=images/blank.png width =""800"" height = ""200""></p>","","","","","","","","","","",""
"","2655.1650000001537","trial","sequential-stimulus-presentation","236","486540","0.0-43.0-1.3","SS1612117478452","","40","700","3355.1650000001537","","","","12","simple_dissimilar","images/stimuli/spore_stims/simple_18_A_d.gif","left","","","","",""
"","null","","html-keyboard-response","237","487527","0.0-43.0-0.4","SS1612117478452","","null","","","<p><img src= images/blank.png width =""200"" height = ""200"" style = ""float:right""></p><p><img src=images/blank.png width =""800"" height = ""200""></p>","","","","","","","","","","",""
"","509.43500000354834","trial","sequential-stimulus-presentation","238","488744","0.0-43.0-1.4","SS1612117478452","","40","700","1209.4350000035483","","","","12","simple_dissimilar","images/stimuli/spore_stims/simple_19_B_a.gif","right","","","","",""
"","null","","html-keyboard-response","239","489592","0.0-43.0-0.5","SS1612117478452","","null","","","<p><img src= images/blank.png width =""200"" height = ""200"" style = ""float:right""></p><p><img src=images/blank.png width =""800"" height = ""200""></p>","","","","","","","","","","",""
"","2210.465000000142","trial","sequential-stimulus-presentation","240","492510","0.0-43.0-1.5","SS1612117478452","","40","700","2910.465000000142","","","","12","simple_dissimilar","images/stimuli/spore_stims/simple_19_B_a.gif","right","","","","",""
"","null","","html-keyboard-response","241","493750","0.0-43.0-0.6","SS1612117478452","","null","","","<p><img src= images/blank.png width =""200"" height = ""200"" style = ""float:right""></p><p><img src=images/blank.png width =""800"" height = ""200""></p>","","","","","","","","","","",""
"","1297.3749999982538","trial","sequential-stimulus-presentation","242","495756","0.0-43.0-1.6","SS1612117478452","","40","700","1997.3749999982538","","","","12","simple_dissimilar","images/stimuli/spore_stims/simple_19_B_a.gif","right","","","","",""
"","null","","html-keyboard-response","243","497053","0.0-43.0-0.7","SS1612117478452","","null","","","<p><img src= images/blank.png width =""200"" height = ""200"" style = ""float:right""></p><p><img src=images/blank.png width =""800"" height = ""200""></p>","","","","","","","","","","",""
"","1581.6599999997998","trial","sequential-stimulus-presentation","244","499344","0.0-43.0-1.7","SS1612117478452","","40","700","2281.6599999997998","","","","12","simple_dissimilar","images/stimuli/spore_stims/simple_19_B_a.gif","right","","","","",""
"","7169.529999999213","pref_question","html-keyboard-response","245","506516","0.0-44.0","SS1612117478452","","51","","","<img src=images/stimuli/pokeballs_pref.jpg width =""800"" height = ""200"" style=""padding-top: 33%"">","3","right","12","","","","","","","",""
"","5858.984999998938","pref_reveal","sequential-stimulus-presentation","246","513080","0.0-45.0","SS1612117478452","","40","700","6558.984999998938","","","","12","","","","background","","","",""
"","null","","html-keyboard-response","247","514144","0.0-46.0-0.0","SS1612117478452","","null","","","<p><img src= images/blank.png width =""200"" height = ""200"" style = ""float:right""></p><p><img src=images/blank.png width =""800"" height = ""200""></p>","","","","","","","","","","",""
"","2873.4850000000442","trial","sequential-stimulus-presentation","248","517725","0.0-46.0-1.0","SS1612117478452","","40","700","3573.4850000000442","","","","13","simple_similar","images/stimuli/spore_stims/simple_13_A_a.gif","right","","","","",""
"","null","","html-keyboard-response","249","518647","0.0-46.0-0.1","SS1612117478452","","null","","","<p><img src= images/blank.png width =""200"" height = ""200"" style = ""float:right""></p><p><img src=images/blank.png width =""800"" height = ""200""></p>","","","","","","","","","","",""
"","530.7449999999953","trial","sequential-stimulus-presentation","250","519883","0.0-46.0-1.1","SS1612117478452","","40","700","1230.7449999999953","","","","13","simple_similar","images/stimuli/spore_stims/simple_13_A_a.gif","right","","","","",""
"","null","","html-keyboard-response","251","521002","0.0-46.0-0.2","SS1612117478452","","null","","","<p><img src= images/blank.png width =""200"" height = ""200"" style = ""float:right""></p><p><img src=images/blank.png width =""800"" height = ""200""></p>","","","","","","","","","","",""
"","369.184999999532","trial","sequential-stimulus-presentation","252","522080","0.0-46.0-1.2","SS1612117478452","","40","700","1069.184999999532","","","","13","simple_similar","images/stimuli/spore_stims/simple_13_A_a.gif","right","","","","",""
"","null","","html-keyboard-response","253","523066","0.0-46.0-0.3","SS1612117478452","","null","","","<p><img src= images/blank.png width =""200"" height = ""200"" style = ""float:right""></p><p><img src=images/blank.png width =""800"" height = ""200""></p>","","","","","","","","","","",""
"","812.9399999998277","trial","sequential-stimulus-presentation","254","524585","0.0-46.0-1.3","SS1612117478452","","40","700","1512.9399999998277","","","","13","simple_similar","images/stimuli/spore_stims/simple_13_B_a.gif","middle","","","","",""
"","null","","html-keyboard-response","255","525523","0.0-46.0-0.4","SS1612117478452","","null","","","<p><img src= images/blank.png width =""200"" height = ""200"" style = ""float:right""></p><p><img src=images/blank.png width =""800"" height = ""200""></p>","","","","","","","","","","",""
"","591.4999999987194","trial","sequential-stimulus-presentation","256","526823","0.0-46.0-1.4","SS1612117478452","","40","700","1291.4999999987194","","","","13","simple_similar","images/stimuli/spore_stims/simple_13_A_a.gif","right","","","","",""
"","null","","html-keyboard-response","257","527744","0.0-46.0-0.5","SS1612117478452","","null","","","<p><img src= images/blank.png width =""200"" height = ""200"" style = ""float:right""></p><p><img src=images/blank.png width =""800"" height = ""200""></p>","","","","","","","","","","",""
"","504.9400000026217","trial","sequential-stimulus-presentation","258","528957","0.0-46.0-1.5","SS1612117478452","","40","700","1204.9400000026217","","","","13","simple_similar","images/stimuli/spore_stims/simple_13_A_a.gif","right","","","","",""
"","null","","html-keyboard-response","259","529904","0.0-46.0-0.6","SS1612117478452","","null","","","<p><img src= images/blank.png width =""200"" height = ""200"" style = ""float:right""></p><p><img src=images/blank.png width =""800"" height = ""200""></p>","","","","","","","","","","",""
"","290.21999999904074","trial","sequential-stimulus-presentation","260","530903","0.0-46.0-1.6","SS1612117478452","","40","700","990.2199999990407","","","","13","simple_similar","images/stimuli/spore_stims/simple_13_A_a.gif","right","","","","",""
"","null","","html-keyboard-response","261","531750","0.0-46.0-0.7","SS1612117478452","","null","","","<p><img src= images/blank.png width =""200"" height = ""200"" style = ""float:right""></p><p><img src=images/blank.png width =""800"" height = ""200""></p>","","","","","","","","","","",""
"","280.7649999995483","trial","sequential-stimulus-presentation","262","532740","0.0-46.0-1.7","SS1612117478452","","40","700","980.7649999995483","","","","13","simple_similar","images/stimuli/spore_stims/simple_13_A_a.gif","right","","","","",""
"","1275.184999998659","pref_question","html-keyboard-response","263","534020","0.0-47.0","SS1612117478452","","50","","","<img src=images/stimuli/pokeballs_pref.jpg width =""800"" height = ""200"" style=""padding-top: 33%"">","2","middle","13","","","","","","","",""
"","1012.474999999511","pref_reveal","sequential-stimulus-presentation","264","535756","0.0-48.0","SS1612117478452","","40","700","1712.474999999511","","","","13","","","","deviant","","","",""
"","null","","html-keyboard-response","265","536685","0.0-49.0-0.0","SS1612117478452","","null","","","<p><img src= images/blank.png width =""200"" height = ""200"" style = ""float:right""></p><p><img src=images/blank.png width =""800"" height = ""200""></p>","","","","","","","","","","",""
"","1528.8149999978486","trial","sequential-stimulus-presentation","266","538921","0.0-49.0-1.0","SS1612117478452","","40","700","2228.8149999978486","","","","14","simple_similar","images/stimuli/spore_stims/simple_15_A_c.gif","right","","","","",""
"","null","","html-keyboard-response","267","540194","0.0-49.0-0.1","SS1612117478452","","null","","","<p><img src= images/blank.png width =""200"" height = ""200"" style = ""float:right""></p><p><img src=images/blank.png width =""800"" height = ""200""></p>","","","","","","","","","","",""
"","418.24000000266824","trial","sequential-stimulus-presentation","268","541319","0.0-49.0-1.1","SS1612117478452","","40","700","1118.2400000026682","","","","14","simple_similar","images/stimuli/spore_stims/simple_15_A_c.gif","right","","","","",""
"","null","","html-keyboard-response","269","542598","0.0-49.0-0.2","SS1612117478452","","null","","","<p><img src= images/blank.png width =""200"" height = ""200"" style = ""float:right""></p><p><img src=images/blank.png width =""800"" height = ""200""></p>","","","","","","","","","","",""
"","371.1399999993155","trial","sequential-stimulus-presentation","270","543676","0.0-49.0-1.2","SS1612117478452","","40","700","1071.1399999993155","","","","14","simple_similar","images/stimuli/spore_stims/simple_15_A_c.gif","right","","","","",""
"","null","","html-keyboard-response","271","544816","0.0-49.0-0.3","SS1612117478452","","null","","","<p><img src= images/blank.png width =""200"" height = ""200"" style = ""float:right""></p><p><img src=images/blank.png width =""800"" height = ""200""></p>","","","","","","","","","","",""
"","277.66499999770895","trial","sequential-stimulus-presentation","272","545803","0.0-49.0-1.3","SS1612117478452","","40","700","977.664999997709","","","","14","simple_similar","images/stimuli/spore_stims/simple_15_A_c.gif","right","","","","",""
"","null","","html-keyboard-response","273","546868","0.0-49.0-0.4","SS1612117478452","","null","","","<p><img src= images/blank.png width =""200"" height = ""200"" style = ""float:right""></p><p><img src=images/blank.png width =""800"" height = ""200""></p>","","","","","","","","","","",""
"","259.2449999975506","trial","sequential-stimulus-presentation","274","547836","0.0-49.0-1.4","SS1612117478452","","40","700","959.2449999975506","","","","14","simple_similar","images/stimuli/spore_stims/simple_15_A_c.gif","right","","","","",""
"","null","","html-keyboard-response","275","549089","0.0-49.0-0.5","SS1612117478452","","null","","","<p><img src= images/blank.png width =""200"" height = ""200"" style = ""float:right""></p><p><img src=images/blank.png width =""800"" height = ""200""></p>","","","","","","","","","","",""
"","1067.0700000009965","trial","sequential-stimulus-presentation","276","550863","0.0-49.0-1.5","SS1612117478452","","40","700","1767.0700000009965","","","","14","simple_similar","images/stimuli/spore_stims/simple_15_B_c.gif","middle","","","","",""
"","null","","html-keyboard-response","277","551861","0.0-49.0-0.6","SS1612117478452","","null","","","<p><img src= images/blank.png width =""200"" height = ""200"" style = ""float:right""></p><p><img src=images/blank.png width =""800"" height = ""200""></p>","","","","","","","","","","",""
"","2342.585000002058","trial","sequential-stimulus-presentation","278","554911","0.0-49.0-1.6","SS1612117478452","","40","700","3042.585000002058","","","","14","simple_similar","images/stimuli/spore_stims/simple_15_A_c.gif","right","","","","",""
"","null","","html-keyboard-response","279","555797","0.0-49.0-0.7","SS1612117478452","","null","","","<p><img src= images/blank.png width =""200"" height = ""200"" style = ""float:right""></p><p><img src=images/blank.png width =""800"" height = ""200""></p>","","","","","","","","","","",""
"","1657.7399999987101","trial","sequential-stimulus-presentation","280","558163","0.0-49.0-1.7","SS1612117478452","","40","700","2357.73999999871","","","","14","simple_similar","images/stimuli/spore_stims/simple_15_A_c.gif","right","","","","",""
"","3358.7899999984074","pref_question","html-keyboard-response","281","561526","0.0-50.0","SS1612117478452","","50","","","<img src=images/stimuli/pokeballs_pref.jpg width =""800"" height = ""200"" style=""padding-top: 33%"">","2","middle","14","","","","","","","",""
"","740.3400000003166","pref_reveal","sequential-stimulus-presentation","282","562971","0.0-51.0","SS1612117478452","","40","700","1440.3400000003166","","","","14","","","","deviant","","","",""
"","null","","html-keyboard-response","283","563826","0.0-52.0-0.0","SS1612117478452","","null","","","<p><img src= images/blank.png width =""200"" height = ""200"" style = ""float:right""></p><p><img src=images/blank.png width =""800"" height = ""200""></p>","","","","","","","","","","",""
"","2787.0550000006333","trial","sequential-stimulus-presentation","284","567319","0.0-52.0-1.0","SS1612117478452","","40","700","3487.0550000006333","","","","15","complex_similar","images/stimuli/spore_stims/complex_06_A_b.gif","left","","","","",""
"","null","","html-keyboard-response","285","568127","0.0-52.0-0.1","SS1612117478452","","null","","","<p><img src= images/blank.png width =""200"" height = ""200"" style = ""float:right""></p><p><img src=images/blank.png width =""800"" height = ""200""></p>","","","","","","","","","","",""
"","2104.865000001155","trial","sequential-stimulus-presentation","286","570939","0.0-52.0-1.1","SS1612117478452","","40","700","2804.865000001155","","","","15","complex_similar","images/stimuli/spore_stims/complex_06_A_b.gif","left","","","","",""
"","null","","html-keyboard-response","287","571940","0.0-52.0-0.2","SS1612117478452","","null","","","<p><img src= images/blank.png width =""200"" height = ""200"" style = ""float:right""></p><p><img src=images/blank.png width =""800"" height = ""200""></p>","","","","","","","","","","",""
"","1096.2200000029989","trial","sequential-stimulus-presentation","288","573741","0.0-52.0-1.2","SS1612117478452","","40","700","1796.2200000029989","","","","15","complex_similar","images/stimuli/spore_stims/complex_06_A_b.gif","left","","","","",""
"","null","","html-keyboard-response","289","574552","0.0-52.0-0.3","SS1612117478452","","null","","","<p><img src= images/blank.png width =""200"" height = ""200"" style = ""float:right""></p><p><img src=images/blank.png width =""800"" height = ""200""></p>","","","","","","","","","","",""
"","323.60500000137836","trial","sequential-stimulus-presentation","290","575582","0.0-52.0-1.3","SS1612117478452","","40","700","1023.6050000013784","","","","15","complex_similar","images/stimuli/spore_stims/complex_06_A_b.gif","left","","","","",""
"","null","","html-keyboard-response","291","576406","0.0-52.0-0.4","SS1612117478452","","null","","","<p><img src= images/blank.png width =""200"" height = ""200"" style = ""float:right""></p><p><img src=images/blank.png width =""800"" height = ""200""></p>","","","","","","","","","","",""
"","399.97500000020955","trial","sequential-stimulus-presentation","292","577512","0.0-52.0-1.4","SS1612117478452","","40","700","1099.9750000002095","","","","15","complex_similar","images/stimuli/spore_stims/complex_06_A_b.gif","left","","","","",""
"","null","","html-keyboard-response","293","578544","0.0-52.0-0.5","SS1612117478452","","null","","","<p><img src= images/blank.png width =""200"" height = ""200"" style = ""float:right""></p><p><img src=images/blank.png width =""800"" height = ""200""></p>","","","","","","","","","","",""
"","2746.3300000017043","trial","sequential-stimulus-presentation","294","582002","0.0-52.0-1.5","SS1612117478452","","40","700","3446.3300000017043","","","","15","complex_similar","images/stimuli/spore_stims/complex_06_A_b.gif","left","","","","",""
"","null","","html-keyboard-response","295","583101","0.0-52.0-0.6","SS1612117478452","","null","","","<p><img src= images/blank.png width =""200"" height = ""200"" style = ""float:right""></p><p><img src=images/blank.png width =""800"" height = ""200""></p>","","","","","","","","","","",""
"","1407.780000001425","trial","sequential-stimulus-presentation","296","585220","0.0-52.0-1.6","SS1612117478452","","40","700","2107.780000001425","","","","15","complex_similar","images/stimuli/spore_stims/complex_06_A_b.gif","left","","","","",""
"","null","","html-keyboard-response","297","586478","0.0-52.0-0.7","SS1612117478452","","null","","","<p><img src= images/blank.png width =""200"" height = ""200"" style = ""float:right""></p><p><img src=images/blank.png width =""800"" height = ""200""></p>","","","","","","","","","","",""
"","2700.110000001616","trial","sequential-stimulus-presentation","298","589894","0.0-52.0-1.7","SS1612117478452","","40","700","3400.110000001616","","","","15","complex_similar","images/stimuli/spore_stims/complex_06_B_b.gif","middle","","","","",""
"","1518.7100000001956","pref_question","html-keyboard-response","299","591418","0.0-53.0","SS1612117478452","","51","","","<img src=images/stimuli/pokeballs_pref.jpg width =""800"" height = ""200"" style=""padding-top: 33%"">","3","right","15","","","","","","","",""
"","1096.3200000005309","pref_reveal","sequential-stimulus-presentation","300","593226","0.0-54.0","SS1612117478452","","40","700","1796.3200000005309","","","","15","","","","novel","","","",""
"","null","","html-keyboard-response","301","594160","0.0-55.0-0.0","SS1612117478452","","null","","","<p><img src= images/blank.png width =""200"" height = ""200"" style = ""float:right""></p><p><img src=images/blank.png width =""800"" height = ""200""></p>","","","","","","","","","","",""
"","101.04000000131782","trial","sequential-stimulus-presentation","302","594967","0.0-55.0-1.0","SS1612117478452","","40","700","801.0400000013178","","","","16","simple_similar","images/stimuli/spore_stims/simple_20_B_a.gif","middle","","","","",""
"","null","","html-keyboard-response","303","595777","0.0-55.0-0.1","SS1612117478452","","null","","","<p><img src= images/blank.png width =""200"" height = ""200"" style = ""float:right""></p><p><img src=images/blank.png width =""800"" height = ""200""></p>","","","","","","","","","","",""
"","235.27499999909196","trial","sequential-stimulus-presentation","304","596719","0.0-55.0-1.1","SS1612117478452","","40","700","935.274999999092","","","","16","simple_similar","images/stimuli/spore_stims/simple_20_B_a.gif","middle","","","","",""
"","null","","html-keyboard-response","305","597762","0.0-55.0-0.2","SS1612117478452","","null","","","<p><img src= images/blank.png width =""200"" height = ""200"" style = ""float:right""></p><p><img src=images/blank.png width =""800"" height = ""200""></p>","","","","","","","","","","",""
"","244.6700000000419","trial","sequential-stimulus-presentation","306","598715","0.0-55.0-1.2","SS1612117478452","","40","700","944.6700000000419","","","","16","simple_similar","images/stimuli/spore_stims/simple_20_B_a.gif","middle","","","","",""
"","null","","html-keyboard-response","307","599927","0.0-55.0-0.3","SS1612117478452","","null","","","<p><img src= images/blank.png width =""200"" height = ""200"" style = ""float:right""></p><p><img src=images/blank.png width =""800"" height = ""200""></p>","","","","","","","","","","",""
"","29.605000003357418","trial","sequential-stimulus-presentation","308","600663","0.0-55.0-1.3","SS1612117478452","","40","700","729.6050000033574","","","","16","simple_similar","images/stimuli/spore_stims/simple_20_A_a.gif","left","","","","",""
"","null","","html-keyboard-response","309","601685","0.0-55.0-0.4","SS1612117478452","","null","","","<p><img src= images/blank.png width =""200"" height = ""200"" style = ""float:right""></p><p><img src=images/blank.png width =""800"" height = ""200""></p>","","","","","","","","","","",""
"","822.8999999992084","trial","sequential-stimulus-presentation","310","603214","0.0-55.0-1.4","SS1612117478452","","40","700","1522.8999999992084","","","","16","simple_similar","images/stimuli/spore_stims/simple_20_B_a.gif","middle","","","","",""
"","null","","html-keyboard-response","311","604125","0.0-55.0-0.5","SS1612117478452","","null","","","<p><img src= images/blank.png width =""200"" height = ""200"" style = ""float:right""></p><p><img src=images/blank.png width =""800"" height = ""200""></p>","","","","","","","","","","",""
"","574.850000000908","trial","sequential-stimulus-presentation","312","605407","0.0-55.0-1.5","SS1612117478452","","40","700","1274.850000000908","","","","16","simple_similar","images/stimuli/spore_stims/simple_20_B_a.gif","middle","","","","",""
"","null","","html-keyboard-response","313","606369","0.0-55.0-0.6","SS1612117478452","","null","","","<p><img src= images/blank.png width =""200"" height = ""200"" style = ""float:right""></p><p><img src=images/blank.png width =""800"" height = ""200""></p>","","","","","","","","","","",""
"","359.27000000083353","trial","sequential-stimulus-presentation","314","607435","0.0-55.0-1.6","SS1612117478452","","40","700","1059.2700000008335","","","","16","simple_similar","images/stimuli/spore_stims/simple_20_B_a.gif","middle","","","","",""
"","null","","html-keyboard-response","315","608418","0.0-55.0-0.7","SS1612117478452","","null","","","<p><img src= images/blank.png width =""200"" height = ""200"" style = ""float:right""></p><p><img src=images/blank.png width =""800"" height = ""200""></p>","","","","","","","","","","",""
"","341.4649999977555","trial","sequential-stimulus-presentation","316","609466","0.0-55.0-1.7","SS1612117478452","","40","700","1041.4649999977555","","","","16","simple_similar","images/stimuli/spore_stims/simple_20_B_a.gif","middle","","","","",""
"","1331.8900000012945","pref_question","html-keyboard-response","317","610802","0.0-56.0","SS1612117478452","","49","","","<img src=images/stimuli/pokeballs_pref.jpg width =""800"" height = ""200"" style=""padding-top: 33%"">","1","left","16","","","","","","","",""
"","1690.6099999978906","pref_reveal","sequential-stimulus-presentation","318","613204","0.0-57.0","SS1612117478452","","40","700","2390.6099999978906","","","","16","","","","deviant","","","",""
"","null","","html-keyboard-response","319","614457","0.0-58.0-0.0","SS1612117478452","","null","","","<p><img src= images/blank.png width =""200"" height = ""200"" style = ""float:right""></p><p><img src=images/blank.png width =""800"" height = ""200""></p>","","","","","","","","","","",""
"","529.3149999998277","trial","sequential-stimulus-presentation","320","615693","0.0-58.0-1.0","SS1612117478452","","40","700","1229.3149999998277","","","","17","complex_dissimilar","images/stimuli/spore_stims/complex_18_B_c.gif","middle","","","","",""
"","null","","html-keyboard-response","321","616587","0.0-58.0-0.1","SS1612117478452","","null","","","<p><img src= images/blank.png width =""200"" height = ""200"" style = ""float:right""></p><p><img src=images/blank.png width =""800"" height = ""200""></p>","","","","","","","","","","",""
"","1136.0450000029523","trial","sequential-stimulus-presentation","322","618432","0.0-58.0-1.1","SS1612117478452","","40","700","1836.0450000029523","","","","17","complex_dissimilar","images/stimuli/spore_stims/complex_18_B_c.gif","middle","","","","",""
"","null","","html-keyboard-response","323","619658","0.0-58.0-0.2","SS1612117478452","","null","","","<p><img src= images/blank.png width =""200"" height = ""200"" style = ""float:right""></p><p><img src=images/blank.png width =""800"" height = ""200""></p>","","","","","","","","","","",""
"","821.1599999995669","trial","sequential-stimulus-presentation","324","621186","0.0-58.0-1.2","SS1612117478452","","40","700","1521.159999999567","","","","17","complex_dissimilar","images/stimuli/spore_stims/complex_18_B_c.gif","middle","","","","",""
"","null","","html-keyboard-response","325","622047","0.0-58.0-0.3","SS1612117478452","","null","","","<p><img src= images/blank.png width =""200"" height = ""200"" style = ""float:right""></p><p><img src=images/blank.png width =""800"" height = ""200""></p>","","","","","","","","","","",""
"","1246.790000001085","trial","sequential-stimulus-presentation","326","624002","0.0-58.0-1.3","SS1612117478452","","40","700","1946.790000001085","","","","17","complex_dissimilar","images/stimuli/spore_stims/complex_18_B_c.gif","middle","","","","",""
"","null","","html-keyboard-response","327","624866","0.0-58.0-0.4","SS1612117478452","","null","","","<p><img src= images/blank.png width =""200"" height = ""200"" style = ""float:right""></p><p><img src=images/blank.png width =""800"" height = ""200""></p>","","","","","","","","","","",""
"","2473.995000000228","trial","sequential-stimulus-presentation","328","628050","0.0-58.0-1.4","SS1612117478452","","40","700","3173.995000000228","","","","17","complex_dissimilar","images/stimuli/spore_stims/complex_18_B_c.gif","middle","","","","",""
"","null","","html-keyboard-response","329","629232","0.0-58.0-0.5","SS1612117478452","","null","","","<p><img src= images/blank.png width =""200"" height = ""200"" style = ""float:right""></p><p><img src=images/blank.png width =""800"" height = ""200""></p>","","","","","","","","","","",""
"","3514.4900000013877","trial","sequential-stimulus-presentation","330","633457","0.0-58.0-1.5","SS1612117478452","","40","700","4214.490000001388","","","","17","complex_dissimilar","images/stimuli/spore_stims/complex_08_B_b.gif","right","","","","",""
"","null","","html-keyboard-response","331","634276","0.0-58.0-0.6","SS1612117478452","","null","","","<p><img src= images/blank.png width =""200"" height = ""200"" style = ""float:right""></p><p><img src=images/blank.png width =""800"" height = ""200""></p>","","","","","","","","","","",""
"","2068.825000002049","trial","sequential-stimulus-presentation","332","637053","0.0-58.0-1.6","SS1612117478452","","40","700","2768.825000002049","","","","17","complex_dissimilar","images/stimuli/spore_stims/complex_18_B_c.gif","middle","","","","",""
"","null","","html-keyboard-response","333","637970","0.0-58.0-0.7","SS1612117478452","","null","","","<p><img src= images/blank.png width =""200"" height = ""200"" style = ""float:right""></p><p><img src=images/blank.png width =""800"" height = ""200""></p>","","","","","","","","","","",""
"","4641.48000000196","trial","sequential-stimulus-presentation","334","643318","0.0-58.0-1.7","SS1612117478452","","40","700","5341.48000000196","","","","17","complex_dissimilar","images/stimuli/spore_stims/complex_18_B_c.gif","middle","","","","",""
"","3064.4050000009593","pref_question","html-keyboard-response","335","646387","0.0-59.0","SS1612117478452","","51","","","<img src=images/stimuli/pokeballs_pref.jpg width =""800"" height = ""200"" style=""padding-top: 33%"">","3","right","17","","","","","","","",""
"","4800.914999999804","pref_reveal","sequential-stimulus-presentation","336","651896","0.0-60.0","SS1612117478452","","40","700","5500.914999999804","","","","17","","","","deviant","","","",""
"","null","","html-keyboard-response","337","652883","0.0-61.0-0.0","SS1612117478452","","null","","","<p><img src= images/blank.png width =""200"" height = ""200"" style = ""float:right""></p><p><img src=images/blank.png width =""800"" height = ""200""></p>","","","","","","","","","","",""
"","2565.399999999441","trial","sequential-stimulus-presentation","338","656154","0.0-61.0-1.0","SS1612117478452","","40","700","3265.399999999441","","","","18","simple_similar","images/stimuli/spore_stims/simple_16_B_a.gif","middle","","","","",""
"","null","","html-keyboard-response","339","657081","0.0-61.0-0.1","SS1612117478452","","null","","","<p><img src= images/blank.png width =""200"" height = ""200"" style = ""float:right""></p><p><img src=images/blank.png width =""800"" height = ""200""></p>","","","","","","","","","","",""
"","696.2400000011548","trial","sequential-stimulus-presentation","340","658488","0.0-61.0-1.1","SS1612117478452","","40","700","1396.2400000011548","","","","18","simple_similar","images/stimuli/spore_stims/simple_16_B_a.gif","middle","","","","",""
"","null","","html-keyboard-response","341","659322","0.0-61.0-0.2","SS1612117478452","","null","","","<p><img src= images/blank.png width =""200"" height = ""200"" style = ""float:right""></p><p><img src=images/blank.png width =""800"" height = ""200""></p>","","","","","","","","","","",""
"","683.6150000017369","trial","sequential-stimulus-presentation","342","660712","0.0-61.0-1.2","SS1612117478452","","40","700","1383.615000001737","","","","18","simple_similar","images/stimuli/spore_stims/simple_16_B_a.gif","middle","","","","",""
"","null","","html-keyboard-response","343","661849","0.0-61.0-0.3","SS1612117478452","","null","","","<p><img src= images/blank.png width =""200"" height = ""200"" style = ""float:right""></p><p><img src=images/blank.png width =""800"" height = ""200""></p>","","","","","","","","","","",""
"","462.4199999998091","trial","sequential-stimulus-presentation","344","663018","0.0-61.0-1.3","SS1612117478452","","40","700","1162.419999999809","","","","18","simple_similar","images/stimuli/spore_stims/simple_16_B_a.gif","middle","","","","",""
"","null","","html-keyboard-response","345","664207","0.0-61.0-0.4","SS1612117478452","","null","","","<p><img src= images/blank.png width =""200"" height = ""200"" style = ""float:right""></p><p><img src=images/blank.png width =""800"" height = ""200""></p>","","","","","","","","","","",""
"","815.565000000759","trial","sequential-stimulus-presentation","346","665731","0.0-61.0-1.4","SS1612117478452","","40","700","1515.565000000759","","","","18","simple_similar","images/stimuli/spore_stims/simple_16_B_a.gif","middle","","","","",""
"","null","","html-keyboard-response","347","666935","0.0-61.0-0.5","SS1612117478452","","null","","","<p><img src= images/blank.png width =""200"" height = ""200"" style = ""float:right""></p><p><img src=images/blank.png width =""800"" height = ""200""></p>","","","","","","","","","","",""
"","1965.2399999977788","trial","sequential-stimulus-presentation","348","669606","0.0-61.0-1.5","SS1612117478452","","40","700","2665.239999997779","","","","18","simple_similar","images/stimuli/spore_stims/simple_16_B_a.gif","middle","","","","",""
"","null","","html-keyboard-response","349","670686","0.0-61.0-0.6","SS1612117478452","","null","","","<p><img src= images/blank.png width =""200"" height = ""200"" style = ""float:right""></p><p><img src=images/blank.png width =""800"" height = ""200""></p>","","","","","","","","","","",""
"","729.6950000019278","trial","sequential-stimulus-presentation","350","672127","0.0-61.0-1.6","SS1612117478452","","40","700","1429.6950000019278","","","","18","simple_similar","images/stimuli/spore_stims/simple_16_A_a.gif","left","","","","",""
"","null","","html-keyboard-response","351","673028","0.0-61.0-0.7","SS1612117478452","","null","","","<p><img src= images/blank.png width =""200"" height = ""200"" style = ""float:right""></p><p><img src=images/blank.png width =""800"" height = ""200""></p>","","","","","","","","","","",""
"","700.3599999988219","trial","sequential-stimulus-presentation","352","674439","0.0-61.0-1.7","SS1612117478452","","40","700","1400.3599999988219","","","","18","simple_similar","images/stimuli/spore_stims/simple_16_B_a.gif","middle","","","","",""
"","1533.4299999995856","pref_question","html-keyboard-response","353","675976","0.0-62.0","SS1612117478452","","49","","","<img src=images/stimuli/pokeballs_pref.jpg width =""800"" height = ""200"" style=""padding-top: 33%"">","1","left","18","","","","","","","",""
"","864.1900000002934","pref_reveal","sequential-stimulus-presentation","354","677551","0.0-63.0","SS1612117478452","","40","700","1564.1900000002934","","","","18","","","","deviant","","","",""
"","null","","html-keyboard-response","355","678633","0.0-64.0-0.0","SS1612117478452","","null","","","<p><img src= images/blank.png width =""200"" height = ""200"" style = ""float:right""></p><p><img src=images/blank.png width =""800"" height = ""200""></p>","","","","","","","","","","",""
"","500.28000000014435","trial","sequential-stimulus-presentation","356","679843","0.0-64.0-1.0","SS1612117478452","","40","700","1200.2800000001444","","","","19","simple_dissimilar","images/stimuli/spore_stims/simple_09_A_c.gif","right","","","","",""
"","null","","html-keyboard-response","357","680756","0.0-64.0-0.1","SS1612117478452","","null","","","<p><img src= images/blank.png width =""200"" height = ""200"" style = ""float:right""></p><p><img src=images/blank.png width =""800"" height = ""200""></p>","","","","","","","","","","",""
"","1107.014999997802","trial","sequential-stimulus-presentation","358","682569","0.0-64.0-1.1","SS1612117478452","","40","700","1807.014999997802","","","","19","simple_dissimilar","images/stimuli/spore_stims/simple_09_A_c.gif","right","","","","",""
"","null","","html-keyboard-response","359","683383","0.0-64.0-0.2","SS1612117478452","","null","","","<p><img src= images/blank.png width =""200"" height = ""200"" style = ""float:right""></p><p><img src=images/blank.png width =""800"" height = ""200""></p>","","","","","","","","","","",""
"","720.310000000638","trial","sequential-stimulus-presentation","360","684808","0.0-64.0-1.2","SS1612117478452","","40","700","1420.310000000638","","","","19","simple_dissimilar","images/stimuli/spore_stims/simple_09_A_c.gif","right","","","","",""
"","null","","html-keyboard-response","361","685765","0.0-64.0-0.3","SS1612117478452","","null","","","<p><img src= images/blank.png width =""200"" height = ""200"" style = ""float:right""></p><p><img src=images/blank.png width =""800"" height = ""200""></p>","","","","","","","","","","",""
"","635.8950000030454","trial","sequential-stimulus-presentation","362","687112","0.0-64.0-1.3","SS1612117478452","","40","700","1335.8950000030454","","","","19","simple_dissimilar","images/stimuli/spore_stims/simple_09_A_c.gif","right","","","","",""
"","null","","html-keyboard-response","363","688122","0.0-64.0-0.4","SS1612117478452","","null","","","<p><img src= images/blank.png width =""200"" height = ""200"" style = ""float:right""></p><p><img src=images/blank.png width =""800"" height = ""200""></p>","","","","","","","","","","",""
"","716.340000002645","trial","sequential-stimulus-presentation","364","689546","0.0-64.0-1.4","SS1612117478452","","40","700","1416.340000002645","","","","19","simple_dissimilar","images/stimuli/spore_stims/simple_09_A_c.gif","right","","","","",""
"","null","","html-keyboard-response","365","690397","0.0-64.0-0.5","SS1612117478452","","null","","","<p><img src= images/blank.png width =""200"" height = ""200"" style = ""float:right""></p><p><img src=images/blank.png width =""800"" height = ""200""></p>","","","","","","","","","","",""
"","731.6700000010896","trial","sequential-stimulus-presentation","366","691840","0.0-64.0-1.5","SS1612117478452","","40","700","1431.6700000010896","","","","19","simple_dissimilar","images/stimuli/spore_stims/simple_09_A_c.gif","right","","","","",""
"","null","","html-keyboard-response","367","693036","0.0-64.0-0.6","SS1612117478452","","null","","","<p><img src= images/blank.png width =""200"" height = ""200"" style = ""float:right""></p><p><img src=images/blank.png width =""800"" height = ""200""></p>","","","","","","","","","","",""
"","622.9700000003213","trial","sequential-stimulus-presentation","368","694370","0.0-64.0-1.6","SS1612117478452","","40","700","1322.9700000003213","","","","19","simple_dissimilar","images/stimuli/spore_stims/simple_09_A_c.gif","right","","","","",""
"","null","","html-keyboard-response","369","695241","0.0-64.0-0.7","SS1612117478452","","null","","","<p><img src= images/blank.png width =""200"" height = ""200"" style = ""float:right""></p><p><img src=images/blank.png width =""800"" height = ""200""></p>","","","","","","","","","","",""
"","1391.9249999999302","trial","sequential-stimulus-presentation","370","697339","0.0-64.0-1.7","SS1612117478452","","40","700","2091.92499999993","","","","19","simple_dissimilar","images/stimuli/spore_stims/simple_09_A_c.gif","right","","","","",""
