"view_history","rt","stimulus_type","trial_type","trial_index","time_elapsed","internal_node_id","subject","trial_stimulus","key_press","minimum_viewing_duration","trial_looking_time","stimulus","ball_pref","location","block_number","block_type","stimulus_displayed","position_displayed","stim_type_selected","responses","question_order","stimulus_left","stimulus_right"
"[{""page_index"":0,""viewing_time"":218840.36999999807},{""page_index"":1,""viewing_time"":639.2699999996694}]","219481.8249999953","instructions","instructions","0","219485","0.0-0.0","SS1612117450475","","","","","","","","","","","","","","","",""
"","5411.59499999776","","sequential-stimulus-presentation","1","225807","0.0-1.0","SS1612117450475","","40","900","6311.59499999776","","","","","","","","","","","",""
"","387.5199999965844","","sequential-stimulus-presentation","2","227102","0.0-2.0","SS1612117450475","","40","900","1287.5199999965844","","","","","","","","","","","",""
"[{""page_index"":0,""viewing_time"":1931.6949999993085}]","1932.215000000724","instructions","instructions","3","229035","0.0-3.0","SS1612117450475","","","","","","","","","","","","","","","",""
"","1071.9950000056997","instructions","html-keyboard-response","4","230111","0.0-4.0","SS1612117450475","","49","","","<img src=images/stimuli/pokeballs_pref.jpg width =""800"" height = ""200"" style=""padding-top: 33%"">","1","left","","","","","","","","",""
"","340.0850000034552","pref_reveal","sequential-stimulus-presentation","5","231358","0.0-5.0","SS1612117450475","","40","900","1240.0850000034552","","","","","","","","","","","",""
"[{""page_index"":0,""viewing_time"":1833.4499999982654},{""page_index"":1,""viewing_time"":1489.51500000112},{""page_index"":2,""viewing_time"":783.9349999994738},{""page_index"":3,""viewing_time"":856.115000002319}]","4963.544999998703","instructions","instructions","6","236324","0.0-6.0","SS1612117450475","","","","","","","","","","","","","","","",""
"","null","","html-keyboard-response","7","237269","0.0-7.0-0.0","SS1612117450475","","null","","","<p><img src= images/blank.png width =""200"" height = ""200"" style = ""float:right""></p><p><img src=images/blank.png width =""800"" height = ""200""></p>","","","","","","","","","","",""
"","323.22500000009313","trial","sequential-stimulus-presentation","8","238302","0.0-7.0-1.0","SS1612117450475","","40","700","1023.2250000000931","","","","0","complex_dissimilar","images/stimuli/spore_stims/complex_14_A_a.gif","left","","","","",""
"","null","","html-keyboard-response","9","239131","0.0-7.0-0.1","SS1612117450475","","null","","","<p><img src= images/blank.png width =""200"" height = ""200"" style = ""float:right""></p><p><img src=images/blank.png width =""800"" height = ""200""></p>","","","","","","","","","","",""
"","363.45999999321066","trial","sequential-stimulus-presentation","10","240200","0.0-7.0-1.1","SS1612117450475","","40","700","1063.4599999932107","","","","0","complex_dissimilar","images/stimuli/spore_stims/complex_14_A_a.gif","left","","","","",""
"","null","","html-keyboard-response","11","241208","0.0-7.0-0.2","SS1612117450475","","null","","","<p><img src= images/blank.png width =""200"" height = ""200"" style = ""float:right""></p><p><img src=images/blank.png width =""800"" height = ""200""></p>","","","","","","","","","","",""
"","819.6900000039022","trial","sequential-stimulus-presentation","12","242733","0.0-7.0-1.2","SS1612117450475","","40","700","1519.6900000039022","","","","0","complex_dissimilar","images/stimuli/spore_stims/complex_14_A_a.gif","left","","","","",""
"","null","","html-keyboard-response","13","243815","0.0-7.0-0.3","SS1612117450475","","null","","","<p><img src= images/blank.png width =""200"" height = ""200"" style = ""float:right""></p><p><img src=images/blank.png width =""800"" height = ""200""></p>","","","","","","","","","","",""
"","822.0050000018091","trial","sequential-stimulus-presentation","14","245343","0.0-7.0-1.3","SS1612117450475","","40","700","1522.005000001809","","","","0","complex_dissimilar","images/stimuli/spore_stims/complex_14_A_a.gif","left","","","","",""
"","null","","html-keyboard-response","15","246367","0.0-7.0-0.4","SS1612117450475","","null","","","<p><img src= images/blank.png width =""200"" height = ""200"" style = ""float:right""></p><p><img src=images/blank.png width =""800"" height = ""200""></p>","","","","","","","","","","",""
"","348.9499999996042","trial","sequential-stimulus-presentation","16","247422","0.0-7.0-1.4","SS1612117450475","","40","700","1048.9499999996042","","","","0","complex_dissimilar","images/stimuli/spore_stims/complex_14_A_a.gif","left","","","","",""
"","null","","html-keyboard-response","17","248662","0.0-7.0-0.5","SS1612117450475","","null","","","<p><img src= images/blank.png width =""200"" height = ""200"" style = ""float:right""></p><p><img src=images/blank.png width =""800"" height = ""200""></p>","","","","","","","","","","",""
"","347.6250000021537","trial","sequential-stimulus-presentation","18","249718","0.0-7.0-1.5","SS1612117450475","","40","700","1047.6250000021537","","","","0","complex_dissimilar","images/stimuli/spore_stims/complex_14_A_a.gif","left","","","","",""
"","null","","html-keyboard-response","19","250534","0.0-7.0-0.6","SS1612117450475","","null","","","<p><img src= images/blank.png width =""200"" height = ""200"" style = ""float:right""></p><p><img src=images/blank.png width =""800"" height = ""200""></p>","","","","","","","","","","",""
"","320.8100000047125","trial","sequential-stimulus-presentation","20","251563","0.0-7.0-1.6","SS1612117450475","","40","700","1020.8100000047125","","","","0","complex_dissimilar","images/stimuli/spore_stims/complex_14_A_a.gif","left","","","","",""
"","null","","html-keyboard-response","21","252815","0.0-7.0-0.7","SS1612117450475","","null","","","<p><img src= images/blank.png width =""200"" height = ""200"" style = ""float:right""></p><p><img src=images/blank.png width =""800"" height = ""200""></p>","","","","","","","","","","",""
"","411.0149999978603","trial","sequential-stimulus-presentation","22","253935","0.0-7.0-1.7","SS1612117450475","","40","700","1111.0149999978603","","","","0","complex_dissimilar","images/stimuli/spore_stims/complex_02_A_a.gif","middle","","","","",""
"","1084.2499999998836","pref_question","html-keyboard-response","23","255023","0.0-8.0","SS1612117450475","","51","","","<img src=images/stimuli/pokeballs_pref.jpg width =""800"" height = ""200"" style=""padding-top: 33%"">","3","right","0","","","","","","","",""
"","383.5800000015297","pref_reveal","sequential-stimulus-presentation","24","256111","0.0-9.0","SS1612117450475","","40","700","1083.5800000015297","","","","0","","","","novel","","","",""
"","null","","html-keyboard-response","25","257293","0.0-10.0-0.0","SS1612117450475","","null","","","<p><img src= images/blank.png width =""200"" height = ""200"" style = ""float:right""></p><p><img src=images/blank.png width =""800"" height = ""200""></p>","","","","","","","","","","",""
"","452.7799999996205","trial","sequential-stimulus-presentation","26","258454","0.0-10.0-1.0","SS1612117450475","","40","700","1152.7799999996205","","","","1","simple_similar","images/stimuli/spore_stims/simple_14_B_b.gif","right","","","","",""
"","null","","html-keyboard-response","27","259525","0.0-10.0-0.1","SS1612117450475","","null","","","<p><img src= images/blank.png width =""200"" height = ""200"" style = ""float:right""></p><p><img src=images/blank.png width =""800"" height = ""200""></p>","","","","","","","","","","",""
"","372.90500000381144","trial","sequential-stimulus-presentation","28","260605","0.0-10.0-1.1","SS1612117450475","","40","700","1072.9050000038114","","","","1","simple_similar","images/stimuli/spore_stims/simple_14_B_b.gif","right","","","","",""
"","null","","html-keyboard-response","29","261665","0.0-10.0-0.2","SS1612117450475","","null","","","<p><img src= images/blank.png width =""200"" height = ""200"" style = ""float:right""></p><p><img src=images/blank.png width =""800"" height = ""200""></p>","","","","","","","","","","",""
"","331.5100000036182","trial","sequential-stimulus-presentation","30","262704","0.0-10.0-1.2","SS1612117450475","","40","700","1031.5100000036182","","","","1","simple_similar","images/stimuli/spore_stims/simple_14_B_b.gif","right","","","","",""
"","null","","html-keyboard-response","31","263567","0.0-10.0-0.3","SS1612117450475","","null","","","<p><img src= images/blank.png width =""200"" height = ""200"" style = ""float:right""></p><p><img src=images/blank.png width =""800"" height = ""200""></p>","","","","","","","","","","",""
"","908.1799999985378","trial","sequential-stimulus-presentation","32","265183","0.0-10.0-1.3","SS1612117450475","","40","700","1608.1799999985378","","","","1","simple_similar","images/stimuli/spore_stims/simple_14_B_b.gif","right","","","","",""
"","null","","html-keyboard-response","33","266367","0.0-10.0-0.4","SS1612117450475","","null","","","<p><img src= images/blank.png width =""200"" height = ""200"" style = ""float:right""></p><p><img src=images/blank.png width =""800"" height = ""200""></p>","","","","","","","","","","",""
"","393.95499999955064","trial","sequential-stimulus-presentation","34","267468","0.0-10.0-1.4","SS1612117450475","","40","700","1093.9549999995506","","","","1","simple_similar","images/stimuli/spore_stims/simple_14_B_b.gif","right","","","","",""
"","null","","html-keyboard-response","35","268665","0.0-10.0-0.5","SS1612117450475","","null","","","<p><img src= images/blank.png width =""200"" height = ""200"" style = ""float:right""></p><p><img src=images/blank.png width =""800"" height = ""200""></p>","","","","","","","","","","",""
"","344.2750000031083","trial","sequential-stimulus-presentation","36","269719","0.0-10.0-1.5","SS1612117450475","","40","700","1044.2750000031083","","","","1","simple_similar","images/stimuli/spore_stims/simple_14_B_b.gif","right","","","","",""
"","null","","html-keyboard-response","37","270888","0.0-10.0-0.6","SS1612117450475","","null","","","<p><img src= images/blank.png width =""200"" height = ""200"" style = ""float:right""></p><p><img src=images/blank.png width =""800"" height = ""200""></p>","","","","","","","","","","",""
"","428.3599999980652","trial","sequential-stimulus-presentation","38","272026","0.0-10.0-1.6","SS1612117450475","","40","700","1128.3599999980652","","","","1","simple_similar","images/stimuli/spore_stims/simple_14_A_b.gif","left","","","","",""
"","null","","html-keyboard-response","39","273138","0.0-10.0-0.7","SS1612117450475","","null","","","<p><img src= images/blank.png width =""200"" height = ""200"" style = ""float:right""></p><p><img src=images/blank.png width =""800"" height = ""200""></p>","","","","","","","","","","",""
"","498.3650000067428","trial","sequential-stimulus-presentation","40","274344","0.0-10.0-1.7","SS1612117450475","","40","700","1198.3650000067428","","","","1","simple_similar","images/stimuli/spore_stims/simple_14_B_b.gif","right","","","","",""
"","1019.8999999993248","pref_question","html-keyboard-response","41","275367","0.0-11.0","SS1612117450475","","49","","","<img src=images/stimuli/pokeballs_pref.jpg width =""800"" height = ""200"" style=""padding-top: 33%"">","1","left","1","","","","","","","",""
"","377.5499999974272","pref_reveal","sequential-stimulus-presentation","42","276455","0.0-12.0","SS1612117450475","","40","700","1077.5499999974272","","","","1","","","","deviant","","","",""
"","null","","html-keyboard-response","43","277312","0.0-13.0-0.0","SS1612117450475","","null","","","<p><img src= images/blank.png width =""200"" height = ""200"" style = ""float:right""></p><p><img src=images/blank.png width =""800"" height = ""200""></p>","","","","","","","","","","",""
"","322.56999999663094","trial","sequential-stimulus-presentation","44","278341","0.0-13.0-1.0","SS1612117450475","","40","700","1022.5699999966309","","","","2","complex_similar","images/stimuli/spore_stims/complex_16_A_c.gif","middle","","","","",""
"","null","","html-keyboard-response","45","279313","0.0-13.0-0.1","SS1612117450475","","null","","","<p><img src= images/blank.png width =""200"" height = ""200"" style = ""float:right""></p><p><img src=images/blank.png width =""800"" height = ""200""></p>","","","","","","","","","","",""
"","200.7850000009057","trial","sequential-stimulus-presentation","46","280223","0.0-13.0-1.1","SS1612117450475","","40","700","900.7850000009057","","","","2","complex_similar","images/stimuli/spore_stims/complex_16_A_c.gif","middle","","","","",""
"","null","","html-keyboard-response","47","281269","0.0-13.0-0.2","SS1612117450475","","null","","","<p><img src= images/blank.png width =""200"" height = ""200"" style = ""float:right""></p><p><img src=images/blank.png width =""800"" height = ""200""></p>","","","","","","","","","","",""
"","170.19500000606058","trial","sequential-stimulus-presentation","48","282148","0.0-13.0-1.2","SS1612117450475","","40","700","870.1950000060606","","","","2","complex_similar","images/stimuli/spore_stims/complex_16_A_c.gif","middle","","","","",""
"","null","","html-keyboard-response","49","283011","0.0-13.0-0.3","SS1612117450475","","null","","","<p><img src= images/blank.png width =""200"" height = ""200"" style = ""float:right""></p><p><img src=images/blank.png width =""800"" height = ""200""></p>","","","","","","","","","","",""
"","678.9900000003399","trial","sequential-stimulus-presentation","50","284397","0.0-13.0-1.3","SS1612117450475","","40","700","1378.99000000034","","","","2","complex_similar","images/stimuli/spore_stims/complex_16_B_c.gif","left","","","","",""
"","null","","html-keyboard-response","51","285606","0.0-13.0-0.4","SS1612117450475","","null","","","<p><img src= images/blank.png width =""200"" height = ""200"" style = ""float:right""></p><p><img src=images/blank.png width =""800"" height = ""200""></p>","","","","","","","","","","",""
"","257.4650000024121","trial","sequential-stimulus-presentation","52","286574","0.0-13.0-1.4","SS1612117450475","","40","700","957.4650000024121","","","","2","complex_similar","images/stimuli/spore_stims/complex_16_A_c.gif","middle","","","","",""
"","null","","html-keyboard-response","53","287502","0.0-13.0-0.5","SS1612117450475","","null","","","<p><img src= images/blank.png width =""200"" height = ""200"" style = ""float:right""></p><p><img src=images/blank.png width =""800"" height = ""200""></p>","","","","","","","","","","",""
"","501.51500000356464","trial","sequential-stimulus-presentation","54","288712","0.0-13.0-1.5","SS1612117450475","","40","700","1201.5150000035646","","","","2","complex_similar","images/stimuli/spore_stims/complex_16_A_c.gif","middle","","","","",""
"","null","","html-keyboard-response","55","289806","0.0-13.0-0.6","SS1612117450475","","null","","","<p><img src= images/blank.png width =""200"" height = ""200"" style = ""float:right""></p><p><img src=images/blank.png width =""800"" height = ""200""></p>","","","","","","","","","","",""
"","468.2600000014645","trial","sequential-stimulus-presentation","56","290983","0.0-13.0-1.6","SS1612117450475","","40","700","1168.2600000014645","","","","2","complex_similar","images/stimuli/spore_stims/complex_16_A_c.gif","middle","","","","",""
"","null","","html-keyboard-response","57","292091","0.0-13.0-0.7","SS1612117450475","","null","","","<p><img src= images/blank.png width =""200"" height = ""200"" style = ""float:right""></p><p><img src=images/blank.png width =""800"" height = ""200""></p>","","","","","","","","","","",""
"","229.50999999738997","trial","sequential-stimulus-presentation","58","293028","0.0-13.0-1.7","SS1612117450475","","40","700","929.50999999739","","","","2","complex_similar","images/stimuli/spore_stims/complex_16_A_c.gif","middle","","","","",""
"","719.969999998284","pref_question","html-keyboard-response","59","293750","0.0-14.0","SS1612117450475","","49","","","<img src=images/stimuli/pokeballs_pref.jpg width =""800"" height = ""200"" style=""padding-top: 33%"">","1","left","2","","","","","","","",""
"","629.7349999949802","pref_reveal","sequential-stimulus-presentation","60","295088","0.0-15.0","SS1612117450475","","40","700","1329.7349999949802","","","","2","","","","deviant","","","",""
"","null","","html-keyboard-response","61","296122","0.0-16.0-0.0","SS1612117450475","","null","","","<p><img src= images/blank.png width =""200"" height = ""200"" style = ""float:right""></p><p><img src=images/blank.png width =""800"" height = ""200""></p>","","","","","","","","","","",""
"","301.2700000035693","trial","sequential-stimulus-presentation","62","297134","0.0-16.0-1.0","SS1612117450475","","40","700","1001.2700000035693","","","","3","complex_dissimilar","images/stimuli/spore_stims/complex_07_A_b.gif","right","","","","",""
"","null","","html-keyboard-response","63","298245","0.0-16.0-0.1","SS1612117450475","","null","","","<p><img src= images/blank.png width =""200"" height = ""200"" style = ""float:right""></p><p><img src=images/blank.png width =""800"" height = ""200""></p>","","","","","","","","","","",""
"","330.6550000052084","trial","sequential-stimulus-presentation","64","299287","0.0-16.0-1.1","SS1612117450475","","40","700","1030.6550000052084","","","","3","complex_dissimilar","images/stimuli/spore_stims/complex_07_A_b.gif","right","","","","",""
"","null","","html-keyboard-response","65","300243","0.0-16.0-0.2","SS1612117450475","","null","","","<p><img src= images/blank.png width =""200"" height = ""200"" style = ""float:right""></p><p><img src=images/blank.png width =""800"" height = ""200""></p>","","","","","","","","","","",""
"","857.5049999999464","trial","sequential-stimulus-presentation","66","301829","0.0-16.0-1.2","SS1612117450475","","40","700","1557.5049999999464","","","","3","complex_dissimilar","images/stimuli/spore_stims/complex_07_A_b.gif","right","","","","",""
"","null","","html-keyboard-response","67","303100","0.0-16.0-0.3","SS1612117450475","","null","","","<p><img src= images/blank.png width =""200"" height = ""200"" style = ""float:right""></p><p><img src=images/blank.png width =""800"" height = ""200""></p>","","","","","","","","","","",""
"","429.50000000564614","trial","sequential-stimulus-presentation","68","304239","0.0-16.0-1.3","SS1612117450475","","40","700","1129.5000000056461","","","","3","complex_dissimilar","images/stimuli/spore_stims/complex_07_A_b.gif","right","","","","",""
"","null","","html-keyboard-response","69","305375","0.0-16.0-0.4","SS1612117450475","","null","","","<p><img src= images/blank.png width =""200"" height = ""200"" style = ""float:right""></p><p><img src=images/blank.png width =""800"" height = ""200""></p>","","","","","","","","","","",""
"","372.0099999991362","trial","sequential-stimulus-presentation","70","306456","0.0-16.0-1.4","SS1612117450475","","40","700","1072.0099999991362","","","","3","complex_dissimilar","images/stimuli/spore_stims/complex_14_B_b.gif","middle","","","","",""
"","null","","html-keyboard-response","71","307341","0.0-16.0-0.5","SS1612117450475","","null","","","<p><img src= images/blank.png width =""200"" height = ""200"" style = ""float:right""></p><p><img src=images/blank.png width =""800"" height = ""200""></p>","","","","","","","","","","",""
"","421.3249999957043","trial","sequential-stimulus-presentation","72","308471","0.0-16.0-1.5","SS1612117450475","","40","700","1121.3249999957043","","","","3","complex_dissimilar","images/stimuli/spore_stims/complex_07_A_b.gif","right","","","","",""
"","null","","html-keyboard-response","73","309437","0.0-16.0-0.6","SS1612117450475","","null","","","<p><img src= images/blank.png width =""200"" height = ""200"" style = ""float:right""></p><p><img src=images/blank.png width =""800"" height = ""200""></p>","","","","","","","","","","",""
"","6802.52499999915","trial","sequential-stimulus-presentation","74","316951","0.0-16.0-1.6","SS1612117450475","","40","700","7502.52499999915","","","","3","complex_dissimilar","images/stimuli/spore_stims/complex_07_A_b.gif","right","","","","",""
"","null","","html-keyboard-response","75","318177","0.0-16.0-0.7","SS1612117450475","","null","","","<p><img src= images/blank.png width =""200"" height = ""200"" style = ""float:right""></p><p><img src=images/blank.png width =""800"" height = ""200""></p>","","","","","","","","","","",""
"","313.0200000014156","trial","sequential-stimulus-presentation","76","319197","0.0-16.0-1.7","SS1612117450475","","40","700","1013.0200000014156","","","","3","complex_dissimilar","images/stimuli/spore_stims/complex_07_A_b.gif","right","","","","",""
"","1108.4700000064913","pref_question","html-keyboard-response","77","320309","0.0-17.0","SS1612117450475","","50","","","<img src=images/stimuli/pokeballs_pref.jpg width =""800"" height = ""200"" style=""padding-top: 33%"">","2","middle","3","","","","","","","",""
"","484.4100000045728","pref_reveal","sequential-stimulus-presentation","78","321502","0.0-18.0","SS1612117450475","","40","700","1184.4100000045728","","","","3","","","","deviant","","","",""
"","null","","html-keyboard-response","79","322505","0.0-19.0-0.0","SS1612117450475","","null","","","<p><img src= images/blank.png width =""200"" height = ""200"" style = ""float:right""></p><p><img src=images/blank.png width =""800"" height = ""200""></p>","","","","","","","","","","",""
"","1033.9499999972759","trial","sequential-stimulus-presentation","80","324248","0.0-19.0-1.0","SS1612117450475","","40","700","1733.9499999972759","","","","4","simple_similar","images/stimuli/spore_stims/simple_04_B_c.gif","right","","","","",""
"","null","","html-keyboard-response","81","325091","0.0-19.0-0.1","SS1612117450475","","null","","","<p><img src= images/blank.png width =""200"" height = ""200"" style = ""float:right""></p><p><img src=images/blank.png width =""800"" height = ""200""></p>","","","","","","","","","","",""
"","508.8900000046124","trial","sequential-stimulus-presentation","82","326310","0.0-19.0-1.1","SS1612117450475","","40","700","1208.8900000046124","","","","4","simple_similar","images/stimuli/spore_stims/simple_04_B_c.gif","right","","","","",""
"","null","","html-keyboard-response","83","327543","0.0-19.0-0.2","SS1612117450475","","null","","","<p><img src= images/blank.png width =""200"" height = ""200"" style = ""float:right""></p><p><img src=images/blank.png width =""800"" height = ""200""></p>","","","","","","","","","","",""
"","205.44499999959953","trial","sequential-stimulus-presentation","84","328454","0.0-19.0-1.2","SS1612117450475","","40","700","905.4449999995995","","","","4","simple_similar","images/stimuli/spore_stims/simple_04_B_c.gif","right","","","","",""
"","null","","html-keyboard-response","85","329445","0.0-19.0-0.3","SS1612117450475","","null","","","<p><img src= images/blank.png width =""200"" height = ""200"" style = ""float:right""></p><p><img src=images/blank.png width =""800"" height = ""200""></p>","","","","","","","","","","",""
"","647.9499999986729","trial","sequential-stimulus-presentation","86","330802","0.0-19.0-1.3","SS1612117450475","","40","700","1347.9499999986729","","","","4","simple_similar","images/stimuli/spore_stims/simple_04_B_c.gif","right","","","","",""
"","null","","html-keyboard-response","87","331756","0.0-19.0-0.4","SS1612117450475","","null","","","<p><img src= images/blank.png width =""200"" height = ""200"" style = ""float:right""></p><p><img src=images/blank.png width =""800"" height = ""200""></p>","","","","","","","","","","",""
"","211.30499999708263","trial","sequential-stimulus-presentation","88","332678","0.0-19.0-1.4","SS1612117450475","","40","700","911.3049999970826","","","","4","simple_similar","images/stimuli/spore_stims/simple_04_B_c.gif","right","","","","",""
"","null","","html-keyboard-response","89","333906","0.0-19.0-0.5","SS1612117450475","","null","","","<p><img src= images/blank.png width =""200"" height = ""200"" style = ""float:right""></p><p><img src=images/blank.png width =""800"" height = ""200""></p>","","","","","","","","","","",""
"","482.6050000046962","trial","sequential-stimulus-presentation","90","335095","0.0-19.0-1.5","SS1612117450475","","40","700","1182.6050000046962","","","","4","simple_similar","images/stimuli/spore_stims/simple_04_B_c.gif","right","","","","",""
"","null","","html-keyboard-response","91","336305","0.0-19.0-0.6","SS1612117450475","","null","","","<p><img src= images/blank.png width =""200"" height = ""200"" style = ""float:right""></p><p><img src=images/blank.png width =""800"" height = ""200""></p>","","","","","","","","","","",""
"","374.4399999995949","trial","sequential-stimulus-presentation","92","337388","0.0-19.0-1.6","SS1612117450475","","40","700","1074.4399999995949","","","","4","simple_similar","images/stimuli/spore_stims/simple_04_B_c.gif","right","","","","",""
"","null","","html-keyboard-response","93","338687","0.0-19.0-0.7","SS1612117450475","","null","","","<p><img src= images/blank.png width =""200"" height = ""200"" style = ""float:right""></p><p><img src=images/blank.png width =""800"" height = ""200""></p>","","","","","","","","","","",""
"","372.83000000024913","trial","sequential-stimulus-presentation","94","339769","0.0-19.0-1.7","SS1612117450475","","40","700","1072.8300000002491","","","","4","simple_similar","images/stimuli/spore_stims/simple_04_B_c.gif","right","","","","",""
"","null","","html-keyboard-response","95","340643","0.0-19.0-0.8","SS1612117450475","","null","","","<p><img src= images/blank.png width =""200"" height = ""200"" style = ""float:right""></p><p><img src=images/blank.png width =""800"" height = ""200""></p>","","","","","","","","","","",""
"","325.9849999958533","trial","sequential-stimulus-presentation","96","341678","0.0-19.0-1.8","SS1612117450475","","40","700","1025.9849999958533","","","","4","simple_similar","images/stimuli/spore_stims/simple_04_A_c.gif","middle","","","","",""
"","1173.6850000015693","pref_question","html-keyboard-response","97","342855","0.0-20.0","SS1612117450475","","51","","","<img src=images/stimuli/pokeballs_pref.jpg width =""800"" height = ""200"" style=""padding-top: 33%"">","3","right","4","","","","","","","",""
"","417.54499999660766","pref_reveal","sequential-stimulus-presentation","98","343983","0.0-21.0","SS1612117450475","","40","700","1117.5449999966077","","","","4","","","","background","","","",""
"","null","","html-keyboard-response","99","345154","0.0-22.0-0.0","SS1612117450475","","null","","","<p><img src= images/blank.png width =""200"" height = ""200"" style = ""float:right""></p><p><img src=images/blank.png width =""800"" height = ""200""></p>","","","","","","","","","","",""
"","1378.5600000046543","trial","sequential-stimulus-presentation","100","347239","0.0-22.0-1.0","SS1612117450475","","40","700","2078.5600000046543","","","","5","complex_similar","images/stimuli/spore_stims/complex_19_A_b.gif","left","","","","",""
"","null","","html-keyboard-response","101","348227","0.0-22.0-0.1","SS1612117450475","","null","","","<p><img src= images/blank.png width =""200"" height = ""200"" style = ""float:right""></p><p><img src=images/blank.png width =""800"" height = ""200""></p>","","","","","","","","","","",""
"","623.0999999970663","trial","sequential-stimulus-presentation","102","349557","0.0-22.0-1.1","SS1612117450475","","40","700","1323.0999999970663","","","","5","complex_similar","images/stimuli/spore_stims/complex_19_A_b.gif","left","","","","",""
"","null","","html-keyboard-response","103","350598","0.0-22.0-0.2","SS1612117450475","","null","","","<p><img src= images/blank.png width =""200"" height = ""200"" style = ""float:right""></p><p><img src=images/blank.png width =""800"" height = ""200""></p>","","","","","","","","","","",""
"","263.729999998759","trial","sequential-stimulus-presentation","104","351568","0.0-22.0-1.2","SS1612117450475","","40","700","963.729999998759","","","","5","complex_similar","images/stimuli/spore_stims/complex_19_A_b.gif","left","","","","",""
"","null","","html-keyboard-response","105","352834","0.0-22.0-0.3","SS1612117450475","","null","","","<p><img src= images/blank.png width =""200"" height = ""200"" style = ""float:right""></p><p><img src=images/blank.png width =""800"" height = ""200""></p>","","","","","","","","","","",""
"","1126.8500000005588","trial","sequential-stimulus-presentation","106","354670","0.0-22.0-1.3","SS1612117450475","","40","700","1826.8500000005588","","","","5","complex_similar","images/stimuli/spore_stims/complex_19_A_b.gif","left","","","","",""
"","null","","html-keyboard-response","107","355837","0.0-22.0-0.4","SS1612117450475","","null","","","<p><img src= images/blank.png width =""200"" height = ""200"" style = ""float:right""></p><p><img src=images/blank.png width =""800"" height = ""200""></p>","","","","","","","","","","",""
"","272.55999999761116","trial","sequential-stimulus-presentation","108","356820","0.0-22.0-1.4","SS1612117450475","","40","700","972.5599999976112","","","","5","complex_similar","images/stimuli/spore_stims/complex_19_B_b.gif","middle","","","","",""
"","null","","html-keyboard-response","109","357960","0.0-22.0-0.5","SS1612117450475","","null","","","<p><img src= images/blank.png width =""200"" height = ""200"" style = ""float:right""></p><p><img src=images/blank.png width =""800"" height = ""200""></p>","","","","","","","","","","",""
"","403.2450000013341","trial","sequential-stimulus-presentation","110","359072","0.0-22.0-1.5","SS1612117450475","","40","700","1103.2450000013341","","","","5","complex_similar","images/stimuli/spore_stims/complex_19_A_b.gif","left","","","","",""
"","null","","html-keyboard-response","111","360174","0.0-22.0-0.6","SS1612117450475","","null","","","<p><img src= images/blank.png width =""200"" height = ""200"" style = ""float:right""></p><p><img src=images/blank.png width =""800"" height = ""200""></p>","","","","","","","","","","",""
"","681.4200000007986","trial","sequential-stimulus-presentation","112","361564","0.0-22.0-1.6","SS1612117450475","","40","700","1381.4200000007986","","","","5","complex_similar","images/stimuli/spore_stims/complex_19_A_b.gif","left","","","","",""
"","null","","html-keyboard-response","113","362793","0.0-22.0-0.7","SS1612117450475","","null","","","<p><img src= images/blank.png width =""200"" height = ""200"" style = ""float:right""></p><p><img src=images/blank.png width =""800"" height = ""200""></p>","","","","","","","","","","",""
"","74.05999999900814","trial","sequential-stimulus-presentation","114","363575","0.0-22.0-1.7","SS1612117450475","","40","700","774.0599999990081","","","","5","complex_similar","images/stimuli/spore_stims/complex_19_A_b.gif","left","","","","",""
"","1026.4750000060303","pref_question","html-keyboard-response","115","364606","0.0-23.0","SS1612117450475","","49","","","<img src=images/stimuli/pokeballs_pref.jpg width =""800"" height = ""200"" style=""padding-top: 33%"">","1","left","5","","","","","","","",""
"","363.70500000339234","pref_reveal","sequential-stimulus-presentation","116","365695","0.0-24.0","SS1612117450475","","40","700","1063.7050000033923","","","","5","","","","background","","","",""
"","null","","html-keyboard-response","117","366668","0.0-25.0-0.0","SS1612117450475","","null","","","<p><img src= images/blank.png width =""200"" height = ""200"" style = ""float:right""></p><p><img src=images/blank.png width =""800"" height = ""200""></p>","","","","","","","","","","",""
"","344.83999999793014","trial","sequential-stimulus-presentation","118","367724","0.0-25.0-1.0","SS1612117450475","","40","700","1044.8399999979301","","","","6","simple_dissimilar","images/stimuli/spore_stims/simple_08_A_c.gif","left","","","","",""
"","null","","html-keyboard-response","119","368734","0.0-25.0-0.1","SS1612117450475","","null","","","<p><img src= images/blank.png width =""200"" height = ""200"" style = ""float:right""></p><p><img src=images/blank.png width =""800"" height = ""200""></p>","","","","","","","","","","",""
"","182.184999997844","trial","sequential-stimulus-presentation","120","369626","0.0-25.0-1.1","SS1612117450475","","40","700","882.184999997844","","","","6","simple_dissimilar","images/stimuli/spore_stims/simple_08_A_c.gif","left","","","","",""
"","null","","html-keyboard-response","121","370781","0.0-25.0-0.2","SS1612117450475","","null","","","<p><img src= images/blank.png width =""200"" height = ""200"" style = ""float:right""></p><p><img src=images/blank.png width =""800"" height = ""200""></p>","","","","","","","","","","",""
"","759.409999998752","trial","sequential-stimulus-presentation","122","372247","0.0-25.0-1.2","SS1612117450475","","40","700","1459.409999998752","","","","6","simple_dissimilar","images/stimuli/spore_stims/simple_08_A_c.gif","left","","","","",""
"","null","","html-keyboard-response","123","373246","0.0-25.0-0.3","SS1612117450475","","null","","","<p><img src= images/blank.png width =""200"" height = ""200"" style = ""float:right""></p><p><img src=images/blank.png width =""800"" height = ""200""></p>","","","","","","","","","","",""
"","358.1099999937578","trial","sequential-stimulus-presentation","124","374311","0.0-25.0-1.3","SS1612117450475","","40","700","1058.1099999937578","","","","6","simple_dissimilar","images/stimuli/spore_stims/simple_08_A_c.gif","left","","","","",""
"","null","","html-keyboard-response","125","375127","0.0-25.0-0.4","SS1612117450475","","null","","","<p><img src= images/blank.png width =""200"" height = ""200"" style = ""float:right""></p><p><img src=images/blank.png width =""800"" height = ""200""></p>","","","","","","","","","","",""
"","587.3149999970337","trial","sequential-stimulus-presentation","126","376424","0.0-25.0-1.4","SS1612117450475","","40","700","1287.3149999970337","","","","6","simple_dissimilar","images/stimuli/spore_stims/simple_08_A_c.gif","left","","","","",""
"","null","","html-keyboard-response","127","377299","0.0-25.0-0.5","SS1612117450475","","null","","","<p><img src= images/blank.png width =""200"" height = ""200"" style = ""float:right""></p><p><img src=images/blank.png width =""800"" height = ""200""></p>","","","","","","","","","","",""
"","235.67000000184635","trial","sequential-stimulus-presentation","128","378238","0.0-25.0-1.5","SS1612117450475","","40","700","935.6700000018463","","","","6","simple_dissimilar","images/stimuli/spore_stims/simple_08_A_c.gif","left","","","","",""
"","null","","html-keyboard-response","129","379393","0.0-25.0-0.6","SS1612117450475","","null","","","<p><img src= images/blank.png width =""200"" height = ""200"" style = ""float:right""></p><p><img src=images/blank.png width =""800"" height = ""200""></p>","","","","","","","","","","",""
"","1031.8400000032852","trial","sequential-stimulus-presentation","130","381134","0.0-25.0-1.6","SS1612117450475","","40","700","1731.8400000032852","","","","6","simple_dissimilar","images/stimuli/spore_stims/simple_08_A_c.gif","left","","","","",""
"","null","","html-keyboard-response","131","382387","0.0-25.0-0.7","SS1612117450475","","null","","","<p><img src= images/blank.png width =""200"" height = ""200"" style = ""float:right""></p><p><img src=images/blank.png width =""800"" height = ""200""></p>","","","","","","","","","","",""
"","161.39499999553664","trial","sequential-stimulus-presentation","132","383255","0.0-25.0-1.7","SS1612117450475","","40","700","861.3949999955366","","","","6","simple_dissimilar","images/stimuli/spore_stims/simple_08_A_c.gif","left","","","","",""
"","null","","html-keyboard-response","133","384482","0.0-25.0-0.8","SS1612117450475","","null","","","<p><img src= images/blank.png width =""200"" height = ""200"" style = ""float:right""></p><p><img src=images/blank.png width =""800"" height = ""200""></p>","","","","","","","","","","",""
"","271.9950000027893","trial","sequential-stimulus-presentation","134","385465","0.0-25.0-1.8","SS1612117450475","","40","700","971.9950000027893","","","","6","simple_dissimilar","images/stimuli/spore_stims/simple_05_B_d.gif","middle","","","","",""
"","936.744999999064","pref_question","html-keyboard-response","135","386407","0.0-26.0","SS1612117450475","","49","","","<img src=images/stimuli/pokeballs_pref.jpg width =""800"" height = ""200"" style=""padding-top: 33%"">","1","left","6","","","","","","","",""
"","328.48999999987427","pref_reveal","sequential-stimulus-presentation","136","387446","0.0-27.0","SS1612117450475","","40","700","1028.4899999998743","","","","6","","","","background","","","",""
"","null","","html-keyboard-response","137","388563","0.0-28.0-0.0","SS1612117450475","","null","","","<p><img src= images/blank.png width =""200"" height = ""200"" style = ""float:right""></p><p><img src=images/blank.png width =""800"" height = ""200""></p>","","","","","","","","","","",""
"","492.5749999965774","trial","sequential-stimulus-presentation","138","389764","0.0-28.0-1.0","SS1612117450475","","40","700","1192.5749999965774","","","","7","simple_dissimilar","images/stimuli/spore_stims/simple_17_A_b.gif","right","","","","",""
"","null","","html-keyboard-response","139","390769","0.0-28.0-0.1","SS1612117450475","","null","","","<p><img src= images/blank.png width =""200"" height = ""200"" style = ""float:right""></p><p><img src=images/blank.png width =""800"" height = ""200""></p>","","","","","","","","","","",""
"","857.9150000005029","trial","sequential-stimulus-presentation","140","392336","0.0-28.0-1.1","SS1612117450475","","40","700","1557.915000000503","","","","7","simple_dissimilar","images/stimuli/spore_stims/simple_17_A_b.gif","right","","","","",""
"","null","","html-keyboard-response","141","393524","0.0-28.0-0.2","SS1612117450475","","null","","","<p><img src= images/blank.png width =""200"" height = ""200"" style = ""float:right""></p><p><img src=images/blank.png width =""800"" height = ""200""></p>","","","","","","","","","","",""
"","759.0150000032736","trial","sequential-stimulus-presentation","142","394990","0.0-28.0-1.2","SS1612117450475","","40","700","1459.0150000032736","","","","7","simple_dissimilar","images/stimuli/spore_stims/simple_17_A_b.gif","right","","","","",""
"","null","","html-keyboard-response","143","396225","0.0-28.0-0.3","SS1612117450475","","null","","","<p><img src= images/blank.png width =""200"" height = ""200"" style = ""float:right""></p><p><img src=images/blank.png width =""800"" height = ""200""></p>","","","","","","","","","","",""
"","551.7849999960163","trial","sequential-stimulus-presentation","144","397489","0.0-28.0-1.3","SS1612117450475","","40","700","1251.7849999960163","","","","7","simple_dissimilar","images/stimuli/spore_stims/simple_17_A_b.gif","right","","","","",""
"","null","","html-keyboard-response","145","398451","0.0-28.0-0.4","SS1612117450475","","null","","","<p><img src= images/blank.png width =""200"" height = ""200"" style = ""float:right""></p><p><img src=images/blank.png width =""800"" height = ""200""></p>","","","","","","","","","","",""
"","524.3800000025658","trial","sequential-stimulus-presentation","146","399686","0.0-28.0-1.4","SS1612117450475","","40","700","1224.3800000025658","","","","7","simple_dissimilar","images/stimuli/spore_stims/simple_17_A_b.gif","right","","","","",""
"","null","","html-keyboard-response","147","400730","0.0-28.0-0.5","SS1612117450475","","null","","","<p><img src= images/blank.png width =""200"" height = ""200"" style = ""float:right""></p><p><img src=images/blank.png width =""800"" height = ""200""></p>","","","","","","","","","","",""
"","239.67000000266125","trial","sequential-stimulus-presentation","148","401678","0.0-28.0-1.5","SS1612117450475","","40","700","939.6700000026613","","","","7","simple_dissimilar","images/stimuli/spore_stims/simple_17_A_b.gif","right","","","","",""
"","null","","html-keyboard-response","149","402684","0.0-28.0-0.6","SS1612117450475","","null","","","<p><img src= images/blank.png width =""200"" height = ""200"" style = ""float:right""></p><p><img src=images/blank.png width =""800"" height = ""200""></p>","","","","","","","","","","",""
"","398.87499999895226","trial","sequential-stimulus-presentation","150","403792","0.0-28.0-1.6","SS1612117450475","","40","700","1098.8749999989523","","","","7","simple_dissimilar","images/stimuli/spore_stims/simple_17_A_b.gif","right","","","","",""
"","null","","html-keyboard-response","151","404843","0.0-28.0-0.7","SS1612117450475","","null","","","<p><img src= images/blank.png width =""200"" height = ""200"" style = ""float:right""></p><p><img src=images/blank.png width =""800"" height = ""200""></p>","","","","","","","","","","",""
"","526.5149999977439","trial","sequential-stimulus-presentation","152","406078","0.0-28.0-1.7","SS1612117450475","","40","700","1226.5149999977439","","","","7","simple_dissimilar","images/stimuli/spore_stims/simple_02_B_d.gif","middle","","","","",""
"","1150.0700000033248","pref_question","html-keyboard-response","153","407232","0.0-29.0","SS1612117450475","","51","","","<img src=images/stimuli/pokeballs_pref.jpg width =""800"" height = ""200"" style=""padding-top: 33%"">","3","right","7","","","","","","","",""
"","553.0249999937951","pref_reveal","sequential-stimulus-presentation","154","408497","0.0-30.0","SS1612117450475","","40","700","1253.024999993795","","","","7","","","","background","","","",""
"","null","","html-keyboard-response","155","409543","0.0-31.0-0.0","SS1612117450475","","null","","","<p><img src= images/blank.png width =""200"" height = ""200"" style = ""float:right""></p><p><img src=images/blank.png width =""800"" height = ""200""></p>","","","","","","","","","","",""
"","448.30000000365544","trial","sequential-stimulus-presentation","156","410700","0.0-31.0-1.0","SS1612117450475","","40","700","1148.3000000036554","","","","8","complex_similar","images/stimuli/spore_stims/complex_07_B_a.gif","right","","","","",""
"","null","","html-keyboard-response","157","411743","0.0-31.0-0.1","SS1612117450475","","null","","","<p><img src= images/blank.png width =""200"" height = ""200"" style = ""float:right""></p><p><img src=images/blank.png width =""800"" height = ""200""></p>","","","","","","","","","","",""
"","402.46500000648666","trial","sequential-stimulus-presentation","158","412857","0.0-31.0-1.1","SS1612117450475","","40","700","1102.4650000064867","","","","8","complex_similar","images/stimuli/spore_stims/complex_07_B_a.gif","right","","","","",""
"","null","","html-keyboard-response","159","414014","0.0-31.0-0.2","SS1612117450475","","null","","","<p><img src= images/blank.png width =""200"" height = ""200"" style = ""float:right""></p><p><img src=images/blank.png width =""800"" height = ""200""></p>","","","","","","","","","","",""
"","423.5100000005332","trial","sequential-stimulus-presentation","160","415149","0.0-31.0-1.2","SS1612117450475","","40","700","1123.5100000005332","","","","8","complex_similar","images/stimuli/spore_stims/complex_07_B_a.gif","right","","","","",""
"","null","","html-keyboard-response","161","416016","0.0-31.0-0.3","SS1612117450475","","null","","","<p><img src= images/blank.png width =""200"" height = ""200"" style = ""float:right""></p><p><img src=images/blank.png width =""800"" height = ""200""></p>","","","","","","","","","","",""
"","360.5549999992945","trial","sequential-stimulus-presentation","162","417085","0.0-31.0-1.3","SS1612117450475","","40","700","1060.5549999992945","","","","8","complex_similar","images/stimuli/spore_stims/complex_07_B_a.gif","right","","","","",""
"","null","","html-keyboard-response","163","418177","0.0-31.0-0.4","SS1612117450475","","null","","","<p><img src= images/blank.png width =""200"" height = ""200"" style = ""float:right""></p><p><img src=images/blank.png width =""800"" height = ""200""></p>","","","","","","","","","","",""
"","337.0999999970081","trial","sequential-stimulus-presentation","164","419222","0.0-31.0-1.4","SS1612117450475","","40","700","1037.0999999970081","","","","8","complex_similar","images/stimuli/spore_stims/complex_07_A_a.gif","left","","","","",""
"","null","","html-keyboard-response","165","420471","0.0-31.0-0.5","SS1612117450475","","null","","","<p><img src= images/blank.png width =""200"" height = ""200"" style = ""float:right""></p><p><img src=images/blank.png width =""800"" height = ""200""></p>","","","","","","","","","","",""
"","327.48500000161584","trial","sequential-stimulus-presentation","166","421510","0.0-31.0-1.5","SS1612117450475","","40","700","1027.4850000016158","","","","8","complex_similar","images/stimuli/spore_stims/complex_07_B_a.gif","right","","","","",""
"","null","","html-keyboard-response","167","422816","0.0-31.0-0.6","SS1612117450475","","null","","","<p><img src= images/blank.png width =""200"" height = ""200"" style = ""float:right""></p><p><img src=images/blank.png width =""800"" height = ""200""></p>","","","","","","","","","","",""
"","719.4749999980559","trial","sequential-stimulus-presentation","168","424248","0.0-31.0-1.6","SS1612117450475","","40","700","1419.4749999980559","","","","8","complex_similar","images/stimuli/spore_stims/complex_07_B_a.gif","right","","","","",""
"","null","","html-keyboard-response","169","425278","0.0-31.0-0.7","SS1612117450475","","null","","","<p><img src= images/blank.png width =""200"" height = ""200"" style = ""float:right""></p><p><img src=images/blank.png width =""800"" height = ""200""></p>","","","","","","","","","","",""
"","474.1600000052131","trial","sequential-stimulus-presentation","170","426461","0.0-31.0-1.7","SS1612117450475","","40","700","1174.160000005213","","","","8","complex_similar","images/stimuli/spore_stims/complex_07_B_a.gif","right","","","","",""
"","1150.2200000031735","pref_question","html-keyboard-response","171","427616","0.0-32.0","SS1612117450475","","49","","","<img src=images/stimuli/pokeballs_pref.jpg width =""800"" height = ""200"" style=""padding-top: 33%"">","1","left","8","","","","","","","",""
"","236.51999999856343","pref_reveal","sequential-stimulus-presentation","172","428559","0.0-33.0","SS1612117450475","","40","700","936.5199999985634","","","","8","","","","deviant","","","",""
"","null","","html-keyboard-response","173","429774","0.0-34.0-0.0","SS1612117450475","","null","","","<p><img src= images/blank.png width =""200"" height = ""200"" style = ""float:right""></p><p><img src=images/blank.png width =""800"" height = ""200""></p>","","","","","","","","","","",""
"","1299.670000000333","trial","sequential-stimulus-presentation","174","431784","0.0-34.0-1.0","SS1612117450475","","40","700","1999.670000000333","","","","9","complex_dissimilar","images/stimuli/spore_stims/complex_03_B_b.gif","right","","","","",""
"","null","","html-keyboard-response","175","432699","0.0-34.0-0.1","SS1612117450475","","null","","","<p><img src= images/blank.png width =""200"" height = ""200"" style = ""float:right""></p><p><img src=images/blank.png width =""800"" height = ""200""></p>","","","","","","","","","","",""
"","836.539999996603","trial","sequential-stimulus-presentation","176","434248","0.0-34.0-1.1","SS1612117450475","","40","700","1536.539999996603","","","","9","complex_dissimilar","images/stimuli/spore_stims/complex_03_B_b.gif","right","","","","",""
"","null","","html-keyboard-response","177","435326","0.0-34.0-0.2","SS1612117450475","","null","","","<p><img src= images/blank.png width =""200"" height = ""200"" style = ""float:right""></p><p><img src=images/blank.png width =""800"" height = ""200""></p>","","","","","","","","","","",""
"","587.9649999988033","trial","sequential-stimulus-presentation","178","436622","0.0-34.0-1.2","SS1612117450475","","40","700","1287.9649999988033","","","","9","complex_dissimilar","images/stimuli/spore_stims/complex_03_B_b.gif","right","","","","",""
"","null","","html-keyboard-response","179","437729","0.0-34.0-0.3","SS1612117450475","","null","","","<p><img src= images/blank.png width =""200"" height = ""200"" style = ""float:right""></p><p><img src=images/blank.png width =""800"" height = ""200""></p>","","","","","","","","","","",""
"","1093.3949999962351","trial","sequential-stimulus-presentation","180","439536","0.0-34.0-1.3","SS1612117450475","","40","700","1793.3949999962351","","","","9","complex_dissimilar","images/stimuli/spore_stims/complex_03_B_b.gif","right","","","","",""
"","null","","html-keyboard-response","181","440640","0.0-34.0-0.4","SS1612117450475","","null","","","<p><img src= images/blank.png width =""200"" height = ""200"" style = ""float:right""></p><p><img src=images/blank.png width =""800"" height = ""200""></p>","","","","","","","","","","",""
"","990.4850000020815","trial","sequential-stimulus-presentation","182","442343","0.0-34.0-1.4","SS1612117450475","","40","700","1690.4850000020815","","","","9","complex_dissimilar","images/stimuli/spore_stims/complex_03_B_b.gif","right","","","","",""
"","null","","html-keyboard-response","183","443384","0.0-34.0-0.5","SS1612117450475","","null","","","<p><img src= images/blank.png width =""200"" height = ""200"" style = ""float:right""></p><p><img src=images/blank.png width =""800"" height = ""200""></p>","","","","","","","","","","",""
"","758.3799999993062","trial","sequential-stimulus-presentation","184","444851","0.0-34.0-1.5","SS1612117450475","","40","700","1458.3799999993062","","","","9","complex_dissimilar","images/stimuli/spore_stims/complex_03_B_b.gif","right","","","","",""
"","null","","html-keyboard-response","185","446124","0.0-34.0-0.6","SS1612117450475","","null","","","<p><img src= images/blank.png width =""200"" height = ""200"" style = ""float:right""></p><p><img src=images/blank.png width =""800"" height = ""200""></p>","","","","","","","","","","",""
"","433.9250000048196","trial","sequential-stimulus-presentation","186","447269","0.0-34.0-1.6","SS1612117450475","","40","700","1133.9250000048196","","","","9","complex_dissimilar","images/stimuli/spore_stims/complex_03_B_b.gif","right","","","","",""
"","null","","html-keyboard-response","187","448126","0.0-34.0-0.7","SS1612117450475","","null","","","<p><img src= images/blank.png width =""200"" height = ""200"" style = ""float:right""></p><p><img src=images/blank.png width =""800"" height = ""200""></p>","","","","","","","","","","",""
"","1052.5399999969522","trial","sequential-stimulus-presentation","188","449888","0.0-34.0-1.7","SS1612117450475","","40","700","1752.5399999969522","","","","9","complex_dissimilar","images/stimuli/spore_stims/complex_04_B_d.gif","left","","","","",""
"","9664.244999999937","pref_question","html-keyboard-response","189","459558","0.0-35.0","SS1612117450475","","49","","","<img src=images/stimuli/pokeballs_pref.jpg width =""800"" height = ""200"" style=""padding-top: 33%"">","1","left","9","","","","","","","",""
"","418.5600000055274","pref_reveal","sequential-stimulus-presentation","190","460684","0.0-36.0","SS1612117450475","","40","700","1118.5600000055274","","","","9","","","","deviant","","","",""
"","null","","html-keyboard-response","191","461622","0.0-37.0-0.0","SS1612117450475","","null","","","<p><img src= images/blank.png width =""200"" height = ""200"" style = ""float:right""></p><p><img src=images/blank.png width =""800"" height = ""200""></p>","","","","","","","","","","",""
"","67.9149999996298","trial","sequential-stimulus-presentation","192","462402","0.0-37.0-1.0","SS1612117450475","","40","700","767.9149999996298","","","","10","simple_similar","images/stimuli/spore_stims/simple_11_A_d.gif","middle","","","","",""
"","null","","html-keyboard-response","193","463246","0.0-37.0-0.1","SS1612117450475","","null","","","<p><img src= images/blank.png width =""200"" height = ""200"" style = ""float:right""></p><p><img src=images/blank.png width =""800"" height = ""200""></p>","","","","","","","","","","",""
"","853.9699999964796","trial","sequential-stimulus-presentation","194","464809","0.0-37.0-1.1","SS1612117450475","","40","700","1553.9699999964796","","","","10","simple_similar","images/stimuli/spore_stims/simple_11_A_d.gif","middle","","","","",""
"","null","","html-keyboard-response","195","466038","0.0-37.0-0.2","SS1612117450475","","null","","","<p><img src= images/blank.png width =""200"" height = ""200"" style = ""float:right""></p><p><img src=images/blank.png width =""800"" height = ""200""></p>","","","","","","","","","","",""
"","614.6300000036717","trial","sequential-stimulus-presentation","196","467366","0.0-37.0-1.2","SS1612117450475","","40","700","1314.6300000036717","","","","10","simple_similar","images/stimuli/spore_stims/simple_11_A_d.gif","middle","","","","",""
"","null","","html-keyboard-response","197","468336","0.0-37.0-0.3","SS1612117450475","","null","","","<p><img src= images/blank.png width =""200"" height = ""200"" style = ""float:right""></p><p><img src=images/blank.png width =""800"" height = ""200""></p>","","","","","","","","","","",""
"","2583.2900000023074","trial","sequential-stimulus-presentation","198","471632","0.0-37.0-1.3","SS1612117450475","","40","700","3283.2900000023074","","","","10","simple_similar","images/stimuli/spore_stims/simple_11_A_d.gif","middle","","","","",""
"","null","","html-keyboard-response","199","472682","0.0-37.0-0.4","SS1612117450475","","null","","","<p><img src= images/blank.png width =""200"" height = ""200"" style = ""float:right""></p><p><img src=images/blank.png width =""800"" height = ""200""></p>","","","","","","","","","","",""
"","1677.544999998645","trial","sequential-stimulus-presentation","200","475071","0.0-37.0-1.4","SS1612117450475","","40","700","2377.544999998645","","","","10","simple_similar","images/stimuli/spore_stims/simple_11_B_d.gif","right","","","","",""
"","null","","html-keyboard-response","201","476244","0.0-37.0-0.5","SS1612117450475","","null","","","<p><img src= images/blank.png width =""200"" height = ""200"" style = ""float:right""></p><p><img src=images/blank.png width =""800"" height = ""200""></p>","","","","","","","","","","",""
"","1912.1249999952852","trial","sequential-stimulus-presentation","202","478865","0.0-37.0-1.5","SS1612117450475","","40","700","2612.124999995285","","","","10","simple_similar","images/stimuli/spore_stims/simple_11_A_d.gif","middle","","","","",""
"","null","","html-keyboard-response","203","479822","0.0-37.0-0.6","SS1612117450475","","null","","","<p><img src= images/blank.png width =""200"" height = ""200"" style = ""float:right""></p><p><img src=images/blank.png width =""800"" height = ""200""></p>","","","","","","","","","","",""
"","2060.185000002093","trial","sequential-stimulus-presentation","204","482592","0.0-37.0-1.6","SS1612117450475","","40","700","2760.185000002093","","","","10","simple_similar","images/stimuli/spore_stims/simple_11_A_d.gif","middle","","","","",""
"","null","","html-keyboard-response","205","483515","0.0-37.0-0.7","SS1612117450475","","null","","","<p><img src= images/blank.png width =""200"" height = ""200"" style = ""float:right""></p><p><img src=images/blank.png width =""800"" height = ""200""></p>","","","","","","","","","","",""
"","1951.1150000034831","trial","sequential-stimulus-presentation","206","486175","0.0-37.0-1.7","SS1612117450475","","40","700","2651.115000003483","","","","10","simple_similar","images/stimuli/spore_stims/simple_11_A_d.gif","middle","","","","",""
"","3482.579999996233","pref_question","html-keyboard-response","207","489662","0.0-38.0","SS1612117450475","","49","","","<img src=images/stimuli/pokeballs_pref.jpg width =""800"" height = ""200"" style=""padding-top: 33%"">","1","left","10","","","","","","","",""
"","379.6599999986938","pref_reveal","sequential-stimulus-presentation","208","490752","0.0-39.0","SS1612117450475","","40","700","1079.6599999986938","","","","10","","","","novel","","","",""
"","null","","html-keyboard-response","209","491681","0.0-40.0-0.0","SS1612117450475","","null","","","<p><img src= images/blank.png width =""200"" height = ""200"" style = ""float:right""></p><p><img src=images/blank.png width =""800"" height = ""200""></p>","","","","","","","","","","",""
"","686.905000002298","trial","sequential-stimulus-presentation","210","493081","0.0-40.0-1.0","SS1612117450475","","40","700","1386.905000002298","","","","11","simple_similar","images/stimuli/spore_stims/simple_10_B_c.gif","middle","","","","",""
"","null","","html-keyboard-response","211","493966","0.0-40.0-0.1","SS1612117450475","","null","","","<p><img src= images/blank.png width =""200"" height = ""200"" style = ""float:right""></p><p><img src=images/blank.png width =""800"" height = ""200""></p>","","","","","","","","","","",""
"","1025.5949999991572","trial","sequential-stimulus-presentation","212","495704","0.0-40.0-1.1","SS1612117450475","","40","700","1725.5949999991572","","","","11","simple_similar","images/stimuli/spore_stims/simple_10_B_c.gif","middle","","","","",""
"","null","","html-keyboard-response","213","496731","0.0-40.0-0.2","SS1612117450475","","null","","","<p><img src= images/blank.png width =""200"" height = ""200"" style = ""float:right""></p><p><img src=images/blank.png width =""800"" height = ""200""></p>","","","","","","","","","","",""
"","1611.0750000007101","trial","sequential-stimulus-presentation","214","499056","0.0-40.0-1.2","SS1612117450475","","40","700","2311.07500000071","","","","11","simple_similar","images/stimuli/spore_stims/simple_10_B_c.gif","middle","","","","",""
"","null","","html-keyboard-response","215","500282","0.0-40.0-0.3","SS1612117450475","","null","","","<p><img src= images/blank.png width =""200"" height = ""200"" style = ""float:right""></p><p><img src=images/blank.png width =""800"" height = ""200""></p>","","","","","","","","","","",""
"","3374.35999999434","trial","sequential-stimulus-presentation","216","504368","0.0-40.0-1.3","SS1612117450475","","40","700","4074.35999999434","","","","11","simple_similar","images/stimuli/spore_stims/simple_10_B_c.gif","middle","","","","",""
"","null","","html-keyboard-response","217","505239","0.0-40.0-0.4","SS1612117450475","","null","","","<p><img src= images/blank.png width =""200"" height = ""200"" style = ""float:right""></p><p><img src=images/blank.png width =""800"" height = ""200""></p>","","","","","","","","","","",""
"","2087.4450000046636","trial","sequential-stimulus-presentation","218","508039","0.0-40.0-1.4","SS1612117450475","","40","700","2787.4450000046636","","","","11","simple_similar","images/stimuli/spore_stims/simple_10_B_c.gif","middle","","","","",""
"","null","","html-keyboard-response","219","509143","0.0-40.0-0.5","SS1612117450475","","null","","","<p><img src= images/blank.png width =""200"" height = ""200"" style = ""float:right""></p><p><img src=images/blank.png width =""800"" height = ""200""></p>","","","","","","","","","","",""
"","4051.999999996042","trial","sequential-stimulus-presentation","220","513907","0.0-40.0-1.5","SS1612117450475","","40","700","4751.999999996042","","","","11","simple_similar","images/stimuli/spore_stims/simple_10_B_c.gif","middle","","","","",""
"","null","","html-keyboard-response","221","515024","0.0-40.0-0.6","SS1612117450475","","null","","","<p><img src= images/blank.png width =""200"" height = ""200"" style = ""float:right""></p><p><img src=images/blank.png width =""800"" height = ""200""></p>","","","","","","","","","","",""
"","382.76000000041677","trial","sequential-stimulus-presentation","222","516121","0.0-40.0-1.6","SS1612117450475","","40","700","1082.7600000004168","","","","11","simple_similar","images/stimuli/spore_stims/simple_10_B_c.gif","middle","","","","",""
"","null","","html-keyboard-response","223","517057","0.0-40.0-0.7","SS1612117450475","","null","","","<p><img src= images/blank.png width =""200"" height = ""200"" style = ""float:right""></p><p><img src=images/blank.png width =""800"" height = ""200""></p>","","","","","","","","","","",""
"","79.1899999967427","trial","sequential-stimulus-presentation","224","517845","0.0-40.0-1.7","SS1612117450475","","40","700","779.1899999967427","","","","11","simple_similar","images/stimuli/spore_stims/simple_10_B_c.gif","middle","","","","",""
"","null","","html-keyboard-response","225","518718","0.0-40.0-0.8","SS1612117450475","","null","","","<p><img src= images/blank.png width =""200"" height = ""200"" style = ""float:right""></p><p><img src=images/blank.png width =""800"" height = ""200""></p>","","","","","","","","","","",""
"","1931.5150000037975","trial","sequential-stimulus-presentation","226","521376","0.0-40.0-1.8","SS1612117450475","","40","700","2631.5150000037975","","","","11","simple_similar","images/stimuli/spore_stims/simple_10_A_c.gif","right","","","","",""
"","1250.499999994645","pref_question","html-keyboard-response","227","522632","0.0-41.0","SS1612117450475","","51","","","<img src=images/stimuli/pokeballs_pref.jpg width =""800"" height = ""200"" style=""padding-top: 33%"">","3","right","11","","","","","","","",""
"","366.4649999991525","pref_reveal","sequential-stimulus-presentation","228","523711","0.0-42.0","SS1612117450475","","40","700","1066.4649999991525","","","","11","","","","deviant","","","",""
"","null","","html-keyboard-response","229","524578","0.0-43.0-0.0","SS1612117450475","","null","","","<p><img src= images/blank.png width =""200"" height = ""200"" style = ""float:right""></p><p><img src=images/blank.png width =""800"" height = ""200""></p>","","","","","","","","","","",""
"","298.60500000359025","trial","sequential-stimulus-presentation","230","525590","0.0-43.0-1.0","SS1612117450475","","40","700","998.6050000035902","","","","12","complex_similar","images/stimuli/spore_stims/complex_01_A_a.gif","right","","","","",""
"","null","","html-keyboard-response","231","526417","0.0-43.0-0.1","SS1612117450475","","null","","","<p><img src= images/blank.png width =""200"" height = ""200"" style = ""float:right""></p><p><img src=images/blank.png width =""800"" height = ""200""></p>","","","","","","","","","","",""
"","34.63499999628402","trial","sequential-stimulus-presentation","232","527155","0.0-43.0-1.1","SS1612117450475","","40","700","734.634999996284","","","","12","complex_similar","images/stimuli/spore_stims/complex_01_A_a.gif","right","","","","",""
"","null","","html-keyboard-response","233","528294","0.0-43.0-0.2","SS1612117450475","","null","","","<p><img src= images/blank.png width =""200"" height = ""200"" style = ""float:right""></p><p><img src=images/blank.png width =""800"" height = ""200""></p>","","","","","","","","","","",""
"","201.33000000345055","trial","sequential-stimulus-presentation","234","529207","0.0-43.0-1.2","SS1612117450475","","40","700","901.3300000034506","","","","12","complex_similar","images/stimuli/spore_stims/complex_01_A_a.gif","right","","","","",""
"","null","","html-keyboard-response","235","530500","0.0-43.0-0.3","SS1612117450475","","null","","","<p><img src= images/blank.png width =""200"" height = ""200"" style = ""float:right""></p><p><img src=images/blank.png width =""800"" height = ""200""></p>","","","","","","","","","","",""
"","929.3650000034831","trial","sequential-stimulus-presentation","236","532144","0.0-43.0-1.3","SS1612117450475","","40","700","1629.3650000034831","","","","12","complex_similar","images/stimuli/spore_stims/complex_01_A_a.gif","right","","","","",""
"","null","","html-keyboard-response","237","533390","0.0-43.0-0.4","SS1612117450475","","null","","","<p><img src= images/blank.png width =""200"" height = ""200"" style = ""float:right""></p><p><img src=images/blank.png width =""800"" height = ""200""></p>","","","","","","","","","","",""
"","320.57499999785796","trial","sequential-stimulus-presentation","238","534425","0.0-43.0-1.4","SS1612117450475","","40","700","1020.574999997858","","","","12","complex_similar","images/stimuli/spore_stims/complex_01_A_a.gif","right","","","","",""
"","null","","html-keyboard-response","239","535362","0.0-43.0-0.5","SS1612117450475","","null","","","<p><img src= images/blank.png width =""200"" height = ""200"" style = ""float:right""></p><p><img src=images/blank.png width =""800"" height = ""200""></p>","","","","","","","","","","",""
"","400.54499999666587","trial","sequential-stimulus-presentation","240","536467","0.0-43.0-1.5","SS1612117450475","","40","700","1100.5449999966659","","","","12","complex_similar","images/stimuli/spore_stims/complex_01_B_a.gif","left","","","","",""
"","null","","html-keyboard-response","241","537744","0.0-43.0-0.6","SS1612117450475","","null","","","<p><img src= images/blank.png width =""200"" height = ""200"" style = ""float:right""></p><p><img src=images/blank.png width =""800"" height = ""200""></p>","","","","","","","","","","",""
"","269.09499999601394","trial","sequential-stimulus-presentation","242","538727","0.0-43.0-1.6","SS1612117450475","","40","700","969.0949999960139","","","","12","complex_similar","images/stimuli/spore_stims/complex_01_A_a.gif","right","","","","",""
"","null","","html-keyboard-response","243","539753","0.0-43.0-0.7","SS1612117450475","","null","","","<p><img src= images/blank.png width =""200"" height = ""200"" style = ""float:right""></p><p><img src=images/blank.png width =""800"" height = ""200""></p>","","","","","","","","","","",""
"","600.2950000037672","trial","sequential-stimulus-presentation","244","541063","0.0-43.0-1.7","SS1612117450475","","40","700","1300.2950000037672","","","","12","complex_similar","images/stimuli/spore_stims/complex_01_A_a.gif","right","","","","",""
"","3078.654999997583","pref_question","html-keyboard-response","245","544147","0.0-44.0","SS1612117450475","","51","","","<img src=images/stimuli/pokeballs_pref.jpg width =""800"" height = ""200"" style=""padding-top: 33%"">","3","right","12","","","","","","","",""
"","1033.8849999969825","pref_reveal","sequential-stimulus-presentation","246","545889","0.0-45.0","SS1612117450475","","40","700","1733.8849999969825","","","","12","","","","background","","","",""
"","null","","html-keyboard-response","247","546991","0.0-46.0-0.0","SS1612117450475","","null","","","<p><img src= images/blank.png width =""200"" height = ""200"" style = ""float:right""></p><p><img src=images/blank.png width =""800"" height = ""200""></p>","","","","","","","","","","",""
"","472.72000000521075","trial","sequential-stimulus-presentation","248","548175","0.0-46.0-1.0","SS1612117450475","","40","700","1172.7200000052107","","","","13","simple_dissimilar","images/stimuli/spore_stims/simple_18_A_a.gif","left","","","","",""
"","null","","html-keyboard-response","249","549306","0.0-46.0-0.1","SS1612117450475","","null","","","<p><img src= images/blank.png width =""200"" height = ""200"" style = ""float:right""></p><p><img src=images/blank.png width =""800"" height = ""200""></p>","","","","","","","","","","",""
"","422.7949999986449","trial","sequential-stimulus-presentation","250","550438","0.0-46.0-1.1","SS1612117450475","","40","700","1122.794999998645","","","","13","simple_dissimilar","images/stimuli/spore_stims/simple_18_A_a.gif","left","","","","",""
"","null","","html-keyboard-response","251","551324","0.0-46.0-0.2","SS1612117450475","","null","","","<p><img src= images/blank.png width =""200"" height = ""200"" style = ""float:right""></p><p><img src=images/blank.png width =""800"" height = ""200""></p>","","","","","","","","","","",""
"","324.58500000217464","trial","sequential-stimulus-presentation","252","552359","0.0-46.0-1.2","SS1612117450475","","40","700","1024.5850000021746","","","","13","simple_dissimilar","images/stimuli/spore_stims/simple_18_A_a.gif","left","","","","",""
"","null","","html-keyboard-response","253","553310","0.0-46.0-0.3","SS1612117450475","","null","","","<p><img src= images/blank.png width =""200"" height = ""200"" style = ""float:right""></p><p><img src=images/blank.png width =""800"" height = ""200""></p>","","","","","","","","","","",""
"","279.51000000035856","trial","sequential-stimulus-presentation","254","554303","0.0-46.0-1.3","SS1612117450475","","40","700","979.5100000003586","","","","13","simple_dissimilar","images/stimuli/spore_stims/simple_18_A_a.gif","left","","","","",""
"","null","","html-keyboard-response","255","555120","0.0-46.0-0.4","SS1612117450475","","null","","","<p><img src= images/blank.png width =""200"" height = ""200"" style = ""float:right""></p><p><img src=images/blank.png width =""800"" height = ""200""></p>","","","","","","","","","","",""
"","504.47499999427237","trial","sequential-stimulus-presentation","256","556335","0.0-46.0-1.4","SS1612117450475","","40","700","1204.4749999942724","","","","13","simple_dissimilar","images/stimuli/spore_stims/simple_18_A_a.gif","left","","","","",""
"","null","","html-keyboard-response","257","557426","0.0-46.0-0.5","SS1612117450475","","null","","","<p><img src= images/blank.png width =""200"" height = ""200"" style = ""float:right""></p><p><img src=images/blank.png width =""800"" height = ""200""></p>","","","","","","","","","","",""
"","1078.524999997113","trial","sequential-stimulus-presentation","258","559217","0.0-46.0-1.5","SS1612117450475","","40","700","1778.524999997113","","","","13","simple_dissimilar","images/stimuli/spore_stims/simple_18_A_a.gif","left","","","","",""
"","null","","html-keyboard-response","259","560399","0.0-46.0-0.6","SS1612117450475","","null","","","<p><img src= images/blank.png width =""200"" height = ""200"" style = ""float:right""></p><p><img src=images/blank.png width =""800"" height = ""200""></p>","","","","","","","","","","",""
"","281.83500000159256","trial","sequential-stimulus-presentation","260","561392","0.0-46.0-1.6","SS1612117450475","","40","700","981.8350000015926","","","","13","simple_dissimilar","images/stimuli/spore_stims/simple_18_A_a.gif","left","","","","",""
"","null","","html-keyboard-response","261","562336","0.0-46.0-0.7","SS1612117450475","","null","","","<p><img src= images/blank.png width =""200"" height = ""200"" style = ""float:right""></p><p><img src=images/blank.png width =""800"" height = ""200""></p>","","","","","","","","","","",""
"","171.90000000130385","trial","sequential-stimulus-presentation","262","563218","0.0-46.0-1.7","SS1612117450475","","40","700","871.9000000013039","","","","13","simple_dissimilar","images/stimuli/spore_stims/simple_16_A_c.gif","middle","","","","",""
"","1961.4399999990128","pref_question","html-keyboard-response","263","565185","0.0-47.0","SS1612117450475","","50","","","<img src=images/stimuli/pokeballs_pref.jpg width =""800"" height = ""200"" style=""padding-top: 33%"">","2","middle","13","","","","","","","",""
"","401.87999999755993","pref_reveal","sequential-stimulus-presentation","264","566296","0.0-48.0","SS1612117450475","","40","700","1101.87999999756","","","","13","","","","deviant","","","",""
"","null","","html-keyboard-response","265","567274","0.0-49.0-0.0","SS1612117450475","","null","","","<p><img src= images/blank.png width =""200"" height = ""200"" style = ""float:right""></p><p><img src=images/blank.png width =""800"" height = ""200""></p>","","","","","","","","","","",""
"","484.1649999943329","trial","sequential-stimulus-presentation","266","568487","0.0-49.0-1.0","SS1612117450475","","40","700","1184.164999994333","","","","14","complex_dissimilar","images/stimuli/spore_stims/complex_05_A_b.gif","left","","","","",""
"","null","","html-keyboard-response","267","569669","0.0-49.0-0.1","SS1612117450475","","null","","","<p><img src= images/blank.png width =""200"" height = ""200"" style = ""float:right""></p><p><img src=images/blank.png width =""800"" height = ""200""></p>","","","","","","","","","","",""
"","203.67000000260305","trial","sequential-stimulus-presentation","268","570587","0.0-49.0-1.1","SS1612117450475","","40","700","903.670000002603","","","","14","complex_dissimilar","images/stimuli/spore_stims/complex_05_A_b.gif","left","","","","",""
"","null","","html-keyboard-response","269","571444","0.0-49.0-0.2","SS1612117450475","","null","","","<p><img src= images/blank.png width =""200"" height = ""200"" style = ""float:right""></p><p><img src=images/blank.png width =""800"" height = ""200""></p>","","","","","","","","","","",""
"","95.78000000328757","trial","sequential-stimulus-presentation","270","572254","0.0-49.0-1.2","SS1612117450475","","40","700","795.7800000032876","","","","14","complex_dissimilar","images/stimuli/spore_stims/complex_05_A_b.gif","left","","","","",""
"","null","","html-keyboard-response","271","573241","0.0-49.0-0.3","SS1612117450475","","null","","","<p><img src= images/blank.png width =""200"" height = ""200"" style = ""float:right""></p><p><img src=images/blank.png width =""800"" height = ""200""></p>","","","","","","","","","","",""
"","417.1199999982491","trial","sequential-stimulus-presentation","272","574368","0.0-49.0-1.3","SS1612117450475","","40","700","1117.119999998249","","","","14","complex_dissimilar","images/stimuli/spore_stims/complex_05_A_b.gif","left","","","","",""
"","null","","html-keyboard-response","273","575244","0.0-49.0-0.4","SS1612117450475","","null","","","<p><img src= images/blank.png width =""200"" height = ""200"" style = ""float:right""></p><p><img src=images/blank.png width =""800"" height = ""200""></p>","","","","","","","","","","",""
"","146.74999999988358","trial","sequential-stimulus-presentation","274","576104","0.0-49.0-1.4","SS1612117450475","","40","700","846.7499999998836","","","","14","complex_dissimilar","images/stimuli/spore_stims/complex_05_A_b.gif","left","","","","",""
"","null","","html-keyboard-response","275","577266","0.0-49.0-0.5","SS1612117450475","","null","","","<p><img src= images/blank.png width =""200"" height = ""200"" style = ""float:right""></p><p><img src=images/blank.png width =""800"" height = ""200""></p>","","","","","","","","","","",""
"","144.77500000072177","trial","sequential-stimulus-presentation","276","578121","0.0-49.0-1.5","SS1612117450475","","40","700","844.7750000007218","","","","14","complex_dissimilar","images/stimuli/spore_stims/complex_05_A_b.gif","left","","","","",""
"","null","","html-keyboard-response","277","579365","0.0-49.0-0.6","SS1612117450475","","null","","","<p><img src= images/blank.png width =""200"" height = ""200"" style = ""float:right""></p><p><img src=images/blank.png width =""800"" height = ""200""></p>","","","","","","","","","","",""
"","62.285000000032596","trial","sequential-stimulus-presentation","278","580137","0.0-49.0-1.6","SS1612117450475","","40","700","762.2850000000326","","","","14","complex_dissimilar","images/stimuli/spore_stims/complex_05_A_b.gif","left","","","","",""
"","null","","html-keyboard-response","279","581046","0.0-49.0-0.7","SS1612117450475","","null","","","<p><img src= images/blank.png width =""200"" height = ""200"" style = ""float:right""></p><p><img src=images/blank.png width =""800"" height = ""200""></p>","","","","","","","","","","",""
"","2393.9600000012433","trial","sequential-stimulus-presentation","280","584153","0.0-49.0-1.7","SS1612117450475","","40","700","3093.9600000012433","","","","14","complex_dissimilar","images/stimuli/spore_stims/complex_05_A_b.gif","left","","","","",""
"","null","","html-keyboard-response","281","585072","0.0-49.0-0.8","SS1612117450475","","null","","","<p><img src= images/blank.png width =""200"" height = ""200"" style = ""float:right""></p><p><img src=images/blank.png width =""800"" height = ""200""></p>","","","","","","","","","","",""
"","1022.3100000002887","trial","sequential-stimulus-presentation","282","586807","0.0-49.0-1.8","SS1612117450475","","40","700","1722.3100000002887","","","","14","complex_dissimilar","images/stimuli/spore_stims/complex_05_B_a.gif","middle","","","","",""
"","1786.3799999977928","pref_question","html-keyboard-response","283","588599","0.0-50.0","SS1612117450475","","49","","","<img src=images/stimuli/pokeballs_pref.jpg width =""800"" height = ""200"" style=""padding-top: 33%"">","1","left","14","","","","","","","",""
"","352.57000000285916","pref_reveal","sequential-stimulus-presentation","284","589665","0.0-51.0","SS1612117450475","","40","700","1052.5700000028592","","","","14","","","","background","","","",""
"","null","","html-keyboard-response","285","590938","0.0-52.0-0.0","SS1612117450475","","null","","","<p><img src= images/blank.png width =""200"" height = ""200"" style = ""float:right""></p><p><img src=images/blank.png width =""800"" height = ""200""></p>","","","","","","","","","","",""
"","90.73999999964144","trial","sequential-stimulus-presentation","286","591743","0.0-52.0-1.0","SS1612117450475","","40","700","790.7399999996414","","","","15","complex_dissimilar","images/stimuli/spore_stims/complex_09_A_a.gif","middle","","","","",""
"","null","","html-keyboard-response","287","592969","0.0-52.0-0.1","SS1612117450475","","null","","","<p><img src= images/blank.png width =""200"" height = ""200"" style = ""float:right""></p><p><img src=images/blank.png width =""800"" height = ""200""></p>","","","","","","","","","","",""
"","287.1099999975413","trial","sequential-stimulus-presentation","288","593967","0.0-52.0-1.1","SS1612117450475","","40","700","987.1099999975413","","","","15","complex_dissimilar","images/stimuli/spore_stims/complex_09_A_a.gif","middle","","","","",""
"","null","","html-keyboard-response","289","595016","0.0-52.0-0.2","SS1612117450475","","null","","","<p><img src= images/blank.png width =""200"" height = ""200"" style = ""float:right""></p><p><img src=images/blank.png width =""800"" height = ""200""></p>","","","","","","","","","","",""
"","909.9950000017416","trial","sequential-stimulus-presentation","290","596638","0.0-52.0-1.2","SS1612117450475","","40","700","1609.9950000017416","","","","15","complex_dissimilar","images/stimuli/spore_stims/complex_09_A_a.gif","middle","","","","",""
"","null","","html-keyboard-response","291","597555","0.0-52.0-0.3","SS1612117450475","","null","","","<p><img src= images/blank.png width =""200"" height = ""200"" style = ""float:right""></p><p><img src=images/blank.png width =""800"" height = ""200""></p>","","","","","","","","","","",""
"","774.4700000039302","trial","sequential-stimulus-presentation","292","599041","0.0-52.0-1.3","SS1612117450475","","40","700","1474.4700000039302","","","","15","complex_dissimilar","images/stimuli/spore_stims/complex_03_A_b.gif","right","","","","",""
"","null","","html-keyboard-response","293","600290","0.0-52.0-0.4","SS1612117450475","","null","","","<p><img src= images/blank.png width =""200"" height = ""200"" style = ""float:right""></p><p><img src=images/blank.png width =""800"" height = ""200""></p>","","","","","","","","","","",""
"","803.4250000054017","trial","sequential-stimulus-presentation","294","601807","0.0-52.0-1.4","SS1612117450475","","40","700","1503.4250000054017","","","","15","complex_dissimilar","images/stimuli/spore_stims/complex_09_A_a.gif","middle","","","","",""
"","null","","html-keyboard-response","295","602668","0.0-52.0-0.5","SS1612117450475","","null","","","<p><img src= images/blank.png width =""200"" height = ""200"" style = ""float:right""></p><p><img src=images/blank.png width =""800"" height = ""200""></p>","","","","","","","","","","",""
"","425.5849999971688","trial","sequential-stimulus-presentation","296","603808","0.0-52.0-1.5","SS1612117450475","","40","700","1125.5849999971688","","","","15","complex_dissimilar","images/stimuli/spore_stims/complex_09_A_a.gif","middle","","","","",""
"","null","","html-keyboard-response","297","604776","0.0-52.0-0.6","SS1612117450475","","null","","","<p><img src= images/blank.png width =""200"" height = ""200"" style = ""float:right""></p><p><img src=images/blank.png width =""800"" height = ""200""></p>","","","","","","","","","","",""
"","640.5149999991991","trial","sequential-stimulus-presentation","298","606128","0.0-52.0-1.6","SS1612117450475","","40","700","1340.514999999199","","","","15","complex_dissimilar","images/stimuli/spore_stims/complex_09_A_a.gif","middle","","","","",""
"","null","","html-keyboard-response","299","607408","0.0-52.0-0.7","SS1612117450475","","null","","","<p><img src= images/blank.png width =""200"" height = ""200"" style = ""float:right""></p><p><img src=images/blank.png width =""800"" height = ""200""></p>","","","","","","","","","","",""
"","226.48499999928754","trial","sequential-stimulus-presentation","300","608345","0.0-52.0-1.7","SS1612117450475","","40","700","926.4849999992875","","","","15","complex_dissimilar","images/stimuli/spore_stims/complex_09_A_a.gif","middle","","","","",""
"","1055.5300000050338","pref_question","html-keyboard-response","301","609407","0.0-53.0","SS1612117450475","","49","","","<img src=images/stimuli/pokeballs_pref.jpg width =""800"" height = ""200"" style=""padding-top: 33%"">","1","left","15","","","","","","","",""
"","1012.2150000025285","pref_reveal","sequential-stimulus-presentation","302","611129","0.0-54.0","SS1612117450475","","40","700","1712.2150000025285","","","","15","","","","novel","","","",""
"","null","","html-keyboard-response","303","612120","0.0-55.0-0.0","SS1612117450475","","null","","","<p><img src= images/blank.png width =""200"" height = ""200"" style = ""float:right""></p><p><img src=images/blank.png width =""800"" height = ""200""></p>","","","","","","","","","","",""
"","375.8349999990314","trial","sequential-stimulus-presentation","304","613207","0.0-55.0-1.0","SS1612117450475","","40","700","1075.8349999990314","","","","16","complex_similar","images/stimuli/spore_stims/complex_18_B_a.gif","left","","","","",""
"","null","","html-keyboard-response","305","614466","0.0-55.0-0.1","SS1612117450475","","null","","","<p><img src= images/blank.png width =""200"" height = ""200"" style = ""float:right""></p><p><img src=images/blank.png width =""800"" height = ""200""></p>","","","","","","","","","","",""
"","282.01999999873806","trial","sequential-stimulus-presentation","306","615461","0.0-55.0-1.1","SS1612117450475","","40","700","982.0199999987381","","","","16","complex_similar","images/stimuli/spore_stims/complex_18_B_a.gif","left","","","","",""
"","null","","html-keyboard-response","307","616552","0.0-55.0-0.2","SS1612117450475","","null","","","<p><img src= images/blank.png width =""200"" height = ""200"" style = ""float:right""></p><p><img src=images/blank.png width =""800"" height = ""200""></p>","","","","","","","","","","",""
"","320.3700000012759","trial","sequential-stimulus-presentation","308","617583","0.0-55.0-1.2","SS1612117450475","","40","700","1020.3700000012759","","","","16","complex_similar","images/stimuli/spore_stims/complex_18_B_a.gif","left","","","","",""
"","null","","html-keyboard-response","309","618745","0.0-55.0-0.3","SS1612117450475","","null","","","<p><img src= images/blank.png width =""200"" height = ""200"" style = ""float:right""></p><p><img src=images/blank.png width =""800"" height = ""200""></p>","","","","","","","","","","",""
"","457.3200000014622","trial","sequential-stimulus-presentation","310","619912","0.0-55.0-1.3","SS1612117450475","","40","700","1157.3200000014622","","","","16","complex_similar","images/stimuli/spore_stims/complex_18_B_a.gif","left","","","","",""
"","null","","html-keyboard-response","311","620763","0.0-55.0-0.4","SS1612117450475","","null","","","<p><img src= images/blank.png width =""200"" height = ""200"" style = ""float:right""></p><p><img src=images/blank.png width =""800"" height = ""200""></p>","","","","","","","","","","",""
"","382.8250000005355","trial","sequential-stimulus-presentation","312","621857","0.0-55.0-1.4","SS1612117450475","","40","700","1082.8250000005355","","","","16","complex_similar","images/stimuli/spore_stims/complex_18_B_a.gif","left","","","","",""
"","null","","html-keyboard-response","313","622801","0.0-55.0-0.5","SS1612117450475","","null","","","<p><img src= images/blank.png width =""200"" height = ""200"" style = ""float:right""></p><p><img src=images/blank.png width =""800"" height = ""200""></p>","","","","","","","","","","",""
"","424.88500000035856","trial","sequential-stimulus-presentation","314","623936","0.0-55.0-1.5","SS1612117450475","","40","700","1124.8850000003586","","","","16","complex_similar","images/stimuli/spore_stims/complex_18_B_a.gif","left","","","","",""
"","null","","html-keyboard-response","315","625154","0.0-55.0-0.6","SS1612117450475","","null","","","<p><img src= images/blank.png width =""200"" height = ""200"" style = ""float:right""></p><p><img src=images/blank.png width =""800"" height = ""200""></p>","","","","","","","","","","",""
"","292.9299999959767","trial","sequential-stimulus-presentation","316","626158","0.0-55.0-1.6","SS1612117450475","","40","700","992.9299999959767","","","","16","complex_similar","images/stimuli/spore_stims/complex_18_A_a.gif","right","","","","",""
"","null","","html-keyboard-response","317","627319","0.0-55.0-0.7","SS1612117450475","","null","","","<p><img src= images/blank.png width =""200"" height = ""200"" style = ""float:right""></p><p><img src=images/blank.png width =""800"" height = ""200""></p>","","","","","","","","","","",""
"","227.5050000026822","trial","sequential-stimulus-presentation","318","628257","0.0-55.0-1.7","SS1612117450475","","40","700","927.5050000026822","","","","16","complex_similar","images/stimuli/spore_stims/complex_18_B_a.gif","left","","","","",""
"","1120.8799999948824","pref_question","html-keyboard-response","319","629384","0.0-56.0","SS1612117450475","","51","","","<img src=images/stimuli/pokeballs_pref.jpg width =""800"" height = ""200"" style=""padding-top: 33%"">","3","right","16","","","","","","","",""
"","522.084999996936","pref_reveal","sequential-stimulus-presentation","320","630617","0.0-57.0","SS1612117450475","","40","700","1222.084999996936","","","","16","","","","deviant","","","",""
"","null","","html-keyboard-response","321","631476","0.0-58.0-0.0","SS1612117450475","","null","","","<p><img src= images/blank.png width =""200"" height = ""200"" style = ""float:right""></p><p><img src=images/blank.png width =""800"" height = ""200""></p>","","","","","","","","","","",""
"","722.3799999991897","trial","sequential-stimulus-presentation","322","632911","0.0-58.0-1.0","SS1612117450475","","40","700","1422.3799999991897","","","","17","simple_dissimilar","images/stimuli/spore_stims/simple_06_A_c.gif","middle","","","","",""
"","null","","html-keyboard-response","323","634219","0.0-58.0-0.1","SS1612117450475","","null","","","<p><img src= images/blank.png width =""200"" height = ""200"" style = ""float:right""></p><p><img src=images/blank.png width =""800"" height = ""200""></p>","","","","","","","","","","",""
"","315.9400000004098","trial","sequential-stimulus-presentation","324","635250","0.0-58.0-1.1","SS1612117450475","","40","700","1015.9400000004098","","","","17","simple_dissimilar","images/stimuli/spore_stims/simple_06_A_c.gif","middle","","","","",""
"","null","","html-keyboard-response","325","636417","0.0-58.0-0.2","SS1612117450475","","null","","","<p><img src= images/blank.png width =""200"" height = ""200"" style = ""float:right""></p><p><img src=images/blank.png width =""800"" height = ""200""></p>","","","","","","","","","","",""
"","380.69000000541564","trial","sequential-stimulus-presentation","326","637511","0.0-58.0-1.2","SS1612117450475","","40","700","1080.6900000054156","","","","17","simple_dissimilar","images/stimuli/spore_stims/simple_06_A_c.gif","middle","","","","",""
"","null","","html-keyboard-response","327","638320","0.0-58.0-0.3","SS1612117450475","","null","","","<p><img src= images/blank.png width =""200"" height = ""200"" style = ""float:right""></p><p><img src=images/blank.png width =""800"" height = ""200""></p>","","","","","","","","","","",""
"","519.8050000036601","trial","sequential-stimulus-presentation","328","639554","0.0-58.0-1.3","SS1612117450475","","40","700","1219.80500000366","","","","17","simple_dissimilar","images/stimuli/spore_stims/simple_06_A_c.gif","middle","","","","",""
"","null","","html-keyboard-response","329","640536","0.0-58.0-0.4","SS1612117450475","","null","","","<p><img src= images/blank.png width =""200"" height = ""200"" style = ""float:right""></p><p><img src=images/blank.png width =""800"" height = ""200""></p>","","","","","","","","","","",""
"","291.79499999736436","trial","sequential-stimulus-presentation","330","641541","0.0-58.0-1.4","SS1612117450475","","40","700","991.7949999973644","","","","17","simple_dissimilar","images/stimuli/spore_stims/simple_06_A_c.gif","middle","","","","",""
"","null","","html-keyboard-response","331","642400","0.0-58.0-0.5","SS1612117450475","","null","","","<p><img src= images/blank.png width =""200"" height = ""200"" style = ""float:right""></p><p><img src=images/blank.png width =""800"" height = ""200""></p>","","","","","","","","","","",""
"","242.26500000082888","trial","sequential-stimulus-presentation","332","643352","0.0-58.0-1.5","SS1612117450475","","40","700","942.2650000008289","","","","17","simple_dissimilar","images/stimuli/spore_stims/simple_06_A_c.gif","middle","","","","",""
"","null","","html-keyboard-response","333","644327","0.0-58.0-0.6","SS1612117450475","","null","","","<p><img src= images/blank.png width =""200"" height = ""200"" style = ""float:right""></p><p><img src=images/blank.png width =""800"" height = ""200""></p>","","","","","","","","","","",""
"","361.6099999998696","trial","sequential-stimulus-presentation","334","645400","0.0-58.0-1.6","SS1612117450475","","40","700","1061.6099999998696","","","","17","simple_dissimilar","images/stimuli/spore_stims/simple_06_A_c.gif","middle","","","","",""
"","null","","html-keyboard-response","335","646432","0.0-58.0-0.7","SS1612117450475","","null","","","<p><img src= images/blank.png width =""200"" height = ""200"" style = ""float:right""></p><p><img src=images/blank.png width =""800"" height = ""200""></p>","","","","","","","","","","",""
"","207.8400000028778","trial","sequential-stimulus-presentation","336","647353","0.0-58.0-1.7","SS1612117450475","","40","700","907.8400000028778","","","","17","simple_dissimilar","images/stimuli/spore_stims/simple_06_A_c.gif","middle","","","","",""
"","null","","html-keyboard-response","337","648621","0.0-58.0-0.8","SS1612117450475","","null","","","<p><img src= images/blank.png width =""200"" height = ""200"" style = ""float:right""></p><p><img src=images/blank.png width =""800"" height = ""200""></p>","","","","","","","","","","",""
"","420.7249999962514","trial","sequential-stimulus-presentation","338","649752","0.0-58.0-1.8","SS1612117450475","","40","700","1120.7249999962514","","","","17","simple_dissimilar","images/stimuli/spore_stims/simple_16_B_b.gif","right","","","","",""
"","921.9249999950407","pref_question","html-keyboard-response","339","650679","0.0-59.0","SS1612117450475","","49","","","<img src=images/stimuli/pokeballs_pref.jpg width =""800"" height = ""200"" style=""padding-top: 33%"">","1","left","17","","","","","","","",""
"","397.08499999681953","pref_reveal","sequential-stimulus-presentation","340","651786","0.0-60.0","SS1612117450475","","40","700","1097.0849999968195","","","","17","","","","novel","","","",""
"","null","","html-keyboard-response","341","652813","0.0-61.0-0.0","SS1612117450475","","null","","","<p><img src= images/blank.png width =""200"" height = ""200"" style = ""float:right""></p><p><img src=images/blank.png width =""800"" height = ""200""></p>","","","","","","","","","","",""
"","457.3699999965029","trial","sequential-stimulus-presentation","342","653983","0.0-61.0-1.0","SS1612117450475","","40","700","1157.3699999965029","","","","18","simple_similar","images/stimuli/spore_stims/simple_12_B_c.gif","middle","","","","",""
"","null","","html-keyboard-response","343","654952","0.0-61.0-0.1","SS1612117450475","","null","","","<p><img src= images/blank.png width =""200"" height = ""200"" style = ""float:right""></p><p><img src=images/blank.png width =""800"" height = ""200""></p>","","","","","","","","","","",""
"","242.53999999922235","trial","sequential-stimulus-presentation","344","655904","0.0-61.0-1.1","SS1612117450475","","40","700","942.5399999992223","","","","18","simple_similar","images/stimuli/spore_stims/simple_12_B_c.gif","middle","","","","",""
"","null","","html-keyboard-response","345","657137","0.0-61.0-0.2","SS1612117450475","","null","","","<p><img src= images/blank.png width =""200"" height = ""200"" style = ""float:right""></p><p><img src=images/blank.png width =""800"" height = ""200""></p>","","","","","","","","","","",""
"","1872.0800000010058","trial","sequential-stimulus-presentation","346","659719","0.0-61.0-1.2","SS1612117450475","","40","700","2572.080000001006","","","","18","simple_similar","images/stimuli/spore_stims/simple_12_B_c.gif","middle","","","","",""
"","null","","html-keyboard-response","347","660789","0.0-61.0-0.3","SS1612117450475","","null","","","<p><img src= images/blank.png width =""200"" height = ""200"" style = ""float:right""></p><p><img src=images/blank.png width =""800"" height = ""200""></p>","","","","","","","","","","",""
"","1204.2000000001863","trial","sequential-stimulus-presentation","348","662705","0.0-61.0-1.3","SS1612117450475","","40","700","1904.2000000001863","","","","18","simple_similar","images/stimuli/spore_stims/simple_12_B_c.gif","middle","","","","",""
"","null","","html-keyboard-response","349","664010","0.0-61.0-0.4","SS1612117450475","","null","","","<p><img src= images/blank.png width =""200"" height = ""200"" style = ""float:right""></p><p><img src=images/blank.png width =""800"" height = ""200""></p>","","","","","","","","","","",""
"","239.33499999833293","trial","sequential-stimulus-presentation","350","664960","0.0-61.0-1.4","SS1612117450475","","40","700","939.3349999983329","","","","18","simple_similar","images/stimuli/spore_stims/simple_12_B_c.gif","middle","","","","",""
"","null","","html-keyboard-response","351","665987","0.0-61.0-0.5","SS1612117450475","","null","","","<p><img src= images/blank.png width =""200"" height = ""200"" style = ""float:right""></p><p><img src=images/blank.png width =""800"" height = ""200""></p>","","","","","","","","","","",""
"","308.7149999992689","trial","sequential-stimulus-presentation","352","667009","0.0-61.0-1.5","SS1612117450475","","40","700","1008.7149999992689","","","","18","simple_similar","images/stimuli/spore_stims/simple_12_B_c.gif","middle","","","","",""
"","null","","html-keyboard-response","353","668127","0.0-61.0-0.6","SS1612117450475","","null","","","<p><img src= images/blank.png width =""200"" height = ""200"" style = ""float:right""></p><p><img src=images/blank.png width =""800"" height = ""200""></p>","","","","","","","","","","",""
"","309.5850000026403","trial","sequential-stimulus-presentation","354","669152","0.0-61.0-1.6","SS1612117450475","","40","700","1009.5850000026403","","","","18","simple_similar","images/stimuli/spore_stims/simple_12_B_c.gif","middle","","","","",""
"","null","","html-keyboard-response","355","670057","0.0-61.0-0.7","SS1612117450475","","null","","","<p><img src= images/blank.png width =""200"" height = ""200"" style = ""float:right""></p><p><img src=images/blank.png width =""800"" height = ""200""></p>","","","","","","","","","","",""
"","658.1149999983609","trial","sequential-stimulus-presentation","356","671425","0.0-61.0-1.7","SS1612117450475","","40","700","1358.1149999983609","","","","18","simple_similar","images/stimuli/spore_stims/simple_12_A_c.gif","left","","","","",""
"","992.055000002496","pref_question","html-keyboard-response","357","672424","0.0-62.0","SS1612117450475","","49","","","<img src=images/stimuli/pokeballs_pref.jpg width =""800"" height = ""200"" style=""padding-top: 33%"">","1","left","18","","","","","","","",""
"","494.8399999993853","pref_reveal","sequential-stimulus-presentation","358","673631","0.0-63.0","SS1612117450475","","40","700","1194.8399999993853","","","","18","","","","deviant","","","",""
"","null","","html-keyboard-response","359","674703","0.0-64.0-0.0","SS1612117450475","","null","","","<p><img src= images/blank.png width =""200"" height = ""200"" style = ""float:right""></p><p><img src=images/blank.png width =""800"" height = ""200""></p>","","","","","","","","","","",""
"","456.9499999997206","trial","sequential-stimulus-presentation","360","675872","0.0-64.0-1.0","SS1612117450475","","40","700","1156.9499999997206","","","","19","simple_dissimilar","images/stimuli/spore_stims/simple_20_A_c.gif","middle","","","","",""
"","null","","html-keyboard-response","361","676956","0.0-64.0-0.1","SS1612117450475","","null","","","<p><img src= images/blank.png width =""200"" height = ""200"" style = ""float:right""></p><p><img src=images/blank.png width =""800"" height = ""200""></p>","","","","","","","","","","",""
"","359.5750000021653","trial","sequential-stimulus-presentation","362","678061","0.0-64.0-1.1","SS1612117450475","","40","700","1059.5750000021653","","","","19","simple_dissimilar","images/stimuli/spore_stims/simple_20_A_c.gif","middle","","","","",""
"","null","","html-keyboard-response","363","679260","0.0-64.0-0.2","SS1612117450475","","null","","","<p><img src= images/blank.png width =""200"" height = ""200"" style = ""float:right""></p><p><img src=images/blank.png width =""800"" height = ""200""></p>","","","","","","","","","","",""
"","852.7350000003353","trial","sequential-stimulus-presentation","364","680824","0.0-64.0-1.2","SS1612117450475","","40","700","1552.7350000003353","","","","19","simple_dissimilar","images/stimuli/spore_stims/simple_20_A_c.gif","middle","","","","",""
"","null","","html-keyboard-response","365","682100","0.0-64.0-0.3","SS1612117450475","","null","","","<p><img src= images/blank.png width =""200"" height = ""200"" style = ""float:right""></p><p><img src=images/blank.png width =""800"" height = ""200""></p>","","","","","","","","","","",""
"","414.37999999464955","trial","sequential-stimulus-presentation","366","683227","0.0-64.0-1.3","SS1612117450475","","40","700","1114.3799999946496","","","","19","simple_dissimilar","images/stimuli/spore_stims/simple_20_A_c.gif","middle","","","","",""
"","null","","html-keyboard-response","367","684534","0.0-64.0-0.4","SS1612117450475","","null","","","<p><img src= images/blank.png width =""200"" height = ""200"" style = ""float:right""></p><p><img src=images/blank.png width =""800"" height = ""200""></p>","","","","","","","","","","",""
"","1617.259999999078","trial","sequential-stimulus-presentation","368","686865","0.0-64.0-1.4","SS1612117450475","","40","700","2317.259999999078","","","","19","simple_dissimilar","images/stimuli/spore_stims/simple_20_A_c.gif","middle","","","","",""
"","null","","html-keyboard-response","369","687905","0.0-64.0-0.5","SS1612117450475","","null","","","<p><img src= images/blank.png width =""200"" height = ""200"" style = ""float:right""></p><p><img src=images/blank.png width =""800"" height = ""200""></p>","","","","","","","","","","",""
"","716.8400000010151","trial","sequential-stimulus-presentation","370","689333","0.0-64.0-1.5","SS1612117450475","","40","700","1416.8400000010151","","","","19","simple_dissimilar","images/stimuli/spore_stims/simple_15_A_a.gif","right","","","","",""
