"view_history","rt","stimulus_type","trial_type","trial_index","time_elapsed","internal_node_id","subject","trial_stimulus","key_press","minimum_viewing_duration","trial_looking_time","stimulus","ball_pref","location","block_number","stimulus_displayed","position_displayed","stim_type_selected","responses","question_order","stimulus_left","stimulus_right"
"[{""page_index"":0,""viewing_time"":16705.379999941215},{""page_index"":1,""viewing_time"":6034.355000127107}]","22740.98000000231","instructions","instructions","0","22923","0.0-0.0","SS1611940408831","","","","","","","","","","","","","","",""
"","7636.500000022352","","sequential-stimulus-presentation","1","31475","0.0-1.0","SS1611940408831","","40","900","8536.500000022352","","","","","","","","","","",""
"","13389.285000041127","","sequential-stimulus-presentation","2","45767","0.0-2.0","SS1611940408831","","40","900","14289.285000041127","","","","","","","","","","",""
"[{""page_index"":0,""viewing_time"":17842.279999982566}]","17842.60999993421","instructions","instructions","3","63613","0.0-3.0","SS1611940408831","","","","","","","","","","","","","","",""
"","21358.99499990046","instructions","html-keyboard-response","4","84976","0.0-4.0","SS1611940408831","","49","","","<img src=images/stimuli/pokeballs_pref.jpg width =""800"" height = ""200"" style=""padding-top: 33%"">","1","left","","","","","","","",""
"","10481.129999971017","pref_reveal","sequential-stimulus-presentation","5","96361","0.0-5.0","SS1611940408831","","40","900","11381.129999971017","","","","","","","","","","",""
"[{""page_index"":0,""viewing_time"":19029.700000071898},{""page_index"":1,""viewing_time"":7540.73500004597},{""page_index"":2,""viewing_time"":1384.6449998673052},{""page_index"":3,""viewing_time"":1616.5800001472235}]","29571.905000135303","instructions","instructions","6","125937","0.0-6.0","SS1611940408831","","","","","","","","","","","","","","",""
"","null","","html-keyboard-response","7","127178","0.0-7.0-0.0","SS1611940408831","","null","","","<p><img src= images/blank.png width =""200"" height = ""200"" style = ""float:right""></p><p><img src=images/blank.png width =""800"" height = ""200""></p>","","","","","","","","","",""
"","8633.429999928921","trial","sequential-stimulus-presentation","8","136721","0.0-7.0-1.0","SS1611940408831","","40","900","9533.429999928921","","","","0","images/stimuli/spore_stims/simple_12_A_a.gif","right","","","","",""
"","null","","html-keyboard-response","9","137599","0.0-7.0-0.1","SS1611940408831","","null","","","<p><img src= images/blank.png width =""200"" height = ""200"" style = ""float:right""></p><p><img src=images/blank.png width =""800"" height = ""200""></p>","","","","","","","","","",""
"","2747.8899999987334","trial","sequential-stimulus-presentation","10","141254","0.0-7.0-1.1","SS1611940408831","","40","900","3647.8899999987334","","","","0","images/stimuli/spore_stims/simple_12_A_a.gif","right","","","","",""
"","null","","html-keyboard-response","11","142344","0.0-7.0-0.2","SS1611940408831","","null","","","<p><img src= images/blank.png width =""200"" height = ""200"" style = ""float:right""></p><p><img src=images/blank.png width =""800"" height = ""200""></p>","","","","","","","","","",""
"","1364.619999891147","trial","sequential-stimulus-presentation","12","144615","0.0-7.0-1.2","SS1611940408831","","40","900","2264.619999891147","","","","0","images/stimuli/spore_stims/simple_12_A_a.gif","right","","","","",""
"","null","","html-keyboard-response","13","145485","0.0-7.0-0.3","SS1611940408831","","null","","","<p><img src= images/blank.png width =""200"" height = ""200"" style = ""float:right""></p><p><img src=images/blank.png width =""800"" height = ""200""></p>","","","","","","","","","",""
"","2614.7099998779595","trial","sequential-stimulus-presentation","14","149009","0.0-7.0-1.3","SS1611940408831","","40","900","3514.7099998779595","","","","0","images/stimuli/spore_stims/simple_12_A_a.gif","right","","","","",""
"","null","","html-keyboard-response","15","149968","0.0-7.0-0.4","SS1611940408831","","null","","","<p><img src= images/blank.png width =""200"" height = ""200"" style = ""float:right""></p><p><img src=images/blank.png width =""800"" height = ""200""></p>","","","","","","","","","",""
"","986.6400000173599","trial","sequential-stimulus-presentation","16","151864","0.0-7.0-1.4","SS1611940408831","","40","900","1886.6400000173599","","","","0","images/stimuli/spore_stims/simple_12_A_a.gif","right","","","","",""
"","null","","html-keyboard-response","17","152913","0.0-7.0-0.5","SS1611940408831","","null","","","<p><img src= images/blank.png width =""200"" height = ""200"" style = ""float:right""></p><p><img src=images/blank.png width =""800"" height = ""200""></p>","","","","","","","","","",""
"","748.3050001319498","trial","sequential-stimulus-presentation","18","154572","0.0-7.0-1.5","SS1611940408831","","40","900","1648.3050001319498","","","","0","images/stimuli/spore_stims/simple_12_A_a.gif","right","","","","",""
"","null","","html-keyboard-response","19","155446","0.0-7.0-0.6","SS1611940408831","","null","","","<p><img src= images/blank.png width =""200"" height = ""200"" style = ""float:right""></p><p><img src=images/blank.png width =""800"" height = ""200""></p>","","","","","","","","","",""
"","1127.125000115484","trial","sequential-stimulus-presentation","20","157483","0.0-7.0-1.6","SS1611940408831","","40","900","2027.125000115484","","","","0","images/stimuli/spore_stims/simple_12_A_a.gif","right","","","","",""
"","null","","html-keyboard-response","21","158694","0.0-7.0-0.7","SS1611940408831","","null","","","<p><img src= images/blank.png width =""200"" height = ""200"" style = ""float:right""></p><p><img src=images/blank.png width =""800"" height = ""200""></p>","","","","","","","","","",""
"","3685.025000013411","trial","sequential-stimulus-presentation","22","163289","0.0-7.0-1.7","SS1611940408831","","40","900","4585.025000013411","","","","0","images/stimuli/spore_stims/simple_12_A_a.gif","right","","","","",""
"","null","","html-keyboard-response","23","164295","0.0-7.0-0.8","SS1611940408831","","null","","","<p><img src= images/blank.png width =""200"" height = ""200"" style = ""float:right""></p><p><img src=images/blank.png width =""800"" height = ""200""></p>","","","","","","","","","",""
"","6255.995000014082","trial","sequential-stimulus-presentation","24","171462","0.0-7.0-1.8","SS1611940408831","","40","900","7155.995000014082","","","","0","images/stimuli/spore_stims/simple_12_B_a.gif","left","","","","",""
"","2694.0899998880923","pref_question","html-keyboard-response","25","174164","0.0-8.0","SS1611940408831","","50","","","<img src=images/stimuli/pokeballs_pref.jpg width =""800"" height = ""200"" style=""padding-top: 33%"">","2","middle","0","","","","","","",""
"","6374.9449998140335","pref_reveal","sequential-stimulus-presentation","26","181449","0.0-9.0","SS1611940408831","","40","900","7274.9449998140335","","","","0","","","novel","","","",""
"","null","","html-keyboard-response","27","182408","0.0-10.0-0.0","SS1611940408831","","null","","","<p><img src= images/blank.png width =""200"" height = ""200"" style = ""float:right""></p><p><img src=images/blank.png width =""800"" height = ""200""></p>","","","","","","","","","",""
"","5507.785000139847","trial","sequential-stimulus-presentation","28","188828","0.0-10.0-1.0","SS1611940408831","","40","900","6407.785000139847","","","","1","images/stimuli/spore_stims/simple_11_B_a.gif","middle","","","","",""
"","null","","html-keyboard-response","29","189781","0.0-10.0-0.1","SS1611940408831","","null","","","<p><img src= images/blank.png width =""200"" height = ""200"" style = ""float:right""></p><p><img src=images/blank.png width =""800"" height = ""200""></p>","","","","","","","","","",""
"","8052.819999866188","trial","sequential-stimulus-presentation","30","198747","0.0-10.0-1.1","SS1611940408831","","40","900","8952.819999866188","","","","1","images/stimuli/spore_stims/simple_11_B_a.gif","middle","","","","",""
"","null","","html-keyboard-response","31","199747","0.0-10.0-0.2","SS1611940408831","","null","","","<p><img src= images/blank.png width =""200"" height = ""200"" style = ""float:right""></p><p><img src=images/blank.png width =""800"" height = ""200""></p>","","","","","","","","","",""
"","1695.4550000373274","trial","sequential-stimulus-presentation","32","202355","0.0-10.0-1.2","SS1611940408831","","40","900","2595.4550000373274","","","","1","images/stimuli/spore_stims/simple_11_B_a.gif","middle","","","","",""
"","null","","html-keyboard-response","33","203435","0.0-10.0-0.3","SS1611940408831","","null","","","<p><img src= images/blank.png width =""200"" height = ""200"" style = ""float:right""></p><p><img src=images/blank.png width =""800"" height = ""200""></p>","","","","","","","","","",""
"","1035.880000097677","trial","sequential-stimulus-presentation","34","205385","0.0-10.0-1.3","SS1611940408831","","40","900","1935.880000097677","","","","1","images/stimuli/spore_stims/simple_11_B_a.gif","middle","","","","",""
"","null","","html-keyboard-response","35","206354","0.0-10.0-0.4","SS1611940408831","","null","","","<p><img src= images/blank.png width =""200"" height = ""200"" style = ""float:right""></p><p><img src=images/blank.png width =""800"" height = ""200""></p>","","","","","","","","","",""
"","592.7099999971688","trial","sequential-stimulus-presentation","36","207863","0.0-10.0-1.4","SS1611940408831","","40","900","1492.7099999971688","","","","1","images/stimuli/spore_stims/simple_11_B_a.gif","middle","","","","",""
"","null","","html-keyboard-response","37","208750","0.0-10.0-0.5","SS1611940408831","","null","","","<p><img src= images/blank.png width =""200"" height = ""200"" style = ""float:right""></p><p><img src=images/blank.png width =""800"" height = ""200""></p>","","","","","","","","","",""
"","6115.315000060946","trial","sequential-stimulus-presentation","38","215779","0.0-10.0-1.5","SS1611940408831","","40","900","7015.315000060946","","","","1","images/stimuli/spore_stims/simple_15_B_a.gif","left","","","","",""
"","null","","html-keyboard-response","39","216795","0.0-10.0-0.6","SS1611940408831","","null","","","<p><img src= images/blank.png width =""200"" height = ""200"" style = ""float:right""></p><p><img src=images/blank.png width =""800"" height = ""200""></p>","","","","","","","","","",""
"","2620.799999916926","trial","sequential-stimulus-presentation","40","220330","0.0-10.0-1.6","SS1611940408831","","40","900","3520.799999916926","","","","1","images/stimuli/spore_stims/simple_11_B_a.gif","middle","","","","",""
"","null","","html-keyboard-response","41","221551","0.0-10.0-0.7","SS1611940408831","","null","","","<p><img src= images/blank.png width =""200"" height = ""200"" style = ""float:right""></p><p><img src=images/blank.png width =""800"" height = ""200""></p>","","","","","","","","","",""
"","788.3850000798702","trial","sequential-stimulus-presentation","42","223254","0.0-10.0-1.7","SS1611940408831","","40","900","1688.3850000798702","","","","1","images/stimuli/spore_stims/simple_11_B_a.gif","middle","","","","",""
"","1702.4750001728535","pref_question","html-keyboard-response","43","224966","0.0-11.0","SS1611940408831","","51","","","<img src=images/stimuli/pokeballs_pref.jpg width =""800"" height = ""200"" style=""padding-top: 33%"">","3","right","1","","","","","","",""
"","4221.980000147596","pref_reveal","sequential-stimulus-presentation","44","230101","0.0-12.0","SS1611940408831","","40","900","5121.980000147596","","","","1","","","novel","","","",""
"","null","","html-keyboard-response","45","231064","0.0-13.0-0.0","SS1611940408831","","null","","","<p><img src= images/blank.png width =""200"" height = ""200"" style = ""float:right""></p><p><img src=images/blank.png width =""800"" height = ""200""></p>","","","","","","","","","",""
"","5798.985000001267","trial","sequential-stimulus-presentation","46","237779","0.0-13.0-1.0","SS1611940408831","","40","900","6698.985000001267","","","","2","images/stimuli/spore_stims/simple_19_A_c.gif","right","","","","",""
"","null","","html-keyboard-response","47","239053","0.0-13.0-0.1","SS1611940408831","","null","","","<p><img src= images/blank.png width =""200"" height = ""200"" style = ""float:right""></p><p><img src=images/blank.png width =""800"" height = ""200""></p>","","","","","","","","","",""
"","5302.515000104904","trial","sequential-stimulus-presentation","48","245273","0.0-13.0-1.1","SS1611940408831","","40","900","6202.515000104904","","","","2","images/stimuli/spore_stims/simple_19_A_c.gif","right","","","","",""
"","null","","html-keyboard-response","49","246370","0.0-13.0-0.2","SS1611940408831","","null","","","<p><img src= images/blank.png width =""200"" height = ""200"" style = ""float:right""></p><p><img src=images/blank.png width =""800"" height = ""200""></p>","","","","","","","","","",""
"","2794.7449998464435","trial","sequential-stimulus-presentation","50","250084","0.0-13.0-1.2","SS1611940408831","","40","900","3694.7449998464435","","","","2","images/stimuli/spore_stims/simple_19_A_c.gif","right","","","","",""
"","null","","html-keyboard-response","51","251201","0.0-13.0-0.3","SS1611940408831","","null","","","<p><img src= images/blank.png width =""200"" height = ""200"" style = ""float:right""></p><p><img src=images/blank.png width =""800"" height = ""200""></p>","","","","","","","","","",""
"","4716.319999890402","trial","sequential-stimulus-presentation","52","256834","0.0-13.0-1.3","SS1611940408831","","40","900","5616.319999890402","","","","2","images/stimuli/spore_stims/simple_19_B_c.gif","middle","","","","",""
"","null","","html-keyboard-response","53","257854","0.0-13.0-0.4","SS1611940408831","","null","","","<p><img src= images/blank.png width =""200"" height = ""200"" style = ""float:right""></p><p><img src=images/blank.png width =""800"" height = ""200""></p>","","","","","","","","","",""
"","3060.9299999196082","trial","sequential-stimulus-presentation","54","261837","0.0-13.0-1.4","SS1611940408831","","40","900","3960.9299999196082","","","","2","images/stimuli/spore_stims/simple_19_A_c.gif","right","","","","",""
"","null","","html-keyboard-response","55","262806","0.0-13.0-0.5","SS1611940408831","","null","","","<p><img src= images/blank.png width =""200"" height = ""200"" style = ""float:right""></p><p><img src=images/blank.png width =""800"" height = ""200""></p>","","","","","","","","","",""
"","949.0350000560284","trial","sequential-stimulus-presentation","56","264673","0.0-13.0-1.5","SS1611940408831","","40","900","1849.0350000560284","","","","2","images/stimuli/spore_stims/simple_19_A_c.gif","right","","","","",""
"","null","","html-keyboard-response","57","265839","0.0-13.0-0.6","SS1611940408831","","null","","","<p><img src= images/blank.png width =""200"" height = ""200"" style = ""float:right""></p><p><img src=images/blank.png width =""800"" height = ""200""></p>","","","","","","","","","",""
"","929.4000000227243","trial","sequential-stimulus-presentation","58","267687","0.0-13.0-1.6","SS1611940408831","","40","900","1829.4000000227243","","","","2","images/stimuli/spore_stims/simple_19_A_c.gif","right","","","","",""
"","null","","html-keyboard-response","59","268632","0.0-13.0-0.7","SS1611940408831","","null","","","<p><img src= images/blank.png width =""200"" height = ""200"" style = ""float:right""></p><p><img src=images/blank.png width =""800"" height = ""200""></p>","","","","","","","","","",""
"","545.3000001143664","trial","sequential-stimulus-presentation","60","270096","0.0-13.0-1.7","SS1611940408831","","40","900","1445.3000001143664","","","","2","images/stimuli/spore_stims/simple_19_A_c.gif","right","","","","",""
"","1815.3050001710653","pref_question","html-keyboard-response","61","271927","0.0-14.0","SS1611940408831","","49","","","<img src=images/stimuli/pokeballs_pref.jpg width =""800"" height = ""200"" style=""padding-top: 33%"">","1","left","2","","","","","","",""
"","6645.459999796003","pref_reveal","sequential-stimulus-presentation","62","279489","0.0-15.0","SS1611940408831","","40","900","7545.459999796003","","","","2","","","novel","","","",""
"","null","","html-keyboard-response","63","280710","0.0-16.0-0.0","SS1611940408831","","null","","","<p><img src= images/blank.png width =""200"" height = ""200"" style = ""float:right""></p><p><img src=images/blank.png width =""800"" height = ""200""></p>","","","","","","","","","",""
"","5658.030000049621","trial","sequential-stimulus-presentation","64","287289","0.0-16.0-1.0","SS1611940408831","","40","900","6558.030000049621","","","","3","images/stimuli/spore_stims/simple_06_A_b.gif","right","","","","",""
"","null","","html-keyboard-response","65","288331","0.0-16.0-0.1","SS1611940408831","","null","","","<p><img src= images/blank.png width =""200"" height = ""200"" style = ""float:right""></p><p><img src=images/blank.png width =""800"" height = ""200""></p>","","","","","","","","","",""
"","1023.1750002130866","trial","sequential-stimulus-presentation","66","290279","0.0-16.0-1.1","SS1611940408831","","40","900","1923.1750002130866","","","","3","images/stimuli/spore_stims/simple_06_A_b.gif","right","","","","",""
"","null","","html-keyboard-response","67","291357","0.0-16.0-0.2","SS1611940408831","","null","","","<p><img src= images/blank.png width =""200"" height = ""200"" style = ""float:right""></p><p><img src=images/blank.png width =""800"" height = ""200""></p>","","","","","","","","","",""
"","466.9099999591708","trial","sequential-stimulus-presentation","68","292742","0.0-16.0-1.2","SS1611940408831","","40","900","1366.9099999591708","","","","3","images/stimuli/spore_stims/simple_06_A_b.gif","right","","","","",""
"","null","","html-keyboard-response","69","293826","0.0-16.0-0.3","SS1611940408831","","null","","","<p><img src= images/blank.png width =""200"" height = ""200"" style = ""float:right""></p><p><img src=images/blank.png width =""800"" height = ""200""></p>","","","","","","","","","",""
"","430.55000016465783","trial","sequential-stimulus-presentation","70","295178","0.0-16.0-1.3","SS1611940408831","","40","900","1330.5500001646578","","","","3","images/stimuli/spore_stims/simple_06_A_b.gif","right","","","","",""
"","null","","html-keyboard-response","71","296062","0.0-16.0-0.4","SS1611940408831","","null","","","<p><img src= images/blank.png width =""200"" height = ""200"" style = ""float:right""></p><p><img src=images/blank.png width =""800"" height = ""200""></p>","","","","","","","","","",""
"","9750.82499999553","trial","sequential-stimulus-presentation","72","306737","0.0-16.0-1.4","SS1611940408831","","40","900","10650.82499999553","","","","3","images/stimuli/spore_stims/simple_05_A_a.gif","left","","","","",""
"","null","","html-keyboard-response","73","307628","0.0-16.0-0.5","SS1611940408831","","null","","","<p><img src= images/blank.png width =""200"" height = ""200"" style = ""float:right""></p><p><img src=images/blank.png width =""800"" height = ""200""></p>","","","","","","","","","",""
"","1284.5000000670552","trial","sequential-stimulus-presentation","74","309834","0.0-16.0-1.5","SS1611940408831","","40","900","2184.500000067055","","","","3","images/stimuli/spore_stims/simple_06_A_b.gif","right","","","","",""
"","null","","html-keyboard-response","75","310941","0.0-16.0-0.6","SS1611940408831","","null","","","<p><img src= images/blank.png width =""200"" height = ""200"" style = ""float:right""></p><p><img src=images/blank.png width =""800"" height = ""200""></p>","","","","","","","","","",""
"","423.4699998050928","trial","sequential-stimulus-presentation","76","312288","0.0-16.0-1.6","SS1611940408831","","40","900","1323.4699998050928","","","","3","images/stimuli/spore_stims/simple_06_A_b.gif","right","","","","",""
"","null","","html-keyboard-response","77","313247","0.0-16.0-0.7","SS1611940408831","","null","","","<p><img src= images/blank.png width =""200"" height = ""200"" style = ""float:right""></p><p><img src=images/blank.png width =""800"" height = ""200""></p>","","","","","","","","","",""
"","492.4149999860674","trial","sequential-stimulus-presentation","78","314664","0.0-16.0-1.7","SS1611940408831","","40","900","1392.4149999860674","","","","3","images/stimuli/spore_stims/simple_06_A_b.gif","right","","","","",""
"","1609.3899998813868","pref_question","html-keyboard-response","79","316292","0.0-17.0","SS1611940408831","","50","","","<img src=images/stimuli/pokeballs_pref.jpg width =""800"" height = ""200"" style=""padding-top: 33%"">","2","middle","3","","","","","","",""
"","5018.084999872372","pref_reveal","sequential-stimulus-presentation","80","322236","0.0-18.0","SS1611940408831","","40","900","5918.084999872372","","","","3","","","novel","","","",""
"","null","","html-keyboard-response","81","323137","0.0-19.0-0.0","SS1611940408831","","null","","","<p><img src= images/blank.png width =""200"" height = ""200"" style = ""float:right""></p><p><img src=images/blank.png width =""800"" height = ""200""></p>","","","","","","","","","",""
"","4343.300000065938","trial","sequential-stimulus-presentation","82","328404","0.0-19.0-1.0","SS1611940408831","","40","900","5243.300000065938","","","","4","images/stimuli/spore_stims/simple_18_A_d.gif","left","","","","",""
"","null","","html-keyboard-response","83","329580","0.0-19.0-0.1","SS1611940408831","","null","","","<p><img src= images/blank.png width =""200"" height = ""200"" style = ""float:right""></p><p><img src=images/blank.png width =""800"" height = ""200""></p>","","","","","","","","","",""
"","897.194999968633","trial","sequential-stimulus-presentation","84","331400","0.0-19.0-1.1","SS1611940408831","","40","900","1797.194999968633","","","","4","images/stimuli/spore_stims/simple_18_A_d.gif","left","","","","",""
"","null","","html-keyboard-response","85","332271","0.0-19.0-0.2","SS1611940408831","","null","","","<p><img src= images/blank.png width =""200"" height = ""200"" style = ""float:right""></p><p><img src=images/blank.png width =""800"" height = ""200""></p>","","","","","","","","","",""
"","559.3599998392165","trial","sequential-stimulus-presentation","86","333754","0.0-19.0-1.2","SS1611940408831","","40","900","1459.3599998392165","","","","4","images/stimuli/spore_stims/simple_18_A_d.gif","left","","","","",""
"","null","","html-keyboard-response","87","334611","0.0-19.0-0.3","SS1611940408831","","null","","","<p><img src= images/blank.png width =""200"" height = ""200"" style = ""float:right""></p><p><img src=images/blank.png width =""800"" height = ""200""></p>","","","","","","","","","",""
"","1129.4050000142306","trial","sequential-stimulus-presentation","88","336664","0.0-19.0-1.3","SS1611940408831","","40","900","2029.4050000142306","","","","4","images/stimuli/spore_stims/simple_18_A_d.gif","left","","","","",""
"","null","","html-keyboard-response","89","337556","0.0-19.0-0.4","SS1611940408831","","null","","","<p><img src= images/blank.png width =""200"" height = ""200"" style = ""float:right""></p><p><img src=images/blank.png width =""800"" height = ""200""></p>","","","","","","","","","",""
"","521.7899999115616","trial","sequential-stimulus-presentation","90","339003","0.0-19.0-1.4","SS1611940408831","","40","900","1421.7899999115616","","","","4","images/stimuli/spore_stims/simple_18_A_d.gif","left","","","","",""
"","null","","html-keyboard-response","91","340328","0.0-19.0-0.5","SS1611940408831","","null","","","<p><img src= images/blank.png width =""200"" height = ""200"" style = ""float:right""></p><p><img src=images/blank.png width =""800"" height = ""200""></p>","","","","","","","","","",""
"","345.0899999588728","trial","sequential-stimulus-presentation","92","341599","0.0-19.0-1.5","SS1611940408831","","40","900","1245.0899999588728","","","","4","images/stimuli/spore_stims/simple_18_A_d.gif","left","","","","",""
"","null","","html-keyboard-response","93","342613","0.0-19.0-0.6","SS1611940408831","","null","","","<p><img src= images/blank.png width =""200"" height = ""200"" style = ""float:right""></p><p><img src=images/blank.png width =""800"" height = ""200""></p>","","","","","","","","","",""
"","476.99499991722405","trial","sequential-stimulus-presentation","94","344016","0.0-19.0-1.6","SS1611940408831","","40","900","1376.994999917224","","","","4","images/stimuli/spore_stims/simple_18_A_d.gif","left","","","","",""
"","null","","html-keyboard-response","95","345080","0.0-19.0-0.7","SS1611940408831","","null","","","<p><img src= images/blank.png width =""200"" height = ""200"" style = ""float:right""></p><p><img src=images/blank.png width =""800"" height = ""200""></p>","","","","","","","","","",""
"","2795.2099998947233","trial","sequential-stimulus-presentation","96","348802","0.0-19.0-1.7","SS1611940408831","","40","900","3695.2099998947233","","","","4","images/stimuli/spore_stims/simple_18_B_d.gif","middle","","","","",""
"","2760.0899999961257","pref_question","html-keyboard-response","97","351585","0.0-20.0","SS1611940408831","","51","","","<img src=images/stimuli/pokeballs_pref.jpg width =""800"" height = ""200"" style=""padding-top: 33%"">","3","right","4","","","","","","",""
"","2856.2300000339746","pref_reveal","sequential-stimulus-presentation","98","355366","0.0-21.0","SS1611940408831","","40","900","3756.2300000339746","","","","4","","","novel","","","",""
"","null","","html-keyboard-response","99","356465","0.0-22.0-0.0","SS1611940408831","","null","","","<p><img src= images/blank.png width =""200"" height = ""200"" style = ""float:right""></p><p><img src=images/blank.png width =""800"" height = ""200""></p>","","","","","","","","","",""
"","3547.939999960363","trial","sequential-stimulus-presentation","100","360940","0.0-22.0-1.0","SS1611940408831","","40","900","4447.939999960363","","","","5","images/stimuli/spore_stims/complex_06_A_a.gif","right","","","","",""
"","null","","html-keyboard-response","101","362132","0.0-22.0-0.1","SS1611940408831","","null","","","<p><img src= images/blank.png width =""200"" height = ""200"" style = ""float:right""></p><p><img src=images/blank.png width =""800"" height = ""200""></p>","","","","","","","","","",""
"","2484.3800000380725","trial","sequential-stimulus-presentation","102","365542","0.0-22.0-1.1","SS1611940408831","","40","900","3384.3800000380725","","","","5","images/stimuli/spore_stims/complex_06_A_a.gif","right","","","","",""
"","null","","html-keyboard-response","103","366507","0.0-22.0-0.2","SS1611940408831","","null","","","<p><img src= images/blank.png width =""200"" height = ""200"" style = ""float:right""></p><p><img src=images/blank.png width =""800"" height = ""200""></p>","","","","","","","","","",""
"","1266.730000032112","trial","sequential-stimulus-presentation","104","368701","0.0-22.0-1.2","SS1611940408831","","40","900","2166.730000032112","","","","5","images/stimuli/spore_stims/complex_06_A_a.gif","right","","","","",""
"","null","","html-keyboard-response","105","369895","0.0-22.0-0.3","SS1611940408831","","null","","","<p><img src= images/blank.png width =""200"" height = ""200"" style = ""float:right""></p><p><img src=images/blank.png width =""800"" height = ""200""></p>","","","","","","","","","",""
"","3820.1150000095367","trial","sequential-stimulus-presentation","106","374644","0.0-22.0-1.3","SS1611940408831","","40","900","4720.115000009537","","","","5","images/stimuli/spore_stims/complex_01_B_b.gif","left","","","","",""
"","null","","html-keyboard-response","107","375848","0.0-22.0-0.4","SS1611940408831","","null","","","<p><img src= images/blank.png width =""200"" height = ""200"" style = ""float:right""></p><p><img src=images/blank.png width =""800"" height = ""200""></p>","","","","","","","","","",""
"","830.0450001843274","trial","sequential-stimulus-presentation","108","377606","0.0-22.0-1.4","SS1611940408831","","40","900","1730.0450001843274","","","","5","images/stimuli/spore_stims/complex_06_A_a.gif","right","","","","",""
"","null","","html-keyboard-response","109","378455","0.0-22.0-0.5","SS1611940408831","","null","","","<p><img src= images/blank.png width =""200"" height = ""200"" style = ""float:right""></p><p><img src=images/blank.png width =""800"" height = ""200""></p>","","","","","","","","","",""
"","601.5649999026209","trial","sequential-stimulus-presentation","110","379984","0.0-22.0-1.5","SS1611940408831","","40","900","1501.564999902621","","","","5","images/stimuli/spore_stims/complex_06_A_a.gif","right","","","","",""
"","null","","html-keyboard-response","111","380929","0.0-22.0-0.6","SS1611940408831","","null","","","<p><img src= images/blank.png width =""200"" height = ""200"" style = ""float:right""></p><p><img src=images/blank.png width =""800"" height = ""200""></p>","","","","","","","","","",""
"","717.5900000147521","trial","sequential-stimulus-presentation","112","382580","0.0-22.0-1.6","SS1611940408831","","40","900","1617.5900000147521","","","","5","images/stimuli/spore_stims/complex_06_A_a.gif","right","","","","",""
"","null","","html-keyboard-response","113","383704","0.0-22.0-0.7","SS1611940408831","","null","","","<p><img src= images/blank.png width =""200"" height = ""200"" style = ""float:right""></p><p><img src=images/blank.png width =""800"" height = ""200""></p>","","","","","","","","","",""
"","611.5900001022965","trial","sequential-stimulus-presentation","114","385245","0.0-22.0-1.7","SS1611940408831","","40","900","1511.5900001022965","","","","5","images/stimuli/spore_stims/complex_06_A_a.gif","right","","","","",""
"","1323.290000203997","pref_question","html-keyboard-response","115","386597","0.0-23.0","SS1611940408831","","50","","","<img src=images/stimuli/pokeballs_pref.jpg width =""800"" height = ""200"" style=""padding-top: 33%"">","2","middle","5","","","","","","",""
"","1392.3200001008809","pref_reveal","sequential-stimulus-presentation","116","388916","0.0-24.0","SS1611940408831","","40","900","2292.320000100881","","","","5","","","novel","","","",""
"","null","","html-keyboard-response","117","389760","0.0-25.0-0.0","SS1611940408831","","null","","","<p><img src= images/blank.png width =""200"" height = ""200"" style = ""float:right""></p><p><img src=images/blank.png width =""800"" height = ""200""></p>","","","","","","","","","",""
"","3178.3799999393523","trial","sequential-stimulus-presentation","118","393869","0.0-25.0-1.0","SS1611940408831","","40","900","4078.3799999393523","","","","6","images/stimuli/spore_stims/simple_13_A_c.gif","middle","","","","",""
"","null","","html-keyboard-response","119","394941","0.0-25.0-0.1","SS1611940408831","","null","","","<p><img src= images/blank.png width =""200"" height = ""200"" style = ""float:right""></p><p><img src=images/blank.png width =""800"" height = ""200""></p>","","","","","","","","","",""
"","1099.2349998559803","trial","sequential-stimulus-presentation","120","396972","0.0-25.0-1.1","SS1611940408831","","40","900","1999.2349998559803","","","","6","images/stimuli/spore_stims/simple_13_A_c.gif","middle","","","","",""
"","null","","html-keyboard-response","121","397870","0.0-25.0-0.2","SS1611940408831","","null","","","<p><img src= images/blank.png width =""200"" height = ""200"" style = ""float:right""></p><p><img src=images/blank.png width =""800"" height = ""200""></p>","","","","","","","","","",""
"","589.2199999652803","trial","sequential-stimulus-presentation","122","399391","0.0-25.0-1.2","SS1611940408831","","40","900","1489.2199999652803","","","","6","images/stimuli/spore_stims/simple_13_A_c.gif","middle","","","","",""
"","null","","html-keyboard-response","123","400277","0.0-25.0-0.3","SS1611940408831","","null","","","<p><img src= images/blank.png width =""200"" height = ""200"" style = ""float:right""></p><p><img src=images/blank.png width =""800"" height = ""200""></p>","","","","","","","","","",""
"","388.8250000309199","trial","sequential-stimulus-presentation","124","401597","0.0-25.0-1.3","SS1611940408831","","40","900","1288.82500003092","","","","6","images/stimuli/spore_stims/simple_13_A_c.gif","middle","","","","",""
"","null","","html-keyboard-response","125","402465","0.0-25.0-0.4","SS1611940408831","","null","","","<p><img src= images/blank.png width =""200"" height = ""200"" style = ""float:right""></p><p><img src=images/blank.png width =""800"" height = ""200""></p>","","","","","","","","","",""
"","412.38499991595745","trial","sequential-stimulus-presentation","126","403811","0.0-25.0-1.4","SS1611940408831","","40","900","1312.3849999159575","","","","6","images/stimuli/spore_stims/simple_13_A_c.gif","middle","","","","",""
"","null","","html-keyboard-response","127","404714","0.0-25.0-0.5","SS1611940408831","","null","","","<p><img src= images/blank.png width =""200"" height = ""200"" style = ""float:right""></p><p><img src=images/blank.png width =""800"" height = ""200""></p>","","","","","","","","","",""
"","375.400000018999","trial","sequential-stimulus-presentation","128","406021","0.0-25.0-1.5","SS1611940408831","","40","900","1275.400000018999","","","","6","images/stimuli/spore_stims/simple_13_A_c.gif","middle","","","","",""
"","null","","html-keyboard-response","129","406903","0.0-25.0-0.6","SS1611940408831","","null","","","<p><img src= images/blank.png width =""200"" height = ""200"" style = ""float:right""></p><p><img src=images/blank.png width =""800"" height = ""200""></p>","","","","","","","","","",""
"","392.0899999793619","trial","sequential-stimulus-presentation","130","408228","0.0-25.0-1.6","SS1611940408831","","40","900","1292.089999979362","","","","6","images/stimuli/spore_stims/simple_13_A_c.gif","middle","","","","",""
"","null","","html-keyboard-response","131","409426","0.0-25.0-0.7","SS1611940408831","","null","","","<p><img src= images/blank.png width =""200"" height = ""200"" style = ""float:right""></p><p><img src=images/blank.png width =""800"" height = ""200""></p>","","","","","","","","","",""
"","437.70499993115664","trial","sequential-stimulus-presentation","132","410795","0.0-25.0-1.7","SS1611940408831","","40","900","1337.7049999311566","","","","6","images/stimuli/spore_stims/simple_13_A_c.gif","middle","","","","",""
"","null","","html-keyboard-response","133","411936","0.0-25.0-0.8","SS1611940408831","","null","","","<p><img src= images/blank.png width =""200"" height = ""200"" style = ""float:right""></p><p><img src=images/blank.png width =""800"" height = ""200""></p>","","","","","","","","","",""
"","5104.384999955073","trial","sequential-stimulus-presentation","134","417967","0.0-25.0-1.8","SS1611940408831","","40","900","6004.384999955073","","","","6","images/stimuli/spore_stims/simple_13_B_c.gif","left","","","","",""
"","2586.030000122264","pref_question","html-keyboard-response","135","420584","0.0-26.0","SS1611940408831","","51","","","<img src=images/stimuli/pokeballs_pref.jpg width =""800"" height = ""200"" style=""padding-top: 33%"">","3","right","6","","","","","","",""
"","4053.5250001121312","pref_reveal","sequential-stimulus-presentation","136","425567","0.0-27.0","SS1611940408831","","40","900","4953.525000112131","","","","6","","","novel","","","",""
"","null","","html-keyboard-response","137","426420","0.0-28.0-0.0","SS1611940408831","","null","","","<p><img src= images/blank.png width =""200"" height = ""200"" style = ""float:right""></p><p><img src=images/blank.png width =""800"" height = ""200""></p>","","","","","","","","","",""
"","3528.459999943152","trial","sequential-stimulus-presentation","138","430883","0.0-28.0-1.0","SS1611940408831","","40","900","4428.459999943152","","","","7","images/stimuli/spore_stims/complex_12_A_b.gif","right","","","","",""
"","null","","html-keyboard-response","139","431872","0.0-28.0-0.1","SS1611940408831","","null","","","<p><img src= images/blank.png width =""200"" height = ""200"" style = ""float:right""></p><p><img src=images/blank.png width =""800"" height = ""200""></p>","","","","","","","","","",""
"","2627.1949999500066","trial","sequential-stimulus-presentation","140","435433","0.0-28.0-1.1","SS1611940408831","","40","900","3527.1949999500066","","","","7","images/stimuli/spore_stims/complex_12_A_b.gif","right","","","","",""
"","null","","html-keyboard-response","141","436761","0.0-28.0-0.2","SS1611940408831","","null","","","<p><img src= images/blank.png width =""200"" height = ""200"" style = ""float:right""></p><p><img src=images/blank.png width =""800"" height = ""200""></p>","","","","","","","","","",""
"","1603.2150001265109","trial","sequential-stimulus-presentation","142","439300","0.0-28.0-1.2","SS1611940408831","","40","900","2503.215000126511","","","","7","images/stimuli/spore_stims/complex_12_A_b.gif","right","","","","",""
"","null","","html-keyboard-response","143","440576","0.0-28.0-0.3","SS1611940408831","","null","","","<p><img src= images/blank.png width =""200"" height = ""200"" style = ""float:right""></p><p><img src=images/blank.png width =""800"" height = ""200""></p>","","","","","","","","","",""
"","489.27500005811453","trial","sequential-stimulus-presentation","144","441998","0.0-28.0-1.3","SS1611940408831","","40","900","1389.2750000581145","","","","7","images/stimuli/spore_stims/complex_12_A_b.gif","right","","","","",""
"","null","","html-keyboard-response","145","443047","0.0-28.0-0.4","SS1611940408831","","null","","","<p><img src= images/blank.png width =""200"" height = ""200"" style = ""float:right""></p><p><img src=images/blank.png width =""800"" height = ""200""></p>","","","","","","","","","",""
"","369.0899999346584","trial","sequential-stimulus-presentation","146","444355","0.0-28.0-1.4","SS1611940408831","","40","900","1269.0899999346584","","","","7","images/stimuli/spore_stims/complex_12_A_b.gif","right","","","","",""
"","null","","html-keyboard-response","147","445458","0.0-28.0-0.5","SS1611940408831","","null","","","<p><img src= images/blank.png width =""200"" height = ""200"" style = ""float:right""></p><p><img src=images/blank.png width =""800"" height = ""200""></p>","","","","","","","","","",""
"","390.1150000747293","trial","sequential-stimulus-presentation","148","446784","0.0-28.0-1.5","SS1611940408831","","40","900","1290.1150000747293","","","","7","images/stimuli/spore_stims/complex_12_A_b.gif","right","","","","",""
"","null","","html-keyboard-response","149","447800","0.0-28.0-0.6","SS1611940408831","","null","","","<p><img src= images/blank.png width =""200"" height = ""200"" style = ""float:right""></p><p><img src=images/blank.png width =""800"" height = ""200""></p>","","","","","","","","","",""
"","363.18000010214746","trial","sequential-stimulus-presentation","150","449099","0.0-28.0-1.6","SS1611940408831","","40","900","1263.1800001021475","","","","7","images/stimuli/spore_stims/complex_12_A_b.gif","right","","","","",""
"","null","","html-keyboard-response","151","450076","0.0-28.0-0.7","SS1611940408831","","null","","","<p><img src= images/blank.png width =""200"" height = ""200"" style = ""float:right""></p><p><img src=images/blank.png width =""800"" height = ""200""></p>","","","","","","","","","",""
"","371.16999994032085","trial","sequential-stimulus-presentation","152","451382","0.0-28.0-1.7","SS1611940408831","","40","900","1271.1699999403208","","","","7","images/stimuli/spore_stims/complex_12_A_b.gif","right","","","","",""
"","null","","html-keyboard-response","153","452470","0.0-28.0-0.8","SS1611940408831","","null","","","<p><img src= images/blank.png width =""200"" height = ""200"" style = ""float:right""></p><p><img src=images/blank.png width =""800"" height = ""200""></p>","","","","","","","","","",""
"","3588.274999987334","trial","sequential-stimulus-presentation","154","456997","0.0-28.0-1.8","SS1611940408831","","40","900","4488.274999987334","","","","7","images/stimuli/spore_stims/complex_12_B_b.gif","left","","","","",""
"","1365.0849999394268","pref_question","html-keyboard-response","155","458397","0.0-29.0","SS1611940408831","","50","","","<img src=images/stimuli/pokeballs_pref.jpg width =""800"" height = ""200"" style=""padding-top: 33%"">","2","middle","7","","","","","","",""
"","4260.114999953657","pref_reveal","sequential-stimulus-presentation","156","463594","0.0-30.0","SS1611940408831","","40","900","5160.114999953657","","","","7","","","novel","","","",""
"","null","","html-keyboard-response","157","464611","0.0-31.0-0.0","SS1611940408831","","null","","","<p><img src= images/blank.png width =""200"" height = ""200"" style = ""float:right""></p><p><img src=images/blank.png width =""800"" height = ""200""></p>","","","","","","","","","",""
"","4234.094999963418","trial","sequential-stimulus-presentation","158","469781","0.0-31.0-1.0","SS1611940408831","","40","900","5134.094999963418","","","","8","images/stimuli/spore_stims/complex_03_A_b.gif","left","","","","",""
"","null","","html-keyboard-response","159","470997","0.0-31.0-0.1","SS1611940408831","","null","","","<p><img src= images/blank.png width =""200"" height = ""200"" style = ""float:right""></p><p><img src=images/blank.png width =""800"" height = ""200""></p>","","","","","","","","","",""
"","1072.734999936074","trial","sequential-stimulus-presentation","160","473008","0.0-31.0-1.1","SS1611940408831","","40","900","1972.734999936074","","","","8","images/stimuli/spore_stims/complex_03_A_b.gif","left","","","","",""
"","null","","html-keyboard-response","161","474244","0.0-31.0-0.2","SS1611940408831","","null","","","<p><img src= images/blank.png width =""200"" height = ""200"" style = ""float:right""></p><p><img src=images/blank.png width =""800"" height = ""200""></p>","","","","","","","","","",""
"","711.3149999640882","trial","sequential-stimulus-presentation","162","475894","0.0-31.0-1.2","SS1611940408831","","40","900","1611.3149999640882","","","","8","images/stimuli/spore_stims/complex_03_A_b.gif","left","","","","",""
"","null","","html-keyboard-response","163","477109","0.0-31.0-0.3","SS1611940408831","","null","","","<p><img src= images/blank.png width =""200"" height = ""200"" style = ""float:right""></p><p><img src=images/blank.png width =""800"" height = ""200""></p>","","","","","","","","","",""
"","303.6800001282245","trial","sequential-stimulus-presentation","164","478352","0.0-31.0-1.3","SS1611940408831","","40","900","1203.6800001282245","","","","8","images/stimuli/spore_stims/complex_03_A_b.gif","left","","","","",""
"","null","","html-keyboard-response","165","479314","0.0-31.0-0.4","SS1611940408831","","null","","","<p><img src= images/blank.png width =""200"" height = ""200"" style = ""float:right""></p><p><img src=images/blank.png width =""800"" height = ""200""></p>","","","","","","","","","",""
"","506.59499992616475","trial","sequential-stimulus-presentation","166","480758","0.0-31.0-1.4","SS1611940408831","","40","900","1406.5949999261647","","","","8","images/stimuli/spore_stims/complex_03_A_b.gif","left","","","","",""
"","null","","html-keyboard-response","167","481844","0.0-31.0-0.5","SS1611940408831","","null","","","<p><img src= images/blank.png width =""200"" height = ""200"" style = ""float:right""></p><p><img src=images/blank.png width =""800"" height = ""200""></p>","","","","","","","","","",""
"","329.17500007897615","trial","sequential-stimulus-presentation","168","483114","0.0-31.0-1.5","SS1611940408831","","40","900","1229.1750000789762","","","","8","images/stimuli/spore_stims/complex_03_A_b.gif","left","","","","",""
"","null","","html-keyboard-response","169","484213","0.0-31.0-0.6","SS1611940408831","","null","","","<p><img src= images/blank.png width =""200"" height = ""200"" style = ""float:right""></p><p><img src=images/blank.png width =""800"" height = ""200""></p>","","","","","","","","","",""
"","6.449999986216426","trial","sequential-stimulus-presentation","170","485159","0.0-31.0-1.6","SS1611940408831","","40","900","906.4499999862164","","","","8","images/stimuli/spore_stims/complex_03_A_b.gif","left","","","","",""
"","null","","html-keyboard-response","171","486081","0.0-31.0-0.7","SS1611940408831","","null","","","<p><img src= images/blank.png width =""200"" height = ""200"" style = ""float:right""></p><p><img src=images/blank.png width =""800"" height = ""200""></p>","","","","","","","","","",""
"","2487.9699999000877","trial","sequential-stimulus-presentation","172","489510","0.0-31.0-1.7","SS1611940408831","","40","900","3387.9699999000877","","","","8","images/stimuli/spore_stims/complex_03_B_b.gif","right","","","","",""
"","2697.7399999741465","pref_question","html-keyboard-response","173","492243","0.0-32.0","SS1611940408831","","50","","","<img src=images/stimuli/pokeballs_pref.jpg width =""800"" height = ""200"" style=""padding-top: 33%"">","2","middle","8","","","","","","",""
"","4928.059999831021","pref_reveal","sequential-stimulus-presentation","174","498109","0.0-33.0","SS1611940408831","","40","900","5828.059999831021","","","","8","","","novel","","","",""
"","null","","html-keyboard-response","175","499192","0.0-34.0-0.0","SS1611940408831","","null","","","<p><img src= images/blank.png width =""200"" height = ""200"" style = ""float:right""></p><p><img src=images/blank.png width =""800"" height = ""200""></p>","","","","","","","","","",""
"","2297.800000058487","trial","sequential-stimulus-presentation","176","502431","0.0-34.0-1.0","SS1611940408831","","40","900","3197.800000058487","","","","9","images/stimuli/spore_stims/complex_17_B_b.gif","right","","","","",""
"","null","","html-keyboard-response","177","503594","0.0-34.0-0.1","SS1611940408831","","null","","","<p><img src= images/blank.png width =""200"" height = ""200"" style = ""float:right""></p><p><img src=images/blank.png width =""800"" height = ""200""></p>","","","","","","","","","",""
"","2975.8849998470396","trial","sequential-stimulus-presentation","178","507510","0.0-34.0-1.1","SS1611940408831","","40","900","3875.8849998470396","","","","9","images/stimuli/spore_stims/complex_17_B_b.gif","right","","","","",""
"","null","","html-keyboard-response","179","508616","0.0-34.0-0.2","SS1611940408831","","null","","","<p><img src= images/blank.png width =""200"" height = ""200"" style = ""float:right""></p><p><img src=images/blank.png width =""800"" height = ""200""></p>","","","","","","","","","",""
"","1400.55499994196","trial","sequential-stimulus-presentation","180","510959","0.0-34.0-1.2","SS1611940408831","","40","900","2300.55499994196","","","","9","images/stimuli/spore_stims/complex_17_B_b.gif","right","","","","",""
"","null","","html-keyboard-response","181","512010","0.0-34.0-0.3","SS1611940408831","","null","","","<p><img src= images/blank.png width =""200"" height = ""200"" style = ""float:right""></p><p><img src=images/blank.png width =""800"" height = ""200""></p>","","","","","","","","","",""
"","1083.4850000683218","trial","sequential-stimulus-presentation","182","514035","0.0-34.0-1.3","SS1611940408831","","40","900","1983.4850000683218","","","","9","images/stimuli/spore_stims/complex_17_B_b.gif","right","","","","",""
"","null","","html-keyboard-response","183","515327","0.0-34.0-0.4","SS1611940408831","","null","","","<p><img src= images/blank.png width =""200"" height = ""200"" style = ""float:right""></p><p><img src=images/blank.png width =""800"" height = ""200""></p>","","","","","","","","","",""
"","586.7349999025464","trial","sequential-stimulus-presentation","184","516854","0.0-34.0-1.4","SS1611940408831","","40","900","1486.7349999025464","","","","9","images/stimuli/spore_stims/complex_17_B_b.gif","right","","","","",""
"","null","","html-keyboard-response","185","517814","0.0-34.0-0.5","SS1611940408831","","null","","","<p><img src= images/blank.png width =""200"" height = ""200"" style = ""float:right""></p><p><img src=images/blank.png width =""800"" height = ""200""></p>","","","","","","","","","",""
"","484.6749999560416","trial","sequential-stimulus-presentation","186","519240","0.0-34.0-1.5","SS1611940408831","","40","900","1384.6749999560416","","","","9","images/stimuli/spore_stims/complex_17_B_b.gif","right","","","","",""
"","null","","html-keyboard-response","187","520297","0.0-34.0-0.6","SS1611940408831","","null","","","<p><img src= images/blank.png width =""200"" height = ""200"" style = ""float:right""></p><p><img src=images/blank.png width =""800"" height = ""200""></p>","","","","","","","","","",""
"","477.8599999845028","trial","sequential-stimulus-presentation","188","521716","0.0-34.0-1.6","SS1611940408831","","40","900","1377.8599999845028","","","","9","images/stimuli/spore_stims/complex_17_B_b.gif","right","","","","",""
"","null","","html-keyboard-response","189","522833","0.0-34.0-0.7","SS1611940408831","","null","","","<p><img src= images/blank.png width =""200"" height = ""200"" style = ""float:right""></p><p><img src=images/blank.png width =""800"" height = ""200""></p>","","","","","","","","","",""
"","5481.844999827445","trial","sequential-stimulus-presentation","190","529257","0.0-34.0-1.7","SS1611940408831","","40","900","6381.844999827445","","","","9","images/stimuli/spore_stims/complex_07_B_d.gif","middle","","","","",""
"","3858.405000064522","pref_question","html-keyboard-response","191","533153","0.0-35.0","SS1611940408831","","49","","","<img src=images/stimuli/pokeballs_pref.jpg width =""800"" height = ""200"" style=""padding-top: 33%"">","1","left","9","","","","","","",""
"","1859.7699999809265","pref_reveal","sequential-stimulus-presentation","192","535951","0.0-36.0","SS1611940408831","","40","900","2759.7699999809265","","","","9","","","novel","","","",""
"","null","","html-keyboard-response","193","537061","0.0-37.0-0.0","SS1611940408831","","null","","","<p><img src= images/blank.png width =""200"" height = ""200"" style = ""float:right""></p><p><img src=images/blank.png width =""800"" height = ""200""></p>","","","","","","","","","",""
"","3648.414999945089","trial","sequential-stimulus-presentation","194","541645","0.0-37.0-1.0","SS1611940408831","","40","900","4548.414999945089","","","","10","images/stimuli/spore_stims/complex_11_A_a.gif","middle","","","","",""
"","null","","html-keyboard-response","195","542714","0.0-37.0-0.1","SS1611940408831","","null","","","<p><img src= images/blank.png width =""200"" height = ""200"" style = ""float:right""></p><p><img src=images/blank.png width =""800"" height = ""200""></p>","","","","","","","","","",""
"","536.6150001063943","trial","sequential-stimulus-presentation","196","544193","0.0-37.0-1.1","SS1611940408831","","40","900","1436.6150001063943","","","","10","images/stimuli/spore_stims/complex_11_A_a.gif","middle","","","","",""
"","null","","html-keyboard-response","197","545239","0.0-37.0-0.2","SS1611940408831","","null","","","<p><img src= images/blank.png width =""200"" height = ""200"" style = ""float:right""></p><p><img src=images/blank.png width =""800"" height = ""200""></p>","","","","","","","","","",""
"","296.3749999180436","trial","sequential-stimulus-presentation","198","546480","0.0-37.0-1.2","SS1611940408831","","40","900","1196.3749999180436","","","","10","images/stimuli/spore_stims/complex_11_A_a.gif","middle","","","","",""
"","null","","html-keyboard-response","199","547497","0.0-37.0-0.3","SS1611940408831","","null","","","<p><img src= images/blank.png width =""200"" height = ""200"" style = ""float:right""></p><p><img src=images/blank.png width =""800"" height = ""200""></p>","","","","","","","","","",""
"","491.57499987632036","trial","sequential-stimulus-presentation","200","548934","0.0-37.0-1.3","SS1611940408831","","40","900","1391.5749998763204","","","","10","images/stimuli/spore_stims/complex_11_A_a.gif","middle","","","","",""
"","null","","html-keyboard-response","201","549799","0.0-37.0-0.4","SS1611940408831","","null","","","<p><img src= images/blank.png width =""200"" height = ""200"" style = ""float:right""></p><p><img src=images/blank.png width =""800"" height = ""200""></p>","","","","","","","","","",""
"","2258.9149998966604","trial","sequential-stimulus-presentation","202","553001","0.0-37.0-1.4","SS1611940408831","","40","900","3158.9149998966604","","","","10","images/stimuli/spore_stims/complex_11_B_a.gif","right","","","","",""
"","null","","html-keyboard-response","203","554044","0.0-37.0-0.5","SS1611940408831","","null","","","<p><img src= images/blank.png width =""200"" height = ""200"" style = ""float:right""></p><p><img src=images/blank.png width =""800"" height = ""200""></p>","","","","","","","","","",""
"","523.4399999026209","trial","sequential-stimulus-presentation","204","555512","0.0-37.0-1.5","SS1611940408831","","40","900","1423.439999902621","","","","10","images/stimuli/spore_stims/complex_11_A_a.gif","middle","","","","",""
"","null","","html-keyboard-response","205","556493","0.0-37.0-0.6","SS1611940408831","","null","","","<p><img src= images/blank.png width =""200"" height = ""200"" style = ""float:right""></p><p><img src=images/blank.png width =""800"" height = ""200""></p>","","","","","","","","","",""
"","522.7900000754744","trial","sequential-stimulus-presentation","206","557962","0.0-37.0-1.6","SS1611940408831","","40","900","1422.7900000754744","","","","10","images/stimuli/spore_stims/complex_11_A_a.gif","middle","","","","",""
"","null","","html-keyboard-response","207","558906","0.0-37.0-0.7","SS1611940408831","","null","","","<p><img src= images/blank.png width =""200"" height = ""200"" style = ""float:right""></p><p><img src=images/blank.png width =""800"" height = ""200""></p>","","","","","","","","","",""
"","336.4899998996407","trial","sequential-stimulus-presentation","208","560187","0.0-37.0-1.7","SS1611940408831","","40","900","1236.4899998996407","","","","10","images/stimuli/spore_stims/complex_11_A_a.gif","middle","","","","",""
"","1282.9800001345575","pref_question","html-keyboard-response","209","561516","0.0-38.0","SS1611940408831","","49","","","<img src=images/stimuli/pokeballs_pref.jpg width =""800"" height = ""200"" style=""padding-top: 33%"">","1","left","10","","","","","","",""
"","12686.450000153854","pref_reveal","sequential-stimulus-presentation","210","575146","0.0-39.0","SS1611940408831","","40","900","13586.450000153854","","","","10","","","novel","","","",""
"","null","","html-keyboard-response","211","576320","0.0-40.0-0.0","SS1611940408831","","null","","","<p><img src= images/blank.png width =""200"" height = ""200"" style = ""float:right""></p><p><img src=images/blank.png width =""800"" height = ""200""></p>","","","","","","","","","",""
"","4018.2449999265373","trial","sequential-stimulus-presentation","212","581283","0.0-40.0-1.0","SS1611940408831","","40","900","4918.244999926537","","","","11","images/stimuli/spore_stims/simple_01_A_d.gif","middle","","","","",""
"","null","","html-keyboard-response","213","582354","0.0-40.0-0.1","SS1611940408831","","null","","","<p><img src= images/blank.png width =""200"" height = ""200"" style = ""float:right""></p><p><img src=images/blank.png width =""800"" height = ""200""></p>","","","","","","","","","",""
"","398.3199999202043","trial","sequential-stimulus-presentation","214","583700","0.0-40.0-1.1","SS1611940408831","","40","900","1298.3199999202043","","","","11","images/stimuli/spore_stims/simple_01_A_d.gif","middle","","","","",""
"","null","","html-keyboard-response","215","584636","0.0-40.0-0.2","SS1611940408831","","null","","","<p><img src= images/blank.png width =""200"" height = ""200"" style = ""float:right""></p><p><img src=images/blank.png width =""800"" height = ""200""></p>","","","","","","","","","",""
"","277.3249999154359","trial","sequential-stimulus-presentation","216","585863","0.0-40.0-1.2","SS1611940408831","","40","900","1177.324999915436","","","","11","images/stimuli/spore_stims/simple_01_A_d.gif","middle","","","","",""
"","null","","html-keyboard-response","217","587010","0.0-40.0-0.3","SS1611940408831","","null","","","<p><img src= images/blank.png width =""200"" height = ""200"" style = ""float:right""></p><p><img src=images/blank.png width =""800"" height = ""200""></p>","","","","","","","","","",""
"","296.5400000102818","trial","sequential-stimulus-presentation","218","588261","0.0-40.0-1.3","SS1611940408831","","40","900","1196.5400000102818","","","","11","images/stimuli/spore_stims/simple_01_A_d.gif","middle","","","","",""
"","null","","html-keyboard-response","219","589449","0.0-40.0-0.4","SS1611940408831","","null","","","<p><img src= images/blank.png width =""200"" height = ""200"" style = ""float:right""></p><p><img src=images/blank.png width =""800"" height = ""200""></p>","","","","","","","","","",""
"","429.52500004321337","trial","sequential-stimulus-presentation","220","590829","0.0-40.0-1.4","SS1611940408831","","40","900","1329.5250000432134","","","","11","images/stimuli/spore_stims/simple_01_A_d.gif","middle","","","","",""
"","null","","html-keyboard-response","221","591759","0.0-40.0-0.5","SS1611940408831","","null","","","<p><img src= images/blank.png width =""200"" height = ""200"" style = ""float:right""></p><p><img src=images/blank.png width =""800"" height = ""200""></p>","","","","","","","","","",""
"","5439.835000084713","trial","sequential-stimulus-presentation","222","598146","0.0-40.0-1.5","SS1611940408831","","40","900","6339.835000084713","","","","11","images/stimuli/spore_stims/simple_01_A_d.gif","middle","","","","",""
"","null","","html-keyboard-response","223","599224","0.0-40.0-0.6","SS1611940408831","","null","","","<p><img src= images/blank.png width =""200"" height = ""200"" style = ""float:right""></p><p><img src=images/blank.png width =""800"" height = ""200""></p>","","","","","","","","","",""
"","2041.9949998613447","trial","sequential-stimulus-presentation","224","602219","0.0-40.0-1.6","SS1611940408831","","40","900","2941.9949998613447","","","","11","images/stimuli/spore_stims/simple_08_A_a.gif","left","","","","",""
"","null","","html-keyboard-response","225","603342","0.0-40.0-0.7","SS1611940408831","","null","","","<p><img src= images/blank.png width =""200"" height = ""200"" style = ""float:right""></p><p><img src=images/blank.png width =""800"" height = ""200""></p>","","","","","","","","","",""
"","698.9150000736117","trial","sequential-stimulus-presentation","226","604992","0.0-40.0-1.7","SS1611940408831","","40","900","1598.9150000736117","","","","11","images/stimuli/spore_stims/simple_01_A_d.gif","middle","","","","",""
"","1730.7400000281632","pref_question","html-keyboard-response","227","606767","0.0-41.0","SS1611940408831","","51","","","<img src=images/stimuli/pokeballs_pref.jpg width =""800"" height = ""200"" style=""padding-top: 33%"">","3","right","11","","","","","","",""
"","1885.0449998863041","pref_reveal","sequential-stimulus-presentation","228","609600","0.0-42.0","SS1611940408831","","40","900","2785.044999886304","","","","11","","","novel","","","",""
"","null","","html-keyboard-response","229","610775","0.0-43.0-0.0","SS1611940408831","","null","","","<p><img src= images/blank.png width =""200"" height = ""200"" style = ""float:right""></p><p><img src=images/blank.png width =""800"" height = ""200""></p>","","","","","","","","","",""
"","3219.295000191778","trial","sequential-stimulus-presentation","230","614945","0.0-43.0-1.0","SS1611940408831","","40","900","4119.295000191778","","","","12","images/stimuli/spore_stims/complex_15_A_c.gif","right","","","","",""
"","null","","html-keyboard-response","231","616079","0.0-43.0-0.1","SS1611940408831","","null","","","<p><img src= images/blank.png width =""200"" height = ""200"" style = ""float:right""></p><p><img src=images/blank.png width =""800"" height = ""200""></p>","","","","","","","","","",""
"","612.5000000465661","trial","sequential-stimulus-presentation","232","617646","0.0-43.0-1.1","SS1611940408831","","40","900","1512.5000000465661","","","","12","images/stimuli/spore_stims/complex_15_A_c.gif","right","","","","",""
"","null","","html-keyboard-response","233","618932","0.0-43.0-0.2","SS1611940408831","","null","","","<p><img src= images/blank.png width =""200"" height = ""200"" style = ""float:right""></p><p><img src=images/blank.png width =""800"" height = ""200""></p>","","","","","","","","","",""
"","290.71500012651086","trial","sequential-stimulus-presentation","234","620171","0.0-43.0-1.2","SS1611940408831","","40","900","1190.7150001265109","","","","12","images/stimuli/spore_stims/complex_15_A_c.gif","right","","","","",""
"","null","","html-keyboard-response","235","621294","0.0-43.0-0.3","SS1611940408831","","null","","","<p><img src= images/blank.png width =""200"" height = ""200"" style = ""float:right""></p><p><img src=images/blank.png width =""800"" height = ""200""></p>","","","","","","","","","",""
"","371.27999984659255","trial","sequential-stimulus-presentation","236","622612","0.0-43.0-1.3","SS1611940408831","","40","900","1271.2799998465925","","","","12","images/stimuli/spore_stims/complex_15_A_c.gif","right","","","","",""
"","null","","html-keyboard-response","237","623716","0.0-43.0-0.4","SS1611940408831","","null","","","<p><img src= images/blank.png width =""200"" height = ""200"" style = ""float:right""></p><p><img src=images/blank.png width =""800"" height = ""200""></p>","","","","","","","","","",""
"","297.5200000219047","trial","sequential-stimulus-presentation","238","624966","0.0-43.0-1.4","SS1611940408831","","40","900","1197.5200000219047","","","","12","images/stimuli/spore_stims/complex_15_A_c.gif","right","","","","",""
"","null","","html-keyboard-response","239","626149","0.0-43.0-0.5","SS1611940408831","","null","","","<p><img src= images/blank.png width =""200"" height = ""200"" style = ""float:right""></p><p><img src=images/blank.png width =""800"" height = ""200""></p>","","","","","","","","","",""
"","330.904999980703","trial","sequential-stimulus-presentation","240","627433","0.0-43.0-1.5","SS1611940408831","","40","900","1230.904999980703","","","","12","images/stimuli/spore_stims/complex_15_A_c.gif","right","","","","",""
"","null","","html-keyboard-response","241","628767","0.0-43.0-0.6","SS1611940408831","","null","","","<p><img src= images/blank.png width =""200"" height = ""200"" style = ""float:right""></p><p><img src=images/blank.png width =""800"" height = ""200""></p>","","","","","","","","","",""
"","303.59499994665384","trial","sequential-stimulus-presentation","242","630017","0.0-43.0-1.6","SS1611940408831","","40","900","1203.5949999466538","","","","12","images/stimuli/spore_stims/complex_15_A_c.gif","right","","","","",""
"","null","","html-keyboard-response","243","631305","0.0-43.0-0.7","SS1611940408831","","null","","","<p><img src= images/blank.png width =""200"" height = ""200"" style = ""float:right""></p><p><img src=images/blank.png width =""800"" height = ""200""></p>","","","","","","","","","",""
"","286.9850001297891","trial","sequential-stimulus-presentation","244","632543","0.0-43.0-1.7","SS1611940408831","","40","900","1186.9850001297891","","","","12","images/stimuli/spore_stims/complex_15_A_c.gif","right","","","","",""
"","null","","html-keyboard-response","245","633490","0.0-43.0-0.8","SS1611940408831","","null","","","<p><img src= images/blank.png width =""200"" height = ""200"" style = ""float:right""></p><p><img src=images/blank.png width =""800"" height = ""200""></p>","","","","","","","","","",""
"","18121.725000208244","trial","sequential-stimulus-presentation","246","652565","0.0-43.0-1.8","SS1611940408831","","40","900","19021.725000208244","","","","12","images/stimuli/spore_stims/complex_15_B_c.gif","middle","","","","",""
"","1961.0049999319017","pref_question","html-keyboard-response","247","654578","0.0-44.0","SS1611940408831","","50","","","<img src=images/stimuli/pokeballs_pref.jpg width =""800"" height = ""200"" style=""padding-top: 33%"">","2","middle","12","","","","","","",""
"","1692.964999936521","pref_reveal","sequential-stimulus-presentation","248","657217","0.0-45.0","SS1611940408831","","40","900","2592.964999936521","","","","12","","","deviant","","","",""
"","null","","html-keyboard-response","249","658213","0.0-46.0-0.0","SS1611940408831","","null","","","<p><img src= images/blank.png width =""200"" height = ""200"" style = ""float:right""></p><p><img src=images/blank.png width =""800"" height = ""200""></p>","","","","","","","","","",""
"","1817.3249999526888","trial","sequential-stimulus-presentation","250","660983","0.0-46.0-1.0","SS1611940408831","","40","900","2717.324999952689","","","","13","images/stimuli/spore_stims/complex_10_B_b.gif","middle","","","","",""
"","null","","html-keyboard-response","251","662328","0.0-46.0-0.1","SS1611940408831","","null","","","<p><img src= images/blank.png width =""200"" height = ""200"" style = ""float:right""></p><p><img src=images/blank.png width =""800"" height = ""200""></p>","","","","","","","","","",""
"","318.9650001004338","trial","sequential-stimulus-presentation","252","663595","0.0-46.0-1.1","SS1611940408831","","40","900","1218.9650001004338","","","","13","images/stimuli/spore_stims/complex_10_B_b.gif","middle","","","","",""
"","null","","html-keyboard-response","253","664919","0.0-46.0-0.2","SS1611940408831","","null","","","<p><img src= images/blank.png width =""200"" height = ""200"" style = ""float:right""></p><p><img src=images/blank.png width =""800"" height = ""200""></p>","","","","","","","","","",""
"","245.76999992132187","trial","sequential-stimulus-presentation","254","666117","0.0-46.0-1.2","SS1611940408831","","40","900","1145.7699999213219","","","","13","images/stimuli/spore_stims/complex_10_B_b.gif","middle","","","","",""
"","null","","html-keyboard-response","255","667376","0.0-46.0-0.3","SS1611940408831","","null","","","<p><img src= images/blank.png width =""200"" height = ""200"" style = ""float:right""></p><p><img src=images/blank.png width =""800"" height = ""200""></p>","","","","","","","","","",""
"","267.1999998856336","trial","sequential-stimulus-presentation","256","668596","0.0-46.0-1.3","SS1611940408831","","40","900","1167.1999998856336","","","","13","images/stimuli/spore_stims/complex_10_B_b.gif","middle","","","","",""
"","null","","html-keyboard-response","257","669899","0.0-46.0-0.4","SS1611940408831","","null","","","<p><img src= images/blank.png width =""200"" height = ""200"" style = ""float:right""></p><p><img src=images/blank.png width =""800"" height = ""200""></p>","","","","","","","","","",""
"","385.22000005468726","trial","sequential-stimulus-presentation","258","671237","0.0-46.0-1.4","SS1611940408831","","40","900","1285.2200000546873","","","","13","images/stimuli/spore_stims/complex_10_B_b.gif","middle","","","","",""
"","null","","html-keyboard-response","259","672366","0.0-46.0-0.5","SS1611940408831","","null","","","<p><img src= images/blank.png width =""200"" height = ""200"" style = ""float:right""></p><p><img src=images/blank.png width =""800"" height = ""200""></p>","","","","","","","","","",""
"","311.079999897629","trial","sequential-stimulus-presentation","260","673628","0.0-46.0-1.5","SS1611940408831","","40","900","1211.079999897629","","","","13","images/stimuli/spore_stims/complex_10_B_b.gif","middle","","","","",""
"","null","","html-keyboard-response","261","674879","0.0-46.0-0.6","SS1611940408831","","null","","","<p><img src= images/blank.png width =""200"" height = ""200"" style = ""float:right""></p><p><img src=images/blank.png width =""800"" height = ""200""></p>","","","","","","","","","",""
"","2575.315000023693","trial","sequential-stimulus-presentation","262","678408","0.0-46.0-1.6","SS1611940408831","","40","900","3475.315000023693","","","","13","images/stimuli/spore_stims/complex_19_B_a.gif","left","","","","",""
"","null","","html-keyboard-response","263","679263","0.0-46.0-0.7","SS1611940408831","","null","","","<p><img src= images/blank.png width =""200"" height = ""200"" style = ""float:right""></p><p><img src=images/blank.png width =""800"" height = ""200""></p>","","","","","","","","","",""
"","850.1299999188632","trial","sequential-stimulus-presentation","264","681070","0.0-46.0-1.7","SS1611940408831","","40","900","1750.1299999188632","","","","13","images/stimuli/spore_stims/complex_10_B_b.gif","middle","","","","",""
"","1464.505000039935","pref_question","html-keyboard-response","265","682586","0.0-47.0","SS1611940408831","","51","","","<img src=images/stimuli/pokeballs_pref.jpg width =""800"" height = ""200"" style=""padding-top: 33%"">","3","right","13","","","","","","",""
"","1327.3000000044703","pref_reveal","sequential-stimulus-presentation","266","684868","0.0-48.0","SS1611940408831","","40","900","2227.3000000044703","","","","13","","","novel","","","",""
"","null","","html-keyboard-response","267","685758","0.0-49.0-0.0","SS1611940408831","","null","","","<p><img src= images/blank.png width =""200"" height = ""200"" style = ""float:right""></p><p><img src=images/blank.png width =""800"" height = ""200""></p>","","","","","","","","","",""
"","1624.7000000439584","trial","sequential-stimulus-presentation","268","688336","0.0-49.0-1.0","SS1611940408831","","40","900","2524.7000000439584","","","","14","images/stimuli/spore_stims/simple_02_B_a.gif","left","","","","",""
"","null","","html-keyboard-response","269","689608","0.0-49.0-0.1","SS1611940408831","","null","","","<p><img src= images/blank.png width =""200"" height = ""200"" style = ""float:right""></p><p><img src=images/blank.png width =""800"" height = ""200""></p>","","","","","","","","","",""
"","879.0450000669807","trial","sequential-stimulus-presentation","270","691447","0.0-49.0-1.1","SS1611940408831","","40","900","1779.0450000669807","","","","14","images/stimuli/spore_stims/simple_02_B_a.gif","left","","","","",""
"","null","","html-keyboard-response","271","692466","0.0-49.0-0.2","SS1611940408831","","null","","","<p><img src= images/blank.png width =""200"" height = ""200"" style = ""float:right""></p><p><img src=images/blank.png width =""800"" height = ""200""></p>","","","","","","","","","",""
"","276.7600000370294","trial","sequential-stimulus-presentation","272","693698","0.0-49.0-1.2","SS1611940408831","","40","900","1176.7600000370294","","","","14","images/stimuli/spore_stims/simple_02_B_a.gif","left","","","","",""
"","null","","html-keyboard-response","273","694767","0.0-49.0-0.3","SS1611940408831","","null","","","<p><img src= images/blank.png width =""200"" height = ""200"" style = ""float:right""></p><p><img src=images/blank.png width =""800"" height = ""200""></p>","","","","","","","","","",""
"","305.8750000782311","trial","sequential-stimulus-presentation","274","696029","0.0-49.0-1.3","SS1611940408831","","40","900","1205.875000078231","","","","14","images/stimuli/spore_stims/simple_02_B_a.gif","left","","","","",""
"","null","","html-keyboard-response","275","697120","0.0-49.0-0.4","SS1611940408831","","null","","","<p><img src= images/blank.png width =""200"" height = ""200"" style = ""float:right""></p><p><img src=images/blank.png width =""800"" height = ""200""></p>","","","","","","","","","",""
"","421.4999999385327","trial","sequential-stimulus-presentation","276","698499","0.0-49.0-1.4","SS1611940408831","","40","900","1321.4999999385327","","","","14","images/stimuli/spore_stims/simple_02_B_a.gif","left","","","","",""
"","null","","html-keyboard-response","277","699830","0.0-49.0-0.5","SS1611940408831","","null","","","<p><img src= images/blank.png width =""200"" height = ""200"" style = ""float:right""></p><p><img src=images/blank.png width =""800"" height = ""200""></p>","","","","","","","","","",""
"","1401.2249999213964","trial","sequential-stimulus-presentation","278","702186","0.0-49.0-1.5","SS1611940408831","","40","900","2301.2249999213964","","","","14","images/stimuli/spore_stims/simple_07_A_d.gif","middle","","","","",""
"","null","","html-keyboard-response","279","703181","0.0-49.0-0.6","SS1611940408831","","null","","","<p><img src= images/blank.png width =""200"" height = ""200"" style = ""float:right""></p><p><img src=images/blank.png width =""800"" height = ""200""></p>","","","","","","","","","",""
"","622.5700001232326","trial","sequential-stimulus-presentation","280","704760","0.0-49.0-1.6","SS1611940408831","","40","900","1522.5700001232326","","","","14","images/stimuli/spore_stims/simple_02_B_a.gif","left","","","","",""
"","null","","html-keyboard-response","281","706071","0.0-49.0-0.7","SS1611940408831","","null","","","<p><img src= images/blank.png width =""200"" height = ""200"" style = ""float:right""></p><p><img src=images/blank.png width =""800"" height = ""200""></p>","","","","","","","","","",""
"","485.7499999925494","trial","sequential-stimulus-presentation","282","707516","0.0-49.0-1.7","SS1611940408831","","40","900","1385.7499999925494","","","","14","images/stimuli/spore_stims/simple_02_B_a.gif","left","","","","",""
"","1520.6849998794496","pref_question","html-keyboard-response","283","709092","0.0-50.0","SS1611940408831","","51","","","<img src=images/stimuli/pokeballs_pref.jpg width =""800"" height = ""200"" style=""padding-top: 33%"">","3","right","14","","","","","","",""
"","867.1200000680983","pref_reveal","sequential-stimulus-presentation","284","710915","0.0-51.0","SS1611940408831","","40","900","1767.1200000680983","","","","14","","","novel","","","",""
"","null","","html-keyboard-response","285","712255","0.0-52.0-0.0","SS1611940408831","","null","","","<p><img src= images/blank.png width =""200"" height = ""200"" style = ""float:right""></p><p><img src=images/blank.png width =""800"" height = ""200""></p>","","","","","","","","","",""
"","929.6649999450892","trial","sequential-stimulus-presentation","286","714141","0.0-52.0-1.0","SS1611940408831","","40","900","1829.6649999450892","","","","15","images/stimuli/spore_stims/simple_07_B_c.gif","right","","","","",""
"","null","","html-keyboard-response","287","715464","0.0-52.0-0.1","SS1611940408831","","null","","","<p><img src= images/blank.png width =""200"" height = ""200"" style = ""float:right""></p><p><img src=images/blank.png width =""800"" height = ""200""></p>","","","","","","","","","",""
"","385.43999986723065","trial","sequential-stimulus-presentation","288","716810","0.0-52.0-1.1","SS1611940408831","","40","900","1285.4399998672307","","","","15","images/stimuli/spore_stims/simple_07_B_c.gif","right","","","","",""
"","null","","html-keyboard-response","289","718032","0.0-52.0-0.2","SS1611940408831","","null","","","<p><img src= images/blank.png width =""200"" height = ""200"" style = ""float:right""></p><p><img src=images/blank.png width =""800"" height = ""200""></p>","","","","","","","","","",""
"","366.3650001399219","trial","sequential-stimulus-presentation","290","719357","0.0-52.0-1.2","SS1611940408831","","40","900","1266.365000139922","","","","15","images/stimuli/spore_stims/simple_07_B_c.gif","right","","","","",""
"","null","","html-keyboard-response","291","720526","0.0-52.0-0.3","SS1611940408831","","null","","","<p><img src= images/blank.png width =""200"" height = ""200"" style = ""float:right""></p><p><img src=images/blank.png width =""800"" height = ""200""></p>","","","","","","","","","",""
"","245.87500002235174","trial","sequential-stimulus-presentation","292","721732","0.0-52.0-1.3","SS1611940408831","","40","900","1145.8750000223517","","","","15","images/stimuli/spore_stims/simple_07_B_c.gif","right","","","","",""
"","null","","html-keyboard-response","293","722792","0.0-52.0-0.4","SS1611940408831","","null","","","<p><img src= images/blank.png width =""200"" height = ""200"" style = ""float:right""></p><p><img src=images/blank.png width =""800"" height = ""200""></p>","","","","","","","","","",""
"","331.89500006847084","trial","sequential-stimulus-presentation","294","724085","0.0-52.0-1.4","SS1611940408831","","40","900","1231.8950000684708","","","","15","images/stimuli/spore_stims/simple_07_B_c.gif","right","","","","",""
"","null","","html-keyboard-response","295","725228","0.0-52.0-0.5","SS1611940408831","","null","","","<p><img src= images/blank.png width =""200"" height = ""200"" style = ""float:right""></p><p><img src=images/blank.png width =""800"" height = ""200""></p>","","","","","","","","","",""
"","732.4349998962134","trial","sequential-stimulus-presentation","296","726921","0.0-52.0-1.5","SS1611940408831","","40","900","1632.4349998962134","","","","15","images/stimuli/spore_stims/simple_07_B_c.gif","right","","","","",""
"","null","","html-keyboard-response","297","727924","0.0-52.0-0.6","SS1611940408831","","null","","","<p><img src= images/blank.png width =""200"" height = ""200"" style = ""float:right""></p><p><img src=images/blank.png width =""800"" height = ""200""></p>","","","","","","","","","",""
"","406.565000070259","trial","sequential-stimulus-presentation","298","729290","0.0-52.0-1.6","SS1611940408831","","40","900","1306.565000070259","","","","15","images/stimuli/spore_stims/simple_07_B_c.gif","right","","","","",""
"","null","","html-keyboard-response","299","730199","0.0-52.0-0.7","SS1611940408831","","null","","","<p><img src= images/blank.png width =""200"" height = ""200"" style = ""float:right""></p><p><img src=images/blank.png width =""800"" height = ""200""></p>","","","","","","","","","",""
"","16.38499996624887","trial","sequential-stimulus-presentation","300","731178","0.0-52.0-1.7","SS1611940408831","","40","900","916.3849999662489","","","","15","images/stimuli/spore_stims/simple_16_A_b.gif","left","","","","",""
"","912.5900000799447","pref_question","html-keyboard-response","301","732152","0.0-53.0","SS1611940408831","","50","","","<img src=images/stimuli/pokeballs_pref.jpg width =""800"" height = ""200"" style=""padding-top: 33%"">","2","middle","15","","","","","","",""
"","3179.5950001105666","pref_reveal","sequential-stimulus-presentation","302","736294","0.0-54.0","SS1611940408831","","40","900","4079.5950001105666","","","","15","","","novel","","","",""
"","null","","html-keyboard-response","303","737279","0.0-55.0-0.0","SS1611940408831","","null","","","<p><img src= images/blank.png width =""200"" height = ""200"" style = ""float:right""></p><p><img src=images/blank.png width =""800"" height = ""200""></p>","","","","","","","","","",""
"","180467.15499996208","trial","sequential-stimulus-presentation","304","918713","0.0-55.0-1.0","SS1611940408831","","40","900","181367.15499996208","","","","16","images/stimuli/spore_stims/complex_10_A_a.gif","left","","","","",""
"","null","","html-keyboard-response","305","919996","0.0-55.0-0.1","SS1611940408831","","null","","","<p><img src= images/blank.png width =""200"" height = ""200"" style = ""float:right""></p><p><img src=images/blank.png width =""800"" height = ""200""></p>","","","","","","","","","",""
"","603.4450000151992","trial","sequential-stimulus-presentation","306","921560","0.0-55.0-1.1","SS1611940408831","","40","900","1503.4450000151992","","","","16","images/stimuli/spore_stims/complex_10_A_a.gif","left","","","","",""
"","null","","html-keyboard-response","307","922497","0.0-55.0-0.2","SS1611940408831","","null","","","<p><img src= images/blank.png width =""200"" height = ""200"" style = ""float:right""></p><p><img src=images/blank.png width =""800"" height = ""200""></p>","","","","","","","","","",""
"","238.68499998934567","trial","sequential-stimulus-presentation","308","923706","0.0-55.0-1.2","SS1611940408831","","40","900","1138.6849999893457","","","","16","images/stimuli/spore_stims/complex_10_A_a.gif","left","","","","",""
"","null","","html-keyboard-response","309","924630","0.0-55.0-0.3","SS1611940408831","","null","","","<p><img src= images/blank.png width =""200"" height = ""200"" style = ""float:right""></p><p><img src=images/blank.png width =""800"" height = ""200""></p>","","","","","","","","","",""
"","84.220000077039","trial","sequential-stimulus-presentation","310","925682","0.0-55.0-1.3","SS1611940408831","","40","900","984.220000077039","","","","16","images/stimuli/spore_stims/complex_10_A_a.gif","left","","","","",""
"","null","","html-keyboard-response","311","926990","0.0-55.0-0.4","SS1611940408831","","null","","","<p><img src= images/blank.png width =""200"" height = ""200"" style = ""float:right""></p><p><img src=images/blank.png width =""800"" height = ""200""></p>","","","","","","","","","",""
"","430.49499997869134","trial","sequential-stimulus-presentation","312","928381","0.0-55.0-1.4","SS1611940408831","","40","900","1330.4949999786913","","","","16","images/stimuli/spore_stims/complex_10_A_a.gif","left","","","","",""
"","null","","html-keyboard-response","313","929336","0.0-55.0-0.5","SS1611940408831","","null","","","<p><img src= images/blank.png width =""200"" height = ""200"" style = ""float:right""></p><p><img src=images/blank.png width =""800"" height = ""200""></p>","","","","","","","","","",""
"","4105.974999954924","trial","sequential-stimulus-presentation","314","934404","0.0-55.0-1.5","SS1611940408831","","40","900","5005.974999954924","","","","16","images/stimuli/spore_stims/complex_20_A_c.gif","middle","","","","",""
"","null","","html-keyboard-response","315","935328","0.0-55.0-0.6","SS1611940408831","","null","","","<p><img src= images/blank.png width =""200"" height = ""200"" style = ""float:right""></p><p><img src=images/blank.png width =""800"" height = ""200""></p>","","","","","","","","","",""
"","14612.189999781549","trial","sequential-stimulus-presentation","316","950907","0.0-55.0-1.6","SS1611940408831","","40","900","15512.189999781549","","","","16","images/stimuli/spore_stims/complex_10_A_a.gif","left","","","","",""
"","null","","html-keyboard-response","317","951994","0.0-55.0-0.7","SS1611940408831","","null","","","<p><img src= images/blank.png width =""200"" height = ""200"" style = ""float:right""></p><p><img src=images/blank.png width =""800"" height = ""200""></p>","","","","","","","","","",""
"","2141.0300000570714","trial","sequential-stimulus-presentation","318","955108","0.0-55.0-1.7","SS1611940408831","","40","900","3041.0300000570714","","","","16","images/stimuli/spore_stims/complex_10_A_a.gif","left","","","","",""
"","1544.7100000455976","pref_question","html-keyboard-response","319","956714","0.0-56.0","SS1611940408831","","51","","","<img src=images/stimuli/pokeballs_pref.jpg width =""800"" height = ""200"" style=""padding-top: 33%"">","3","right","16","","","","","","",""
"","349.50000001117587","pref_reveal","sequential-stimulus-presentation","320","958028","0.0-57.0","SS1611940408831","","40","900","1249.5000000111759","","","","16","","","novel","","","",""
"","null","","html-keyboard-response","321","958906","0.0-58.0-0.0","SS1611940408831","","null","","","<p><img src= images/blank.png width =""200"" height = ""200"" style = ""float:right""></p><p><img src=images/blank.png width =""800"" height = ""200""></p>","","","","","","","","","",""
"","254.3899999000132","trial","sequential-stimulus-presentation","322","960125","0.0-58.0-1.0","SS1611940408831","","40","900","1154.3899999000132","","","","17","images/stimuli/spore_stims/complex_14_A_b.gif","right","","","","",""
"","null","","html-keyboard-response","323","961199","0.0-58.0-0.1","SS1611940408831","","null","","","<p><img src= images/blank.png width =""200"" height = ""200"" style = ""float:right""></p><p><img src=images/blank.png width =""800"" height = ""200""></p>","","","","","","","","","",""
"","387.69000000320375","trial","sequential-stimulus-presentation","324","962553","0.0-58.0-1.1","SS1611940408831","","40","900","1287.6900000032037","","","","17","images/stimuli/spore_stims/complex_14_A_b.gif","right","","","","",""
"","null","","html-keyboard-response","325","963614","0.0-58.0-0.2","SS1611940408831","","null","","","<p><img src= images/blank.png width =""200"" height = ""200"" style = ""float:right""></p><p><img src=images/blank.png width =""800"" height = ""200""></p>","","","","","","","","","",""
"","1337.0250000152737","trial","sequential-stimulus-presentation","326","965920","0.0-58.0-1.2","SS1611940408831","","40","900","2237.0250000152737","","","","17","images/stimuli/spore_stims/complex_14_A_b.gif","right","","","","",""
"","null","","html-keyboard-response","327","966908","0.0-58.0-0.3","SS1611940408831","","null","","","<p><img src= images/blank.png width =""200"" height = ""200"" style = ""float:right""></p><p><img src=images/blank.png width =""800"" height = ""200""></p>","","","","","","","","","",""
"","3524.8950000386685","trial","sequential-stimulus-presentation","328","971414","0.0-58.0-1.3","SS1611940408831","","40","900","4424.8950000386685","","","","17","images/stimuli/spore_stims/complex_14_A_b.gif","right","","","","",""
"","null","","html-keyboard-response","329","972364","0.0-58.0-0.4","SS1611940408831","","null","","","<p><img src= images/blank.png width =""200"" height = ""200"" style = ""float:right""></p><p><img src=images/blank.png width =""800"" height = ""200""></p>","","","","","","","","","",""
"","3081.484999973327","trial","sequential-stimulus-presentation","330","976405","0.0-58.0-1.4","SS1611940408831","","40","900","3981.484999973327","","","","17","images/stimuli/spore_stims/complex_14_B_b.gif","left","","","","",""
"","null","","html-keyboard-response","331","977658","0.0-58.0-0.5","SS1611940408831","","null","","","<p><img src= images/blank.png width =""200"" height = ""200"" style = ""float:right""></p><p><img src=images/blank.png width =""800"" height = ""200""></p>","","","","","","","","","",""
"","497.68500006757677","trial","sequential-stimulus-presentation","332","979128","0.0-58.0-1.5","SS1611940408831","","40","900","1397.6850000675768","","","","17","images/stimuli/spore_stims/complex_14_A_b.gif","right","","","","",""
"","null","","html-keyboard-response","333","980244","0.0-58.0-0.6","SS1611940408831","","null","","","<p><img src= images/blank.png width =""200"" height = ""200"" style = ""float:right""></p><p><img src=images/blank.png width =""800"" height = ""200""></p>","","","","","","","","","",""
"","677.0699999760836","trial","sequential-stimulus-presentation","334","981889","0.0-58.0-1.6","SS1611940408831","","40","900","1577.0699999760836","","","","17","images/stimuli/spore_stims/complex_14_A_b.gif","right","","","","",""
"","null","","html-keyboard-response","335","982777","0.0-58.0-0.7","SS1611940408831","","null","","","<p><img src= images/blank.png width =""200"" height = ""200"" style = ""float:right""></p><p><img src=images/blank.png width =""800"" height = ""200""></p>","","","","","","","","","",""
"","1266.9649999588728","trial","sequential-stimulus-presentation","336","985024","0.0-58.0-1.7","SS1611940408831","","40","900","2166.964999958873","","","","17","images/stimuli/spore_stims/complex_14_A_b.gif","right","","","","",""
"","1362.9999998956919","pref_question","html-keyboard-response","337","986456","0.0-59.0","SS1611940408831","","50","","","<img src=images/stimuli/pokeballs_pref.jpg width =""800"" height = ""200"" style=""padding-top: 33%"">","2","middle","17","","","","","","",""
"","56122.639999957755","pref_reveal","sequential-stimulus-presentation","338","1043546","0.0-60.0","SS1611940408831","","40","900","57022.639999957755","","","","17","","","novel","","","",""
"","null","","html-keyboard-response","339","1044539","0.0-61.0-0.0","SS1611940408831","","null","","","<p><img src= images/blank.png width =""200"" height = ""200"" style = ""float:right""></p><p><img src=images/blank.png width =""800"" height = ""200""></p>","","","","","","","","","",""
"","1479.1900001000613","trial","sequential-stimulus-presentation","340","1046990","0.0-61.0-1.0","SS1611940408831","","40","900","2379.1900001000613","","","","18","images/stimuli/spore_stims/simple_15_A_a.gif","right","","","","",""
"","null","","html-keyboard-response","341","1048071","0.0-61.0-0.1","SS1611940408831","","null","","","<p><img src= images/blank.png width =""200"" height = ""200"" style = ""float:right""></p><p><img src=images/blank.png width =""800"" height = ""200""></p>","","","","","","","","","",""
"","915.1800000108778","trial","sequential-stimulus-presentation","342","1049955","0.0-61.0-1.1","SS1611940408831","","40","900","1815.1800000108778","","","","18","images/stimuli/spore_stims/simple_15_A_a.gif","right","","","","",""
"","null","","html-keyboard-response","343","1050926","0.0-61.0-0.2","SS1611940408831","","null","","","<p><img src= images/blank.png width =""200"" height = ""200"" style = ""float:right""></p><p><img src=images/blank.png width =""800"" height = ""200""></p>","","","","","","","","","",""
"","362.03499999828637","trial","sequential-stimulus-presentation","344","1052257","0.0-61.0-1.2","SS1611940408831","","40","900","1262.0349999982864","","","","18","images/stimuli/spore_stims/simple_15_A_a.gif","right","","","","",""
"","null","","html-keyboard-response","345","1053299","0.0-61.0-0.3","SS1611940408831","","null","","","<p><img src= images/blank.png width =""200"" height = ""200"" style = ""float:right""></p><p><img src=images/blank.png width =""800"" height = ""200""></p>","","","","","","","","","",""
"","4500.3949999809265","trial","sequential-stimulus-presentation","346","1058768","0.0-61.0-1.3","SS1611940408831","","40","900","5400.3949999809265","","","","18","images/stimuli/spore_stims/simple_15_A_a.gif","right","","","","",""
"","null","","html-keyboard-response","347","1059693","0.0-61.0-0.4","SS1611940408831","","null","","","<p><img src= images/blank.png width =""200"" height = ""200"" style = ""float:right""></p><p><img src=images/blank.png width =""800"" height = ""200""></p>","","","","","","","","","",""
"","269.8450000025332","trial","sequential-stimulus-presentation","348","1060941","0.0-61.0-1.4","SS1611940408831","","40","900","1169.8450000025332","","","","18","images/stimuli/spore_stims/simple_15_B_a.gif","middle","","","","",""
"","null","","html-keyboard-response","349","1062310","0.0-61.0-0.5","SS1611940408831","","null","","","<p><img src= images/blank.png width =""200"" height = ""200"" style = ""float:right""></p><p><img src=images/blank.png width =""800"" height = ""200""></p>","","","","","","","","","",""
"","619.3500000517815","trial","sequential-stimulus-presentation","350","1063902","0.0-61.0-1.5","SS1611940408831","","40","900","1519.3500000517815","","","","18","images/stimuli/spore_stims/simple_15_A_a.gif","right","","","","",""
"","null","","html-keyboard-response","351","1065018","0.0-61.0-0.6","SS1611940408831","","null","","","<p><img src= images/blank.png width =""200"" height = ""200"" style = ""float:right""></p><p><img src=images/blank.png width =""800"" height = ""200""></p>","","","","","","","","","",""
"","348.62500010058284","trial","sequential-stimulus-presentation","352","1066342","0.0-61.0-1.6","SS1611940408831","","40","900","1248.6250001005828","","","","18","images/stimuli/spore_stims/simple_15_A_a.gif","right","","","","",""
"","null","","html-keyboard-response","353","1067279","0.0-61.0-0.7","SS1611940408831","","null","","","<p><img src= images/blank.png width =""200"" height = ""200"" style = ""float:right""></p><p><img src=images/blank.png width =""800"" height = ""200""></p>","","","","","","","","","",""
"","313.06500011123717","trial","sequential-stimulus-presentation","354","1068563","0.0-61.0-1.7","SS1611940408831","","40","900","1213.0650001112372","","","","18","images/stimuli/spore_stims/simple_15_A_a.gif","right","","","","",""
"","1366.7600001208484","pref_question","html-keyboard-response","355","1070005","0.0-62.0","SS1611940408831","","49","","","<img src=images/stimuli/pokeballs_pref.jpg width =""800"" height = ""200"" style=""padding-top: 33%"">","1","left","18","","","","","","",""
"","1538.9400001149625","pref_reveal","sequential-stimulus-presentation","356","1072513","0.0-63.0","SS1611940408831","","40","900","2438.9400001149625","","","","18","","","novel","","","",""
"","null","","html-keyboard-response","357","1073603","0.0-64.0-0.0","SS1611940408831","","null","","","<p><img src= images/blank.png width =""200"" height = ""200"" style = ""float:right""></p><p><img src=images/blank.png width =""800"" height = ""200""></p>","","","","","","","","","",""
"","404.2849999386817","trial","sequential-stimulus-presentation","358","1074978","0.0-64.0-1.0","SS1611940408831","","40","900","1304.2849999386817","","","","19","images/stimuli/spore_stims/complex_12_B_b.gif","right","","","","",""
"","null","","html-keyboard-response","359","1076044","0.0-64.0-0.1","SS1611940408831","","null","","","<p><img src= images/blank.png width =""200"" height = ""200"" style = ""float:right""></p><p><img src=images/blank.png width =""800"" height = ""200""></p>","","","","","","","","","",""
"","259.34000010602176","trial","sequential-stimulus-presentation","360","1077278","0.0-64.0-1.1","SS1611940408831","","40","900","1159.3400001060218","","","","19","images/stimuli/spore_stims/complex_12_B_b.gif","right","","","","",""
"","null","","html-keyboard-response","361","1078548","0.0-64.0-0.2","SS1611940408831","","null","","","<p><img src= images/blank.png width =""200"" height = ""200"" style = ""float:right""></p><p><img src=images/blank.png width =""800"" height = ""200""></p>","","","","","","","","","",""
"","312.5750001054257","trial","sequential-stimulus-presentation","362","1079836","0.0-64.0-1.2","SS1611940408831","","40","900","1212.5750001054257","","","","19","images/stimuli/spore_stims/complex_12_B_b.gif","right","","","","",""
"","null","","html-keyboard-response","363","1081149","0.0-64.0-0.3","SS1611940408831","","null","","","<p><img src= images/blank.png width =""200"" height = ""200"" style = ""float:right""></p><p><img src=images/blank.png width =""800"" height = ""200""></p>","","","","","","","","","",""
"","290.7350000459701","trial","sequential-stimulus-presentation","364","1082412","0.0-64.0-1.3","SS1611940408831","","40","900","1190.73500004597","","","","19","images/stimuli/spore_stims/complex_12_B_b.gif","right","","","","",""
"","null","","html-keyboard-response","365","1083315","0.0-64.0-0.4","SS1611940408831","","null","","","<p><img src= images/blank.png width =""200"" height = ""200"" style = ""float:right""></p><p><img src=images/blank.png width =""800"" height = ""200""></p>","","","","","","","","","",""
"","476.8149999435991","trial","sequential-stimulus-presentation","366","1084762","0.0-64.0-1.4","SS1611940408831","","40","900","1376.814999943599","","","","19","images/stimuli/spore_stims/complex_12_B_b.gif","right","","","","",""
"","null","","html-keyboard-response","367","1085955","0.0-64.0-0.5","SS1611940408831","","null","","","<p><img src= images/blank.png width =""200"" height = ""200"" style = ""float:right""></p><p><img src=images/blank.png width =""800"" height = ""200""></p>","","","","","","","","","",""
"","244.2999999038875","trial","sequential-stimulus-presentation","368","1087175","0.0-64.0-1.5","SS1611940408831","","40","900","1144.2999999038875","","","","19","images/stimuli/spore_stims/complex_12_B_b.gif","right","","","","",""
"","null","","html-keyboard-response","369","1088523","0.0-64.0-0.6","SS1611940408831","","null","","","<p><img src= images/blank.png width =""200"" height = ""200"" style = ""float:right""></p><p><img src=images/blank.png width =""800"" height = ""200""></p>","","","","","","","","","",""
"","2263.19000008516","trial","sequential-stimulus-presentation","370","1091765","0.0-64.0-1.6","SS1611940408831","","40","900","3163.19000008516","","","","19","images/stimuli/spore_stims/complex_02_B_d.gif","left","","","","",""
"","null","","html-keyboard-response","371","1093072","0.0-64.0-0.7","SS1611940408831","","null","","","<p><img src= images/blank.png width =""200"" height = ""200"" style = ""float:right""></p><p><img src=images/blank.png width =""800"" height = ""200""></p>","","","","","","","","","",""
"","675.7399998605251","trial","sequential-stimulus-presentation","372","1094726","0.0-64.0-1.7","SS1611940408831","","40","900","1575.7399998605251","","","","19","images/stimuli/spore_stims/complex_12_B_b.gif","right","","","","",""
"","1544.3549999035895","pref_question","html-keyboard-response","373","1096347","0.0-65.0","SS1611940408831","","49","","","<img src=images/stimuli/pokeballs_pref.jpg width =""800"" height = ""200"" style=""padding-top: 33%"">","1","left","19","","","","","","",""
"","1031.0750000644475","pref_reveal","sequential-stimulus-presentation","374","1098350","0.0-66.0","SS1611940408831","","40","900","1931.0750000644475","","","","19","","","deviant","","","",""
"[{""page_index"":0,""viewing_time"":4118.604999966919}]","4119.034999981523","instructions","instructions","375","1102542","0.0-67.0","SS1611940408831","","","","","","","","","","","","","","",""
"","5782.0449999999255","similarity_question","survey-likert","376","1108399","0.0-68.0","SS1611940408831","","","","","","","","","","","","{""Q0"":5}","[0]","images/stimuli/spore_stims/complex_03_A_b.gif","images/stimuli/spore_stims/complex_03_B_b.gif"
"","5802.894999971613","similarity_question","survey-likert","377","1114279","0.0-69.0","SS1611940408831","","","","","","","","","","","","{""Q0"":1}","[0]","images/stimuli/spore_stims/complex_02_B_d.gif","images/stimuli/spore_stims/complex_12_B_b.gif"
"","5078.010000055656","similarity_question","survey-likert","378","1119440","0.0-70.0","SS1611940408831","","","","","","","","","","","","{""Q0"":2}","[0]","images/stimuli/spore_stims/simple_07_A_d.gif","images/stimuli/spore_stims/simple_02_B_a.gif"
"","3102.4400000460446","similarity_question","survey-likert","379","1122623","0.0-71.0","SS1611940408831","","","","","","","","","","","","{""Q0"":4}","[0]","images/stimuli/spore_stims/complex_10_B_b.gif","images/stimuli/spore_stims/complex_19_B_a.gif"
"","4683.955000014976","similarity_question","survey-likert","380","1127387","0.0-72.0","SS1611940408831","","","","","","","","","","","","{""Q0"":5}","[0]","images/stimuli/spore_stims/simple_15_A_a.gif","images/stimuli/spore_stims/simple_15_B_a.gif"
"","4726.229999912903","similarity_question","survey-likert","381","1132196","0.0-73.0","SS1611940408831","","","","","","","","","","","","{""Q0"":2}","[0]","images/stimuli/spore_stims/complex_20_A_c.gif","images/stimuli/spore_stims/complex_10_A_a.gif"
"","7223.044999875128","similarity_question","survey-likert","382","1139503","0.0-74.0","SS1611940408831","","","","","","","","","","","","{""Q0"":3}","[0]","images/stimuli/spore_stims/complex_07_B_d.gif","images/stimuli/spore_stims/complex_17_B_b.gif"
"","3240.0650000199676","similarity_question","survey-likert","383","1142822","0.0-75.0","SS1611940408831","","","","","","","","","","","","{""Q0"":3}","[0]","images/stimuli/spore_stims/complex_12_A_b.gif","images/stimuli/spore_stims/complex_12_B_b.gif"
"","4749.079999979585","similarity_question","survey-likert","384","1147652","0.0-76.0","SS1611940408831","","","","","","","","","","","","{""Q0"":6}","[0]","images/stimuli/spore_stims/simple_18_A_d.gif","images/stimuli/spore_stims/simple_18_B_d.gif"
"","3116.1100000608712","similarity_question","survey-likert","385","1150844","0.0-77.0","SS1611940408831","","","","","","","","","","","","{""Q0"":4}","[0]","images/stimuli/spore_stims/complex_14_B_b.gif","images/stimuli/spore_stims/complex_14_A_b.gif"
