"success","trial_type","trial_index","time_elapsed","internal_node_id","subject","rt","responses","stimulus","key_press","view_history","stimulus_type","trial_stimulus","minimum_viewing_duration","trial_looking_time","subject_num","block_number","block_type","stimulus_displayed","fam_duration","response","question_order"
"true","fullscreen","0","2269","0.0-0.0","SS1630182826190","","","","","","","","","","","","","","","",""
"","survey-text","1","9672","0.0-1.0","SS1630182826190","7401.199999988079","{""Age"":""252"",""Gender"":""M"",""Session"":""1""}","","","","","","","","","","","","","",""
"","audio-keyboard-response","2","11286","0.0-2.0","SS1630182826190","1613.2000000178814","","stimuli/audio/music_intro.wav","40","","","","","","","","","","","",""
"","html-keyboard-response","3","11713","0.0-3.0","SS1630182826190","426.09999999403954","","<p><img src=stimuli/intro/intro2.jpeg width ='1200' height = '667'></p>","40","","","","","","","","","","","",""
"","html-keyboard-response","4","12013","0.0-4.0","SS1630182826190","299.7000000178814","","<p><img src=stimuli/intro/intro3.jpeg width ='1200' height = '667'></p>","40","","","","","","","","","","","",""
"","html-keyboard-response","5","12468","0.0-5.0","SS1630182826190","454.5","","<p><img src=stimuli/intro/intro4.jpeg width ='1200' height = '667'></p>","40","","","","","","","","","","","",""
"","html-keyboard-response","6","13001","0.0-6.0","SS1630182826190","532.2000000178814","","<p><img src=stimuli/intro/intro5.jpeg width ='1200' height = '667'></p>","40","","","","","","","","","","","",""
"","html-keyboard-response","7","13915","0.0-7.0","SS1630182826190","912.9000000059605","","<p><img src=stimuli/intro/intro6.jpeg width ='1200' height = '667'></p>","40","","","","","","","","","","","",""
"","html-keyboard-response","8","15715","0.0-8.0","SS1630182826190","1799.1000000238419","","<p><img src=stimuli/intro/intro7.jpeg width ='1200' height = '667'></p>","40","","","","","","","","","","","",""
"","html-keyboard-response","9","123233","0.0-9.0","SS1630182826190","107518.29999998212","","<p><img src=stimuli/intro/intro8.jpeg width ='1200' height = '667'></p>","40","","","","","","","","","","","",""
"","instructions","10","125375","0.0-10.0","SS1630182826190","2141.9000000059605","","","","[{""page_index"":0,""viewing_time"":2141.5999999940395}]","","","","","","","","","","",""
"","video-keyboard-response","11","130024","0.0-11.0","SS1630182826190","null","","[""stimuli/images/attngetter_quiet.mp4""]","null","","attention_getter","","","","","","","","","",""
"","html-keyboard-response","12","132142","0.0-12.0-0.0","SS1630182826190","null","","<p><img src=stimuli/images/blank_fam.png width =""200"" height = ""200"" style=""position:absolute;left:85%""></p><p><img src= stimuli/images/blank.png width =""1200"" height = ""1200"" style=""border:5px solid black""></p>","null","","","","","","","","","","","",""
"","sequential-stimulus-presentation","13","138149","0.0-12.0-1.0","SS1630182826190","null","","","null","","trial","","1000","1000","1","0","Dev","stimuli/images/spore_stims/complex_07_A.gif","3","",""
"","html-keyboard-response","14","139065","0.0-12.0-0.1","SS1630182826190","null","","<p><img src=stimuli/images/blank_fam.png width =""200"" height = ""200"" style=""position:absolute;left:85%""></p><p><img src= stimuli/images/blank.png width =""1200"" height = ""1200"" style=""border:5px solid black""></p>","null","","","","","","","","","","","",""
"","sequential-stimulus-presentation","15","145073","0.0-12.0-1.1","SS1630182826190","null","","","null","","trial","","1000","1000","1","0","Dev","stimuli/images/spore_stims/complex_07_A.gif","3","",""
"","html-keyboard-response","16","147275","0.0-12.0-0.2","SS1630182826190","null","","<p><img src=stimuli/images/blank_fam.png width =""200"" height = ""200"" style=""position:absolute;left:85%""></p><p><img src= stimuli/images/blank.png width =""1200"" height = ""1200"" style=""border:5px solid black""></p>","null","","","","","","","","","","","",""
"","sequential-stimulus-presentation","17","153278","0.0-12.0-1.2","SS1630182826190","null","","","null","","trial","","1000","1000","1","0","Dev","stimuli/images/spore_stims/complex_07_A.gif","3","",""
"","html-keyboard-response","18","155562","0.0-12.0-0.3","SS1630182826190","null","","<p><img src=stimuli/images/blank_test.png width =""200"" height = ""200"" style=""position:absolute;left:85%""></p><p><img src= stimuli/images/blank.png width =""1200"" height = ""1200"" style=""border:5px solid black""></p>","null","","","","","","","","","","","",""
"","sequential-stimulus-presentation","19","174092","0.0-12.0-1.3","SS1630182826190","40948.59999999404","","","40","","trial","","1000","41948.59999999404","1","0","Dev","stimuli/images/spore_stims/complex_08_A.gif","3","",""
"","html-keyboard-response","20","174723","0.0-13.0","SS1630182826190","630.2000000178814","","<p><img src=""stimuli/images/attngetter_blank.png"" width =""1200"" height = ""918"" ></p>","40","","between_block","","","","","","","","","",""
"","video-keyboard-response","21","179358","0.0-14.0","SS1630182826190","null","","[""stimuli/images/attngetter_quiet.mp4""]","null","","attention_getter","","","","","","","","","",""
"","html-keyboard-response","22","179907","0.0-15.0-0.0","SS1630182826190","null","","<p><img src=stimuli/images/blank_fam.png width =""200"" height = ""200"" style=""position:absolute;left:85%""></p><p><img src= stimuli/images/blank.png width =""1200"" height = ""1200"" style=""border:5px solid black""></p>","null","","","","","","","","","","","",""
"","sequential-stimulus-presentation","23","185910","0.0-15.0-1.0","SS1630182826190","null","","","null","","trial","","1000","1000","1","1","Std","stimuli/images/spore_stims/complex_12_A.gif","5","",""
"","html-keyboard-response","24","186888","0.0-15.0-0.1","SS1630182826190","null","","<p><img src=stimuli/images/blank_fam.png width =""200"" height = ""200"" style=""position:absolute;left:85%""></p><p><img src= stimuli/images/blank.png width =""1200"" height = ""1200"" style=""border:5px solid black""></p>","null","","","","","","","","","","","",""
"","sequential-stimulus-presentation","25","192891","0.0-15.0-1.1","SS1630182826190","null","","","null","","trial","","1000","1000","1","1","Std","stimuli/images/spore_stims/complex_12_A.gif","5","",""
"","html-keyboard-response","26","195352","0.0-15.0-0.2","SS1630182826190","null","","<p><img src=stimuli/images/blank_fam.png width =""200"" height = ""200"" style=""position:absolute;left:85%""></p><p><img src= stimuli/images/blank.png width =""1200"" height = ""1200"" style=""border:5px solid black""></p>","null","","","","","","","","","","","",""
"","sequential-stimulus-presentation","27","201357","0.0-15.0-1.2","SS1630182826190","null","","","null","","trial","","1000","1000","1","1","Std","stimuli/images/spore_stims/complex_12_A.gif","5","",""
"","html-keyboard-response","28","203541","0.0-15.0-0.3","SS1630182826190","null","","<p><img src=stimuli/images/blank_fam.png width =""200"" height = ""200"" style=""position:absolute;left:85%""></p><p><img src= stimuli/images/blank.png width =""1200"" height = ""1200"" style=""border:5px solid black""></p>","null","","","","","","","","","","","",""
"","sequential-stimulus-presentation","29","209546","0.0-15.0-1.3","SS1630182826190","null","","","null","","trial","","1000","1000","1","1","Std","stimuli/images/spore_stims/complex_12_A.gif","5","",""
"","html-keyboard-response","30","211131","0.0-15.0-0.4","SS1630182826190","null","","<p><img src=stimuli/images/blank_fam.png width =""200"" height = ""200"" style=""position:absolute;left:85%""></p><p><img src= stimuli/images/blank.png width =""1200"" height = ""1200"" style=""border:5px solid black""></p>","null","","","","","","","","","","","",""
"","sequential-stimulus-presentation","31","217138","0.0-15.0-1.4","SS1630182826190","null","","","null","","trial","","1000","1000","1","1","Std","stimuli/images/spore_stims/complex_12_A.gif","5","",""
"","html-keyboard-response","32","218557","0.0-15.0-0.5","SS1630182826190","null","","<p><img src=stimuli/images/blank_test.png width =""200"" height = ""200"" style=""position:absolute;left:85%""></p><p><img src= stimuli/images/blank.png width =""1200"" height = ""1200"" style=""border:5px solid black""></p>","null","","","","","","","","","","","",""
"","sequential-stimulus-presentation","33","249571","0.0-15.0-1.5","SS1630182826190","68662","","","40","","trial","","1000","69662","1","1","Std","stimuli/images/spore_stims/complex_12_A.gif","5","",""
"","html-keyboard-response","34","250527","0.0-16.0","SS1630182826190","955.7000000178814","","<p><img src=""stimuli/images/attngetter_blank.png"" width =""1200"" height = ""918"" ></p>","40","","between_block","","","","","","","","","",""
"","video-keyboard-response","35","255162","0.0-17.0","SS1630182826190","null","","[""stimuli/images/attngetter_quiet.mp4""]","null","","attention_getter","","","","","","","","","",""
"","html-keyboard-response","36","256265","0.0-18.0-0.0","SS1630182826190","null","","<p><img src=stimuli/images/blank_fam.png width =""200"" height = ""200"" style=""position:absolute;left:85%""></p><p><img src= stimuli/images/blank.png width =""1200"" height = ""1200"" style=""border:5px solid black""></p>","null","","","","","","","","","","","",""
"","sequential-stimulus-presentation","37","262269","0.0-18.0-1.0","SS1630182826190","null","","","null","","trial","","1000","1000","1","2","Std","stimuli/images/spore_stims/complex_09_A.gif","3","",""
"","html-keyboard-response","38","264635","0.0-18.0-0.1","SS1630182826190","null","","<p><img src=stimuli/images/blank_fam.png width =""200"" height = ""200"" style=""position:absolute;left:85%""></p><p><img src= stimuli/images/blank.png width =""1200"" height = ""1200"" style=""border:5px solid black""></p>","null","","","","","","","","","","","",""
"","sequential-stimulus-presentation","39","270639","0.0-18.0-1.1","SS1630182826190","null","","","null","","trial","","1000","1000","1","2","Std","stimuli/images/spore_stims/complex_09_A.gif","3","",""
"","html-keyboard-response","40","271665","0.0-18.0-0.2","SS1630182826190","null","","<p><img src=stimuli/images/blank_fam.png width =""200"" height = ""200"" style=""position:absolute;left:85%""></p><p><img src= stimuli/images/blank.png width =""1200"" height = ""1200"" style=""border:5px solid black""></p>","null","","","","","","","","","","","",""
"","sequential-stimulus-presentation","41","277672","0.0-18.0-1.2","SS1630182826190","null","","","null","","trial","","1000","1000","1","2","Std","stimuli/images/spore_stims/complex_09_A.gif","3","",""
"","html-keyboard-response","42","278608","0.0-18.0-0.3","SS1630182826190","null","","<p><img src=stimuli/images/blank_test.png width =""200"" height = ""200"" style=""position:absolute;left:85%""></p><p><img src= stimuli/images/blank.png width =""1200"" height = ""1200"" style=""border:5px solid black""></p>","null","","","","","","","","","","","",""
"","sequential-stimulus-presentation","43","295042","0.0-18.0-1.3","SS1630182826190","37775.5","","","40","","trial","","1000","38775.5","1","2","Std","stimuli/images/spore_stims/complex_09_A.gif","3","",""
"","html-keyboard-response","44","300387","0.0-19.0","SS1630182826190","5344.700000017881","","<p><img src=""stimuli/images/attngetter_blank.png"" width =""1200"" height = ""918"" ></p>","40","","between_block","","","","","","","","","",""
"","video-keyboard-response","45","305015","0.0-20.0","SS1630182826190","null","","[""stimuli/images/attngetter_quiet.mp4""]","null","","attention_getter","","","","","","","","","",""
"","html-keyboard-response","46","307052","0.0-21.0-0.0","SS1630182826190","null","","<p><img src=stimuli/images/blank_fam.png width =""200"" height = ""200"" style=""position:absolute;left:85%""></p><p><img src= stimuli/images/blank.png width =""1200"" height = ""1200"" style=""border:5px solid black""></p>","null","","","","","","","","","","","",""
"","sequential-stimulus-presentation","47","313055","0.0-21.0-1.0","SS1630182826190","null","","","null","","trial","","1000","1000","1","3","Dev","stimuli/images/spore_stims/complex_03_A.gif","5","",""
"","html-keyboard-response","48","314026","0.0-21.0-0.1","SS1630182826190","null","","<p><img src=stimuli/images/blank_fam.png width =""200"" height = ""200"" style=""position:absolute;left:85%""></p><p><img src= stimuli/images/blank.png width =""1200"" height = ""1200"" style=""border:5px solid black""></p>","null","","","","","","","","","","","",""
"","sequential-stimulus-presentation","49","320029","0.0-21.0-1.1","SS1630182826190","null","","","null","","trial","","1000","1000","1","3","Dev","stimuli/images/spore_stims/complex_03_A.gif","5","",""
"","html-keyboard-response","50","321600","0.0-21.0-0.2","SS1630182826190","null","","<p><img src=stimuli/images/blank_fam.png width =""200"" height = ""200"" style=""position:absolute;left:85%""></p><p><img src= stimuli/images/blank.png width =""1200"" height = ""1200"" style=""border:5px solid black""></p>","null","","","","","","","","","","","",""
"","sequential-stimulus-presentation","51","327607","0.0-21.0-1.2","SS1630182826190","null","","","null","","trial","","1000","1000","1","3","Dev","stimuli/images/spore_stims/complex_03_A.gif","5","",""
"","html-keyboard-response","52","329546","0.0-21.0-0.3","SS1630182826190","null","","<p><img src=stimuli/images/blank_fam.png width =""200"" height = ""200"" style=""position:absolute;left:85%""></p><p><img src= stimuli/images/blank.png width =""1200"" height = ""1200"" style=""border:5px solid black""></p>","null","","","","","","","","","","","",""
"","sequential-stimulus-presentation","53","335551","0.0-21.0-1.3","SS1630182826190","null","","","null","","trial","","1000","1000","1","3","Dev","stimuli/images/spore_stims/complex_03_A.gif","5","",""
"","html-keyboard-response","54","337438","0.0-21.0-0.4","SS1630182826190","null","","<p><img src=stimuli/images/blank_fam.png width =""200"" height = ""200"" style=""position:absolute;left:85%""></p><p><img src= stimuli/images/blank.png width =""1200"" height = ""1200"" style=""border:5px solid black""></p>","null","","","","","","","","","","","",""
"","sequential-stimulus-presentation","55","343441","0.0-21.0-1.4","SS1630182826190","null","","","null","","trial","","1000","1000","1","3","Dev","stimuli/images/spore_stims/complex_03_A.gif","5","",""
"","html-keyboard-response","56","345444","0.0-21.0-0.5","SS1630182826190","null","","<p><img src=stimuli/images/blank_test.png width =""200"" height = ""200"" style=""position:absolute;left:85%""></p><p><img src= stimuli/images/blank.png width =""1200"" height = ""1200"" style=""border:5px solid black""></p>","null","","","","","","","","","","","",""
"","sequential-stimulus-presentation","57","374636","0.0-21.0-1.5","SS1630182826190","66581.69999998808","","","40","","trial","","1000","67581.69999998808","1","3","Dev","stimuli/images/spore_stims/complex_04_A.gif","5","",""
"","html-keyboard-response","58","379724","0.0-22.0","SS1630182826190","5087.9000000059605","","<p><img src=""stimuli/images/attngetter_blank.png"" width =""1200"" height = ""918"" ></p>","40","","between_block","","","","","","","","","",""
"","video-keyboard-response","59","384335","0.0-23.0","SS1630182826190","null","","[""stimuli/images/attngetter_quiet.mp4""]","null","","attention_getter","","","","","","","","","",""
"","html-keyboard-response","60","385858","0.0-24.0-0.0","SS1630182826190","null","","<p><img src=stimuli/images/blank_fam.png width =""200"" height = ""200"" style=""position:absolute;left:85%""></p><p><img src= stimuli/images/blank.png width =""1200"" height = ""1200"" style=""border:5px solid black""></p>","null","","","","","","","","","","","",""
"","sequential-stimulus-presentation","61","391864","0.0-24.0-1.0","SS1630182826190","null","","","null","","trial","","1000","1000","1","4","Dev","stimuli/images/spore_stims/complex_05_A.gif","7","",""
"","html-keyboard-response","62","393799","0.0-24.0-0.1","SS1630182826190","null","","<p><img src=stimuli/images/blank_fam.png width =""200"" height = ""200"" style=""position:absolute;left:85%""></p><p><img src= stimuli/images/blank.png width =""1200"" height = ""1200"" style=""border:5px solid black""></p>","null","","","","","","","","","","","",""
"","sequential-stimulus-presentation","63","399806","0.0-24.0-1.1","SS1630182826190","null","","","null","","trial","","1000","1000","1","4","Dev","stimuli/images/spore_stims/complex_05_A.gif","7","",""
"","html-keyboard-response","64","401609","0.0-24.0-0.2","SS1630182826190","null","","<p><img src=stimuli/images/blank_fam.png width =""200"" height = ""200"" style=""position:absolute;left:85%""></p><p><img src= stimuli/images/blank.png width =""1200"" height = ""1200"" style=""border:5px solid black""></p>","null","","","","","","","","","","","",""
"","sequential-stimulus-presentation","65","407614","0.0-24.0-1.2","SS1630182826190","null","","","null","","trial","","1000","1000","1","4","Dev","stimuli/images/spore_stims/complex_05_A.gif","7","",""
"","html-keyboard-response","66","409835","0.0-24.0-0.3","SS1630182826190","null","","<p><img src=stimuli/images/blank_fam.png width =""200"" height = ""200"" style=""position:absolute;left:85%""></p><p><img src= stimuli/images/blank.png width =""1200"" height = ""1200"" style=""border:5px solid black""></p>","null","","","","","","","","","","","",""
"","sequential-stimulus-presentation","67","415840","0.0-24.0-1.3","SS1630182826190","null","","","null","","trial","","1000","1000","1","4","Dev","stimuli/images/spore_stims/complex_05_A.gif","7","",""
"","html-keyboard-response","68","417282","0.0-24.0-0.4","SS1630182826190","null","","<p><img src=stimuli/images/blank_fam.png width =""200"" height = ""200"" style=""position:absolute;left:85%""></p><p><img src= stimuli/images/blank.png width =""1200"" height = ""1200"" style=""border:5px solid black""></p>","null","","","","","","","","","","","",""
"","sequential-stimulus-presentation","69","423292","0.0-24.0-1.4","SS1630182826190","null","","","null","","trial","","1000","1000","1","4","Dev","stimuli/images/spore_stims/complex_05_A.gif","7","",""
"","html-keyboard-response","70","425349","0.0-24.0-0.5","SS1630182826190","null","","<p><img src=stimuli/images/blank_fam.png width =""200"" height = ""200"" style=""position:absolute;left:85%""></p><p><img src= stimuli/images/blank.png width =""1200"" height = ""1200"" style=""border:5px solid black""></p>","null","","","","","","","","","","","",""
"","sequential-stimulus-presentation","71","431366","0.0-24.0-1.5","SS1630182826190","null","","","null","","trial","","1000","1000","1","4","Dev","stimuli/images/spore_stims/complex_05_A.gif","7","",""
"","html-keyboard-response","72","432993","0.0-24.0-0.6","SS1630182826190","null","","<p><img src=stimuli/images/blank_fam.png width =""200"" height = ""200"" style=""position:absolute;left:85%""></p><p><img src= stimuli/images/blank.png width =""1200"" height = ""1200"" style=""border:5px solid black""></p>","null","","","","","","","","","","","",""
"","sequential-stimulus-presentation","73","439005","0.0-24.0-1.6","SS1630182826190","null","","","null","","trial","","1000","1000","1","4","Dev","stimuli/images/spore_stims/complex_05_A.gif","7","",""
"","html-keyboard-response","74","441337","0.0-24.0-0.7","SS1630182826190","null","","<p><img src=stimuli/images/blank_test.png width =""200"" height = ""200"" style=""position:absolute;left:85%""></p><p><img src= stimuli/images/blank.png width =""1200"" height = ""1200"" style=""border:5px solid black""></p>","null","","","","","","","","","","","",""
"","sequential-stimulus-presentation","75","458028","0.0-24.0-1.7","SS1630182826190","71123.5","","","40","","trial","","1000","72123.5","1","4","Dev","stimuli/images/spore_stims/complex_06_A.gif","7","",""
"","html-keyboard-response","76","464411","0.0-25.0","SS1630182826190","6380.5","","<p><img src=""stimuli/images/attngetter_blank.png"" width =""1200"" height = ""918"" ></p>","40","","between_block","","","","","","","","","",""
"","video-keyboard-response","77","469058","0.0-26.0","SS1630182826190","null","","[""stimuli/images/attngetter_quiet.mp4""]","null","","attention_getter","","","","","","","","","",""
"","html-keyboard-response","78","470311","0.0-27.0-0.0","SS1630182826190","null","","<p><img src=stimuli/images/blank_fam.png width =""200"" height = ""200"" style=""position:absolute;left:85%""></p><p><img src= stimuli/images/blank.png width =""1200"" height = ""1200"" style=""border:5px solid black""></p>","null","","","","","","","","","","","",""
"","sequential-stimulus-presentation","79","476317","0.0-27.0-1.0","SS1630182826190","null","","","null","","trial","","1000","1000","1","5","Std","stimuli/images/spore_stims/complex_01_A.gif","7","",""
"","html-keyboard-response","80","476961","0.0-27.0-0.1","SS1630182826190","null","","<p><img src=stimuli/images/blank_fam.png width =""200"" height = ""200"" style=""position:absolute;left:85%""></p><p><img src= stimuli/images/blank.png width =""1200"" height = ""1200"" style=""border:5px solid black""></p>","null","","","","","","","","","","","",""
"","sequential-stimulus-presentation","81","482967","0.0-27.0-1.1","SS1630182826190","null","","","null","","trial","","1000","1000","1","5","Std","stimuli/images/spore_stims/complex_01_A.gif","7","",""
"","html-keyboard-response","82","483904","0.0-27.0-0.2","SS1630182826190","null","","<p><img src=stimuli/images/blank_fam.png width =""200"" height = ""200"" style=""position:absolute;left:85%""></p><p><img src= stimuli/images/blank.png width =""1200"" height = ""1200"" style=""border:5px solid black""></p>","null","","","","","","","","","","","",""
"","sequential-stimulus-presentation","83","489908","0.0-27.0-1.2","SS1630182826190","null","","","null","","trial","","1000","1000","1","5","Std","stimuli/images/spore_stims/complex_01_A.gif","7","",""
"","html-keyboard-response","84","490618","0.0-27.0-0.3","SS1630182826190","null","","<p><img src=stimuli/images/blank_fam.png width =""200"" height = ""200"" style=""position:absolute;left:85%""></p><p><img src= stimuli/images/blank.png width =""1200"" height = ""1200"" style=""border:5px solid black""></p>","null","","","","","","","","","","","",""
"","sequential-stimulus-presentation","85","496624","0.0-27.0-1.3","SS1630182826190","null","","","null","","trial","","1000","1000","1","5","Std","stimuli/images/spore_stims/complex_01_A.gif","7","",""
"","html-keyboard-response","86","498200","0.0-27.0-0.4","SS1630182826190","null","","<p><img src=stimuli/images/blank_fam.png width =""200"" height = ""200"" style=""position:absolute;left:85%""></p><p><img src= stimuli/images/blank.png width =""1200"" height = ""1200"" style=""border:5px solid black""></p>","null","","","","","","","","","","","",""
"","sequential-stimulus-presentation","87","504204","0.0-27.0-1.4","SS1630182826190","null","","","null","","trial","","1000","1000","1","5","Std","stimuli/images/spore_stims/complex_01_A.gif","7","",""
"","html-keyboard-response","88","505549","0.0-27.0-0.5","SS1630182826190","null","","<p><img src=stimuli/images/blank_fam.png width =""200"" height = ""200"" style=""position:absolute;left:85%""></p><p><img src= stimuli/images/blank.png width =""1200"" height = ""1200"" style=""border:5px solid black""></p>","null","","","","","","","","","","","",""
"","sequential-stimulus-presentation","89","511556","0.0-27.0-1.5","SS1630182826190","null","","","null","","trial","","1000","1000","1","5","Std","stimuli/images/spore_stims/complex_01_A.gif","7","",""
"","html-keyboard-response","90","512242","0.0-27.0-0.6","SS1630182826190","null","","<p><img src=stimuli/images/blank_fam.png width =""200"" height = ""200"" style=""position:absolute;left:85%""></p><p><img src= stimuli/images/blank.png width =""1200"" height = ""1200"" style=""border:5px solid black""></p>","null","","","","","","","","","","","",""
"","sequential-stimulus-presentation","91","518245","0.0-27.0-1.6","SS1630182826190","null","","","null","","trial","","1000","1000","1","5","Std","stimuli/images/spore_stims/complex_01_A.gif","7","",""
"","html-keyboard-response","92","519808","0.0-27.0-0.7","SS1630182826190","null","","<p><img src=stimuli/images/blank_test.png width =""200"" height = ""200"" style=""position:absolute;left:85%""></p><p><img src= stimuli/images/blank.png width =""1200"" height = ""1200"" style=""border:5px solid black""></p>","null","","","","","","","","","","","",""
"","sequential-stimulus-presentation","93","530592","0.0-27.0-1.7","SS1630182826190","59276.89999997616","","","40","","trial","","1000","60276.89999997616","1","5","Std","stimuli/images/spore_stims/complex_01_A.gif","7","",""
"","html-keyboard-response","94","762944","0.0-28.0","SS1630182826190","232353.5","","<p><span style=""font-family: arial, helvetica, sans-serif; font-size: 48px; color: #993300;""> That's it! Thank you so much for your participation! </span></p>","40","","","","","","","","","","","",""
"","survey-multi-choice","95","772019","0.0-29.0","SS1630182826190","9074","","","","","","","","","","","","","","[object Object]","0"
