"success","trial_type","trial_index","time_elapsed","internal_node_id","subject","rt","responses","stimulus","key_press","view_history","stimulus_type","subject_num","condition_num","block_number","stimulus_displayed","response","question_order"
"true","fullscreen","0","515413","0.0-0.0","SS1688051715167","","","","","","","","","","","",""
"","survey-text","1","526012","0.0-1.0","SS1688051715167","10595.100000023842","{""Age"":""272"",""Gender"":""F""}","","","","","","","","","",""
"","audio-keyboard-response","2","537655","0.0-2.0","SS1688051715167","11640.799999952316","","stimuli/audio/music_intro.wav","39","","","","","","","",""
"","html-keyboard-response","3","540943","0.0-3.0","SS1688051715167","3286.899999976158","","<p><img src=stimuli/intro/intro2.jpeg width ='1200' height = '667'></p>","39","","","","","","","",""
"","html-keyboard-response","4","572040","0.0-4.0","SS1688051715167","31097","","<p><img src=stimuli/intro/intro3.jpeg width ='1200' height = '667'></p>","39","","","","","","","",""
"","html-keyboard-response","5","604238","0.0-5.0","SS1688051715167","32196.899999976158","","<p><img src=stimuli/intro/intro4.jpeg width ='1200' height = '667'></p>","39","","","","","","","",""
"","html-keyboard-response","6","614862","0.0-6.0","SS1688051715167","10622.899999976158","","<p><img src=stimuli/intro/intro5.jpeg width ='1200' height = '667'></p>","39","","","","","","","",""
"","html-keyboard-response","7","626605","0.0-7.0","SS1688051715167","11741.799999952316","","<p><img src=stimuli/intro/intro6.jpeg width ='1200' height = '667'></p>","39","","","","","","","",""
"","html-keyboard-response","8","639520","0.0-8.0","SS1688051715167","12914.300000071526","","<p><img src=stimuli/intro/intro7.jpeg width ='1200' height = '667'></p>","39","","","","","","","",""
"","html-keyboard-response","9","700652","0.0-9.0","SS1688051715167","61132.10000002384","","<p><img src=stimuli/intro/intro8.jpeg width ='1200' height = '667'></p>","39","","","","","","","",""
"","instructions","10","722440","0.0-10.0","SS1688051715167","21787.199999928474","","","","[{""page_index"":0,""viewing_time"":21787}]","","","","","","",""
"","video-keyboard-response","11","740677","0.0-11.0","SS1688051715167","null","","[""stimuli/images/calibration.mp4""]","null","","calibration","","","","","",""
"","video-keyboard-response","12","745349","0.0-12.0","SS1688051715167","null","","[""stimuli/images/attngetter_quiet.mp4""]","null","","attention_getter","","","","","",""
"","video-keyboard-response","13","805529","0.0-13.0","SS1688051715167","null","","[""stimuli/images/unity_stims/animate_01_right_pair_new.mp4""]","null","","trial","7","5","1","stimuli/images/unity_stims/animate_01_right_pair_new.mp4","",""
"","html-keyboard-response","14","806744","0.0-14.0","SS1688051715167","1215.1999999284744","","<p><img src=""stimuli/images/attngetter_blank.png""></p>","40","","between_block","","","","","",""
"","video-keyboard-response","15","811395","0.0-15.0","SS1688051715167","null","","[""stimuli/images/attngetter_quiet.mp4""]","null","","attention_getter","","","","","",""
"","video-keyboard-response","16","867542","0.0-16.0","SS1688051715167","56144","","[""stimuli/images/unity_stims/veggie_06_nopose_single_new.mp4""]","40","","trial","7","5","2","stimuli/images/unity_stims/veggie_06_nopose_single_new.mp4","",""
"","html-keyboard-response","17","868037","0.0-17.0","SS1688051715167","493.7000000476837","","<p><img src=""stimuli/images/attngetter_blank.png""></p>","40","","between_block","","","","","",""
"","video-keyboard-response","18","872710","0.0-18.0","SS1688051715167","null","","[""stimuli/images/attngetter_quiet.mp4""]","null","","attention_getter","","","","","",""
"","video-keyboard-response","19","902711","0.0-19.0","SS1688051715167","29999.100000023842","","[""stimuli/images/unity_stims/animate_04_right_single_new.mp4""]","39","","trial","7","5","3","stimuli/images/unity_stims/animate_04_right_single_new.mp4","",""
"","html-keyboard-response","20","903386","0.0-20.0","SS1688051715167","674","","<p><img src=""stimuli/images/attngetter_blank.png""></p>","39","","between_block","","","","","",""
"","video-keyboard-response","21","908042","0.0-21.0","SS1688051715167","null","","[""stimuli/images/attngetter_quiet.mp4""]","null","","attention_getter","","","","","",""
"","video-keyboard-response","22","943485","0.0-22.0","SS1688051715167","35440.39999997616","","[""stimuli/images/unity_stims/animate_02_left_single_new.mp4""]","39","","trial","7","5","4","stimuli/images/unity_stims/animate_02_left_single_new.mp4","",""
"","html-keyboard-response","23","944066","0.0-23.0","SS1688051715167","580.5","","<p><img src=""stimuli/images/attngetter_blank.png""></p>","39","","between_block","","","","","",""
"","video-keyboard-response","24","948719","0.0-24.0","SS1688051715167","null","","[""stimuli/images/attngetter_quiet.mp4""]","null","","attention_getter","","","","","",""
"","video-keyboard-response","25","994246","0.0-25.0","SS1688051715167","45524.39999997616","","[""stimuli/images/unity_stims/animate_03_left_pair_new.mp4""]","39","","trial","7","5","5","stimuli/images/unity_stims/animate_03_left_pair_new.mp4","",""
"","html-keyboard-response","26","994875","0.0-26.0","SS1688051715167","627.6000000238419","","<p><img src=""stimuli/images/attngetter_blank.png""></p>","39","","between_block","","","","","",""
"","video-keyboard-response","27","999544","0.0-27.0","SS1688051715167","null","","[""stimuli/images/attngetter_quiet.mp4""]","null","","attention_getter","","","","","",""
"","video-keyboard-response","28","1019898","0.0-28.0","SS1688051715167","20352.299999952316","","[""stimuli/images/unity_stims/veggie_05_nopose_single_new.mp4""]","39","","trial","7","5","6","stimuli/images/unity_stims/veggie_05_nopose_single_new.mp4","",""
"","video-keyboard-response","29","1043036","0.0-29.0","SS1688051715167","null","","[""stimuli/images/calibration_end.mp4""]","null","","calibration_end","","","","","",""
"","html-keyboard-response","30","1063640","0.0-30.0","SS1688051715167","20602.5","","<p><span style=""font-family: arial, helvetica, sans-serif; font-size: 48px; color: #993300;""> That's it! Thank you so much for your participation! </span></p>","39","","","","","","","",""
"","survey-multi-choice","31","1092393","0.0-31.0","SS1688051715167","28750.700000047684","","","","","","","","","","{""Consent"":""<b>Option 2 (Scientific and Educational)</b>: You would like to share child’s data with other researchers or students for scientific or educational purposes. </h1>""}","0"
