"success","trial_type","trial_index","time_elapsed","internal_node_id","subject","rt","responses","stimulus","key_press","view_history","stimulus_type","subject_num","condition_num","block_number","stimulus_displayed","response","question_order"
"true","fullscreen","0","1758","0.0-0.0","SS1688487464349","","","","","","","","","","","",""
"","survey-text","1","17318","0.0-1.0","SS1688487464349","15555.899999976158","{""Age"":""260"",""Gender"":""M""}","","","","","","","","","",""
"","audio-keyboard-response","2","25940","0.0-2.0","SS1688487464349","8618.199999928474","","stimuli/audio/music_intro.wav","32","","","","","","","",""
"","html-keyboard-response","3","29031","0.0-3.0","SS1688487464349","3090.100000023842","","<p><img src=stimuli/intro/intro2.jpeg width ='1200' height = '667'></p>","39","","","","","","","",""
"","html-keyboard-response","4","85157","0.0-4.0","SS1688487464349","56124.5","","<p><img src=stimuli/intro/intro3.jpeg width ='1200' height = '667'></p>","39","","","","","","","",""
"","html-keyboard-response","5","107353","0.0-5.0","SS1688487464349","22194.699999928474","","<p><img src=stimuli/intro/intro4.jpeg width ='1200' height = '667'></p>","39","","","","","","","",""
"","html-keyboard-response","6","121803","0.0-6.0","SS1688487464349","14449.600000023842","","<p><img src=stimuli/intro/intro5.jpeg width ='1200' height = '667'></p>","39","","","","","","","",""
"","html-keyboard-response","7","128887","0.0-7.0","SS1688487464349","7083.199999928474","","<p><img src=stimuli/intro/intro6.jpeg width ='1200' height = '667'></p>","39","","","","","","","",""
"","html-keyboard-response","8","148216","0.0-8.0","SS1688487464349","19327.600000023842","","<p><img src=stimuli/intro/intro7.jpeg width ='1200' height = '667'></p>","39","","","","","","","",""
"","html-keyboard-response","9","217140","0.0-9.0","SS1688487464349","68923.29999995232","","<p><img src=stimuli/intro/intro8.jpeg width ='1200' height = '667'></p>","39","","","","","","","",""
"","instructions","10","217598","0.0-10.0","SS1688487464349","456.59999990463257","","","","[{""page_index"":0,""viewing_time"":456.39999997615814}]","","","","","","",""
"","video-keyboard-response","11","235854","0.0-11.0","SS1688487464349","null","","[""stimuli/images/calibration.mp4""]","null","","calibration","","","","","",""
"","video-keyboard-response","12","240538","0.0-12.0","SS1688487464349","null","","[""stimuli/images/attngetter_quiet.mp4""]","null","","attention_getter","","","","","",""
"","video-keyboard-response","13","267156","0.0-13.0","SS1688487464349","26616.200000047684","","[""stimuli/images/unity_stims/veggie_06_nopose_single_new.mp4""]","39","","trial","15","6","1","stimuli/images/unity_stims/veggie_06_nopose_single_new.mp4","",""
"","html-keyboard-response","14","267855","0.0-14.0","SS1688487464349","697.7999999523163","","<p><img src=""stimuli/images/attngetter_blank.png""></p>","39","","between_block","","","","","",""
"","video-keyboard-response","15","272511","0.0-15.0","SS1688487464349","null","","[""stimuli/images/attngetter_quiet.mp4""]","null","","attention_getter","","","","","",""
"","video-keyboard-response","16","293766","0.0-16.0","SS1688487464349","21252.699999928474","","[""stimuli/images/unity_stims/animate_02_left_single_new.mp4""]","39","","trial","15","6","2","stimuli/images/unity_stims/animate_02_left_single_new.mp4","",""
"","html-keyboard-response","17","294323","0.0-17.0","SS1688487464349","553.7999999523163","","<p><img src=""stimuli/images/attngetter_blank.png""></p>","39","","between_block","","","","","",""
"","video-keyboard-response","18","298985","0.0-18.0","SS1688487464349","null","","[""stimuli/images/attngetter_quiet.mp4""]","null","","attention_getter","","","","","",""
"","video-keyboard-response","19","323195","0.0-19.0","SS1688487464349","24206.599999904633","","[""stimuli/images/unity_stims/animate_05_right_pair_new.mp4""]","39","","trial","15","6","3","stimuli/images/unity_stims/animate_05_right_pair_new.mp4","",""
"","html-keyboard-response","20","324366","0.0-20.0","SS1688487464349","1170.1000000238419","","<p><img src=""stimuli/images/attngetter_blank.png""></p>","39","","between_block","","","","","",""
"","video-keyboard-response","21","329028","0.0-21.0","SS1688487464349","null","","[""stimuli/images/attngetter_quiet.mp4""]","null","","attention_getter","","","","","",""
"","video-keyboard-response","22","369725","0.0-22.0","SS1688487464349","40695.300000071526","","[""stimuli/images/unity_stims/veggie_04_nopose_single_new.mp4""]","39","","trial","15","6","4","stimuli/images/unity_stims/veggie_04_nopose_single_new.mp4","",""
"","html-keyboard-response","23","370105","0.0-23.0","SS1688487464349","379.5","","<p><img src=""stimuli/images/attngetter_blank.png""></p>","39","","between_block","","","","","",""
"","video-keyboard-response","24","374784","0.0-24.0","SS1688487464349","null","","[""stimuli/images/attngetter_quiet.mp4""]","null","","attention_getter","","","","","",""
"","video-keyboard-response","25","396308","0.0-25.0","SS1688487464349","21521.200000047684","","[""stimuli/images/unity_stims/animate_01_right_single_new.mp4""]","39","","trial","15","6","5","stimuli/images/unity_stims/animate_01_right_single_new.mp4","",""
"","html-keyboard-response","26","396748","0.0-26.0","SS1688487464349","438.60000002384186","","<p><img src=""stimuli/images/attngetter_blank.png""></p>","39","","between_block","","","","","",""
"","video-keyboard-response","27","401415","0.0-27.0","SS1688487464349","null","","[""stimuli/images/attngetter_quiet.mp4""]","null","","attention_getter","","","","","",""
"","video-keyboard-response","28","428376","0.0-28.0","SS1688487464349","26958.699999928474","","[""stimuli/images/unity_stims/animate_03_left_pair_new.mp4""]","39","","trial","15","6","6","stimuli/images/unity_stims/animate_03_left_pair_new.mp4","",""
"","video-keyboard-response","29","451508","0.0-29.0","SS1688487464349","null","","[""stimuli/images/calibration_end.mp4""]","null","","calibration_end","","","","","",""
"","html-keyboard-response","30","460221","0.0-30.0","SS1688487464349","8712.300000071526","","<p><span style=""font-family: arial, helvetica, sans-serif; font-size: 48px; color: #993300;""> That's it! Thank you so much for your participation! </span></p>","39","","","","","","","",""
"","survey-multi-choice","31","488789","0.0-31.0","SS1688487464349","28566.5","","","","","","","","","","{""Consent"":""<b>Option 2 (Scientific and Educational)</b>: You would like to share child’s data with other researchers or students for scientific or educational purposes. </h1>""}","0"
