"success","trial_type","trial_index","time_elapsed","internal_node_id","subject","rt","responses","stimulus","key_press","view_history","stimulus_type","subject_num","condition_num","block_number","stimulus_displayed","response","question_order"
"true","fullscreen","0","1888","0.0-0.0","SS1689801469486","","","","","","","","","","","",""
"","survey-text","1","18158","0.0-1.0","SS1689801469486","16266.299999952316","{""Age"":""311"",""Gender"":""F""}","","","","","","","","","",""
"","audio-keyboard-response","2","25233","0.0-2.0","SS1689801469486","7073.399999856949","","stimuli/audio/music_intro.wav","39","","","","","","","",""
"","html-keyboard-response","3","29924","0.0-3.0","SS1689801469486","4687.599999904633","","<p><img src=stimuli/intro/intro2.jpeg width ='1200' height = '667'></p>","39","","","","","","","",""
"","html-keyboard-response","4","82577","0.0-4.0","SS1689801469486","52652.5","","<p><img src=stimuli/intro/intro3.jpeg width ='1200' height = '667'></p>","39","","","","","","","",""
"","html-keyboard-response","5","96193","0.0-5.0","SS1689801469486","13614.200000047684","","<p><img src=stimuli/intro/intro4.jpeg width ='1200' height = '667'></p>","39","","","","","","","",""
"","html-keyboard-response","6","101241","0.0-6.0","SS1689801469486","5047.700000047684","","<p><img src=stimuli/intro/intro5.jpeg width ='1200' height = '667'></p>","39","","","","","","","",""
"","html-keyboard-response","7","109887","0.0-7.0","SS1689801469486","8644.700000047684","","<p><img src=stimuli/intro/intro6.jpeg width ='1200' height = '667'></p>","39","","","","","","","",""
"","html-keyboard-response","8","110839","0.0-8.0","SS1689801469486","951.4000000953674","","<p><img src=stimuli/intro/intro7.jpeg width ='1200' height = '667'></p>","39","","","","","","","",""
"","html-keyboard-response","9","143020","0.0-9.0","SS1689801469486","32179.799999952316","","<p><img src=stimuli/intro/intro8.jpeg width ='1200' height = '667'></p>","39","","","","","","","",""
"","instructions","10","143415","0.0-10.0","SS1689801469486","393.59999990463257","","","","[{""page_index"":0,""viewing_time"":393.2999999523163}]","","","","","","",""
"","video-keyboard-response","11","161696","0.0-11.0","SS1689801469486","null","","[""stimuli/images/calibration.mp4""]","null","","calibration","","","","","",""
"","video-keyboard-response","12","166359","0.0-12.0","SS1689801469486","null","","[""stimuli/images/attngetter_quiet.mp4""]","null","","attention_getter","","","","","",""
"","video-keyboard-response","13","207452","0.0-13.0","SS1689801469486","41089.699999809265","","[""stimuli/images/unity_stims/animate_04_left_pair_new.mp4""]","16","","trial","24","3","1","stimuli/images/unity_stims/animate_04_left_pair_new.mp4","",""
"","html-keyboard-response","14","208085","0.0-14.0","SS1689801469486","632.7000000476837","","<p><img src=""stimuli/images/attngetter_blank.png""></p>","16","","between_block","","","","","",""
"","video-keyboard-response","15","212756","0.0-15.0","SS1689801469486","null","","[""stimuli/images/attngetter_quiet.mp4""]","null","","attention_getter","","","","","",""
"","video-keyboard-response","16","265385","0.0-16.0","SS1689801469486","52626.5","","[""stimuli/images/unity_stims/animate_05_right_single_new.mp4""]","39","","trial","24","3","2","stimuli/images/unity_stims/animate_05_right_single_new.mp4","",""
"","html-keyboard-response","17","266272","0.0-17.0","SS1689801469486","885.9000000953674","","<p><img src=""stimuli/images/attngetter_blank.png""></p>","39","","between_block","","","","","",""
"","video-keyboard-response","18","270956","0.0-18.0","SS1689801469486","null","","[""stimuli/images/attngetter_quiet.mp4""]","null","","attention_getter","","","","","",""
"","video-keyboard-response","19","296170","0.0-19.0","SS1689801469486","25211","","[""stimuli/images/unity_stims/veggie_01_nopose_single_new.mp4""]","39","","trial","24","3","3","stimuli/images/unity_stims/veggie_01_nopose_single_new.mp4","",""
"","html-keyboard-response","20","301117","0.0-20.0","SS1689801469486","4946","","<p><img src=""stimuli/images/attngetter_blank.png""></p>","39","","between_block","","","","","",""
"","video-keyboard-response","21","305788","0.0-21.0","SS1689801469486","null","","[""stimuli/images/attngetter_quiet.mp4""]","null","","attention_getter","","","","","",""
"","video-keyboard-response","22","325735","0.0-22.0","SS1689801469486","19945.799999952316","","[""stimuli/images/unity_stims/animate_03_right_pair_new.mp4""]","39","","trial","24","3","4","stimuli/images/unity_stims/animate_03_right_pair_new.mp4","",""
"","html-keyboard-response","23","326616","0.0-23.0","SS1689801469486","880.5","","<p><img src=""stimuli/images/attngetter_blank.png""></p>","39","","between_block","","","","","",""
"","video-keyboard-response","24","331284","0.0-24.0","SS1689801469486","null","","[""stimuli/images/attngetter_quiet.mp4""]","null","","attention_getter","","","","","",""
"","video-keyboard-response","25","352840","0.0-25.0","SS1689801469486","21554.200000047684","","[""stimuli/images/unity_stims/animate_02_left_single_new.mp4""]","39","","trial","24","3","5","stimuli/images/unity_stims/animate_02_left_single_new.mp4","",""
"","html-keyboard-response","26","356996","0.0-26.0","SS1689801469486","4154.600000143051","","<p><img src=""stimuli/images/attngetter_blank.png""></p>","39","","between_block","","","","","",""
"","video-keyboard-response","27","361662","0.0-27.0","SS1689801469486","null","","[""stimuli/images/attngetter_quiet.mp4""]","null","","attention_getter","","","","","",""
"","video-keyboard-response","28","388042","0.0-28.0","SS1689801469486","26378.300000190735","","[""stimuli/images/unity_stims/veggie_06_nopose_single_new.mp4""]","39","","trial","24","3","6","stimuli/images/unity_stims/veggie_06_nopose_single_new.mp4","",""
"","video-keyboard-response","29","407928","0.0-29.0","SS1689801469486","19883.5","","[""stimuli/images/calibration_end.mp4""]","40","","calibration_end","","","","","",""
"","html-keyboard-response","30","420818","0.0-30.0","SS1689801469486","12889.200000047684","","<p><span style=""font-family: arial, helvetica, sans-serif; font-size: 48px; color: #993300;""> That's it! Thank you so much for your participation! </span></p>","39","","","","","","","",""
"","survey-multi-choice","31","446128","0.0-31.0","SS1689801469486","25308.5","","","","","","","","","","{""Consent"":""<b>Option 2 (Scientific and Educational)</b>: You would like to share child’s data with other researchers or students for scientific or educational purposes. </h1>""}","0"
