"success","trial_type","trial_index","time_elapsed","internal_node_id","subject","rt","responses","stimulus","key_press","view_history","stimulus_type","subject_num","condition_num","block_number","stimulus_displayed","response","question_order"
"true","fullscreen","0","546757","0.0-0.0","SS1690310322673","","","","","","","","","","","",""
"","survey-text","1","553848","0.0-1.0","SS1690310322673","6822","{""Age"":""299"",""Gender"":""F""}","","","","","","","","","",""
"","audio-keyboard-response","2","565829","0.0-2.0","SS1690310322673","11949","","stimuli/audio/music_intro.wav","32","","","","","","","",""
"","html-keyboard-response","3","570392","0.0-3.0","SS1690310322673","4544.000000000116","","<p><img src=stimuli/intro/intro2.jpeg width ='1200' height = '667'></p>","32","","","","","","","",""
"","html-keyboard-response","4","657789","0.0-4.0","SS1690310322673","87375","","<p><img src=stimuli/intro/intro3.jpeg width ='1200' height = '667'></p>","32","","","","","","","",""
"","html-keyboard-response","5","688727","0.0-5.0","SS1690310322673","30913","","<p><img src=stimuli/intro/intro4.jpeg width ='1200' height = '667'></p>","32","","","","","","","",""
"","html-keyboard-response","6","700304","0.0-6.0","SS1690310322673","11572","","<p><img src=stimuli/intro/intro5.jpeg width ='1200' height = '667'></p>","32","","","","","","","",""
"","html-keyboard-response","7","711273","0.0-7.0","SS1690310322673","10967","","<p><img src=stimuli/intro/intro6.jpeg width ='1200' height = '667'></p>","32","","","","","","","",""
"","html-keyboard-response","8","712646","0.0-8.0","SS1690310322673","1371","","<p><img src=stimuli/intro/intro7.jpeg width ='1200' height = '667'></p>","32","","","","","","","",""
"","html-keyboard-response","9","728249","0.0-9.0","SS1690310322673","15599","","<p><img src=stimuli/intro/intro8.jpeg width ='1200' height = '667'></p>","32","","","","","","","",""
"","instructions","10","769918","0.0-10.0","SS1690310322673","41659","","","","[{""page_index"":0,""viewing_time"":41656}]","","","","","","",""
"","video-keyboard-response","11","788738","0.0-11.0","SS1690310322673","null","","[""stimuli/images/calibration.mp4""]","null","","calibration","","","","","",""
"","video-keyboard-response","12","793633","0.0-12.0","SS1690310322673","null","","[""stimuli/images/attngetter_quiet.mp4""]","null","","attention_getter","","","","","",""
"","video-keyboard-response","13","841337","0.0-13.0","SS1690310322673","47688","","[""stimuli/images/unity_stims/animate_06_right_single_new.mp4""]","32","","trial","29","4","1","stimuli/images/unity_stims/animate_06_right_single_new.mp4","",""
"","html-keyboard-response","14","842438","0.0-14.0","SS1690310322673","1094.9999999998836","","<p><img src=""stimuli/images/attngetter_blank.png""></p>","32","","between_block","","","","","",""
"","video-keyboard-response","15","847298","0.0-15.0","SS1690310322673","null","","[""stimuli/images/attngetter_quiet.mp4""]","null","","attention_getter","","","","","",""
"","video-keyboard-response","16","866503","0.0-16.0","SS1690310322673","19194","","[""stimuli/images/unity_stims/animate_04_right_pair_new.mp4""]","32","","trial","29","4","2","stimuli/images/unity_stims/animate_04_right_pair_new.mp4","",""
"","html-keyboard-response","17","867899","0.0-17.0","SS1690310322673","1393","","<p><img src=""stimuli/images/attngetter_blank.png""></p>","32","","between_block","","","","","",""
"","video-keyboard-response","18","872729","0.0-18.0","SS1690310322673","null","","[""stimuli/images/attngetter_quiet.mp4""]","null","","attention_getter","","","","","",""
"","video-keyboard-response","19","896385","0.0-19.0","SS1690310322673","23644","","[""stimuli/images/unity_stims/animate_02_left_pair_new.mp4""]","32","","trial","29","4","3","stimuli/images/unity_stims/animate_02_left_pair_new.mp4","",""
"","html-keyboard-response","20","897298","0.0-20.0","SS1690310322673","910","","<p><img src=""stimuli/images/attngetter_blank.png""></p>","32","","between_block","","","","","",""
"","video-keyboard-response","21","902063","0.0-21.0","SS1690310322673","null","","[""stimuli/images/attngetter_quiet.mp4""]","null","","attention_getter","","","","","",""
"","video-keyboard-response","22","954058","0.0-22.0","SS1690310322673","51974","","[""stimuli/images/unity_stims/veggie_03_nopose_single_new.mp4""]","32","","trial","29","4","4","stimuli/images/unity_stims/veggie_03_nopose_single_new.mp4","",""
"","html-keyboard-response","23","954711","0.0-23.0","SS1690310322673","652","","<p><img src=""stimuli/images/attngetter_blank.png""></p>","32","","between_block","","","","","",""
"","video-keyboard-response","24","959526","0.0-24.0","SS1690310322673","null","","[""stimuli/images/attngetter_quiet.mp4""]","null","","attention_getter","","","","","",""
"","video-keyboard-response","25","989309","0.0-25.0","SS1690310322673","29737","","[""stimuli/images/unity_stims/veggie_05_nopose_single_new.mp4""]","32","","trial","29","4","5","stimuli/images/unity_stims/veggie_05_nopose_single_new.mp4","",""
"","html-keyboard-response","26","990760","0.0-26.0","SS1690310322673","1446","","<p><img src=""stimuli/images/attngetter_blank.png""></p>","32","","between_block","","","","","",""
"","video-keyboard-response","27","995846","0.0-27.0","SS1690310322673","null","","[""stimuli/images/attngetter_quiet.mp4""]","null","","attention_getter","","","","","",""
"","video-keyboard-response","28","1021250","0.0-28.0","SS1690310322673","25395","","[""stimuli/images/unity_stims/animate_01_left_single_new.mp4""]","32","","trial","29","4","6","stimuli/images/unity_stims/animate_01_left_single_new.mp4","",""
"","video-keyboard-response","29","1044627","0.0-29.0","SS1690310322673","null","","[""stimuli/images/calibration_end.mp4""]","null","","calibration_end","","","","","",""
"","html-keyboard-response","30","1065113","0.0-30.0","SS1690310322673","20482.999999999884","","<p><span style=""font-family: arial, helvetica, sans-serif; font-size: 48px; color: #993300;""> That's it! Thank you so much for your participation! </span></p>","32","","","","","","","",""
"","survey-multi-choice","31","1112379","0.0-31.0","SS1690310322673","47233","","","","","","","","","","{""Consent"":""<b>Option 1 (Private)</b>: Your child’s data will be kept in a secure location and viewed only by authorized research personnel in our lab. </h1><br>""}","0"
