"view_history","rt","trial_type","trial_index","time_elapsed","internal_node_id","subject","stimulus_type","trial_stimulus","key_press","minimum_viewing_duration","trial_looking_time","block_deviant","block_background","exposure_type","stimulus","block_number","block_type","stimulus_displayed","responses","question_order","math_correct_answer","stimulus_left","stimulus_right"
"[{""page_index"":0,""viewing_time"":16371.259999999893}]","16371.885000000475","instructions","0","16373","0.0-0.0","SS1618365509725","","","","","","","","","","","","","","","","",""
"[{""page_index"":0,""viewing_time"":15554.720000000088},{""page_index"":1,""viewing_time"":6327.960000002349}]","21882.904999998573","instructions","1","40260","0.0-1.0","SS1618365509725","instructions","","","","","","","","","","","","","","","",""
"","5718.960000005609","sequential-stimulus-presentation-old","2","46485","0.0-2.0","SS1618365509725","","","40","500","6218.960000005609","null","null","self_paced","","","","","","","","",""
"","3731.6700000010314","sequential-stimulus-presentation-old","3","50722","0.0-3.0","SS1618365509725","","","40","500","4231.670000001031","null","null","self_paced","","","","","","","","",""
"[{""page_index"":0,""viewing_time"":19887.970000003406}]","19888.169999998354","instructions","4","70612","0.0-4.0","SS1618365509725","instructions","","","","","","","","","","","","","","","",""
"","1937.7850000018952","sequential-stimulus-presentation-old","5","77554","0.0-5.0","SS1618365509725","","","40","500","2437.7850000018952","null","null","forced_long","","","","","","","","",""
"","3248.090000000957","sequential-stimulus-presentation-old","6","80858","0.0-6.0","SS1618365509725","","","40","50","3298.090000000957","null","null","forced_long","","","","","","","","",""
"[{""page_index"":0,""viewing_time"":4551.439999995637}]","4551.644999999553","instructions","7","85412","0.0-7.0","SS1618365509725","instructions","","","","","","","","","","","","","","","",""
"[{""page_index"":0,""viewing_time"":8582.900000001246},{""page_index"":1,""viewing_time"":8727.814999998373},{""page_index"":2,""viewing_time"":4375.984999998764},{""page_index"":3,""viewing_time"":1919.8900000046706},{""page_index"":4,""viewing_time"":1319.984999994631}]","24926.814999998896","instructions","8","110340","0.0-8.0","SS1618365509725","instructions","","","","","","","","","","","","","","","",""
"","null","html-keyboard-response","9","111263","0.0-9.0-0.0","SS1618365509725","","","null","","","","","","<p><img src= images/blank.png width =""600"" height = ""600"" style=""position:fixed;top:50%; left:50%; transform: translate(-50%, -50%); border:5px solid black"">","","","","","","","",""
"","11930.695000002743","sequential-stimulus-presentation-old","10","123706","0.0-9.0-1.0","SS1618365509725","trial","","40","500","12430.695000002743","images/stimuli/spore_stims/complex_15_A_a.gif","images/stimuli/spore_stims/complex_18_A_b.gif","self_paced","","0","complex_dissimilar","images/stimuli/spore_stims/complex_18_A_b.gif","","","","",""
"","null","html-keyboard-response","11","124944","0.0-9.0-0.1","SS1618365509725","","","null","","","","","","<p><img src= images/blank.png width =""600"" height = ""600"" style=""position:fixed;top:50%; left:50%; transform: translate(-50%, -50%); border:5px solid black"">","","","","","","","",""
"","7107.5849999979255","sequential-stimulus-presentation-old","12","132562","0.0-9.0-1.1","SS1618365509725","trial","","40","500","7607.5849999979255","images/stimuli/spore_stims/complex_15_A_a.gif","images/stimuli/spore_stims/complex_18_A_b.gif","self_paced","","0","complex_dissimilar","images/stimuli/spore_stims/complex_15_A_a.gif","","","","",""
"","null","html-keyboard-response","13","133519","0.0-9.0-0.2","SS1618365509725","","","null","","","","","","<p><img src= images/blank.png width =""600"" height = ""600"" style=""position:fixed;top:50%; left:50%; transform: translate(-50%, -50%); border:5px solid black"">","","","","","","","",""
"","5747.949999997218","sequential-stimulus-presentation-old","14","139778","0.0-9.0-1.2","SS1618365509725","trial","","40","500","6247.949999997218","images/stimuli/spore_stims/complex_15_A_a.gif","images/stimuli/spore_stims/complex_18_A_b.gif","self_paced","","0","complex_dissimilar","images/stimuli/spore_stims/complex_18_A_b.gif","","","","",""
"","null","html-keyboard-response","15","141079","0.0-9.0-0.3","SS1618365509725","","","null","","","","","","<p><img src= images/blank.png width =""600"" height = ""600"" style=""position:fixed;top:50%; left:50%; transform: translate(-50%, -50%); border:5px solid black"">","","","","","","","",""
"","5865.989999998419","sequential-stimulus-presentation-old","16","147457","0.0-9.0-1.3","SS1618365509725","trial","","40","500","6365.989999998419","images/stimuli/spore_stims/complex_15_A_a.gif","images/stimuli/spore_stims/complex_18_A_b.gif","self_paced","","0","complex_dissimilar","images/stimuli/spore_stims/complex_18_A_b.gif","","","","",""
"","null","html-keyboard-response","17","148599","0.0-9.0-0.4","SS1618365509725","","","null","","","","","","<p><img src= images/blank.png width =""600"" height = ""600"" style=""position:fixed;top:50%; left:50%; transform: translate(-50%, -50%); border:5px solid black"">","","","","","","","",""
"","5229.724999997416","sequential-stimulus-presentation-old","18","154339","0.0-9.0-1.4","SS1618365509725","trial","","40","500","5729.724999997416","images/stimuli/spore_stims/complex_15_A_a.gif","images/stimuli/spore_stims/complex_18_A_b.gif","self_paced","","0","complex_dissimilar","images/stimuli/spore_stims/complex_18_A_b.gif","","","","",""
"","null","html-keyboard-response","19","155593","0.0-9.0-0.5","SS1618365509725","","","null","","","","","","<p><img src= images/blank.png width =""600"" height = ""600"" style=""position:fixed;top:50%; left:50%; transform: translate(-50%, -50%); border:5px solid black"">","","","","","","","",""
"","4031.169999994745","sequential-stimulus-presentation-old","20","160137","0.0-9.0-1.5","SS1618365509725","trial","","40","500","4531.169999994745","images/stimuli/spore_stims/complex_15_A_a.gif","images/stimuli/spore_stims/complex_18_A_b.gif","self_paced","","0","complex_dissimilar","images/stimuli/spore_stims/complex_18_A_b.gif","","","","",""
"","8242.799999999988","survey-multi-choice","21","168388","0.0-10.0","SS1618365509725","math_question","","","","","","","","","","","","{""Q0"":""6""}","[0]","6","",""
"","null","html-keyboard-response","22","169440","0.0-11.0-0.0","SS1618365509725","","","null","","","","","","<p><img src= images/blank.png width =""600"" height = ""600"" style=""position:fixed;top:50%; left:50%; transform: translate(-50%, -50%); border:5px solid black"">","","","","","","","",""
"","1978.5850000043865","sequential-stimulus-presentation-old","23","171481","0.0-11.0-1.0","SS1618365509725","trial","","40","500","2478.5850000043865","images/stimuli/spore_stims/simple_06_A_a.gif","images/stimuli/spore_stims/simple_03_A_b.gif","forced_short","","1","simple_dissimilar","images/stimuli/spore_stims/simple_03_A_b.gif","","","","",""
"","null","html-keyboard-response","24","172458","0.0-11.0-0.1","SS1618365509725","","","null","","","","","","<p><img src= images/blank.png width =""600"" height = ""600"" style=""position:fixed;top:50%; left:50%; transform: translate(-50%, -50%); border:5px solid black"">","","","","","","","",""
"","3032.0100000026287","sequential-stimulus-presentation-old","25","176001","0.0-11.0-1.1","SS1618365509725","trial","","40","500","3532.0100000026287","images/stimuli/spore_stims/simple_06_A_a.gif","images/stimuli/spore_stims/simple_03_A_b.gif","forced_short","","1","simple_dissimilar","images/stimuli/spore_stims/simple_03_A_b.gif","","","","",""
"","null","html-keyboard-response","26","177005","0.0-11.0-0.2","SS1618365509725","","","null","","","","","","<p><img src= images/blank.png width =""600"" height = ""600"" style=""position:fixed;top:50%; left:50%; transform: translate(-50%, -50%); border:5px solid black"">","","","","","","","",""
"","2604.5849999936763","sequential-stimulus-presentation-old","27","180122","0.0-11.0-1.2","SS1618365509725","trial","","40","500","3104.5849999936763","images/stimuli/spore_stims/simple_06_A_a.gif","images/stimuli/spore_stims/simple_03_A_b.gif","forced_short","","1","simple_dissimilar","images/stimuli/spore_stims/simple_03_A_b.gif","","","","",""
"","null","html-keyboard-response","28","181034","0.0-11.0-0.3","SS1618365509725","","","null","","","","","","<p><img src= images/blank.png width =""600"" height = ""600"" style=""position:fixed;top:50%; left:50%; transform: translate(-50%, -50%); border:5px solid black"">","","","","","","","",""
"","1567.5199999968754","sequential-stimulus-presentation-old","29","183113","0.0-11.0-1.3","SS1618365509725","trial","","40","500","2067.5199999968754","images/stimuli/spore_stims/simple_06_A_a.gif","images/stimuli/spore_stims/simple_03_A_b.gif","forced_short","","1","simple_dissimilar","images/stimuli/spore_stims/simple_03_A_b.gif","","","","",""
"","null","html-keyboard-response","30","184405","0.0-11.0-0.4","SS1618365509725","","","null","","","","","","<p><img src= images/blank.png width =""600"" height = ""600"" style=""position:fixed;top:50%; left:50%; transform: translate(-50%, -50%); border:5px solid black"">","","","","","","","",""
"","580.789999999979","sequential-stimulus-presentation-old","31","185497","0.0-11.0-1.4","SS1618365509725","trial","","40","500","1080.789999999979","images/stimuli/spore_stims/simple_06_A_a.gif","images/stimuli/spore_stims/simple_03_A_b.gif","forced_short","","1","simple_dissimilar","images/stimuli/spore_stims/simple_03_A_b.gif","","","","",""
"","null","html-keyboard-response","32","186632","0.0-11.0-0.5","SS1618365509725","","","null","","","","","","<p><img src= images/blank.png width =""600"" height = ""600"" style=""position:fixed;top:50%; left:50%; transform: translate(-50%, -50%); border:5px solid black"">","","","","","","","",""
"","1116.070000003674","sequential-stimulus-presentation-old","33","188257","0.0-11.0-1.5","SS1618365509725","trial","","40","500","1616.070000003674","images/stimuli/spore_stims/simple_06_A_a.gif","images/stimuli/spore_stims/simple_03_A_b.gif","forced_short","","1","simple_dissimilar","images/stimuli/spore_stims/simple_03_A_b.gif","","","","",""
"","3909.4049999985145","survey-multi-choice","34","192171","0.0-12.0","SS1618365509725","math_question","","","","","","","","","","","","{""Q0"":""7""}","[0]","7","",""
"","null","html-keyboard-response","35","193329","0.0-13.0-0.0","SS1618365509725","","","null","","","","","","<p><img src= images/blank.png width =""600"" height = ""600"" style=""position:fixed;top:50%; left:50%; transform: translate(-50%, -50%); border:5px solid black"">","","","","","","","",""
"","1406.5249999985099","sequential-stimulus-presentation-old","36","195249","0.0-13.0-1.0","SS1618365509725","trial","","40","500","1906.5249999985099","images/stimuli/spore_stims/complex_08_A_b.gif","images/stimuli/spore_stims/complex_01_A_a.gif","self_paced","","2","complex_dissimilar","images/stimuli/spore_stims/complex_01_A_a.gif","","","","",""
"","null","html-keyboard-response","37","196253","0.0-13.0-0.1","SS1618365509725","","","null","","","","","","<p><img src= images/blank.png width =""600"" height = ""600"" style=""position:fixed;top:50%; left:50%; transform: translate(-50%, -50%); border:5px solid black"">","","","","","","","",""
"","3189.5999999978812","sequential-stimulus-presentation-old","38","199953","0.0-13.0-1.1","SS1618365509725","trial","","40","500","3689.5999999978812","images/stimuli/spore_stims/complex_08_A_b.gif","images/stimuli/spore_stims/complex_01_A_a.gif","self_paced","","2","complex_dissimilar","images/stimuli/spore_stims/complex_08_A_b.gif","","","","",""
"","null","html-keyboard-response","39","201052","0.0-13.0-0.2","SS1618365509725","","","null","","","","","","<p><img src= images/blank.png width =""600"" height = ""600"" style=""position:fixed;top:50%; left:50%; transform: translate(-50%, -50%); border:5px solid black"">","","","","","","","",""
"","1810.8750000028522","sequential-stimulus-presentation-old","40","203376","0.0-13.0-1.2","SS1618365509725","trial","","40","500","2310.875000002852","images/stimuli/spore_stims/complex_08_A_b.gif","images/stimuli/spore_stims/complex_01_A_a.gif","self_paced","","2","complex_dissimilar","images/stimuli/spore_stims/complex_08_A_b.gif","","","","",""
"","null","html-keyboard-response","41","204396","0.0-13.0-0.3","SS1618365509725","","","null","","","","","","<p><img src= images/blank.png width =""600"" height = ""600"" style=""position:fixed;top:50%; left:50%; transform: translate(-50%, -50%); border:5px solid black"">","","","","","","","",""
"","1406.5300000002026","sequential-stimulus-presentation-old","42","206312","0.0-13.0-1.3","SS1618365509725","trial","","40","500","1906.5300000002026","images/stimuli/spore_stims/complex_08_A_b.gif","images/stimuli/spore_stims/complex_01_A_a.gif","self_paced","","2","complex_dissimilar","images/stimuli/spore_stims/complex_01_A_a.gif","","","","",""
"","null","html-keyboard-response","43","207581","0.0-13.0-0.4","SS1618365509725","","","null","","","","","","<p><img src= images/blank.png width =""600"" height = ""600"" style=""position:fixed;top:50%; left:50%; transform: translate(-50%, -50%); border:5px solid black"">","","","","","","","",""
"","1014.5300000003772","sequential-stimulus-presentation-old","44","209105","0.0-13.0-1.4","SS1618365509725","trial","","40","500","1514.5300000003772","images/stimuli/spore_stims/complex_08_A_b.gif","images/stimuli/spore_stims/complex_01_A_a.gif","self_paced","","2","complex_dissimilar","images/stimuli/spore_stims/complex_01_A_a.gif","","","","",""
"","null","html-keyboard-response","45","210324","0.0-13.0-0.5","SS1618365509725","","","null","","","","","","<p><img src= images/blank.png width =""600"" height = ""600"" style=""position:fixed;top:50%; left:50%; transform: translate(-50%, -50%); border:5px solid black"">","","","","","","","",""
"","1162.1999999988475","sequential-stimulus-presentation-old","46","212001","0.0-13.0-1.5","SS1618365509725","trial","","40","500","1662.1999999988475","images/stimuli/spore_stims/complex_08_A_b.gif","images/stimuli/spore_stims/complex_01_A_a.gif","self_paced","","2","complex_dissimilar","images/stimuli/spore_stims/complex_01_A_a.gif","","","","",""
"","3861.010000000533","survey-multi-choice","47","215867","0.0-14.0","SS1618365509725","math_question","","","","","","","","","","","","{""Q0"":""11""}","[0]","11","",""
"","null","html-keyboard-response","48","216794","0.0-15.0-0.0","SS1618365509725","","","null","","","","","","<p><img src= images/blank.png width =""600"" height = ""600"" style=""position:fixed;top:50%; left:50%; transform: translate(-50%, -50%); border:5px solid black"">","","","","","","","",""
"","1375.5900000032852","sequential-stimulus-presentation-old","49","218232","0.0-15.0-1.0","SS1618365509725","trial","","40","500","1875.5900000032852","images/stimuli/spore_stims/complex_20_A_a.gif","images/stimuli/spore_stims/complex_12_A_b.gif","forced_short","","3","complex_dissimilar","images/stimuli/spore_stims/complex_12_A_b.gif","","","","",""
"","null","html-keyboard-response","50","219293","0.0-15.0-0.1","SS1618365509725","","","null","","","","","","<p><img src= images/blank.png width =""600"" height = ""600"" style=""position:fixed;top:50%; left:50%; transform: translate(-50%, -50%); border:5px solid black"">","","","","","","","",""
"","1700.2050000010058","sequential-stimulus-presentation-old","51","221504","0.0-15.0-1.1","SS1618365509725","trial","","40","500","2200.205000001006","images/stimuli/spore_stims/complex_20_A_a.gif","images/stimuli/spore_stims/complex_12_A_b.gif","forced_short","","3","complex_dissimilar","images/stimuli/spore_stims/complex_12_A_b.gif","","","","",""
"","null","html-keyboard-response","52","222805","0.0-15.0-0.2","SS1618365509725","","","null","","","","","","<p><img src= images/blank.png width =""600"" height = ""600"" style=""position:fixed;top:50%; left:50%; transform: translate(-50%, -50%); border:5px solid black"">","","","","","","","",""
"","1201.5749999991385","sequential-stimulus-presentation-old","53","224521","0.0-15.0-1.2","SS1618365509725","trial","","40","500","1701.5749999991385","images/stimuli/spore_stims/complex_20_A_a.gif","images/stimuli/spore_stims/complex_12_A_b.gif","forced_short","","3","complex_dissimilar","images/stimuli/spore_stims/complex_12_A_b.gif","","","","",""
"","null","html-keyboard-response","54","225743","0.0-15.0-0.3","SS1618365509725","","","null","","","","","","<p><img src= images/blank.png width =""600"" height = ""600"" style=""position:fixed;top:50%; left:50%; transform: translate(-50%, -50%); border:5px solid black"">","","","","","","","",""
"","1059.1300000014598","sequential-stimulus-presentation-old","55","227312","0.0-15.0-1.3","SS1618365509725","trial","","40","500","1559.1300000014598","images/stimuli/spore_stims/complex_20_A_a.gif","images/stimuli/spore_stims/complex_12_A_b.gif","forced_short","","3","complex_dissimilar","images/stimuli/spore_stims/complex_12_A_b.gif","","","","",""
"","null","html-keyboard-response","56","228418","0.0-15.0-0.4","SS1618365509725","","","null","","","","","","<p><img src= images/blank.png width =""600"" height = ""600"" style=""position:fixed;top:50%; left:50%; transform: translate(-50%, -50%); border:5px solid black"">","","","","","","","",""
"","814.249999995809","sequential-stimulus-presentation-old","57","229745","0.0-15.0-1.4","SS1618365509725","trial","","40","500","1314.249999995809","images/stimuli/spore_stims/complex_20_A_a.gif","images/stimuli/spore_stims/complex_12_A_b.gif","forced_short","","3","complex_dissimilar","images/stimuli/spore_stims/complex_12_A_b.gif","","","","",""
"","null","html-keyboard-response","58","230783","0.0-15.0-0.5","SS1618365509725","","","null","","","","","","<p><img src= images/blank.png width =""600"" height = ""600"" style=""position:fixed;top:50%; left:50%; transform: translate(-50%, -50%); border:5px solid black"">","","","","","","","",""
"","2267.4299999998766","sequential-stimulus-presentation-old","59","233561","0.0-15.0-1.5","SS1618365509725","trial","","40","500","2767.4299999998766","images/stimuli/spore_stims/complex_20_A_a.gif","images/stimuli/spore_stims/complex_12_A_b.gif","forced_short","","3","complex_dissimilar","images/stimuli/spore_stims/complex_20_A_a.gif","","","","",""
"","3941.3599999970756","survey-multi-choice","60","237507","0.0-16.0","SS1618365509725","math_question","","","","","","","","","","","","{""Q0"":""6""}","[0]","6","",""
"","null","html-keyboard-response","61","238629","0.0-17.0-0.0","SS1618365509725","","","null","","","","","","<p><img src= images/blank.png width =""600"" height = ""600"" style=""position:fixed;top:50%; left:50%; transform: translate(-50%, -50%); border:5px solid black"">","","","","","","","",""
"","5055.229999998119","sequential-stimulus-presentation-old","62","248698","0.0-17.0-1.0","SS1618365509725","trial","","40","500","5555.229999998119","images/stimuli/spore_stims/complex_09_A_b.gif","images/stimuli/spore_stims/complex_19_A_a.gif","forced_long","","4","complex_dissimilar","images/stimuli/spore_stims/complex_19_A_a.gif","","","","",""
"","null","html-keyboard-response","63","249594","0.0-17.0-0.1","SS1618365509725","","","null","","","","","","<p><img src= images/blank.png width =""600"" height = ""600"" style=""position:fixed;top:50%; left:50%; transform: translate(-50%, -50%); border:5px solid black"">","","","","","","","",""
"","2380.5300000021816","sequential-stimulus-presentation-old","64","252488","0.0-17.0-1.1","SS1618365509725","trial","","40","500","2880.5300000021816","images/stimuli/spore_stims/complex_09_A_b.gif","images/stimuli/spore_stims/complex_19_A_a.gif","forced_long","","4","complex_dissimilar","images/stimuli/spore_stims/complex_19_A_a.gif","","","","",""
"","null","html-keyboard-response","65","253448","0.0-17.0-0.2","SS1618365509725","","","null","","","","","","<p><img src= images/blank.png width =""600"" height = ""600"" style=""position:fixed;top:50%; left:50%; transform: translate(-50%, -50%); border:5px solid black"">","","","","","","","",""
"","1896.905000001425","sequential-stimulus-presentation-old","66","255856","0.0-17.0-1.2","SS1618365509725","trial","","40","500","2396.905000001425","images/stimuli/spore_stims/complex_09_A_b.gif","images/stimuli/spore_stims/complex_19_A_a.gif","forced_long","","4","complex_dissimilar","images/stimuli/spore_stims/complex_19_A_a.gif","","","","",""
"","null","html-keyboard-response","67","257101","0.0-17.0-0.3","SS1618365509725","","","null","","","","","","<p><img src= images/blank.png width =""600"" height = ""600"" style=""position:fixed;top:50%; left:50%; transform: translate(-50%, -50%); border:5px solid black"">","","","","","","","",""
"","1907.9550000024028","sequential-stimulus-presentation-old","68","259521","0.0-17.0-1.3","SS1618365509725","trial","","40","500","2407.955000002403","images/stimuli/spore_stims/complex_09_A_b.gif","images/stimuli/spore_stims/complex_19_A_a.gif","forced_long","","4","complex_dissimilar","images/stimuli/spore_stims/complex_19_A_a.gif","","","","",""
"","3565.3000000020256","survey-multi-choice","69","263100","0.0-18.0","SS1618365509725","math_question","","","","","","","","","","","","{""Q0"":""12""}","[0]","12","",""
"","null","html-keyboard-response","70","264212","0.0-19.0-0.0","SS1618365509725","","","null","","","","","","<p><img src= images/blank.png width =""600"" height = ""600"" style=""position:fixed;top:50%; left:50%; transform: translate(-50%, -50%); border:5px solid black"">","","","","","","","",""
"","1134.3800000031479","sequential-stimulus-presentation-old","71","270359","0.0-19.0-1.0","SS1618365509725","trial","","40","500","1634.3800000031479","images/stimuli/spore_stims/complex_04_A_a.gif","images/stimuli/spore_stims/complex_07_A_b.gif","forced_long","","5","complex_dissimilar","images/stimuli/spore_stims/complex_07_A_b.gif","","","","",""
"","null","html-keyboard-response","72","271580","0.0-19.0-0.1","SS1618365509725","","","null","","","","","","<p><img src= images/blank.png width =""600"" height = ""600"" style=""position:fixed;top:50%; left:50%; transform: translate(-50%, -50%); border:5px solid black"">","","","","","","","",""
"","2253.0299999998533","sequential-stimulus-presentation-old","73","274345","0.0-19.0-1.1","SS1618365509725","trial","","40","500","2753.0299999998533","images/stimuli/spore_stims/complex_04_A_a.gif","images/stimuli/spore_stims/complex_07_A_b.gif","forced_long","","5","complex_dissimilar","images/stimuli/spore_stims/complex_07_A_b.gif","","","","",""
"","null","html-keyboard-response","74","275241","0.0-19.0-0.2","SS1618365509725","","","null","","","","","","<p><img src= images/blank.png width =""600"" height = ""600"" style=""position:fixed;top:50%; left:50%; transform: translate(-50%, -50%); border:5px solid black"">","","","","","","","",""
"","2151.7250000033528","sequential-stimulus-presentation-old","75","277905","0.0-19.0-1.2","SS1618365509725","trial","","40","500","2651.7250000033528","images/stimuli/spore_stims/complex_04_A_a.gif","images/stimuli/spore_stims/complex_07_A_b.gif","forced_long","","5","complex_dissimilar","images/stimuli/spore_stims/complex_07_A_b.gif","","","","",""
"","null","html-keyboard-response","76","278733","0.0-19.0-0.3","SS1618365509725","","","null","","","","","","<p><img src= images/blank.png width =""600"" height = ""600"" style=""position:fixed;top:50%; left:50%; transform: translate(-50%, -50%); border:5px solid black"">","","","","","","","",""
"","1757.11500000034","sequential-stimulus-presentation-old","77","281001","0.0-19.0-1.3","SS1618365509725","trial","","40","500","2257.11500000034","images/stimuli/spore_stims/complex_04_A_a.gif","images/stimuli/spore_stims/complex_07_A_b.gif","forced_long","","5","complex_dissimilar","images/stimuli/spore_stims/complex_07_A_b.gif","","","","",""
"","null","html-keyboard-response","78","282238","0.0-19.0-0.4","SS1618365509725","","","null","","","","","","<p><img src= images/blank.png width =""600"" height = ""600"" style=""position:fixed;top:50%; left:50%; transform: translate(-50%, -50%); border:5px solid black"">","","","","","","","",""
"","715.0200000032783","sequential-stimulus-presentation-old","79","283465","0.0-19.0-1.4","SS1618365509725","trial","","40","500","1215.0200000032783","images/stimuli/spore_stims/complex_04_A_a.gif","images/stimuli/spore_stims/complex_07_A_b.gif","forced_long","","5","complex_dissimilar","images/stimuli/spore_stims/complex_07_A_b.gif","","","","",""
"","null","html-keyboard-response","80","284608","0.0-19.0-0.5","SS1618365509725","","","null","","","","","","<p><img src= images/blank.png width =""600"" height = ""600"" style=""position:fixed;top:50%; left:50%; transform: translate(-50%, -50%); border:5px solid black"">","","","","","","","",""
"","750.995000002149","sequential-stimulus-presentation-old","81","285873","0.0-19.0-1.5","SS1618365509725","trial","","40","500","1250.995000002149","images/stimuli/spore_stims/complex_04_A_a.gif","images/stimuli/spore_stims/complex_07_A_b.gif","forced_long","","5","complex_dissimilar","images/stimuli/spore_stims/complex_07_A_b.gif","","","","",""
"","4803.769999998622","survey-multi-choice","82","290683","0.0-20.0","SS1618365509725","math_question","","","","","","","","","","","","{""Q0"":""2""}","[0]","2","",""
"","null","html-keyboard-response","83","291906","0.0-21.0-0.0","SS1618365509725","","","null","","","","","","<p><img src= images/blank.png width =""600"" height = ""600"" style=""position:fixed;top:50%; left:50%; transform: translate(-50%, -50%); border:5px solid black"">","","","","","","","",""
"","10541.800000006333","sequential-stimulus-presentation-old","84","302505","0.0-21.0-1.0","SS1618365509725","trial","","40","500","11041.800000006333","images/stimuli/spore_stims/complex_15_A_b.gif","images/stimuli/spore_stims/complex_03_A_a.gif","forced_short","","6","complex_dissimilar","images/stimuli/spore_stims/complex_03_A_a.gif","","","","",""
"","null","html-keyboard-response","85","303461","0.0-21.0-0.1","SS1618365509725","","","null","","","","","","<p><img src= images/blank.png width =""600"" height = ""600"" style=""position:fixed;top:50%; left:50%; transform: translate(-50%, -50%); border:5px solid black"">","","","","","","","",""
"","2450.250000001688","sequential-stimulus-presentation-old","86","306425","0.0-21.0-1.1","SS1618365509725","trial","","40","500","2950.250000001688","images/stimuli/spore_stims/complex_15_A_b.gif","images/stimuli/spore_stims/complex_03_A_a.gif","forced_short","","6","complex_dissimilar","images/stimuli/spore_stims/complex_03_A_a.gif","","","","",""
"","null","html-keyboard-response","87","307629","0.0-21.0-0.2","SS1618365509725","","","null","","","","","","<p><img src= images/blank.png width =""600"" height = ""600"" style=""position:fixed;top:50%; left:50%; transform: translate(-50%, -50%); border:5px solid black"">","","","","","","","",""
"","1753.4799999993993","sequential-stimulus-presentation-old","88","309897","0.0-21.0-1.2","SS1618365509725","trial","","40","500","2253.4799999993993","images/stimuli/spore_stims/complex_15_A_b.gif","images/stimuli/spore_stims/complex_03_A_a.gif","forced_short","","6","complex_dissimilar","images/stimuli/spore_stims/complex_15_A_b.gif","","","","",""
"","null","html-keyboard-response","89","310818","0.0-21.0-0.3","SS1618365509725","","","null","","","","","","<p><img src= images/blank.png width =""600"" height = ""600"" style=""position:fixed;top:50%; left:50%; transform: translate(-50%, -50%); border:5px solid black"">","","","","","","","",""
"","861.9199999957345","sequential-stimulus-presentation-old","90","312194","0.0-21.0-1.3","SS1618365509725","trial","","40","500","1361.9199999957345","images/stimuli/spore_stims/complex_15_A_b.gif","images/stimuli/spore_stims/complex_03_A_a.gif","forced_short","","6","complex_dissimilar","images/stimuli/spore_stims/complex_03_A_a.gif","","","","",""
"","null","html-keyboard-response","91","313318","0.0-21.0-0.4","SS1618365509725","","","null","","","","","","<p><img src= images/blank.png width =""600"" height = ""600"" style=""position:fixed;top:50%; left:50%; transform: translate(-50%, -50%); border:5px solid black"">","","","","","","","",""
"","467.2599999976228","sequential-stimulus-presentation-old","92","314298","0.0-21.0-1.4","SS1618365509725","trial","","40","500","967.2599999976228","images/stimuli/spore_stims/complex_15_A_b.gif","images/stimuli/spore_stims/complex_03_A_a.gif","forced_short","","6","complex_dissimilar","images/stimuli/spore_stims/complex_15_A_b.gif","","","","",""
"","2971.7900000032387","survey-multi-choice","93","317275","0.0-22.0","SS1618365509725","math_question","","","","","","","","","","","","{""Q0"":""16""}","[0]","16","",""
"","null","html-keyboard-response","94","318324","0.0-23.0-0.0","SS1618365509725","","","null","","","","","","<p><img src= images/blank.png width =""600"" height = ""600"" style=""position:fixed;top:50%; left:50%; transform: translate(-50%, -50%); border:5px solid black"">","","","","","","","",""
"","1720.629999996163","sequential-stimulus-presentation-old","95","320561","0.0-23.0-1.0","SS1618365509725","trial","","40","500","2220.629999996163","images/stimuli/spore_stims/simple_16_A_a.gif","images/stimuli/spore_stims/simple_15_A_b.gif","self_paced","","7","simple_dissimilar","images/stimuli/spore_stims/simple_15_A_b.gif","","","","",""
"","null","html-keyboard-response","96","321377","0.0-23.0-0.1","SS1618365509725","","","null","","","","","","<p><img src= images/blank.png width =""600"" height = ""600"" style=""position:fixed;top:50%; left:50%; transform: translate(-50%, -50%); border:5px solid black"">","","","","","","","",""
"","1030.4199999955017","sequential-stimulus-presentation-old","97","322921","0.0-23.0-1.1","SS1618365509725","trial","","40","500","1530.4199999955017","images/stimuli/spore_stims/simple_16_A_a.gif","images/stimuli/spore_stims/simple_15_A_b.gif","self_paced","","7","simple_dissimilar","images/stimuli/spore_stims/simple_15_A_b.gif","","","","",""
"","null","html-keyboard-response","98","324159","0.0-23.0-0.2","SS1618365509725","","","null","","","","","","<p><img src= images/blank.png width =""600"" height = ""600"" style=""position:fixed;top:50%; left:50%; transform: translate(-50%, -50%); border:5px solid black"">","","","","","","","",""
"","531.7849999992177","sequential-stimulus-presentation-old","99","325202","0.0-23.0-1.2","SS1618365509725","trial","","40","500","1031.7849999992177","images/stimuli/spore_stims/simple_16_A_a.gif","images/stimuli/spore_stims/simple_15_A_b.gif","self_paced","","7","simple_dissimilar","images/stimuli/spore_stims/simple_15_A_b.gif","","","","",""
"","null","html-keyboard-response","100","326448","0.0-23.0-0.3","SS1618365509725","","","null","","","","","","<p><img src= images/blank.png width =""600"" height = ""600"" style=""position:fixed;top:50%; left:50%; transform: translate(-50%, -50%); border:5px solid black"">","","","","","","","",""
"","177.2250000067288","sequential-stimulus-presentation-old","101","327139","0.0-23.0-1.3","SS1618365509725","trial","","40","500","677.2250000067288","images/stimuli/spore_stims/simple_16_A_a.gif","images/stimuli/spore_stims/simple_15_A_b.gif","self_paced","","7","simple_dissimilar","images/stimuli/spore_stims/simple_15_A_b.gif","","","","",""
"","null","html-keyboard-response","102","328361","0.0-23.0-0.4","SS1618365509725","","","null","","","","","","<p><img src= images/blank.png width =""600"" height = ""600"" style=""position:fixed;top:50%; left:50%; transform: translate(-50%, -50%); border:5px solid black"">","","","","","","","",""
"","6126.839999997173","sequential-stimulus-presentation-old","103","335001","0.0-23.0-1.4","SS1618365509725","trial","","40","500","6626.839999997173","images/stimuli/spore_stims/simple_16_A_a.gif","images/stimuli/spore_stims/simple_15_A_b.gif","self_paced","","7","simple_dissimilar","images/stimuli/spore_stims/simple_16_A_a.gif","","","","",""
"","3226.7700000011246","survey-multi-choice","104","338235","0.0-24.0","SS1618365509725","math_question","","","","","","","","","","","","{""Q0"":""14""}","[0]","14","",""
"","null","html-keyboard-response","105","339473","0.0-25.0-0.0","SS1618365509725","","","null","","","","","","<p><img src= images/blank.png width =""600"" height = ""600"" style=""position:fixed;top:50%; left:50%; transform: translate(-50%, -50%); border:5px solid black"">","","","","","","","",""
"","882.3249999986729","sequential-stimulus-presentation-old","106","345369","0.0-25.0-1.0","SS1618365509725","trial","","40","500","1382.3249999986729","images/stimuli/spore_stims/simple_05_A_a.gif","images/stimuli/spore_stims/simple_11_A_b.gif","forced_long","","8","simple_dissimilar","images/stimuli/spore_stims/simple_11_A_b.gif","","","","",""
"","null","html-keyboard-response","107","346266","0.0-25.0-0.1","SS1618365509725","","","null","","","","","","<p><img src= images/blank.png width =""600"" height = ""600"" style=""position:fixed;top:50%; left:50%; transform: translate(-50%, -50%); border:5px solid black"">","","","","","","","",""
"","2524.940000002971","sequential-stimulus-presentation-old","108","349305","0.0-25.0-1.1","SS1618365509725","trial","","40","500","3024.940000002971","images/stimuli/spore_stims/simple_05_A_a.gif","images/stimuli/spore_stims/simple_11_A_b.gif","forced_long","","8","simple_dissimilar","images/stimuli/spore_stims/simple_05_A_a.gif","","","","",""
"","null","html-keyboard-response","109","350201","0.0-25.0-0.2","SS1618365509725","","","null","","","","","","<p><img src= images/blank.png width =""600"" height = ""600"" style=""position:fixed;top:50%; left:50%; transform: translate(-50%, -50%); border:5px solid black"">","","","","","","","",""
"","3288.0199999999604","sequential-stimulus-presentation-old","110","354000","0.0-25.0-1.2","SS1618365509725","trial","","40","500","3788.0199999999604","images/stimuli/spore_stims/simple_05_A_a.gif","images/stimuli/spore_stims/simple_11_A_b.gif","forced_long","","8","simple_dissimilar","images/stimuli/spore_stims/simple_11_A_b.gif","","","","",""
"","null","html-keyboard-response","111","355060","0.0-25.0-0.3","SS1618365509725","","","null","","","","","","<p><img src= images/blank.png width =""600"" height = ""600"" style=""position:fixed;top:50%; left:50%; transform: translate(-50%, -50%); border:5px solid black"">","","","","","","","",""
"","1889.035000000149","sequential-stimulus-presentation-old","112","357465","0.0-25.0-1.3","SS1618365509725","trial","","40","500","2389.035000000149","images/stimuli/spore_stims/simple_05_A_a.gif","images/stimuli/spore_stims/simple_11_A_b.gif","forced_long","","8","simple_dissimilar","images/stimuli/spore_stims/simple_11_A_b.gif","","","","",""
"","3443.939999997383","survey-multi-choice","113","360915","0.0-26.0","SS1618365509725","math_question","","","","","","","","","","","","{""Q0"":""2""}","[0]","2","",""
"","null","html-keyboard-response","114","362138","0.0-27.0-0.0","SS1618365509725","","","null","","","","","","<p><img src= images/blank.png width =""600"" height = ""600"" style=""position:fixed;top:50%; left:50%; transform: translate(-50%, -50%); border:5px solid black"">","","","","","","","",""
"","1221.9499999991967","sequential-stimulus-presentation-old","115","363423","0.0-27.0-1.0","SS1618365509725","trial","","40","500","1721.9499999991967","images/stimuli/spore_stims/simple_10_A_a.gif","images/stimuli/spore_stims/simple_20_A_b.gif","forced_short","","9","simple_dissimilar","images/stimuli/spore_stims/simple_20_A_b.gif","","","","",""
"","null","html-keyboard-response","116","364536","0.0-27.0-0.1","SS1618365509725","","","null","","","","","","<p><img src= images/blank.png width =""600"" height = ""600"" style=""position:fixed;top:50%; left:50%; transform: translate(-50%, -50%); border:5px solid black"">","","","","","","","",""
"","582.0149999999558","sequential-stimulus-presentation-old","117","365633","0.0-27.0-1.1","SS1618365509725","trial","","40","500","1082.0149999999558","images/stimuli/spore_stims/simple_10_A_a.gif","images/stimuli/spore_stims/simple_20_A_b.gif","forced_short","","9","simple_dissimilar","images/stimuli/spore_stims/simple_20_A_b.gif","","","","",""
"","null","html-keyboard-response","118","366918","0.0-27.0-0.2","SS1618365509725","","","null","","","","","","<p><img src= images/blank.png width =""600"" height = ""600"" style=""position:fixed;top:50%; left:50%; transform: translate(-50%, -50%); border:5px solid black"">","","","","","","","",""
"","290.4100000014296","sequential-stimulus-presentation-old","119","367720","0.0-27.0-1.2","SS1618365509725","trial","","40","500","790.4100000014296","images/stimuli/spore_stims/simple_10_A_a.gif","images/stimuli/spore_stims/simple_20_A_b.gif","forced_short","","9","simple_dissimilar","images/stimuli/spore_stims/simple_20_A_b.gif","","","","",""
"","null","html-keyboard-response","120","368710","0.0-27.0-0.3","SS1618365509725","","","null","","","","","","<p><img src= images/blank.png width =""600"" height = ""600"" style=""position:fixed;top:50%; left:50%; transform: translate(-50%, -50%); border:5px solid black"">","","","","","","","",""
"","448.4149999989313","sequential-stimulus-presentation-old","121","369672","0.0-27.0-1.3","SS1618365509725","trial","","40","500","948.4149999989313","images/stimuli/spore_stims/simple_10_A_a.gif","images/stimuli/spore_stims/simple_20_A_b.gif","forced_short","","9","simple_dissimilar","images/stimuli/spore_stims/simple_20_A_b.gif","","","","",""
"","null","html-keyboard-response","122","370603","0.0-27.0-0.4","SS1618365509725","","","null","","","","","","<p><img src= images/blank.png width =""600"" height = ""600"" style=""position:fixed;top:50%; left:50%; transform: translate(-50%, -50%); border:5px solid black"">","","","","","","","",""
"","299.44999999861466","sequential-stimulus-presentation-old","123","371417","0.0-27.0-1.4","SS1618365509725","trial","","40","500","799.4499999986147","images/stimuli/spore_stims/simple_10_A_a.gif","images/stimuli/spore_stims/simple_20_A_b.gif","forced_short","","9","simple_dissimilar","images/stimuli/spore_stims/simple_20_A_b.gif","","","","",""
"","null","html-keyboard-response","124","372301","0.0-27.0-0.5","SS1618365509725","","","null","","","","","","<p><img src= images/blank.png width =""600"" height = ""600"" style=""position:fixed;top:50%; left:50%; transform: translate(-50%, -50%); border:5px solid black"">","","","","","","","",""
"","578.5550000000512","sequential-stimulus-presentation-old","125","373392","0.0-27.0-1.5","SS1618365509725","trial","","40","500","1078.5550000000512","images/stimuli/spore_stims/simple_10_A_a.gif","images/stimuli/spore_stims/simple_20_A_b.gif","forced_short","","9","simple_dissimilar","images/stimuli/spore_stims/simple_10_A_a.gif","","","","",""
"","2714.1450000053737","survey-multi-choice","126","376115","0.0-28.0","SS1618365509725","math_question","","","","","","","","","","","","{""Q0"":""9""}","[0]","9","",""
"","null","html-keyboard-response","127","377373","0.0-29.0-0.0","SS1618365509725","","","null","","","","","","<p><img src= images/blank.png width =""600"" height = ""600"" style=""position:fixed;top:50%; left:50%; transform: translate(-50%, -50%); border:5px solid black"">","","","","","","","",""
"","471.14999999757856","sequential-stimulus-presentation-old","128","378360","0.0-29.0-1.0","SS1618365509725","trial","","40","500","971.1499999975786","images/stimuli/spore_stims/simple_10_A_b.gif","images/stimuli/spore_stims/simple_11_A_a.gif","self_paced","","10","simple_dissimilar","images/stimuli/spore_stims/simple_11_A_a.gif","","","","",""
"","null","html-keyboard-response","129","379402","0.0-29.0-0.1","SS1618365509725","","","null","","","","","","<p><img src= images/blank.png width =""600"" height = ""600"" style=""position:fixed;top:50%; left:50%; transform: translate(-50%, -50%); border:5px solid black"">","","","","","","","",""
"","95.17000000050757","sequential-stimulus-presentation-old","130","380008","0.0-29.0-1.1","SS1618365509725","trial","","40","500","595.1700000005076","images/stimuli/spore_stims/simple_10_A_b.gif","images/stimuli/spore_stims/simple_11_A_a.gif","self_paced","","10","simple_dissimilar","images/stimuli/spore_stims/simple_11_A_a.gif","","","","",""
"","null","html-keyboard-response","131","381009","0.0-29.0-0.2","SS1618365509725","","","null","","","","","","<p><img src= images/blank.png width =""600"" height = ""600"" style=""position:fixed;top:50%; left:50%; transform: translate(-50%, -50%); border:5px solid black"">","","","","","","","",""
"","686.6999999983818","sequential-stimulus-presentation-old","132","382208","0.0-29.0-1.2","SS1618365509725","trial","","40","500","1186.6999999983818","images/stimuli/spore_stims/simple_10_A_b.gif","images/stimuli/spore_stims/simple_11_A_a.gif","self_paced","","10","simple_dissimilar","images/stimuli/spore_stims/simple_11_A_a.gif","","","","",""
"","null","html-keyboard-response","133","383279","0.0-29.0-0.3","SS1618365509725","","","null","","","","","","<p><img src= images/blank.png width =""600"" height = ""600"" style=""position:fixed;top:50%; left:50%; transform: translate(-50%, -50%); border:5px solid black"">","","","","","","","",""
"","495.26500000501983","sequential-stimulus-presentation-old","134","384288","0.0-29.0-1.3","SS1618365509725","trial","","40","500","995.2650000050198","images/stimuli/spore_stims/simple_10_A_b.gif","images/stimuli/spore_stims/simple_11_A_a.gif","self_paced","","10","simple_dissimilar","images/stimuli/spore_stims/simple_10_A_b.gif","","","","",""
"","2764.130000003206","survey-multi-choice","135","387059","0.0-30.0","SS1618365509725","math_question","","","","","","","","","","","","{""Q0"":""5""}","[0]","5","",""
"","null","html-keyboard-response","136","388131","0.0-31.0-0.0","SS1618365509725","","","null","","","","","","<p><img src= images/blank.png width =""600"" height = ""600"" style=""position:fixed;top:50%; left:50%; transform: translate(-50%, -50%); border:5px solid black"">","","","","","","","",""
"","1294.1900000005262","sequential-stimulus-presentation-old","137","394440","0.0-31.0-1.0","SS1618365509725","trial","","40","500","1794.1900000005262","images/stimuli/spore_stims/simple_01_A_a.gif","images/stimuli/spore_stims/simple_17_A_b.gif","forced_long","","11","simple_dissimilar","images/stimuli/spore_stims/simple_17_A_b.gif","","","","",""
"","null","html-keyboard-response","138","395664","0.0-31.0-0.1","SS1618365509725","","","null","","","","","","<p><img src= images/blank.png width =""600"" height = ""600"" style=""position:fixed;top:50%; left:50%; transform: translate(-50%, -50%); border:5px solid black"">","","","","","","","",""
"","1346.0899999990943","sequential-stimulus-presentation-old","139","397528","0.0-31.0-1.1","SS1618365509725","trial","","40","500","1846.0899999990943","images/stimuli/spore_stims/simple_01_A_a.gif","images/stimuli/spore_stims/simple_17_A_b.gif","forced_long","","11","simple_dissimilar","images/stimuli/spore_stims/simple_01_A_a.gif","","","","",""
"","null","html-keyboard-response","140","398511","0.0-31.0-0.2","SS1618365509725","","","null","","","","","","<p><img src= images/blank.png width =""600"" height = ""600"" style=""position:fixed;top:50%; left:50%; transform: translate(-50%, -50%); border:5px solid black"">","","","","","","","",""
"","613.7650000018766","sequential-stimulus-presentation-old","141","399640","0.0-31.0-1.2","SS1618365509725","trial","","40","500","1113.7650000018766","images/stimuli/spore_stims/simple_01_A_a.gif","images/stimuli/spore_stims/simple_17_A_b.gif","forced_long","","11","simple_dissimilar","images/stimuli/spore_stims/simple_01_A_a.gif","","","","",""
"","null","html-keyboard-response","142","400867","0.0-31.0-0.3","SS1618365509725","","","null","","","","","","<p><img src= images/blank.png width =""600"" height = ""600"" style=""position:fixed;top:50%; left:50%; transform: translate(-50%, -50%); border:5px solid black"">","","","","","","","",""
"","430.56500000238884","sequential-stimulus-presentation-old","143","401808","0.0-31.0-1.3","SS1618365509725","trial","","40","500","930.5650000023888","images/stimuli/spore_stims/simple_01_A_a.gif","images/stimuli/spore_stims/simple_17_A_b.gif","forced_long","","11","simple_dissimilar","images/stimuli/spore_stims/simple_17_A_b.gif","","","","",""
"[{""page_index"":0,""viewing_time"":11218.895000005432}]","11219.140000001062","instructions","144","413034","0.0-32.0","SS1618365509725","instructions","","","","","","","","","","","","","","","",""
"","13836.480000005395","survey-likert","145","426875","0.0-33.0","SS1618365509725","similarity_question","","","","","","","","","","","","{""Q0"":1}","[0]","","images/stimuli/spore_stims/complex_03_A_a.gif","images/stimuli/spore_stims/complex_15_A_b.gif"
"","5886.904999999388","survey-likert","146","432771","0.0-34.0","SS1618365509725","similarity_question","","","","","","","","","","","","{""Q0"":2}","[0]","","images/stimuli/spore_stims/complex_04_A_a.gif","images/stimuli/spore_stims/complex_07_A_b.gif"
"","8049.424999997427","survey-likert","147","440827","0.0-35.0","SS1618365509725","similarity_question","","","","","","","","","","","","{""Q0"":4}","[0]","","images/stimuli/spore_stims/simple_06_A_a.gif","images/stimuli/spore_stims/simple_03_A_b.gif"
"","5157.079999997222","survey-likert","148","445995","0.0-36.0","SS1618365509725","similarity_question","","","","","","","","","","","","{""Q0"":4}","[0]","","images/stimuli/spore_stims/simple_20_A_b.gif","images/stimuli/spore_stims/simple_10_A_a.gif"
"","3656.089999996766","survey-likert","149","449659","0.0-37.0","SS1618365509725","similarity_question","","","","","","","","","","","","{""Q0"":0}","[0]","","images/stimuli/spore_stims/complex_15_A_a.gif","images/stimuli/spore_stims/complex_18_A_b.gif"
"","3336.1450000011246","survey-likert","150","453002","0.0-38.0","SS1618365509725","similarity_question","","","","","","","","","","","","{""Q0"":6}","[0]","","images/stimuli/spore_stims/simple_16_A_a.gif","images/stimuli/spore_stims/simple_15_A_b.gif"
"","2832.6799999995274","survey-likert","151","455843","0.0-39.0","SS1618365509725","similarity_question","","","","","","","","","","","","{""Q0"":5}","[0]","","images/stimuli/spore_stims/simple_17_A_b.gif","images/stimuli/spore_stims/simple_01_A_a.gif"
"","2118.0850000018836","survey-likert","152","457970","0.0-40.0","SS1618365509725","similarity_question","","","","","","","","","","","","{""Q0"":5}","[0]","","images/stimuli/spore_stims/simple_11_A_b.gif","images/stimuli/spore_stims/simple_05_A_a.gif"
"","6296.200000004319","survey-likert","153","464274","0.0-41.0","SS1618365509725","similarity_question","","","","","","","","","","","","{""Q0"":0}","[0]","","images/stimuli/spore_stims/complex_20_A_a.gif","images/stimuli/spore_stims/complex_12_A_b.gif"
"","4856.489999998303","survey-likert","154","469138","0.0-42.0","SS1618365509725","similarity_question","","","","","","","","","","","","{""Q0"":1}","[0]","","images/stimuli/spore_stims/complex_08_A_b.gif","images/stimuli/spore_stims/complex_01_A_a.gif"
"","1968.5849999950733","survey-likert","155","471115","0.0-43.0","SS1618365509725","similarity_question","","","","","","","","","","","","{""Q0"":4}","[0]","","images/stimuli/spore_stims/simple_11_A_a.gif","images/stimuli/spore_stims/simple_10_A_b.gif"
"","7200.6600000022445","survey-likert","156","478322","0.0-44.0","SS1618365509725","similarity_question","","","","","","","","","","","","{""Q0"":4}","[0]","","images/stimuli/spore_stims/complex_09_A_b.gif","images/stimuli/spore_stims/complex_19_A_a.gif"
"[{""page_index"":0,""viewing_time"":5769.200000002456}]","5769.505000003846","instructions","157","484098","0.0-45.0","SS1618365509725","instructions","","","","","","","","","","","","","","","",""
"","7612.8200000021025","survey-likert","158","491714","0.0-46.0","SS1618365509725","","","","","","","","","images/stimuli/spore_stims/complex_20_A_a.gif","","","","{""Q0"":4}","[0]","","",""
"","2488.1600000007893","survey-likert","159","494210","0.0-47.0","SS1618365509725","","","","","","","","","images/stimuli/spore_stims/simple_11_A_b.gif","","","","{""Q0"":0}","[0]","","",""
"","1960.8050000024377","survey-likert","160","496178","0.0-48.0","SS1618365509725","","","","","","","","","images/stimuli/spore_stims/simple_15_A_b.gif","","","","{""Q0"":0}","[0]","","",""
"","3447.870000003604","survey-likert","161","499634","0.0-49.0","SS1618365509725","","","","","","","","","images/stimuli/spore_stims/complex_19_A_a.gif","","","","{""Q0"":5}","[0]","","",""
"","2641.074999999546","survey-likert","162","502282","0.0-50.0","SS1618365509725","","","","","","","","","images/stimuli/spore_stims/simple_06_A_a.gif","","","","{""Q0"":0}","[0]","","",""
"","1919.659999999567","survey-likert","163","504210","0.0-51.0","SS1618365509725","","","","","","","","","images/stimuli/spore_stims/simple_17_A_b.gif","","","","{""Q0"":0}","[0]","","",""
"","3815.965000001597","survey-likert","164","508034","0.0-52.0","SS1618365509725","","","","","","","","","images/stimuli/spore_stims/complex_01_A_a.gif","","","","{""Q0"":4}","[0]","","",""
"","3392.680000004475","survey-likert","165","511434","0.0-53.0","SS1618365509725","","","","","","","","","images/stimuli/spore_stims/complex_03_A_a.gif","","","","{""Q0"":2}","[0]","","",""
"","1904.1349999970407","survey-likert","166","513346","0.0-54.0","SS1618365509725","","","","","","","","","images/stimuli/spore_stims/simple_20_A_b.gif","","","","{""Q0"":0}","[0]","","",""
"","2879.0349999981117","survey-likert","167","516234","0.0-55.0","SS1618365509725","","","","","","","","","images/stimuli/spore_stims/simple_11_A_a.gif","","","","{""Q0"":0}","[0]","","",""
"","3657.1850000036648","survey-likert","168","519898","0.0-56.0","SS1618365509725","","","","","","","","","images/stimuli/spore_stims/complex_15_A_a.gif","","","","{""Q0"":2}","[0]","","",""
"","2448.22999999451","survey-likert","169","522354","0.0-57.0","SS1618365509725","","","","","","","","","images/stimuli/spore_stims/complex_07_A_b.gif","","","","{""Q0"":4}","[0]","","",""
"[{""page_index"":0,""viewing_time"":2815.994999997085}]","2816.220000000554","instructions","170","525178","0.0-58.0","SS1618365509725","instructions","","","","","","","","","","","","","","","",""
"","2448.4599999996135","demog-age","171","527634","0.0-59.0","SS1618365509725","","","","","","","","","","","","","{""age"":""22""}","","","",""
"","3946.1149999988265","demog-ethnic-US","172","531587","0.0-60.0","SS1618365509725","","","","","","","","","","","","","{""ethnicity"":[""White""]}","[0]","","",""
"","6254.739999996615","demog-gender-and-education","173","537851","0.0-61.0","SS1618365509725","","","","","","","","","","","","","{""gender"":""Male"",""education"":""Bachelor's Degree""}","[0,1]","","",""
"","8900.600000000908","survey-text","174","546762","0.0-62.0","SS1618365509725","feedback","","","","","","","","","","","","{""Q0"":""No :)""}","","","",""
"[{""page_index"":0,""viewing_time"":2173.2600000031525}]","2173.4900000010384","instructions","175","548938","0.0-63.0","SS1618365509725","instructions","","","","","","","","","","","","","","","",""
