"view_history","rt","trial_type","trial_index","time_elapsed","internal_node_id","subject","stimulus_type","trial_stimulus","key_press","minimum_viewing_duration","trial_looking_time","block_deviant","block_background","exposure_type","stimulus","block_number","block_type","stimulus_displayed","responses","question_order","math_correct_answer","stimulus_left","stimulus_right"
"[{""page_index"":0,""viewing_time"":21114.119999998366}]","21115.09500000102","instructions","0","21116","0.0-0.0","SS1618435651557","","","","","","","","","","","","","","","","",""
"[{""page_index"":0,""viewing_time"":19575.17499999085},{""page_index"":1,""viewing_time"":5576.249999998254}]","25151.694999993197","instructions","1","48666","0.0-1.0","SS1618435651557","instructions","","","","","","","","","","","","","","","",""
"","9281.734999996843","sequential-stimulus-presentation-old","2","58452","0.0-2.0","SS1618435651557","","","40","500","9781.734999996843","null","null","self_paced","","","","","","","","",""
"","8156.164999993052","sequential-stimulus-presentation-old","3","67111","0.0-3.0","SS1618435651557","","","40","500","8656.164999993052","null","null","self_paced","","","","","","","","",""
"[{""page_index"":0,""viewing_time"":28331.855000011274}]","28332.1350000042","instructions","4","95443","0.0-4.0","SS1618435651557","instructions","","","","","","","","","","","","","","","",""
"","6343.029999989085","sequential-stimulus-presentation-old","5","106791","0.0-5.0","SS1618435651557","","","40","500","6843.029999989085","null","null","forced_long","","","","","","","","",""
"","15458.80500000203","sequential-stimulus-presentation-old","6","122302","0.0-6.0","SS1618435651557","","","40","50","15508.80500000203","null","null","forced_long","","","","","","","","",""
"[{""page_index"":0,""viewing_time"":3418.5599999909755}]","3418.8349999894854","instructions","7","125722","0.0-7.0","SS1618435651557","instructions","","","","","","","","","","","","","","","",""
"[{""page_index"":0,""viewing_time"":8996.494999999413},{""page_index"":1,""viewing_time"":11207.379999992554},{""page_index"":2,""viewing_time"":7839.850000003935},{""page_index"":3,""viewing_time"":1678.3750000031432},{""page_index"":4,""viewing_time"":1403.5000000003492}]","31125.87999999232","instructions","8","156848","0.0-8.0","SS1618435651557","instructions","","","","","","","","","","","","","","","",""
"","null","html-keyboard-response","9","157891","0.0-9.0-0.0","SS1618435651557","","","null","","","","","","<p><img src= images/blank.png width =""600"" height = ""600"" style=""position:fixed;top:50%; left:50%; transform: translate(-50%, -50%); border:5px solid black"">","","","","","","","",""
"","1816.4850000030128","sequential-stimulus-presentation-old","10","164716","0.0-9.0-1.0","SS1618435651557","trial","","40","500","2316.485000003013","images/stimuli/spore_stims/simple_15_A_b.gif","images/stimuli/spore_stims/simple_03_A_a.gif","forced_long","","0","simple_dissimilar","images/stimuli/spore_stims/simple_03_A_a.gif","","","","",""
"","null","html-keyboard-response","11","165972","0.0-9.0-0.1","SS1618435651557","","","null","","","","","","<p><img src= images/blank.png width =""600"" height = ""600"" style=""position:fixed;top:50%; left:50%; transform: translate(-50%, -50%); border:5px solid black"">","","","","","","","",""
"","14081.079999989015","sequential-stimulus-presentation-old","12","180557","0.0-9.0-1.1","SS1618435651557","trial","","40","500","14581.079999989015","images/stimuli/spore_stims/simple_15_A_b.gif","images/stimuli/spore_stims/simple_03_A_a.gif","forced_long","","0","simple_dissimilar","images/stimuli/spore_stims/simple_03_A_a.gif","","","","",""
"","null","html-keyboard-response","13","181686","0.0-9.0-0.2","SS1618435651557","","","null","","","","","","<p><img src= images/blank.png width =""600"" height = ""600"" style=""position:fixed;top:50%; left:50%; transform: translate(-50%, -50%); border:5px solid black"">","","","","","","","",""
"","10124.414999998407","sequential-stimulus-presentation-old","14","192314","0.0-9.0-1.2","SS1618435651557","trial","","40","500","10624.414999998407","images/stimuli/spore_stims/simple_15_A_b.gif","images/stimuli/spore_stims/simple_03_A_a.gif","forced_long","","0","simple_dissimilar","images/stimuli/spore_stims/simple_15_A_b.gif","","","","",""
"","null","html-keyboard-response","15","193194","0.0-9.0-0.3","SS1618435651557","","","null","","","","","","<p><img src= images/blank.png width =""600"" height = ""600"" style=""position:fixed;top:50%; left:50%; transform: translate(-50%, -50%); border:5px solid black"">","","","","","","","",""
"","13066.285000008065","sequential-stimulus-presentation-old","16","206766","0.0-9.0-1.3","SS1618435651557","trial","","40","500","13566.285000008065","images/stimuli/spore_stims/simple_15_A_b.gif","images/stimuli/spore_stims/simple_03_A_a.gif","forced_long","","0","simple_dissimilar","images/stimuli/spore_stims/simple_03_A_a.gif","","","","",""
"","null","html-keyboard-response","17","207575","0.0-9.0-0.4","SS1618435651557","","","null","","","","","","<p><img src= images/blank.png width =""600"" height = ""600"" style=""position:fixed;top:50%; left:50%; transform: translate(-50%, -50%); border:5px solid black"">","","","","","","","",""
"","8403.55499999714","sequential-stimulus-presentation-old","18","216486","0.0-9.0-1.4","SS1618435651557","trial","","40","500","8903.55499999714","images/stimuli/spore_stims/simple_15_A_b.gif","images/stimuli/spore_stims/simple_03_A_a.gif","forced_long","","0","simple_dissimilar","images/stimuli/spore_stims/simple_03_A_a.gif","","","","",""
"","4934.924999994109","survey-multi-choice","19","221427","0.0-10.0","SS1618435651557","math_question","","","","","","","","","","","","{""Q0"":""8""}","[0]","8","",""
"","null","html-keyboard-response","20","222719","0.0-11.0-0.0","SS1618435651557","","","null","","","","","","<p><img src= images/blank.png width =""600"" height = ""600"" style=""position:fixed;top:50%; left:50%; transform: translate(-50%, -50%); border:5px solid black"">","","","","","","","",""
"","8970.01000000455","sequential-stimulus-presentation-old","21","232199","0.0-11.0-1.0","SS1618435651557","trial","","40","500","9470.01000000455","images/stimuli/spore_stims/complex_16_A_b.gif","images/stimuli/spore_stims/complex_04_A_a.gif","self_paced","","1","complex_dissimilar","images/stimuli/spore_stims/complex_04_A_a.gif","","","","",""
"","null","html-keyboard-response","22","233451","0.0-11.0-0.1","SS1618435651557","","","null","","","","","","<p><img src= images/blank.png width =""600"" height = ""600"" style=""position:fixed;top:50%; left:50%; transform: translate(-50%, -50%); border:5px solid black"">","","","","","","","",""
"","4844.494999997551","sequential-stimulus-presentation-old","23","238799","0.0-11.0-1.1","SS1618435651557","trial","","40","500","5344.494999997551","images/stimuli/spore_stims/complex_16_A_b.gif","images/stimuli/spore_stims/complex_04_A_a.gif","self_paced","","1","complex_dissimilar","images/stimuli/spore_stims/complex_04_A_a.gif","","","","",""
"","null","html-keyboard-response","24","239676","0.0-11.0-0.2","SS1618435651557","","","null","","","","","","<p><img src= images/blank.png width =""600"" height = ""600"" style=""position:fixed;top:50%; left:50%; transform: translate(-50%, -50%); border:5px solid black"">","","","","","","","",""
"","3885.485000006156","sequential-stimulus-presentation-old","25","244066","0.0-11.0-1.2","SS1618435651557","trial","","40","500","4385.485000006156","images/stimuli/spore_stims/complex_16_A_b.gif","images/stimuli/spore_stims/complex_04_A_a.gif","self_paced","","1","complex_dissimilar","images/stimuli/spore_stims/complex_04_A_a.gif","","","","",""
"","null","html-keyboard-response","26","244977","0.0-11.0-0.3","SS1618435651557","","","null","","","","","","<p><img src= images/blank.png width =""600"" height = ""600"" style=""position:fixed;top:50%; left:50%; transform: translate(-50%, -50%); border:5px solid black"">","","","","","","","",""
"","5791.489999988698","sequential-stimulus-presentation-old","27","251274","0.0-11.0-1.3","SS1618435651557","trial","","40","500","6291.489999988698","images/stimuli/spore_stims/complex_16_A_b.gif","images/stimuli/spore_stims/complex_04_A_a.gif","self_paced","","1","complex_dissimilar","images/stimuli/spore_stims/complex_04_A_a.gif","","","","",""
"","null","html-keyboard-response","28","252398","0.0-11.0-0.4","SS1618435651557","","","null","","","","","","<p><img src= images/blank.png width =""600"" height = ""600"" style=""position:fixed;top:50%; left:50%; transform: translate(-50%, -50%); border:5px solid black"">","","","","","","","",""
"","3887.589999998454","sequential-stimulus-presentation-old","29","256794","0.0-11.0-1.4","SS1618435651557","trial","","40","500","4387.589999998454","images/stimuli/spore_stims/complex_16_A_b.gif","images/stimuli/spore_stims/complex_04_A_a.gif","self_paced","","1","complex_dissimilar","images/stimuli/spore_stims/complex_04_A_a.gif","","","","",""
"","null","html-keyboard-response","30","257907","0.0-11.0-0.5","SS1618435651557","","","null","","","","","","<p><img src= images/blank.png width =""600"" height = ""600"" style=""position:fixed;top:50%; left:50%; transform: translate(-50%, -50%); border:5px solid black"">","","","","","","","",""
"","5677.999999999884","sequential-stimulus-presentation-old","31","264090","0.0-11.0-1.5","SS1618435651557","trial","","40","500","6177.999999999884","images/stimuli/spore_stims/complex_16_A_b.gif","images/stimuli/spore_stims/complex_04_A_a.gif","self_paced","","1","complex_dissimilar","images/stimuli/spore_stims/complex_04_A_a.gif","","","","",""
"","3760.3850000014063","survey-multi-choice","32","267852","0.0-12.0","SS1618435651557","math_question","","","","","","","","","","","","{""Q0"":""4""}","[0]","4","",""
"","null","html-keyboard-response","33","269117","0.0-13.0-0.0","SS1618435651557","","","null","","","","","","<p><img src= images/blank.png width =""600"" height = ""600"" style=""position:fixed;top:50%; left:50%; transform: translate(-50%, -50%); border:5px solid black"">","","","","","","","",""
"","3713.7499999953434","sequential-stimulus-presentation-old","34","273334","0.0-13.0-1.0","SS1618435651557","trial","","40","500","4213.749999995343","images/stimuli/spore_stims/simple_03_A_b.gif","images/stimuli/spore_stims/simple_07_A_a.gif","self_paced","","2","simple_dissimilar","images/stimuli/spore_stims/simple_07_A_a.gif","","","","",""
"","null","html-keyboard-response","35","274547","0.0-13.0-0.1","SS1618435651557","","","null","","","","","","<p><img src= images/blank.png width =""600"" height = ""600"" style=""position:fixed;top:50%; left:50%; transform: translate(-50%, -50%); border:5px solid black"">","","","","","","","",""
"","8770.535000003292","sequential-stimulus-presentation-old","36","283825","0.0-13.0-1.1","SS1618435651557","trial","","40","500","9270.535000003292","images/stimuli/spore_stims/simple_03_A_b.gif","images/stimuli/spore_stims/simple_07_A_a.gif","self_paced","","2","simple_dissimilar","images/stimuli/spore_stims/simple_07_A_a.gif","","","","",""
"","null","html-keyboard-response","37","284968","0.0-13.0-0.2","SS1618435651557","","","null","","","","","","<p><img src= images/blank.png width =""600"" height = ""600"" style=""position:fixed;top:50%; left:50%; transform: translate(-50%, -50%); border:5px solid black"">","","","","","","","",""
"","6778.525000001537","sequential-stimulus-presentation-old","38","292255","0.0-13.0-1.2","SS1618435651557","trial","","40","500","7278.525000001537","images/stimuli/spore_stims/simple_03_A_b.gif","images/stimuli/spore_stims/simple_07_A_a.gif","self_paced","","2","simple_dissimilar","images/stimuli/spore_stims/simple_07_A_a.gif","","","","",""
"","null","html-keyboard-response","39","293218","0.0-13.0-0.3","SS1618435651557","","","null","","","","","","<p><img src= images/blank.png width =""600"" height = ""600"" style=""position:fixed;top:50%; left:50%; transform: translate(-50%, -50%); border:5px solid black"">","","","","","","","",""
"","6933.615000001737","sequential-stimulus-presentation-old","40","300659","0.0-13.0-1.3","SS1618435651557","trial","","40","500","7433.615000001737","images/stimuli/spore_stims/simple_03_A_b.gif","images/stimuli/spore_stims/simple_07_A_a.gif","self_paced","","2","simple_dissimilar","images/stimuli/spore_stims/simple_07_A_a.gif","","","","",""
"","null","html-keyboard-response","41","301566","0.0-13.0-0.4","SS1618435651557","","","null","","","","","","<p><img src= images/blank.png width =""600"" height = ""600"" style=""position:fixed;top:50%; left:50%; transform: translate(-50%, -50%); border:5px solid black"">","","","","","","","",""
"","3570.1550000085263","sequential-stimulus-presentation-old","42","305642","0.0-13.0-1.4","SS1618435651557","trial","","40","500","4070.1550000085263","images/stimuli/spore_stims/simple_03_A_b.gif","images/stimuli/spore_stims/simple_07_A_a.gif","self_paced","","2","simple_dissimilar","images/stimuli/spore_stims/simple_07_A_a.gif","","","","",""
"","null","html-keyboard-response","43","306645","0.0-13.0-0.5","SS1618435651557","","","null","","","","","","<p><img src= images/blank.png width =""600"" height = ""600"" style=""position:fixed;top:50%; left:50%; transform: translate(-50%, -50%); border:5px solid black"">","","","","","","","",""
"","4853.669999996782","sequential-stimulus-presentation-old","44","312007","0.0-13.0-1.5","SS1618435651557","trial","","40","500","5353.669999996782","images/stimuli/spore_stims/simple_03_A_b.gif","images/stimuli/spore_stims/simple_07_A_a.gif","self_paced","","2","simple_dissimilar","images/stimuli/spore_stims/simple_07_A_a.gif","","","","",""
"","3785.8050000068033","survey-multi-choice","45","315795","0.0-14.0","SS1618435651557","math_question","","","","","","","","","","","","{""Q0"":""7""}","[0]","7","",""
"","null","html-keyboard-response","46","316843","0.0-15.0-0.0","SS1618435651557","","","null","","","","","","<p><img src= images/blank.png width =""600"" height = ""600"" style=""position:fixed;top:50%; left:50%; transform: translate(-50%, -50%); border:5px solid black"">","","","","","","","",""
"","2731.37000000861","sequential-stimulus-presentation-old","47","319632","0.0-15.0-1.0","SS1618435651557","trial","","40","500","3231.37000000861","images/stimuli/spore_stims/complex_19_A_a.gif","images/stimuli/spore_stims/complex_11_A_b.gif","forced_short","","3","complex_dissimilar","images/stimuli/spore_stims/complex_11_A_b.gif","","","","",""
"","null","html-keyboard-response","48","320727","0.0-15.0-0.1","SS1618435651557","","","null","","","","","","<p><img src= images/blank.png width =""600"" height = ""600"" style=""position:fixed;top:50%; left:50%; transform: translate(-50%, -50%); border:5px solid black"">","","","","","","","",""
"","8006.340000007185","sequential-stimulus-presentation-old","49","329237","0.0-15.0-1.1","SS1618435651557","trial","","40","500","8506.340000007185","images/stimuli/spore_stims/complex_19_A_a.gif","images/stimuli/spore_stims/complex_11_A_b.gif","forced_short","","3","complex_dissimilar","images/stimuli/spore_stims/complex_11_A_b.gif","","","","",""
"","null","html-keyboard-response","50","330304","0.0-15.0-0.2","SS1618435651557","","","null","","","","","","<p><img src= images/blank.png width =""600"" height = ""600"" style=""position:fixed;top:50%; left:50%; transform: translate(-50%, -50%); border:5px solid black"">","","","","","","","",""
"","5825.859999997192","sequential-stimulus-presentation-old","51","336633","0.0-15.0-1.2","SS1618435651557","trial","","40","500","6325.859999997192","images/stimuli/spore_stims/complex_19_A_a.gif","images/stimuli/spore_stims/complex_11_A_b.gif","forced_short","","3","complex_dissimilar","images/stimuli/spore_stims/complex_19_A_a.gif","","","","",""
"","null","html-keyboard-response","52","337712","0.0-15.0-0.3","SS1618435651557","","","null","","","","","","<p><img src= images/blank.png width =""600"" height = ""600"" style=""position:fixed;top:50%; left:50%; transform: translate(-50%, -50%); border:5px solid black"">","","","","","","","",""
"","6448.7499999959255","sequential-stimulus-presentation-old","53","344667","0.0-15.0-1.3","SS1618435651557","trial","","40","500","6948.7499999959255","images/stimuli/spore_stims/complex_19_A_a.gif","images/stimuli/spore_stims/complex_11_A_b.gif","forced_short","","3","complex_dissimilar","images/stimuli/spore_stims/complex_11_A_b.gif","","","","",""
"","null","html-keyboard-response","54","345629","0.0-15.0-0.4","SS1618435651557","","","null","","","","","","<p><img src= images/blank.png width =""600"" height = ""600"" style=""position:fixed;top:50%; left:50%; transform: translate(-50%, -50%); border:5px solid black"">","","","","","","","",""
"","3529.660000000149","sequential-stimulus-presentation-old","55","349666","0.0-15.0-1.4","SS1618435651557","trial","","40","500","4029.660000000149","images/stimuli/spore_stims/complex_19_A_a.gif","images/stimuli/spore_stims/complex_11_A_b.gif","forced_short","","3","complex_dissimilar","images/stimuli/spore_stims/complex_19_A_a.gif","","","","",""
"","3687.400000009802","survey-multi-choice","56","353355","0.0-16.0","SS1618435651557","math_question","","","","","","","","","","","","{""Q0"":""10""}","[0]","10","",""
"","null","html-keyboard-response","57","354306","0.0-17.0-0.0","SS1618435651557","","","null","","","","","","<p><img src= images/blank.png width =""600"" height = ""600"" style=""position:fixed;top:50%; left:50%; transform: translate(-50%, -50%); border:5px solid black"">","","","","","","","",""
"","1516.2449999916134","sequential-stimulus-presentation-old","58","360829","0.0-17.0-1.0","SS1618435651557","trial","","40","500","2016.2449999916134","images/stimuli/spore_stims/complex_13_A_b.gif","images/stimuli/spore_stims/complex_01_A_a.gif","forced_long","","4","complex_dissimilar","images/stimuli/spore_stims/complex_01_A_a.gif","","","","",""
"","null","html-keyboard-response","59","361776","0.0-17.0-0.1","SS1618435651557","","","null","","","","","","<p><img src= images/blank.png width =""600"" height = ""600"" style=""position:fixed;top:50%; left:50%; transform: translate(-50%, -50%); border:5px solid black"">","","","","","","","",""
"","6692.5349999946775","sequential-stimulus-presentation-old","60","368973","0.0-17.0-1.1","SS1618435651557","trial","","40","500","7192.5349999946775","images/stimuli/spore_stims/complex_13_A_b.gif","images/stimuli/spore_stims/complex_01_A_a.gif","forced_long","","4","complex_dissimilar","images/stimuli/spore_stims/complex_01_A_a.gif","","","","",""
"","null","html-keyboard-response","61","370162","0.0-17.0-0.2","SS1618435651557","","","null","","","","","","<p><img src= images/blank.png width =""600"" height = ""600"" style=""position:fixed;top:50%; left:50%; transform: translate(-50%, -50%); border:5px solid black"">","","","","","","","",""
"","6054.000000003725","sequential-stimulus-presentation-old","62","376724","0.0-17.0-1.2","SS1618435651557","trial","","40","500","6554.000000003725","images/stimuli/spore_stims/complex_13_A_b.gif","images/stimuli/spore_stims/complex_01_A_a.gif","forced_long","","4","complex_dissimilar","images/stimuli/spore_stims/complex_01_A_a.gif","","","","",""
"","null","html-keyboard-response","63","377765","0.0-17.0-0.3","SS1618435651557","","","null","","","","","","<p><img src= images/blank.png width =""600"" height = ""600"" style=""position:fixed;top:50%; left:50%; transform: translate(-50%, -50%); border:5px solid black"">","","","","","","","",""
"","3225.319999997737","sequential-stimulus-presentation-old","64","381499","0.0-17.0-1.3","SS1618435651557","trial","","40","500","3725.319999997737","images/stimuli/spore_stims/complex_13_A_b.gif","images/stimuli/spore_stims/complex_01_A_a.gif","forced_long","","4","complex_dissimilar","images/stimuli/spore_stims/complex_01_A_a.gif","","","","",""
"","null","html-keyboard-response","65","382694","0.0-17.0-0.4","SS1618435651557","","","null","","","","","","<p><img src= images/blank.png width =""600"" height = ""600"" style=""position:fixed;top:50%; left:50%; transform: translate(-50%, -50%); border:5px solid black"">","","","","","","","",""
"","3457.1799999976065","sequential-stimulus-presentation-old","66","386656","0.0-17.0-1.4","SS1618435651557","trial","","40","500","3957.1799999976065","images/stimuli/spore_stims/complex_13_A_b.gif","images/stimuli/spore_stims/complex_01_A_a.gif","forced_long","","4","complex_dissimilar","images/stimuli/spore_stims/complex_01_A_a.gif","","","","",""
"","3522.114999999758","survey-multi-choice","67","390180","0.0-18.0","SS1618435651557","math_question","","","","","","","","","","","","{""Q0"":""10""}","[0]","10","",""
"","null","html-keyboard-response","68","391100","0.0-19.0-0.0","SS1618435651557","","","null","","","","","","<p><img src= images/blank.png width =""600"" height = ""600"" style=""position:fixed;top:50%; left:50%; transform: translate(-50%, -50%); border:5px solid black"">","","","","","","","",""
"","5548.534999994445","sequential-stimulus-presentation-old","69","397156","0.0-19.0-1.0","SS1618435651557","trial","","40","500","6048.534999994445","images/stimuli/spore_stims/complex_07_A_b.gif","images/stimuli/spore_stims/complex_05_A_a.gif","self_paced","","5","complex_dissimilar","images/stimuli/spore_stims/complex_05_A_a.gif","","","","",""
"","null","html-keyboard-response","70","398117","0.0-19.0-0.1","SS1618435651557","","","null","","","","","","<p><img src= images/blank.png width =""600"" height = ""600"" style=""position:fixed;top:50%; left:50%; transform: translate(-50%, -50%); border:5px solid black"">","","","","","","","",""
"","1834.9799999996321","sequential-stimulus-presentation-old","71","400457","0.0-19.0-1.1","SS1618435651557","trial","","40","500","2334.979999999632","images/stimuli/spore_stims/complex_07_A_b.gif","images/stimuli/spore_stims/complex_05_A_a.gif","self_paced","","5","complex_dissimilar","images/stimuli/spore_stims/complex_05_A_a.gif","","","","",""
"","null","html-keyboard-response","72","401366","0.0-19.0-0.2","SS1618435651557","","","null","","","","","","<p><img src= images/blank.png width =""600"" height = ""600"" style=""position:fixed;top:50%; left:50%; transform: translate(-50%, -50%); border:5px solid black"">","","","","","","","",""
"","2756.5900000045076","sequential-stimulus-presentation-old","73","404627","0.0-19.0-1.2","SS1618435651557","trial","","40","500","3256.5900000045076","images/stimuli/spore_stims/complex_07_A_b.gif","images/stimuli/spore_stims/complex_05_A_a.gif","self_paced","","5","complex_dissimilar","images/stimuli/spore_stims/complex_05_A_a.gif","","","","",""
"","null","html-keyboard-response","74","405787","0.0-19.0-0.3","SS1618435651557","","","null","","","","","","<p><img src= images/blank.png width =""600"" height = ""600"" style=""position:fixed;top:50%; left:50%; transform: translate(-50%, -50%); border:5px solid black"">","","","","","","","",""
"","1771.420000004582","sequential-stimulus-presentation-old","75","408064","0.0-19.0-1.3","SS1618435651557","trial","","40","500","2271.420000004582","images/stimuli/spore_stims/complex_07_A_b.gif","images/stimuli/spore_stims/complex_05_A_a.gif","self_paced","","5","complex_dissimilar","images/stimuli/spore_stims/complex_05_A_a.gif","","","","",""
"","null","html-keyboard-response","76","408878","0.0-19.0-0.4","SS1618435651557","","","null","","","","","","<p><img src= images/blank.png width =""600"" height = ""600"" style=""position:fixed;top:50%; left:50%; transform: translate(-50%, -50%); border:5px solid black"">","","","","","","","",""
"","938.1449999928009","sequential-stimulus-presentation-old","77","410323","0.0-19.0-1.4","SS1618435651557","trial","","40","500","1438.1449999928009","images/stimuli/spore_stims/complex_07_A_b.gif","images/stimuli/spore_stims/complex_05_A_a.gif","self_paced","","5","complex_dissimilar","images/stimuli/spore_stims/complex_05_A_a.gif","","","","",""
"","null","html-keyboard-response","78","411257","0.0-19.0-0.5","SS1618435651557","","","null","","","","","","<p><img src= images/blank.png width =""600"" height = ""600"" style=""position:fixed;top:50%; left:50%; transform: translate(-50%, -50%); border:5px solid black"">","","","","","","","",""
"","638.2250000024214","sequential-stimulus-presentation-old","79","412401","0.0-19.0-1.5","SS1618435651557","trial","","40","500","1138.2250000024214","images/stimuli/spore_stims/complex_07_A_b.gif","images/stimuli/spore_stims/complex_05_A_a.gif","self_paced","","5","complex_dissimilar","images/stimuli/spore_stims/complex_05_A_a.gif","","","","",""
"","4197.6250000006985","survey-multi-choice","80","416601","0.0-20.0","SS1618435651557","math_question","","","","","","","","","","","","{""Q0"":""14""}","[0]","14","",""
"","null","html-keyboard-response","81","417675","0.0-21.0-0.0","SS1618435651557","","","null","","","","","","<p><img src= images/blank.png width =""600"" height = ""600"" style=""position:fixed;top:50%; left:50%; transform: translate(-50%, -50%); border:5px solid black"">","","","","","","","",""
"","3903.760000001057","sequential-stimulus-presentation-old","82","422085","0.0-21.0-1.0","SS1618435651557","trial","","40","500","4403.760000001057","images/stimuli/spore_stims/simple_15_A_a.gif","images/stimuli/spore_stims/simple_05_A_b.gif","self_paced","","6","simple_dissimilar","images/stimuli/spore_stims/simple_05_A_b.gif","","","","",""
"","null","html-keyboard-response","83","423313","0.0-21.0-0.1","SS1618435651557","","","null","","","","","","<p><img src= images/blank.png width =""600"" height = ""600"" style=""position:fixed;top:50%; left:50%; transform: translate(-50%, -50%); border:5px solid black"">","","","","","","","",""
"","2780.010000002221","sequential-stimulus-presentation-old","84","426597","0.0-21.0-1.1","SS1618435651557","trial","","40","500","3280.010000002221","images/stimuli/spore_stims/simple_15_A_a.gif","images/stimuli/spore_stims/simple_05_A_b.gif","self_paced","","6","simple_dissimilar","images/stimuli/spore_stims/simple_05_A_b.gif","","","","",""
"","null","html-keyboard-response","85","427578","0.0-21.0-0.2","SS1618435651557","","","null","","","","","","<p><img src= images/blank.png width =""600"" height = ""600"" style=""position:fixed;top:50%; left:50%; transform: translate(-50%, -50%); border:5px solid black"">","","","","","","","",""
"","1340.185000008205","sequential-stimulus-presentation-old","86","429423","0.0-21.0-1.2","SS1618435651557","trial","","40","500","1840.185000008205","images/stimuli/spore_stims/simple_15_A_a.gif","images/stimuli/spore_stims/simple_05_A_b.gif","self_paced","","6","simple_dissimilar","images/stimuli/spore_stims/simple_05_A_b.gif","","","","",""
"","null","html-keyboard-response","87","430711","0.0-21.0-0.3","SS1618435651557","","","null","","","","","","<p><img src= images/blank.png width =""600"" height = ""600"" style=""position:fixed;top:50%; left:50%; transform: translate(-50%, -50%); border:5px solid black"">","","","","","","","",""
"","689.9350000021514","sequential-stimulus-presentation-old","88","431909","0.0-21.0-1.3","SS1618435651557","trial","","40","500","1189.9350000021514","images/stimuli/spore_stims/simple_15_A_a.gif","images/stimuli/spore_stims/simple_05_A_b.gif","self_paced","","6","simple_dissimilar","images/stimuli/spore_stims/simple_05_A_b.gif","","","","",""
"","null","html-keyboard-response","89","432888","0.0-21.0-0.4","SS1618435651557","","","null","","","","","","<p><img src= images/blank.png width =""600"" height = ""600"" style=""position:fixed;top:50%; left:50%; transform: translate(-50%, -50%); border:5px solid black"">","","","","","","","",""
"","2641.3849999953527","sequential-stimulus-presentation-old","90","436035","0.0-21.0-1.4","SS1618435651557","trial","","40","500","3141.3849999953527","images/stimuli/spore_stims/simple_15_A_a.gif","images/stimuli/spore_stims/simple_05_A_b.gif","self_paced","","6","simple_dissimilar","images/stimuli/spore_stims/simple_15_A_a.gif","","","","",""
"","null","html-keyboard-response","91","437261","0.0-21.0-0.5","SS1618435651557","","","null","","","","","","<p><img src= images/blank.png width =""600"" height = ""600"" style=""position:fixed;top:50%; left:50%; transform: translate(-50%, -50%); border:5px solid black"">","","","","","","","",""
"","618.6449999950128","sequential-stimulus-presentation-old","92","438386","0.0-21.0-1.5","SS1618435651557","trial","","40","500","1118.6449999950128","images/stimuli/spore_stims/simple_15_A_a.gif","images/stimuli/spore_stims/simple_05_A_b.gif","self_paced","","6","simple_dissimilar","images/stimuli/spore_stims/simple_15_A_a.gif","","","","",""
"","3716.3799999980256","survey-multi-choice","93","442105","0.0-22.0","SS1618435651557","math_question","","","","","","","","","","","","{""Q0"":""5""}","[0]","5","",""
"","null","html-keyboard-response","94","443142","0.0-23.0-0.0","SS1618435651557","","","null","","","","","","<p><img src= images/blank.png width =""600"" height = ""600"" style=""position:fixed;top:50%; left:50%; transform: translate(-50%, -50%); border:5px solid black"">","","","","","","","",""
"","9402.650000003632","sequential-stimulus-presentation-old","95","452603","0.0-23.0-1.0","SS1618435651557","trial","","40","500","9902.650000003632","images/stimuli/spore_stims/simple_16_A_a.gif","images/stimuli/spore_stims/simple_04_A_b.gif","forced_short","","7","simple_dissimilar","images/stimuli/spore_stims/simple_04_A_b.gif","","","","",""
"","null","html-keyboard-response","96","453857","0.0-23.0-0.1","SS1618435651557","","","null","","","","","","<p><img src= images/blank.png width =""600"" height = ""600"" style=""position:fixed;top:50%; left:50%; transform: translate(-50%, -50%); border:5px solid black"">","","","","","","","",""
"","4782.654999988154","sequential-stimulus-presentation-old","97","459144","0.0-23.0-1.1","SS1618435651557","trial","","40","500","5282.654999988154","images/stimuli/spore_stims/simple_16_A_a.gif","images/stimuli/spore_stims/simple_04_A_b.gif","forced_short","","7","simple_dissimilar","images/stimuli/spore_stims/simple_04_A_b.gif","","","","",""
"","null","html-keyboard-response","98","460149","0.0-23.0-0.2","SS1618435651557","","","null","","","","","","<p><img src= images/blank.png width =""600"" height = ""600"" style=""position:fixed;top:50%; left:50%; transform: translate(-50%, -50%); border:5px solid black"">","","","","","","","",""
"","2633.014999999432","sequential-stimulus-presentation-old","99","463290","0.0-23.0-1.2","SS1618435651557","trial","","40","500","3133.014999999432","images/stimuli/spore_stims/simple_16_A_a.gif","images/stimuli/spore_stims/simple_04_A_b.gif","forced_short","","7","simple_dissimilar","images/stimuli/spore_stims/simple_04_A_b.gif","","","","",""
"","null","html-keyboard-response","100","464278","0.0-23.0-0.3","SS1618435651557","","","null","","","","","","<p><img src= images/blank.png width =""600"" height = ""600"" style=""position:fixed;top:50%; left:50%; transform: translate(-50%, -50%); border:5px solid black"">","","","","","","","",""
"","1276.6799999953946","sequential-stimulus-presentation-old","101","466064","0.0-23.0-1.3","SS1618435651557","trial","","40","500","1776.6799999953946","images/stimuli/spore_stims/simple_16_A_a.gif","images/stimuli/spore_stims/simple_04_A_b.gif","forced_short","","7","simple_dissimilar","images/stimuli/spore_stims/simple_04_A_b.gif","","","","",""
"","2779.804999998305","survey-multi-choice","102","468847","0.0-24.0","SS1618435651557","math_question","","","","","","","","","","","","{""Q0"":""8""}","[0]","8","",""
"","null","html-keyboard-response","103","469881","0.0-25.0-0.0","SS1618435651557","","","null","","","","","","<p><img src= images/blank.png width =""600"" height = ""600"" style=""position:fixed;top:50%; left:50%; transform: translate(-50%, -50%); border:5px solid black"">","","","","","","","",""
"","1201.0349999909522","sequential-stimulus-presentation-old","104","476090","0.0-25.0-1.0","SS1618435651557","trial","","40","500","1701.0349999909522","images/stimuli/spore_stims/simple_19_A_a.gif","images/stimuli/spore_stims/simple_10_A_b.gif","forced_long","","8","simple_dissimilar","images/stimuli/spore_stims/simple_10_A_b.gif","","","","",""
"","null","html-keyboard-response","105","477090","0.0-25.0-0.1","SS1618435651557","","","null","","","","","","<p><img src= images/blank.png width =""600"" height = ""600"" style=""position:fixed;top:50%; left:50%; transform: translate(-50%, -50%); border:5px solid black"">","","","","","","","",""
"","5406.105000001844","sequential-stimulus-presentation-old","106","483001","0.0-25.0-1.1","SS1618435651557","trial","","40","500","5906.105000001844","images/stimuli/spore_stims/simple_19_A_a.gif","images/stimuli/spore_stims/simple_10_A_b.gif","forced_long","","8","simple_dissimilar","images/stimuli/spore_stims/simple_10_A_b.gif","","","","",""
"","null","html-keyboard-response","107","484298","0.0-25.0-0.2","SS1618435651557","","","null","","","","","","<p><img src= images/blank.png width =""600"" height = ""600"" style=""position:fixed;top:50%; left:50%; transform: translate(-50%, -50%); border:5px solid black"">","","","","","","","",""
"","6997.965000002296","sequential-stimulus-presentation-old","108","491803","0.0-25.0-1.2","SS1618435651557","trial","","40","500","7497.965000002296","images/stimuli/spore_stims/simple_19_A_a.gif","images/stimuli/spore_stims/simple_10_A_b.gif","forced_long","","8","simple_dissimilar","images/stimuli/spore_stims/simple_10_A_b.gif","","","","",""
"","null","html-keyboard-response","109","492708","0.0-25.0-0.3","SS1618435651557","","","null","","","","","","<p><img src= images/blank.png width =""600"" height = ""600"" style=""position:fixed;top:50%; left:50%; transform: translate(-50%, -50%); border:5px solid black"">","","","","","","","",""
"","3541.125000003376","sequential-stimulus-presentation-old","110","496758","0.0-25.0-1.3","SS1618435651557","trial","","40","500","4041.125000003376","images/stimuli/spore_stims/simple_19_A_a.gif","images/stimuli/spore_stims/simple_10_A_b.gif","forced_long","","8","simple_dissimilar","images/stimuli/spore_stims/simple_10_A_b.gif","","","","",""
"","3553.2700000039767","survey-multi-choice","111","500314","0.0-26.0","SS1618435651557","math_question","","","","","","","","","","","","{""Q0"":""16""}","[0]","16","",""
"","null","html-keyboard-response","112","501448","0.0-27.0-0.0","SS1618435651557","","","null","","","","","","<p><img src= images/blank.png width =""600"" height = ""600"" style=""position:fixed;top:50%; left:50%; transform: translate(-50%, -50%); border:5px solid black"">","","","","","","","",""
"","2181.1049999960233","sequential-stimulus-presentation-old","113","503689","0.0-27.0-1.0","SS1618435651557","trial","","40","500","2681.1049999960233","images/stimuli/spore_stims/simple_08_A_a.gif","images/stimuli/spore_stims/simple_14_A_b.gif","forced_short","","9","simple_dissimilar","images/stimuli/spore_stims/simple_14_A_b.gif","","","","",""
"","null","html-keyboard-response","114","504581","0.0-27.0-0.1","SS1618435651557","","","null","","","","","","<p><img src= images/blank.png width =""600"" height = ""600"" style=""position:fixed;top:50%; left:50%; transform: translate(-50%, -50%); border:5px solid black"">","","","","","","","",""
"","8090.985000002547","sequential-stimulus-presentation-old","115","513177","0.0-27.0-1.1","SS1618435651557","trial","","40","500","8590.985000002547","images/stimuli/spore_stims/simple_08_A_a.gif","images/stimuli/spore_stims/simple_14_A_b.gif","forced_short","","9","simple_dissimilar","images/stimuli/spore_stims/simple_14_A_b.gif","","","","",""
"","null","html-keyboard-response","116","514323","0.0-27.0-0.2","SS1618435651557","","","null","","","","","","<p><img src= images/blank.png width =""600"" height = ""600"" style=""position:fixed;top:50%; left:50%; transform: translate(-50%, -50%); border:5px solid black"">","","","","","","","",""
"","3411.6550000035204","sequential-stimulus-presentation-old","117","518241","0.0-27.0-1.2","SS1618435651557","trial","","40","500","3911.6550000035204","images/stimuli/spore_stims/simple_08_A_a.gif","images/stimuli/spore_stims/simple_14_A_b.gif","forced_short","","9","simple_dissimilar","images/stimuli/spore_stims/simple_08_A_a.gif","","","","",""
"","null","html-keyboard-response","118","519191","0.0-27.0-0.3","SS1618435651557","","","null","","","","","","<p><img src= images/blank.png width =""600"" height = ""600"" style=""position:fixed;top:50%; left:50%; transform: translate(-50%, -50%); border:5px solid black"">","","","","","","","",""
"","1810.6899999984307","sequential-stimulus-presentation-old","119","521509","0.0-27.0-1.3","SS1618435651557","trial","","40","500","2310.6899999984307","images/stimuli/spore_stims/simple_08_A_a.gif","images/stimuli/spore_stims/simple_14_A_b.gif","forced_short","","9","simple_dissimilar","images/stimuli/spore_stims/simple_14_A_b.gif","","","","",""
"","null","html-keyboard-response","120","522482","0.0-27.0-0.4","SS1618435651557","","","null","","","","","","<p><img src= images/blank.png width =""600"" height = ""600"" style=""position:fixed;top:50%; left:50%; transform: translate(-50%, -50%); border:5px solid black"">","","","","","","","",""
"","2477.100000003702","sequential-stimulus-presentation-old","121","525468","0.0-27.0-1.4","SS1618435651557","trial","","40","500","2977.100000003702","images/stimuli/spore_stims/simple_08_A_a.gif","images/stimuli/spore_stims/simple_14_A_b.gif","forced_short","","9","simple_dissimilar","images/stimuli/spore_stims/simple_08_A_a.gif","","","","",""
"","2950.1299999974435","survey-multi-choice","122","528421","0.0-28.0","SS1618435651557","math_question","","","","","","","","","","","","{""Q0"":""10""}","[0]","10","",""
"","null","html-keyboard-response","123","529696","0.0-29.0-0.0","SS1618435651557","","","null","","","","","","<p><img src= images/blank.png width =""600"" height = ""600"" style=""position:fixed;top:50%; left:50%; transform: translate(-50%, -50%); border:5px solid black"">","","","","","","","",""
"","5799.125000005006","sequential-stimulus-presentation-old","124","540503","0.0-29.0-1.0","SS1618435651557","trial","","40","500","6299.125000005006","images/stimuli/spore_stims/complex_03_A_b.gif","images/stimuli/spore_stims/complex_09_A_a.gif","forced_long","","10","complex_dissimilar","images/stimuli/spore_stims/complex_09_A_a.gif","","","","",""
"","null","html-keyboard-response","125","541336","0.0-29.0-0.1","SS1618435651557","","","null","","","","","","<p><img src= images/blank.png width =""600"" height = ""600"" style=""position:fixed;top:50%; left:50%; transform: translate(-50%, -50%); border:5px solid black"">","","","","","","","",""
"","3497.4749999964843","sequential-stimulus-presentation-old","126","545343","0.0-29.0-1.1","SS1618435651557","trial","","40","500","3997.4749999964843","images/stimuli/spore_stims/complex_03_A_b.gif","images/stimuli/spore_stims/complex_09_A_a.gif","forced_long","","10","complex_dissimilar","images/stimuli/spore_stims/complex_09_A_a.gif","","","","",""
"","null","html-keyboard-response","127","546200","0.0-29.0-0.2","SS1618435651557","","","null","","","","","","<p><img src= images/blank.png width =""600"" height = ""600"" style=""position:fixed;top:50%; left:50%; transform: translate(-50%, -50%); border:5px solid black"">","","","","","","","",""
"","3450.5950000020675","sequential-stimulus-presentation-old","128","550158","0.0-29.0-1.2","SS1618435651557","trial","","40","500","3950.5950000020675","images/stimuli/spore_stims/complex_03_A_b.gif","images/stimuli/spore_stims/complex_09_A_a.gif","forced_long","","10","complex_dissimilar","images/stimuli/spore_stims/complex_09_A_a.gif","","","","",""
"","null","html-keyboard-response","129","551068","0.0-29.0-0.3","SS1618435651557","","","null","","","","","","<p><img src= images/blank.png width =""600"" height = ""600"" style=""position:fixed;top:50%; left:50%; transform: translate(-50%, -50%); border:5px solid black"">","","","","","","","",""
"","485.8349999994971","sequential-stimulus-presentation-old","130","552060","0.0-29.0-1.3","SS1618435651557","trial","","40","500","985.8349999994971","images/stimuli/spore_stims/complex_03_A_b.gif","images/stimuli/spore_stims/complex_09_A_a.gif","forced_long","","10","complex_dissimilar","images/stimuli/spore_stims/complex_09_A_a.gif","","","","",""
"","null","html-keyboard-response","131","553291","0.0-29.0-0.4","SS1618435651557","","","null","","","","","","<p><img src= images/blank.png width =""600"" height = ""600"" style=""position:fixed;top:50%; left:50%; transform: translate(-50%, -50%); border:5px solid black"">","","","","","","","",""
"","3129.4199999974808","sequential-stimulus-presentation-old","132","556925","0.0-29.0-1.4","SS1618435651557","trial","","40","500","3629.4199999974808","images/stimuli/spore_stims/complex_03_A_b.gif","images/stimuli/spore_stims/complex_09_A_a.gif","forced_long","","10","complex_dissimilar","images/stimuli/spore_stims/complex_09_A_a.gif","","","","",""
"","null","html-keyboard-response","133","558195","0.0-29.0-0.5","SS1618435651557","","","null","","","","","","<p><img src= images/blank.png width =""600"" height = ""600"" style=""position:fixed;top:50%; left:50%; transform: translate(-50%, -50%); border:5px solid black"">","","","","","","","",""
"","3034.5149999920977","sequential-stimulus-presentation-old","134","561739","0.0-29.0-1.5","SS1618435651557","trial","","40","500","3534.5149999920977","images/stimuli/spore_stims/complex_03_A_b.gif","images/stimuli/spore_stims/complex_09_A_a.gif","forced_long","","10","complex_dissimilar","images/stimuli/spore_stims/complex_09_A_a.gif","","","","",""
"","3595.820000002277","survey-multi-choice","135","565338","0.0-30.0","SS1618435651557","math_question","","","","","","","","","","","","{""Q0"":""12""}","[0]","12","",""
"","null","html-keyboard-response","136","566233","0.0-31.0-0.0","SS1618435651557","","","null","","","","","","<p><img src= images/blank.png width =""600"" height = ""600"" style=""position:fixed;top:50%; left:50%; transform: translate(-50%, -50%); border:5px solid black"">","","","","","","","",""
"","1648.6949999962235","sequential-stimulus-presentation-old","137","567942","0.0-31.0-1.0","SS1618435651557","trial","","40","500","2148.6949999962235","images/stimuli/spore_stims/complex_08_A_a.gif","images/stimuli/spore_stims/complex_01_A_b.gif","forced_short","","11","complex_dissimilar","images/stimuli/spore_stims/complex_01_A_b.gif","","","","",""
"","null","html-keyboard-response","138","568916","0.0-31.0-0.1","SS1618435651557","","","null","","","","","","<p><img src= images/blank.png width =""600"" height = ""600"" style=""position:fixed;top:50%; left:50%; transform: translate(-50%, -50%); border:5px solid black"">","","","","","","","",""
"","3092.4700000032317","sequential-stimulus-presentation-old","139","572515","0.0-31.0-1.1","SS1618435651557","trial","","40","500","3592.4700000032317","images/stimuli/spore_stims/complex_08_A_a.gif","images/stimuli/spore_stims/complex_01_A_b.gif","forced_short","","11","complex_dissimilar","images/stimuli/spore_stims/complex_08_A_a.gif","","","","",""
"","null","html-keyboard-response","140","573326","0.0-31.0-0.2","SS1618435651557","","","null","","","","","","<p><img src= images/blank.png width =""600"" height = ""600"" style=""position:fixed;top:50%; left:50%; transform: translate(-50%, -50%); border:5px solid black"">","","","","","","","",""
"","10368.405000001076","sequential-stimulus-presentation-old","141","584198","0.0-31.0-1.2","SS1618435651557","trial","","40","500","10868.405000001076","images/stimuli/spore_stims/complex_08_A_a.gif","images/stimuli/spore_stims/complex_01_A_b.gif","forced_short","","11","complex_dissimilar","images/stimuli/spore_stims/complex_01_A_b.gif","","","","",""
"","null","html-keyboard-response","142","585211","0.0-31.0-0.3","SS1618435651557","","","null","","","","","","<p><img src= images/blank.png width =""600"" height = ""600"" style=""position:fixed;top:50%; left:50%; transform: translate(-50%, -50%); border:5px solid black"">","","","","","","","",""
"","767.6049999863608","sequential-stimulus-presentation-old","143","586483","0.0-31.0-1.3","SS1618435651557","trial","","40","500","1267.6049999863608","images/stimuli/spore_stims/complex_08_A_a.gif","images/stimuli/spore_stims/complex_01_A_b.gif","forced_short","","11","complex_dissimilar","images/stimuli/spore_stims/complex_01_A_b.gif","","","","",""
"","null","html-keyboard-response","144","587446","0.0-31.0-0.4","SS1618435651557","","","null","","","","","","<p><img src= images/blank.png width =""600"" height = ""600"" style=""position:fixed;top:50%; left:50%; transform: translate(-50%, -50%); border:5px solid black"">","","","","","","","",""
"","10576.300000000629","sequential-stimulus-presentation-old","145","598531","0.0-31.0-1.4","SS1618435651557","trial","","40","500","11076.300000000629","images/stimuli/spore_stims/complex_08_A_a.gif","images/stimuli/spore_stims/complex_01_A_b.gif","forced_short","","11","complex_dissimilar","images/stimuli/spore_stims/complex_08_A_a.gif","","","","",""
"","null","html-keyboard-response","146","599756","0.0-31.0-0.5","SS1618435651557","","","null","","","","","","<p><img src= images/blank.png width =""600"" height = ""600"" style=""position:fixed;top:50%; left:50%; transform: translate(-50%, -50%); border:5px solid black"">","","","","","","","",""
"","369.65500000223983","sequential-stimulus-presentation-old","147","600634","0.0-31.0-1.5","SS1618435651557","trial","","40","500","869.6550000022398","images/stimuli/spore_stims/complex_08_A_a.gif","images/stimuli/spore_stims/complex_01_A_b.gif","forced_short","","11","complex_dissimilar","images/stimuli/spore_stims/complex_01_A_b.gif","","","","",""
"[{""page_index"":0,""viewing_time"":5260.020000001532}]","5260.315000006813","instructions","148","605897","0.0-32.0","SS1618435651557","instructions","","","","","","","","","","","","","","","",""
"","7529.240000003483","survey-likert","149","613432","0.0-33.0","SS1618435651557","similarity_question","","","","","","","","","","","","{""Q0"":0}","[0]","","images/stimuli/spore_stims/simple_16_A_a.gif","images/stimuli/spore_stims/simple_04_A_b.gif"
"","10313.360000000102","survey-likert","150","623750","0.0-34.0","SS1618435651557","similarity_question","","","","","","","","","","","","{""Q0"":4}","[0]","","images/stimuli/spore_stims/simple_19_A_a.gif","images/stimuli/spore_stims/simple_10_A_b.gif"
"","7069.094999998924","survey-likert","151","630824","0.0-35.0","SS1618435651557","similarity_question","","","","","","","","","","","","{""Q0"":1}","[0]","","images/stimuli/spore_stims/simple_03_A_b.gif","images/stimuli/spore_stims/simple_07_A_a.gif"
"","5236.340000003111","survey-likert","152","636067","0.0-36.0","SS1618435651557","similarity_question","","","","","","","","","","","","{""Q0"":0}","[0]","","images/stimuli/spore_stims/complex_09_A_a.gif","images/stimuli/spore_stims/complex_03_A_b.gif"
"","4818.704999997863","survey-likert","153","640890","0.0-37.0","SS1618435651557","similarity_question","","","","","","","","","","","","{""Q0"":0}","[0]","","images/stimuli/spore_stims/complex_01_A_b.gif","images/stimuli/spore_stims/complex_08_A_a.gif"
"","4552.785000007134","survey-likert","154","645447","0.0-38.0","SS1618435651557","similarity_question","","","","","","","","","","","","{""Q0"":1}","[0]","","images/stimuli/spore_stims/simple_15_A_b.gif","images/stimuli/spore_stims/simple_03_A_a.gif"
"","9518.150000003516","survey-likert","155","654970","0.0-39.0","SS1618435651557","similarity_question","","","","","","","","","","","","{""Q0"":1}","[0]","","images/stimuli/spore_stims/complex_04_A_a.gif","images/stimuli/spore_stims/complex_16_A_b.gif"
"","7474.250000013853","survey-likert","156","662449","0.0-40.0","SS1618435651557","similarity_question","","","","","","","","","","","","{""Q0"":0}","[0]","","images/stimuli/spore_stims/complex_05_A_a.gif","images/stimuli/spore_stims/complex_07_A_b.gif"
"","10292.900000000373","survey-likert","157","672745","0.0-41.0","SS1618435651557","similarity_question","","","","","","","","","","","","{""Q0"":1}","[0]","","images/stimuli/spore_stims/simple_05_A_b.gif","images/stimuli/spore_stims/simple_15_A_a.gif"
"","7533.374999999069","survey-likert","158","680284","0.0-42.0","SS1618435651557","similarity_question","","","","","","","","","","","","{""Q0"":1}","[0]","","images/stimuli/spore_stims/complex_01_A_a.gif","images/stimuli/spore_stims/complex_13_A_b.gif"
"","5640.164999989793","survey-likert","159","685931","0.0-43.0","SS1618435651557","similarity_question","","","","","","","","","","","","{""Q0"":1}","[0]","","images/stimuli/spore_stims/simple_08_A_a.gif","images/stimuli/spore_stims/simple_14_A_b.gif"
"","10269.975000002887","survey-likert","160","696204","0.0-44.0","SS1618435651557","similarity_question","","","","","","","","","","","","{""Q0"":0}","[0]","","images/stimuli/spore_stims/complex_11_A_b.gif","images/stimuli/spore_stims/complex_19_A_a.gif"
"[{""page_index"":0,""viewing_time"":4413.925000000745}]","4414.25000000163","instructions","161","700622","0.0-45.0","SS1618435651557","instructions","","","","","","","","","","","","","","","",""
"","4160.399999993388","survey-likert","162","704788","0.0-46.0","SS1618435651557","","","","","","","","","images/stimuli/spore_stims/complex_01_A_a.gif","","","","{""Q0"":3}","[0]","","",""
"","2478.5249999986263","survey-likert","163","707271","0.0-47.0","SS1618435651557","","","","","","","","","images/stimuli/spore_stims/simple_08_A_a.gif","","","","{""Q0"":0}","[0]","","",""
"","2109.5250000071246","survey-likert","164","709388","0.0-48.0","SS1618435651557","","","","","","","","","images/stimuli/spore_stims/simple_19_A_a.gif","","","","{""Q0"":1}","[0]","","",""
"","2291.540000005625","survey-likert","165","711685","0.0-49.0","SS1618435651557","","","","","","","","","images/stimuli/spore_stims/simple_07_A_a.gif","","","","{""Q0"":0}","[0]","","",""
"","2682.5499999977183","survey-likert","166","714373","0.0-50.0","SS1618435651557","","","","","","","","","images/stimuli/spore_stims/complex_19_A_a.gif","","","","{""Q0"":5}","[0]","","",""
"","2197.9649999993853","survey-likert","167","716577","0.0-51.0","SS1618435651557","","","","","","","","","images/stimuli/spore_stims/complex_09_A_a.gif","","","","{""Q0"":4}","[0]","","",""
"","2454.975000000559","survey-likert","168","719037","0.0-52.0","SS1618435651557","","","","","","","","","images/stimuli/spore_stims/simple_15_A_a.gif","","","","{""Q0"":1}","[0]","","",""
"","4823.5550000099465","survey-likert","169","723864","0.0-53.0","SS1618435651557","","","","","","","","","images/stimuli/spore_stims/complex_16_A_b.gif","","","","{""Q0"":5}","[0]","","",""
"","4066.099999996368","survey-likert","170","727937","0.0-54.0","SS1618435651557","","","","","","","","","images/stimuli/spore_stims/simple_03_A_a.gif","","","","{""Q0"":1}","[0]","","",""
"","7577.244999993127","survey-likert","171","735520","0.0-55.0","SS1618435651557","","","","","","","","","images/stimuli/spore_stims/complex_08_A_a.gif","","","","{""Q0"":3}","[0]","","",""
"","2540.824999989127","survey-likert","172","738066","0.0-56.0","SS1618435651557","","","","","","","","","images/stimuli/spore_stims/simple_16_A_a.gif","","","","{""Q0"":1}","[0]","","",""
"","3640.2799999923445","survey-likert","173","741713","0.0-57.0","SS1618435651557","","","","","","","","","images/stimuli/spore_stims/complex_05_A_a.gif","","","","{""Q0"":4}","[0]","","",""
"[{""page_index"":0,""viewing_time"":1599.1899999935413}]","1599.4950000022072","instructions","174","743317","0.0-58.0","SS1618435651557","instructions","","","","","","","","","","","","","","","",""
"","4855.645000003278","demog-age","175","748179","0.0-59.0","SS1618435651557","","","","","","","","","","","","","{""age"":""22""}","","","",""
"","3365.270000009332","demog-ethnic-US","176","751551","0.0-60.0","SS1618435651557","","","","","","","","","","","","","{""ethnicity"":[""Hispanic or Latino""]}","[0]","","",""
"","16842.310000007274","demog-gender-and-education","177","768399","0.0-61.0","SS1618435651557","","","","","","","","","","","","","{""gender"":""Male"",""education"":""High school diploma""}","[0,1]","","",""
"","23305.590000003576","survey-text","178","791712","0.0-62.0","SS1618435651557","feedback","","","","","","","","","","","","{""Q0"":""Two animations never loaded so i pressed the down arrow""}","","","",""
"[{""page_index"":0,""viewing_time"":1234.5449999993434}]","1234.825000006822","instructions","179","792950","0.0-63.0","SS1618435651557","instructions","","","","","","","","","","","","","","","",""
