"view_history","rt","trial_type","trial_index","time_elapsed","internal_node_id","subject","stimulus_type","trial_stimulus","key_press","minimum_viewing_duration","trial_looking_time","block_deviant","block_background","exposure_type","stimulus","block_number","block_type","stimulus_displayed","responses","question_order","math_correct_answer","stimulus_left","stimulus_right"
"[{""page_index"":0,""viewing_time"":129301.08499992639}]","129302.85499989986","instructions","0","129305","0.0-0.0","SS1618365683410","","","","","","","","","","","","","","","","",""
"[{""page_index"":0,""viewing_time"":10682.664999971166},{""page_index"":1,""viewing_time"":6311.95000000298}]","16994.9000000488","instructions","1","148314","0.0-1.0","SS1618365683410","instructions","","","","","","","","","","","","","","","",""
"","5640.184999909252","sequential-stimulus-presentation-old","2","154458","0.0-2.0","SS1618365683410","","","40","500","6140.184999909252","null","null","self_paced","","","","","","","","",""
"","7387.265000026673","sequential-stimulus-presentation-old","3","162348","0.0-3.0","SS1618365683410","","","40","500","7887.265000026673","null","null","self_paced","","","","","","","","",""
"[{""page_index"":0,""viewing_time"":11154.289999976754}]","11154.615000123158","instructions","4","173504","0.0-4.0","SS1618365683410","instructions","","","","","","","","","","","","","","","",""
"","3208.8250000961125","sequential-stimulus-presentation-old","5","181716","0.0-5.0","SS1618365683410","","","40","500","3708.8250000961125","null","null","forced_long","","","","","","","","",""
"","4616.159999975935","sequential-stimulus-presentation-old","6","186384","0.0-6.0","SS1618365683410","","","40","50","4666.159999975935","null","null","forced_long","","","","","","","","",""
"[{""page_index"":0,""viewing_time"":3986.80999991484}]","3987.0849999133497","instructions","7","190372","0.0-7.0","SS1618365683410","instructions","","","","","","","","","","","","","","","",""
"[{""page_index"":0,""viewing_time"":6870.189999928698},{""page_index"":1,""viewing_time"":8981.090000132099},{""page_index"":2,""viewing_time"":5927.415000041947},{""page_index"":3,""viewing_time"":1512.3049998655915},{""page_index"":4,""viewing_time"":1228.8800000678748}]","24520.379999885336","instructions","8","214895","0.0-8.0","SS1618365683410","instructions","","","","","","","","","","","","","","","",""
"","null","html-keyboard-response","9","215943","0.0-9.0-0.0","SS1618365683410","","","null","","","","","","<p><img src= images/blank.png width =""600"" height = ""600"" style=""position:fixed;top:50%; left:50%; transform: translate(-50%, -50%); border:5px solid black"">","","","","","","","",""
"","4831.694999942556","sequential-stimulus-presentation-old","10","225793","0.0-9.0-1.0","SS1618365683410","trial","","40","500","5331.694999942556","images/stimuli/spore_stims/simple_16_A_b.gif","images/stimuli/spore_stims/simple_20_A_a.gif","forced_long","","0","simple_dissimilar","images/stimuli/spore_stims/simple_20_A_a.gif","","","","",""
"","null","html-keyboard-response","11","227030","0.0-9.0-0.1","SS1618365683410","","","null","","","","","","<p><img src= images/blank.png width =""600"" height = ""600"" style=""position:fixed;top:50%; left:50%; transform: translate(-50%, -50%); border:5px solid black"">","","","","","","","",""
"","14067.425000015646","sequential-stimulus-presentation-old","12","241600","0.0-9.0-1.1","SS1618365683410","trial","","40","500","14567.425000015646","images/stimuli/spore_stims/simple_16_A_b.gif","images/stimuli/spore_stims/simple_20_A_a.gif","forced_long","","0","simple_dissimilar","images/stimuli/spore_stims/simple_20_A_a.gif","","","","",""
"","null","html-keyboard-response","13","242605","0.0-9.0-0.2","SS1618365683410","","","null","","","","","","<p><img src= images/blank.png width =""600"" height = ""600"" style=""position:fixed;top:50%; left:50%; transform: translate(-50%, -50%); border:5px solid black"">","","","","","","","",""
"","6475.099999923259","sequential-stimulus-presentation-old","14","249584","0.0-9.0-1.2","SS1618365683410","trial","","40","500","6975.099999923259","images/stimuli/spore_stims/simple_16_A_b.gif","images/stimuli/spore_stims/simple_20_A_a.gif","forced_long","","0","simple_dissimilar","images/stimuli/spore_stims/simple_20_A_a.gif","","","","",""
"","null","html-keyboard-response","15","250540","0.0-9.0-0.3","SS1618365683410","","","null","","","","","","<p><img src= images/blank.png width =""600"" height = ""600"" style=""position:fixed;top:50%; left:50%; transform: translate(-50%, -50%); border:5px solid black"">","","","","","","","",""
"","5582.969999872148","sequential-stimulus-presentation-old","16","256626","0.0-9.0-1.3","SS1618365683410","trial","","40","500","6082.969999872148","images/stimuli/spore_stims/simple_16_A_b.gif","images/stimuli/spore_stims/simple_20_A_a.gif","forced_long","","0","simple_dissimilar","images/stimuli/spore_stims/simple_16_A_b.gif","","","","",""
"","3914.430000120774","survey-multi-choice","17","260546","0.0-10.0","SS1618365683410","math_question","","","","","","","","","","","","{""Q0"":""5""}","[0]","5","",""
"","null","html-keyboard-response","18","261618","0.0-11.0-0.0","SS1618365683410","","","null","","","","","","<p><img src= images/blank.png width =""600"" height = ""600"" style=""position:fixed;top:50%; left:50%; transform: translate(-50%, -50%); border:5px solid black"">","","","","","","","",""
"","10112.91000014171","sequential-stimulus-presentation-old","19","272238","0.0-11.0-1.0","SS1618365683410","trial","","40","500","10612.91000014171","images/stimuli/spore_stims/simple_06_A_b.gif","images/stimuli/spore_stims/simple_02_A_a.gif","self_paced","","1","simple_dissimilar","images/stimuli/spore_stims/simple_02_A_a.gif","","","","",""
"","null","html-keyboard-response","20","273531","0.0-11.0-0.1","SS1618365683410","","","null","","","","","","<p><img src= images/blank.png width =""600"" height = ""600"" style=""position:fixed;top:50%; left:50%; transform: translate(-50%, -50%); border:5px solid black"">","","","","","","","",""
"","3560.124999843538","sequential-stimulus-presentation-old","21","277595","0.0-11.0-1.1","SS1618365683410","trial","","40","500","4060.124999843538","images/stimuli/spore_stims/simple_06_A_b.gif","images/stimuli/spore_stims/simple_02_A_a.gif","self_paced","","1","simple_dissimilar","images/stimuli/spore_stims/simple_02_A_a.gif","","","","",""
"","null","html-keyboard-response","22","278725","0.0-11.0-0.2","SS1618365683410","","","null","","","","","","<p><img src= images/blank.png width =""600"" height = ""600"" style=""position:fixed;top:50%; left:50%; transform: translate(-50%, -50%); border:5px solid black"">","","","","","","","",""
"","3265.0800000410527","sequential-stimulus-presentation-old","23","282494","0.0-11.0-1.2","SS1618365683410","trial","","40","500","3765.0800000410527","images/stimuli/spore_stims/simple_06_A_b.gif","images/stimuli/spore_stims/simple_02_A_a.gif","self_paced","","1","simple_dissimilar","images/stimuli/spore_stims/simple_02_A_a.gif","","","","",""
"","null","html-keyboard-response","24","283346","0.0-11.0-0.3","SS1618365683410","","","null","","","","","","<p><img src= images/blank.png width =""600"" height = ""600"" style=""position:fixed;top:50%; left:50%; transform: translate(-50%, -50%); border:5px solid black"">","","","","","","","",""
"","3546.7950000893325","sequential-stimulus-presentation-old","25","287401","0.0-11.0-1.3","SS1618365683410","trial","","40","500","4046.7950000893325","images/stimuli/spore_stims/simple_06_A_b.gif","images/stimuli/spore_stims/simple_02_A_a.gif","self_paced","","1","simple_dissimilar","images/stimuli/spore_stims/simple_02_A_a.gif","","","","",""
"","null","html-keyboard-response","26","288276","0.0-11.0-0.4","SS1618365683410","","","null","","","","","","<p><img src= images/blank.png width =""600"" height = ""600"" style=""position:fixed;top:50%; left:50%; transform: translate(-50%, -50%); border:5px solid black"">","","","","","","","",""
"","3625.810000114143","sequential-stimulus-presentation-old","27","292405","0.0-11.0-1.4","SS1618365683410","trial","","40","500","4125.810000114143","images/stimuli/spore_stims/simple_06_A_b.gif","images/stimuli/spore_stims/simple_02_A_a.gif","self_paced","","1","simple_dissimilar","images/stimuli/spore_stims/simple_02_A_a.gif","","","","",""
"","null","html-keyboard-response","28","293359","0.0-11.0-0.5","SS1618365683410","","","null","","","","","","<p><img src= images/blank.png width =""600"" height = ""600"" style=""position:fixed;top:50%; left:50%; transform: translate(-50%, -50%); border:5px solid black"">","","","","","","","",""
"","2590.02499980852","sequential-stimulus-presentation-old","29","296452","0.0-11.0-1.5","SS1618365683410","trial","","40","500","3090.02499980852","images/stimuli/spore_stims/simple_06_A_b.gif","images/stimuli/spore_stims/simple_02_A_a.gif","self_paced","","1","simple_dissimilar","images/stimuli/spore_stims/simple_06_A_b.gif","","","","",""
"","3189.4449999090284","survey-multi-choice","30","299644","0.0-12.0","SS1618365683410","math_question","","","","","","","","","","","","{""Q0"":""8""}","[0]","8","",""
"","null","html-keyboard-response","31","300696","0.0-13.0-0.0","SS1618365683410","","","null","","","","","","<p><img src= images/blank.png width =""600"" height = ""600"" style=""position:fixed;top:50%; left:50%; transform: translate(-50%, -50%); border:5px solid black"">","","","","","","","",""
"","6283.640000037849","sequential-stimulus-presentation-old","32","311984","0.0-13.0-1.0","SS1618365683410","trial","","40","500","6783.640000037849","images/stimuli/spore_stims/simple_18_A_b.gif","images/stimuli/spore_stims/simple_04_A_a.gif","forced_long","","2","simple_dissimilar","images/stimuli/spore_stims/simple_04_A_a.gif","","","","",""
"","null","html-keyboard-response","33","313238","0.0-13.0-0.1","SS1618365683410","","","null","","","","","","<p><img src= images/blank.png width =""600"" height = ""600"" style=""position:fixed;top:50%; left:50%; transform: translate(-50%, -50%); border:5px solid black"">","","","","","","","",""
"","3598.920000018552","sequential-stimulus-presentation-old","34","317340","0.0-13.0-1.1","SS1618365683410","trial","","40","500","4098.920000018552","images/stimuli/spore_stims/simple_18_A_b.gif","images/stimuli/spore_stims/simple_04_A_a.gif","forced_long","","2","simple_dissimilar","images/stimuli/spore_stims/simple_18_A_b.gif","","","","",""
"","null","html-keyboard-response","35","318433","0.0-13.0-0.2","SS1618365683410","","","null","","","","","","<p><img src= images/blank.png width =""600"" height = ""600"" style=""position:fixed;top:50%; left:50%; transform: translate(-50%, -50%); border:5px solid black"">","","","","","","","",""
"","5144.185000099242","sequential-stimulus-presentation-old","36","324080","0.0-13.0-1.2","SS1618365683410","trial","","40","500","5644.185000099242","images/stimuli/spore_stims/simple_18_A_b.gif","images/stimuli/spore_stims/simple_04_A_a.gif","forced_long","","2","simple_dissimilar","images/stimuli/spore_stims/simple_04_A_a.gif","","","","",""
"","null","html-keyboard-response","37","325330","0.0-13.0-0.3","SS1618365683410","","","null","","","","","","<p><img src= images/blank.png width =""600"" height = ""600"" style=""position:fixed;top:50%; left:50%; transform: translate(-50%, -50%); border:5px solid black"">","","","","","","","",""
"","4021.9149999320507","sequential-stimulus-presentation-old","38","329862","0.0-13.0-1.3","SS1618365683410","trial","","40","500","4521.914999932051","images/stimuli/spore_stims/simple_18_A_b.gif","images/stimuli/spore_stims/simple_04_A_a.gif","forced_long","","2","simple_dissimilar","images/stimuli/spore_stims/simple_04_A_a.gif","","","","",""
"","null","html-keyboard-response","39","330967","0.0-13.0-0.4","SS1618365683410","","","null","","","","","","<p><img src= images/blank.png width =""600"" height = ""600"" style=""position:fixed;top:50%; left:50%; transform: translate(-50%, -50%); border:5px solid black"">","","","","","","","",""
"","2313.964999979362","sequential-stimulus-presentation-old","40","333784","0.0-13.0-1.4","SS1618365683410","trial","","40","500","2813.964999979362","images/stimuli/spore_stims/simple_18_A_b.gif","images/stimuli/spore_stims/simple_04_A_a.gif","forced_long","","2","simple_dissimilar","images/stimuli/spore_stims/simple_18_A_b.gif","","","","",""
"","3639.6749999839813","survey-multi-choice","41","337426","0.0-14.0","SS1618365683410","math_question","","","","","","","","","","","","{""Q0"":""11""}","[0]","11","",""
"","null","html-keyboard-response","42","338594","0.0-15.0-0.0","SS1618365683410","","","null","","","","","","<p><img src= images/blank.png width =""600"" height = ""600"" style=""position:fixed;top:50%; left:50%; transform: translate(-50%, -50%); border:5px solid black"">","","","","","","","",""
"","4557.540000183508","sequential-stimulus-presentation-old","43","348157","0.0-15.0-1.0","SS1618365683410","trial","","40","500","5057.540000183508","images/stimuli/spore_stims/complex_02_A_b.gif","images/stimuli/spore_stims/complex_17_A_a.gif","forced_long","","3","complex_dissimilar","images/stimuli/spore_stims/complex_17_A_a.gif","","","","",""
"","null","html-keyboard-response","44","349108","0.0-15.0-0.1","SS1618365683410","","","null","","","","","","<p><img src= images/blank.png width =""600"" height = ""600"" style=""position:fixed;top:50%; left:50%; transform: translate(-50%, -50%); border:5px solid black"">","","","","","","","",""
"","2625.0499999150634","sequential-stimulus-presentation-old","45","352237","0.0-15.0-1.1","SS1618365683410","trial","","40","500","3125.0499999150634","images/stimuli/spore_stims/complex_02_A_b.gif","images/stimuli/spore_stims/complex_17_A_a.gif","forced_long","","3","complex_dissimilar","images/stimuli/spore_stims/complex_17_A_a.gif","","","","",""
"","null","html-keyboard-response","46","353418","0.0-15.0-0.2","SS1618365683410","","","null","","","","","","<p><img src= images/blank.png width =""600"" height = ""600"" style=""position:fixed;top:50%; left:50%; transform: translate(-50%, -50%); border:5px solid black"">","","","","","","","",""
"","558.9999998919666","sequential-stimulus-presentation-old","47","354482","0.0-15.0-1.2","SS1618365683410","trial","","40","500","1058.9999998919666","images/stimuli/spore_stims/complex_02_A_b.gif","images/stimuli/spore_stims/complex_17_A_a.gif","forced_long","","3","complex_dissimilar","images/stimuli/spore_stims/complex_17_A_a.gif","","","","",""
"","null","html-keyboard-response","48","355665","0.0-15.0-0.3","SS1618365683410","","","null","","","","","","<p><img src= images/blank.png width =""600"" height = ""600"" style=""position:fixed;top:50%; left:50%; transform: translate(-50%, -50%); border:5px solid black"">","","","","","","","",""
"","745.8699999842793","sequential-stimulus-presentation-old","49","356922","0.0-15.0-1.3","SS1618365683410","trial","","40","500","1245.8699999842793","images/stimuli/spore_stims/complex_02_A_b.gif","images/stimuli/spore_stims/complex_17_A_a.gif","forced_long","","3","complex_dissimilar","images/stimuli/spore_stims/complex_17_A_a.gif","","","","",""
"","4367.029999848455","survey-multi-choice","50","361292","0.0-16.0","SS1618365683410","math_question","","","","","","","","","","","","{""Q0"":""10""}","[0]","10","",""
"","null","html-keyboard-response","51","362518","0.0-17.0-0.0","SS1618365683410","","","null","","","","","","<p><img src= images/blank.png width =""600"" height = ""600"" style=""position:fixed;top:50%; left:50%; transform: translate(-50%, -50%); border:5px solid black"">","","","","","","","",""
"","9114.479999989271","sequential-stimulus-presentation-old","52","371686","0.0-17.0-1.0","SS1618365683410","trial","","40","500","9614.479999989271","images/stimuli/spore_stims/complex_12_A_b.gif","images/stimuli/spore_stims/complex_18_A_a.gif","forced_short","","4","complex_dissimilar","images/stimuli/spore_stims/complex_18_A_a.gif","","","","",""
"","null","html-keyboard-response","53","372694","0.0-17.0-0.1","SS1618365683410","","","null","","","","","","<p><img src= images/blank.png width =""600"" height = ""600"" style=""position:fixed;top:50%; left:50%; transform: translate(-50%, -50%); border:5px solid black"">","","","","","","","",""
"","2724.0400000009686","sequential-stimulus-presentation-old","54","375923","0.0-17.0-1.1","SS1618365683410","trial","","40","500","3224.0400000009686","images/stimuli/spore_stims/complex_12_A_b.gif","images/stimuli/spore_stims/complex_18_A_a.gif","forced_short","","4","complex_dissimilar","images/stimuli/spore_stims/complex_18_A_a.gif","","","","",""
"","null","html-keyboard-response","55","376864","0.0-17.0-0.2","SS1618365683410","","","null","","","","","","<p><img src= images/blank.png width =""600"" height = ""600"" style=""position:fixed;top:50%; left:50%; transform: translate(-50%, -50%); border:5px solid black"">","","","","","","","",""
"","828.7400000263005","sequential-stimulus-presentation-old","56","378197","0.0-17.0-1.2","SS1618365683410","trial","","40","500","1328.7400000263005","images/stimuli/spore_stims/complex_12_A_b.gif","images/stimuli/spore_stims/complex_18_A_a.gif","forced_short","","4","complex_dissimilar","images/stimuli/spore_stims/complex_18_A_a.gif","","","","",""
"","null","html-keyboard-response","57","379173","0.0-17.0-0.3","SS1618365683410","","","null","","","","","","<p><img src= images/blank.png width =""600"" height = ""600"" style=""position:fixed;top:50%; left:50%; transform: translate(-50%, -50%); border:5px solid black"">","","","","","","","",""
"","3922.620000084862","sequential-stimulus-presentation-old","58","383603","0.0-17.0-1.3","SS1618365683410","trial","","40","500","4422.620000084862","images/stimuli/spore_stims/complex_12_A_b.gif","images/stimuli/spore_stims/complex_18_A_a.gif","forced_short","","4","complex_dissimilar","images/stimuli/spore_stims/complex_12_A_b.gif","","","","",""
"","2901.7250000033528","survey-multi-choice","59","386507","0.0-18.0","SS1618365683410","math_question","","","","","","","","","","","","{""Q0"":""5""}","[0]","5","",""
"","null","html-keyboard-response","60","387514","0.0-19.0-0.0","SS1618365683410","","","null","","","","","","<p><img src= images/blank.png width =""600"" height = ""600"" style=""position:fixed;top:50%; left:50%; transform: translate(-50%, -50%); border:5px solid black"">","","","","","","","",""
"","5496.225000126287","sequential-stimulus-presentation-old","61","393064","0.0-19.0-1.0","SS1618365683410","trial","","40","500","5996.225000126287","images/stimuli/spore_stims/simple_03_A_a.gif","images/stimuli/spore_stims/simple_07_A_b.gif","forced_short","","5","simple_dissimilar","images/stimuli/spore_stims/simple_07_A_b.gif","","","","",""
"","null","html-keyboard-response","62","393894","0.0-19.0-0.1","SS1618365683410","","","null","","","","","","<p><img src= images/blank.png width =""600"" height = ""600"" style=""position:fixed;top:50%; left:50%; transform: translate(-50%, -50%); border:5px solid black"">","","","","","","","",""
"","2839.7400001995265","sequential-stimulus-presentation-old","63","397238","0.0-19.0-1.1","SS1618365683410","trial","","40","500","3339.7400001995265","images/stimuli/spore_stims/simple_03_A_a.gif","images/stimuli/spore_stims/simple_07_A_b.gif","forced_short","","5","simple_dissimilar","images/stimuli/spore_stims/simple_07_A_b.gif","","","","",""
"","null","html-keyboard-response","64","398296","0.0-19.0-0.2","SS1618365683410","","","null","","","","","","<p><img src= images/blank.png width =""600"" height = ""600"" style=""position:fixed;top:50%; left:50%; transform: translate(-50%, -50%); border:5px solid black"">","","","","","","","",""
"","446.11000013537705","sequential-stimulus-presentation-old","65","399246","0.0-19.0-1.2","SS1618365683410","trial","","40","500","946.110000135377","images/stimuli/spore_stims/simple_03_A_a.gif","images/stimuli/spore_stims/simple_07_A_b.gif","forced_short","","5","simple_dissimilar","images/stimuli/spore_stims/simple_07_A_b.gif","","","","",""
"","null","html-keyboard-response","66","400160","0.0-19.0-0.3","SS1618365683410","","","null","","","","","","<p><img src= images/blank.png width =""600"" height = ""600"" style=""position:fixed;top:50%; left:50%; transform: translate(-50%, -50%); border:5px solid black"">","","","","","","","",""
"","394.5500000845641","sequential-stimulus-presentation-old","67","401058","0.0-19.0-1.3","SS1618365683410","trial","","40","500","894.5500000845641","images/stimuli/spore_stims/simple_03_A_a.gif","images/stimuli/spore_stims/simple_07_A_b.gif","forced_short","","5","simple_dissimilar","images/stimuli/spore_stims/simple_07_A_b.gif","","","","",""
"","null","html-keyboard-response","68","401900","0.0-19.0-0.4","SS1618365683410","","","null","","","","","","<p><img src= images/blank.png width =""600"" height = ""600"" style=""position:fixed;top:50%; left:50%; transform: translate(-50%, -50%); border:5px solid black"">","","","","","","","",""
"","693.4450000990182","sequential-stimulus-presentation-old","69","403099","0.0-19.0-1.4","SS1618365683410","trial","","40","500","1193.4450000990182","images/stimuli/spore_stims/simple_03_A_a.gif","images/stimuli/spore_stims/simple_07_A_b.gif","forced_short","","5","simple_dissimilar","images/stimuli/spore_stims/simple_07_A_b.gif","","","","",""
"","null","html-keyboard-response","70","404069","0.0-19.0-0.5","SS1618365683410","","","null","","","","","","<p><img src= images/blank.png width =""600"" height = ""600"" style=""position:fixed;top:50%; left:50%; transform: translate(-50%, -50%); border:5px solid black"">","","","","","","","",""
"","1937.0750000234693","sequential-stimulus-presentation-old","71","406509","0.0-19.0-1.5","SS1618365683410","trial","","40","500","2437.0750000234693","images/stimuli/spore_stims/simple_03_A_a.gif","images/stimuli/spore_stims/simple_07_A_b.gif","forced_short","","5","simple_dissimilar","images/stimuli/spore_stims/simple_03_A_a.gif","","","","",""
"","3149.504999862984","survey-multi-choice","72","409661","0.0-20.0","SS1618365683410","math_question","","","","","","","","","","","","{""Q0"":""12""}","[0]","12","",""
"","null","html-keyboard-response","73","410560","0.0-21.0-0.0","SS1618365683410","","","null","","","","","","<p><img src= images/blank.png width =""600"" height = ""600"" style=""position:fixed;top:50%; left:50%; transform: translate(-50%, -50%); border:5px solid black"">","","","","","","","",""
"","2187.5599999912083","sequential-stimulus-presentation-old","74","413253","0.0-21.0-1.0","SS1618365683410","trial","","40","500","2687.5599999912083","images/stimuli/spore_stims/complex_05_A_a.gif","images/stimuli/spore_stims/complex_20_A_b.gif","self_paced","","6","complex_dissimilar","images/stimuli/spore_stims/complex_20_A_b.gif","","","","",""
"","null","html-keyboard-response","75","414214","0.0-21.0-0.1","SS1618365683410","","","null","","","","","","<p><img src= images/blank.png width =""600"" height = ""600"" style=""position:fixed;top:50%; left:50%; transform: translate(-50%, -50%); border:5px solid black"">","","","","","","","",""
"","1517.3499998636544","sequential-stimulus-presentation-old","76","416235","0.0-21.0-1.1","SS1618365683410","trial","","40","500","2017.3499998636544","images/stimuli/spore_stims/complex_05_A_a.gif","images/stimuli/spore_stims/complex_20_A_b.gif","self_paced","","6","complex_dissimilar","images/stimuli/spore_stims/complex_20_A_b.gif","","","","",""
"","null","html-keyboard-response","77","417438","0.0-21.0-0.2","SS1618365683410","","","null","","","","","","<p><img src= images/blank.png width =""600"" height = ""600"" style=""position:fixed;top:50%; left:50%; transform: translate(-50%, -50%); border:5px solid black"">","","","","","","","",""
"","152.06499979831278","sequential-stimulus-presentation-old","78","418095","0.0-21.0-1.2","SS1618365683410","trial","","40","500","652.0649997983128","images/stimuli/spore_stims/complex_05_A_a.gif","images/stimuli/spore_stims/complex_20_A_b.gif","self_paced","","6","complex_dissimilar","images/stimuli/spore_stims/complex_20_A_b.gif","","","","",""
"","null","html-keyboard-response","79","419361","0.0-21.0-0.3","SS1618365683410","","","null","","","","","","<p><img src= images/blank.png width =""600"" height = ""600"" style=""position:fixed;top:50%; left:50%; transform: translate(-50%, -50%); border:5px solid black"">","","","","","","","",""
"","119.20999991707504","sequential-stimulus-presentation-old","80","419984","0.0-21.0-1.3","SS1618365683410","trial","","40","500","619.209999917075","images/stimuli/spore_stims/complex_05_A_a.gif","images/stimuli/spore_stims/complex_20_A_b.gif","self_paced","","6","complex_dissimilar","images/stimuli/spore_stims/complex_20_A_b.gif","","","","",""
"","null","html-keyboard-response","81","420796","0.0-21.0-0.4","SS1618365683410","","","null","","","","","","<p><img src= images/blank.png width =""600"" height = ""600"" style=""position:fixed;top:50%; left:50%; transform: translate(-50%, -50%); border:5px solid black"">","","","","","","","",""
"","47.30500001460314","sequential-stimulus-presentation-old","82","421347","0.0-21.0-1.4","SS1618365683410","trial","","40","500","547.3050000146031","images/stimuli/spore_stims/complex_05_A_a.gif","images/stimuli/spore_stims/complex_20_A_b.gif","self_paced","","6","complex_dissimilar","images/stimuli/spore_stims/complex_20_A_b.gif","","","","",""
"","2464.9400000926107","survey-multi-choice","83","423815","0.0-22.0","SS1618365683410","math_question","","","","","","","","","","","","{""Q0"":""2""}","[0]","2","",""
"","null","html-keyboard-response","84","424789","0.0-23.0-0.0","SS1618365683410","","","null","","","","","","<p><img src= images/blank.png width =""600"" height = ""600"" style=""position:fixed;top:50%; left:50%; transform: translate(-50%, -50%); border:5px solid black"">","","","","","","","",""
"","1248.3500000089407","sequential-stimulus-presentation-old","85","426548","0.0-23.0-1.0","SS1618365683410","trial","","40","500","1748.3500000089407","images/stimuli/spore_stims/complex_17_A_b.gif","images/stimuli/spore_stims/complex_15_A_a.gif","self_paced","","7","complex_dissimilar","images/stimuli/spore_stims/complex_15_A_a.gif","","","","",""
"","null","html-keyboard-response","86","427498","0.0-23.0-0.1","SS1618365683410","","","null","","","","","","<p><img src= images/blank.png width =""600"" height = ""600"" style=""position:fixed;top:50%; left:50%; transform: translate(-50%, -50%); border:5px solid black"">","","","","","","","",""
"","598.170000128448","sequential-stimulus-presentation-old","87","428600","0.0-23.0-1.1","SS1618365683410","trial","","40","500","1098.170000128448","images/stimuli/spore_stims/complex_17_A_b.gif","images/stimuli/spore_stims/complex_15_A_a.gif","self_paced","","7","complex_dissimilar","images/stimuli/spore_stims/complex_15_A_a.gif","","","","",""
"","null","html-keyboard-response","88","429604","0.0-23.0-0.2","SS1618365683410","","","null","","","","","","<p><img src= images/blank.png width =""600"" height = ""600"" style=""position:fixed;top:50%; left:50%; transform: translate(-50%, -50%); border:5px solid black"">","","","","","","","",""
"","515.2600000146776","sequential-stimulus-presentation-old","89","430624","0.0-23.0-1.2","SS1618365683410","trial","","40","500","1015.2600000146776","images/stimuli/spore_stims/complex_17_A_b.gif","images/stimuli/spore_stims/complex_15_A_a.gif","self_paced","","7","complex_dissimilar","images/stimuli/spore_stims/complex_15_A_a.gif","","","","",""
"","null","html-keyboard-response","90","431839","0.0-23.0-0.3","SS1618365683410","","","null","","","","","","<p><img src= images/blank.png width =""600"" height = ""600"" style=""position:fixed;top:50%; left:50%; transform: translate(-50%, -50%); border:5px solid black"">","","","","","","","",""
"","479.469999903813","sequential-stimulus-presentation-old","91","432830","0.0-23.0-1.3","SS1618365683410","trial","","40","500","979.469999903813","images/stimuli/spore_stims/complex_17_A_b.gif","images/stimuli/spore_stims/complex_15_A_a.gif","self_paced","","7","complex_dissimilar","images/stimuli/spore_stims/complex_17_A_b.gif","","","","",""
"","null","html-keyboard-response","92","433917","0.0-23.0-0.4","SS1618365683410","","","null","","","","","","<p><img src= images/blank.png width =""600"" height = ""600"" style=""position:fixed;top:50%; left:50%; transform: translate(-50%, -50%); border:5px solid black"">","","","","","","","",""
"","1323.2950000092387","sequential-stimulus-presentation-old","93","435745","0.0-23.0-1.4","SS1618365683410","trial","","40","500","1823.2950000092387","images/stimuli/spore_stims/complex_17_A_b.gif","images/stimuli/spore_stims/complex_15_A_a.gif","self_paced","","7","complex_dissimilar","images/stimuli/spore_stims/complex_15_A_a.gif","","","","",""
"","null","html-keyboard-response","94","436870","0.0-23.0-0.5","SS1618365683410","","","null","","","","","","<p><img src= images/blank.png width =""600"" height = ""600"" style=""position:fixed;top:50%; left:50%; transform: translate(-50%, -50%); border:5px solid black"">","","","","","","","",""
"","603.2950000371784","sequential-stimulus-presentation-old","95","437982","0.0-23.0-1.5","SS1618365683410","trial","","40","500","1103.2950000371784","images/stimuli/spore_stims/complex_17_A_b.gif","images/stimuli/spore_stims/complex_15_A_a.gif","self_paced","","7","complex_dissimilar","images/stimuli/spore_stims/complex_17_A_b.gif","","","","",""
"","2821.284999838099","survey-multi-choice","96","440807","0.0-24.0","SS1618365683410","math_question","","","","","","","","","","","","{""Q0"":""5""}","[0]","5","",""
"","null","html-keyboard-response","97","442070","0.0-25.0-0.0","SS1618365683410","","","null","","","","","","<p><img src= images/blank.png width =""600"" height = ""600"" style=""position:fixed;top:50%; left:50%; transform: translate(-50%, -50%); border:5px solid black"">","","","","","","","",""
"","2664.3700001295656","sequential-stimulus-presentation-old","98","445238","0.0-25.0-1.0","SS1618365683410","trial","","40","500","3164.3700001295656","images/stimuli/spore_stims/simple_20_A_b.gif","images/stimuli/spore_stims/simple_16_A_a.gif","self_paced","","8","simple_dissimilar","images/stimuli/spore_stims/simple_16_A_a.gif","","","","",""
"","null","html-keyboard-response","99","446518","0.0-25.0-0.1","SS1618365683410","","","null","","","","","","<p><img src= images/blank.png width =""600"" height = ""600"" style=""position:fixed;top:50%; left:50%; transform: translate(-50%, -50%); border:5px solid black"">","","","","","","","",""
"","553.6599999759346","sequential-stimulus-presentation-old","100","447583","0.0-25.0-1.1","SS1618365683410","trial","","40","500","1053.6599999759346","images/stimuli/spore_stims/simple_20_A_b.gif","images/stimuli/spore_stims/simple_16_A_a.gif","self_paced","","8","simple_dissimilar","images/stimuli/spore_stims/simple_16_A_a.gif","","","","",""
"","null","html-keyboard-response","101","448886","0.0-25.0-0.2","SS1618365683410","","","null","","","","","","<p><img src= images/blank.png width =""600"" height = ""600"" style=""position:fixed;top:50%; left:50%; transform: translate(-50%, -50%); border:5px solid black"">","","","","","","","",""
"","1386.339999968186","sequential-stimulus-presentation-old","102","450778","0.0-25.0-1.2","SS1618365683410","trial","","40","500","1886.339999968186","images/stimuli/spore_stims/simple_20_A_b.gif","images/stimuli/spore_stims/simple_16_A_a.gif","self_paced","","8","simple_dissimilar","images/stimuli/spore_stims/simple_16_A_a.gif","","","","",""
"","null","html-keyboard-response","103","451854","0.0-25.0-0.3","SS1618365683410","","","null","","","","","","<p><img src= images/blank.png width =""600"" height = ""600"" style=""position:fixed;top:50%; left:50%; transform: translate(-50%, -50%); border:5px solid black"">","","","","","","","",""
"","527.5499999988824","sequential-stimulus-presentation-old","104","452886","0.0-25.0-1.3","SS1618365683410","trial","","40","500","1027.5499999988824","images/stimuli/spore_stims/simple_20_A_b.gif","images/stimuli/spore_stims/simple_16_A_a.gif","self_paced","","8","simple_dissimilar","images/stimuli/spore_stims/simple_16_A_a.gif","","","","",""
"","2847.834999905899","survey-multi-choice","105","455738","0.0-26.0","SS1618365683410","math_question","","","","","","","","","","","","{""Q0"":""5""}","[0]","5","",""
"","null","html-keyboard-response","106","456597","0.0-27.0-0.0","SS1618365683410","","","null","","","","","","<p><img src= images/blank.png width =""600"" height = ""600"" style=""position:fixed;top:50%; left:50%; transform: translate(-50%, -50%); border:5px solid black"">","","","","","","","",""
"","1444.3399999290705","sequential-stimulus-presentation-old","107","458095","0.0-27.0-1.0","SS1618365683410","trial","","40","500","1944.3399999290705","images/stimuli/spore_stims/simple_04_A_b.gif","images/stimuli/spore_stims/simple_08_A_a.gif","forced_short","","9","simple_dissimilar","images/stimuli/spore_stims/simple_08_A_a.gif","","","","",""
"","null","html-keyboard-response","108","459147","0.0-27.0-0.1","SS1618365683410","","","null","","","","","","<p><img src= images/blank.png width =""600"" height = ""600"" style=""position:fixed;top:50%; left:50%; transform: translate(-50%, -50%); border:5px solid black"">","","","","","","","",""
"","1683.2649998832494","sequential-stimulus-presentation-old","109","461335","0.0-27.0-1.1","SS1618365683410","trial","","40","500","2183.2649998832494","images/stimuli/spore_stims/simple_04_A_b.gif","images/stimuli/spore_stims/simple_08_A_a.gif","forced_short","","9","simple_dissimilar","images/stimuli/spore_stims/simple_08_A_a.gif","","","","",""
"","null","html-keyboard-response","110","462197","0.0-27.0-0.2","SS1618365683410","","","null","","","","","","<p><img src= images/blank.png width =""600"" height = ""600"" style=""position:fixed;top:50%; left:50%; transform: translate(-50%, -50%); border:5px solid black"">","","","","","","","",""
"","248.41500003822148","sequential-stimulus-presentation-old","111","462951","0.0-27.0-1.2","SS1618365683410","trial","","40","500","748.4150000382215","images/stimuli/spore_stims/simple_04_A_b.gif","images/stimuli/spore_stims/simple_08_A_a.gif","forced_short","","9","simple_dissimilar","images/stimuli/spore_stims/simple_08_A_a.gif","","","","",""
"","null","html-keyboard-response","112","463961","0.0-27.0-0.3","SS1618365683410","","","null","","","","","","<p><img src= images/blank.png width =""600"" height = ""600"" style=""position:fixed;top:50%; left:50%; transform: translate(-50%, -50%); border:5px solid black"">","","","","","","","",""
"","657.2800001595169","sequential-stimulus-presentation-old","113","465127","0.0-27.0-1.3","SS1618365683410","trial","","40","500","1157.280000159517","images/stimuli/spore_stims/simple_04_A_b.gif","images/stimuli/spore_stims/simple_08_A_a.gif","forced_short","","9","simple_dissimilar","images/stimuli/spore_stims/simple_08_A_a.gif","","","","",""
"","5441.720000002533","survey-multi-choice","114","470571","0.0-28.0","SS1618365683410","math_question","","","","","","","","","","","","{""Q0"":""13""}","[0]","13","",""
"","null","html-keyboard-response","115","471459","0.0-29.0-0.0","SS1618365683410","","","null","","","","","","<p><img src= images/blank.png width =""600"" height = ""600"" style=""position:fixed;top:50%; left:50%; transform: translate(-50%, -50%); border:5px solid black"">","","","","","","","",""
"","1148.8850000314415","sequential-stimulus-presentation-old","116","472663","0.0-29.0-1.0","SS1618365683410","trial","","40","500","1648.8850000314415","images/stimuli/spore_stims/complex_19_A_b.gif","images/stimuli/spore_stims/complex_20_A_a.gif","forced_short","","10","complex_dissimilar","images/stimuli/spore_stims/complex_20_A_a.gif","","","","",""
"","null","html-keyboard-response","117","473734","0.0-29.0-0.1","SS1618365683410","","","null","","","","","","<p><img src= images/blank.png width =""600"" height = ""600"" style=""position:fixed;top:50%; left:50%; transform: translate(-50%, -50%); border:5px solid black"">","","","","","","","",""
"","516.6749998461455","sequential-stimulus-presentation-old","118","474754","0.0-29.0-1.1","SS1618365683410","trial","","40","500","1016.6749998461455","images/stimuli/spore_stims/complex_19_A_b.gif","images/stimuli/spore_stims/complex_20_A_a.gif","forced_short","","10","complex_dissimilar","images/stimuli/spore_stims/complex_19_A_b.gif","","","","",""
"","null","html-keyboard-response","119","475965","0.0-29.0-0.2","SS1618365683410","","","null","","","","","","<p><img src= images/blank.png width =""600"" height = ""600"" style=""position:fixed;top:50%; left:50%; transform: translate(-50%, -50%); border:5px solid black"">","","","","","","","",""
"","174.86999998800457","sequential-stimulus-presentation-old","120","476643","0.0-29.0-1.2","SS1618365683410","trial","","40","500","674.8699999880046","images/stimuli/spore_stims/complex_19_A_b.gif","images/stimuli/spore_stims/complex_20_A_a.gif","forced_short","","10","complex_dissimilar","images/stimuli/spore_stims/complex_20_A_a.gif","","","","",""
"","null","html-keyboard-response","121","477713","0.0-29.0-0.3","SS1618365683410","","","null","","","","","","<p><img src= images/blank.png width =""600"" height = ""600"" style=""position:fixed;top:50%; left:50%; transform: translate(-50%, -50%); border:5px solid black"">","","","","","","","",""
"","189.32500015944242","sequential-stimulus-presentation-old","122","478406","0.0-29.0-1.3","SS1618365683410","trial","","40","500","689.3250001594424","images/stimuli/spore_stims/complex_19_A_b.gif","images/stimuli/spore_stims/complex_20_A_a.gif","forced_short","","10","complex_dissimilar","images/stimuli/spore_stims/complex_20_A_a.gif","","","","",""
"","null","html-keyboard-response","123","479365","0.0-29.0-0.4","SS1618365683410","","","null","","","","","","<p><img src= images/blank.png width =""600"" height = ""600"" style=""position:fixed;top:50%; left:50%; transform: translate(-50%, -50%); border:5px solid black"">","","","","","","","",""
"","202.04500015825033","sequential-stimulus-presentation-old","124","480072","0.0-29.0-1.4","SS1618365683410","trial","","40","500","702.0450001582503","images/stimuli/spore_stims/complex_19_A_b.gif","images/stimuli/spore_stims/complex_20_A_a.gif","forced_short","","10","complex_dissimilar","images/stimuli/spore_stims/complex_20_A_a.gif","","","","",""
"","4686.914999969304","survey-multi-choice","125","484762","0.0-30.0","SS1618365683410","math_question","","","","","","","","","","","","{""Q0"":""13""}","[0]","13","",""
"","null","html-keyboard-response","126","485926","0.0-31.0-0.0","SS1618365683410","","","null","","","","","","<p><img src= images/blank.png width =""600"" height = ""600"" style=""position:fixed;top:50%; left:50%; transform: translate(-50%, -50%); border:5px solid black"">","","","","","","","",""
"","1890.6800001859665","sequential-stimulus-presentation-old","127","492821","0.0-31.0-1.0","SS1618365683410","trial","","40","500","2390.6800001859665","images/stimuli/spore_stims/complex_04_A_a.gif","images/stimuli/spore_stims/complex_05_A_b.gif","forced_long","","11","complex_dissimilar","images/stimuli/spore_stims/complex_05_A_b.gif","","","","",""
"","null","html-keyboard-response","128","494081","0.0-31.0-0.1","SS1618365683410","","","null","","","","","","<p><img src= images/blank.png width =""600"" height = ""600"" style=""position:fixed;top:50%; left:50%; transform: translate(-50%, -50%); border:5px solid black"">","","","","","","","",""
"","184.52999996952713","sequential-stimulus-presentation-old","129","494771","0.0-31.0-1.1","SS1618365683410","trial","","40","500","684.5299999695271","images/stimuli/spore_stims/complex_04_A_a.gif","images/stimuli/spore_stims/complex_05_A_b.gif","forced_long","","11","complex_dissimilar","images/stimuli/spore_stims/complex_05_A_b.gif","","","","",""
"","null","html-keyboard-response","130","495815","0.0-31.0-0.2","SS1618365683410","","","null","","","","","","<p><img src= images/blank.png width =""600"" height = ""600"" style=""position:fixed;top:50%; left:50%; transform: translate(-50%, -50%); border:5px solid black"">","","","","","","","",""
"","316.6799999307841","sequential-stimulus-presentation-old","131","496636","0.0-31.0-1.2","SS1618365683410","trial","","40","500","816.6799999307841","images/stimuli/spore_stims/complex_04_A_a.gif","images/stimuli/spore_stims/complex_05_A_b.gif","forced_long","","11","complex_dissimilar","images/stimuli/spore_stims/complex_05_A_b.gif","","","","",""
"","null","html-keyboard-response","132","497819","0.0-31.0-0.3","SS1618365683410","","","null","","","","","","<p><img src= images/blank.png width =""600"" height = ""600"" style=""position:fixed;top:50%; left:50%; transform: translate(-50%, -50%); border:5px solid black"">","","","","","","","",""
"","799.7700001578778","sequential-stimulus-presentation-old","133","499123","0.0-31.0-1.3","SS1618365683410","trial","","40","500","1299.7700001578778","images/stimuli/spore_stims/complex_04_A_a.gif","images/stimuli/spore_stims/complex_05_A_b.gif","forced_long","","11","complex_dissimilar","images/stimuli/spore_stims/complex_05_A_b.gif","","","","",""
"","null","html-keyboard-response","134","500126","0.0-31.0-0.4","SS1618365683410","","","null","","","","","","<p><img src= images/blank.png width =""600"" height = ""600"" style=""position:fixed;top:50%; left:50%; transform: translate(-50%, -50%); border:5px solid black"">","","","","","","","",""
"","955.9949999675155","sequential-stimulus-presentation-old","135","501590","0.0-31.0-1.4","SS1618365683410","trial","","40","500","1455.9949999675155","images/stimuli/spore_stims/complex_04_A_a.gif","images/stimuli/spore_stims/complex_05_A_b.gif","forced_long","","11","complex_dissimilar","images/stimuli/spore_stims/complex_05_A_b.gif","","","","",""
"","null","html-keyboard-response","136","502632","0.0-31.0-0.5","SS1618365683410","","","null","","","","","","<p><img src= images/blank.png width =""600"" height = ""600"" style=""position:fixed;top:50%; left:50%; transform: translate(-50%, -50%); border:5px solid black"">","","","","","","","",""
"","601.9899998791516","sequential-stimulus-presentation-old","137","503739","0.0-31.0-1.5","SS1618365683410","trial","","40","500","1101.9899998791516","images/stimuli/spore_stims/complex_04_A_a.gif","images/stimuli/spore_stims/complex_05_A_b.gif","forced_long","","11","complex_dissimilar","images/stimuli/spore_stims/complex_04_A_a.gif","","","","",""
"[{""page_index"":0,""viewing_time"":5181.624999968335}]","5182.484999997541","instructions","138","508925","0.0-32.0","SS1618365683410","instructions","","","","","","","","","","","","","","","",""
"","15383.885000133887","survey-likert","139","524317","0.0-33.0","SS1618365683410","similarity_question","","","","","","","","","","","","{""Q0"":4}","[0]","","images/stimuli/spore_stims/complex_19_A_b.gif","images/stimuli/spore_stims/complex_20_A_a.gif"
"","5832.429999951273","survey-likert","140","530160","0.0-34.0","SS1618365683410","similarity_question","","","","","","","","","","","","{""Q0"":4}","[0]","","images/stimuli/spore_stims/simple_08_A_a.gif","images/stimuli/spore_stims/simple_04_A_b.gif"
"","9087.414999958128","survey-likert","141","539257","0.0-35.0","SS1618365683410","similarity_question","","","","","","","","","","","","{""Q0"":1}","[0]","","images/stimuli/spore_stims/simple_16_A_b.gif","images/stimuli/spore_stims/simple_20_A_a.gif"
"","6196.270000189543","survey-likert","142","545464","0.0-36.0","SS1618365683410","similarity_question","","","","","","","","","","","","{""Q0"":0}","[0]","","images/stimuli/spore_stims/complex_02_A_b.gif","images/stimuli/spore_stims/complex_17_A_a.gif"
"","8301.74500006251","survey-likert","143","553776","0.0-37.0","SS1618365683410","similarity_question","","","","","","","","","","","","{""Q0"":2}","[0]","","images/stimuli/spore_stims/simple_03_A_a.gif","images/stimuli/spore_stims/simple_07_A_b.gif"
"","3476.2500000651926","survey-likert","144","557262","0.0-38.0","SS1618365683410","similarity_question","","","","","","","","","","","","{""Q0"":4}","[0]","","images/stimuli/spore_stims/simple_20_A_b.gif","images/stimuli/spore_stims/simple_16_A_a.gif"
"","7186.044999863952","survey-likert","145","564457","0.0-39.0","SS1618365683410","similarity_question","","","","","","","","","","","","{""Q0"":5}","[0]","","images/stimuli/spore_stims/complex_15_A_a.gif","images/stimuli/spore_stims/complex_17_A_b.gif"
"","9813.629999989644","survey-likert","146","574282","0.0-40.0","SS1618365683410","similarity_question","","","","","","","","","","","","{""Q0"":2}","[0]","","images/stimuli/spore_stims/complex_05_A_b.gif","images/stimuli/spore_stims/complex_04_A_a.gif"
"","3277.510000159964","survey-likert","147","577569","0.0-41.0","SS1618365683410","similarity_question","","","","","","","","","","","","{""Q0"":2}","[0]","","images/stimuli/spore_stims/complex_05_A_a.gif","images/stimuli/spore_stims/complex_20_A_b.gif"
"","4564.385000150651","survey-likert","148","582144","0.0-42.0","SS1618365683410","similarity_question","","","","","","","","","","","","{""Q0"":6}","[0]","","images/stimuli/spore_stims/simple_06_A_b.gif","images/stimuli/spore_stims/simple_02_A_a.gif"
"","4628.375000087544","survey-likert","149","586783","0.0-43.0","SS1618365683410","similarity_question","","","","","","","","","","","","{""Q0"":1}","[0]","","images/stimuli/spore_stims/simple_18_A_b.gif","images/stimuli/spore_stims/simple_04_A_a.gif"
"","6739.229999948293","survey-likert","150","593533","0.0-44.0","SS1618365683410","similarity_question","","","","","","","","","","","","{""Q0"":4}","[0]","","images/stimuli/spore_stims/complex_18_A_a.gif","images/stimuli/spore_stims/complex_12_A_b.gif"
"[{""page_index"":0,""viewing_time"":4878.474999917671}]","4879.019999876618","instructions","151","598421","0.0-45.0","SS1618365683410","instructions","","","","","","","","","","","","","","","",""
"","10142.460000002757","survey-likert","152","608570","0.0-46.0","SS1618365683410","","","","","","","","","images/stimuli/spore_stims/complex_04_A_a.gif","","","","{""Q0"":5}","[0]","","",""
"","6461.684999987483","survey-likert","153","615045","0.0-47.0","SS1618365683410","","","","","","","","","images/stimuli/spore_stims/complex_05_A_a.gif","","","","{""Q0"":5}","[0]","","",""
"","6463.234999915585","survey-likert","154","621522","0.0-48.0","SS1618365683410","","","","","","","","","images/stimuli/spore_stims/simple_20_A_b.gif","","","","{""Q0"":0}","[0]","","",""
"","3189.060000004247","survey-likert","155","624722","0.0-49.0","SS1618365683410","","","","","","","","","images/stimuli/spore_stims/complex_17_A_b.gif","","","","{""Q0"":6}","[0]","","",""
"","3735.259999986738","survey-likert","156","628470","0.0-50.0","SS1618365683410","","","","","","","","","images/stimuli/spore_stims/simple_07_A_b.gif","","","","{""Q0"":1}","[0]","","",""
"","3885.0899999961257","survey-likert","157","632365","0.0-51.0","SS1618365683410","","","","","","","","","images/stimuli/spore_stims/simple_20_A_a.gif","","","","{""Q0"":1}","[0]","","",""
"","4144.694999791682","survey-likert","158","636520","0.0-52.0","SS1618365683410","","","","","","","","","images/stimuli/spore_stims/simple_18_A_b.gif","","","","{""Q0"":1}","[0]","","",""
"","2621.535000158474","survey-likert","159","639151","0.0-53.0","SS1618365683410","","","","","","","","","images/stimuli/spore_stims/complex_12_A_b.gif","","","","{""Q0"":6}","[0]","","",""
"","4480.805000057444","survey-likert","160","643641","0.0-54.0","SS1618365683410","","","","","","","","","images/stimuli/spore_stims/complex_20_A_a.gif","","","","{""Q0"":5}","[0]","","",""
"","3478.260000003502","survey-likert","161","647130","0.0-55.0","SS1618365683410","","","","","","","","","images/stimuli/spore_stims/simple_04_A_b.gif","","","","{""Q0"":1}","[0]","","",""
"","3128.569999942556","survey-likert","162","650269","0.0-56.0","SS1618365683410","","","","","","","","","images/stimuli/spore_stims/simple_02_A_a.gif","","","","{""Q0"":0}","[0]","","",""
"","4629.689999856055","survey-likert","163","654908","0.0-57.0","SS1618365683410","","","","","","","","","images/stimuli/spore_stims/complex_02_A_b.gif","","","","{""Q0"":6}","[0]","","",""
"[{""page_index"":0,""viewing_time"":2186.594999860972}]","2187.0750000234693","instructions","164","657104","0.0-58.0","SS1618365683410","instructions","","","","","","","","","","","","","","","",""
"","2832.4599999468774","demog-age","165","659946","0.0-59.0","SS1618365683410","","","","","","","","","","","","","{""age"":""27""}","","","",""
"","5237.304999958724","demog-ethnic-US","166","665194","0.0-60.0","SS1618365683410","","","","","","","","","","","","","{""ethnicity"":[""White""]}","[0]","","",""
"","15509.390000021085","demog-gender-and-education","167","680715","0.0-61.0","SS1618365683410","","","","","","","","","","","","","{""gender"":""Female"",""education"":""High school diploma""}","[0,1]","","",""
"","10854.33500004001","survey-text","168","691583","0.0-62.0","SS1618365683410","feedback","","","","","","","","","","","","{""Q0"":""No, everything went fine""}","","","",""
"[{""page_index"":0,""viewing_time"":2425.0199999660254}]","2425.3849999513477","instructions","169","694014","0.0-63.0","SS1618365683410","instructions","","","","","","","","","","","","","","","",""
"[{""page_index"":0,""viewing_time"":18510.319999884814}]","18510.484999977052","instructions","170","712529","0.0-64.0","SS1618365683410","","","","","","","","","","","","","","","","",""
