"view_history","rt","trial_type","trial_index","time_elapsed","internal_node_id","subject","stimulus_type","trial_stimulus","key_press","minimum_viewing_duration","trial_looking_time","block_deviant","block_background","exposure_type","stimulus","block_number","block_type","stimulus_displayed","responses","question_order","math_correct_answer","stimulus_left","stimulus_right"
"[{""page_index"":0,""viewing_time"":4391.450000000077}]","4392.105000000129","instructions","0","4393","0.0-0.0","SS1618365777258","","","","","","","","","","","","","","","","",""
"[{""page_index"":0,""viewing_time"":18328.290000000154},{""page_index"":1,""viewing_time"":5984.095000000027}]","24312.63000000012","instructions","1","30712","0.0-1.0","SS1618365777258","instructions","","","","","","","","","","","","","","","",""
"","7346.999999999978","sequential-stimulus-presentation-old","2","38574","0.0-2.0","SS1618365777258","","","40","500","7846.999999999978","null","null","self_paced","","","","","","","","",""
"","17493.40499999994","sequential-stimulus-presentation-old","3","56569","0.0-3.0","SS1618365777258","","","40","500","17993.40499999994","null","null","self_paced","","","","","","","","",""
"[{""page_index"":0,""viewing_time"":195086.74500000008}]","195086.98000000004","instructions","4","251657","0.0-4.0","SS1618365777258","instructions","","","","","","","","","","","","","","","",""
"","7915.569999999891","sequential-stimulus-presentation-old","5","264576","0.0-5.0","SS1618365777258","","","40","500","8415.56999999989","null","null","forced_long","","","","","","","","",""
"","4877.4049999999115","sequential-stimulus-presentation-old","6","269520","0.0-6.0","SS1618365777258","","","40","50","4927.4049999999115","null","null","forced_long","","","","","","","","",""
"[{""page_index"":0,""viewing_time"":4063.920000000042}]","4064.164999999979","instructions","7","273585","0.0-7.0","SS1618365777258","instructions","","","","","","","","","","","","","","","",""
"[{""page_index"":0,""viewing_time"":11102.960000000137},{""page_index"":1,""viewing_time"":16416.11999999988},{""page_index"":2,""viewing_time"":9967.940000000002},{""page_index"":3,""viewing_time"":2360.3649999999907},{""page_index"":4,""viewing_time"":944.3400000000256}]","40791.96000000002","instructions","8","314378","0.0-8.0","SS1618365777258","instructions","","","","","","","","","","","","","","","",""
"","null","html-keyboard-response","9","315553","0.0-9.0-0.0","SS1618365777258","","","null","","","","","","<p><img src= images/blank.png width =""600"" height = ""600"" style=""position:fixed;top:50%; left:50%; transform: translate(-50%, -50%); border:5px solid black"">","","","","","","","",""
"","10328.835000000021","sequential-stimulus-presentation-old","10","326385","0.0-9.0-1.0","SS1618365777258","trial","","40","500","10828.835000000021","images/stimuli/spore_stims/complex_15_A_a.gif","images/stimuli/spore_stims/complex_12_A_b.gif","self_paced","","0","complex_dissimilar","images/stimuli/spore_stims/complex_12_A_b.gif","","","","",""
"","null","html-keyboard-response","11","327309","0.0-9.0-0.1","SS1618365777258","","","null","","","","","","<p><img src= images/blank.png width =""600"" height = ""600"" style=""position:fixed;top:50%; left:50%; transform: translate(-50%, -50%); border:5px solid black"">","","","","","","","",""
"","3586.945000000007","sequential-stimulus-presentation-old","12","331398","0.0-9.0-1.1","SS1618365777258","trial","","40","500","4086.945000000007","images/stimuli/spore_stims/complex_15_A_a.gif","images/stimuli/spore_stims/complex_12_A_b.gif","self_paced","","0","complex_dissimilar","images/stimuli/spore_stims/complex_12_A_b.gif","","","","",""
"","null","html-keyboard-response","13","332491","0.0-9.0-0.2","SS1618365777258","","","null","","","","","","<p><img src= images/blank.png width =""600"" height = ""600"" style=""position:fixed;top:50%; left:50%; transform: translate(-50%, -50%); border:5px solid black"">","","","","","","","",""
"","9009.239999999874","sequential-stimulus-presentation-old","14","342005","0.0-9.0-1.2","SS1618365777258","trial","","40","500","9509.239999999874","images/stimuli/spore_stims/complex_15_A_a.gif","images/stimuli/spore_stims/complex_12_A_b.gif","self_paced","","0","complex_dissimilar","images/stimuli/spore_stims/complex_15_A_a.gif","","","","",""
"","null","html-keyboard-response","15","343119","0.0-9.0-0.3","SS1618365777258","","","null","","","","","","<p><img src= images/blank.png width =""600"" height = ""600"" style=""position:fixed;top:50%; left:50%; transform: translate(-50%, -50%); border:5px solid black"">","","","","","","","",""
"","1114.950000000128","sequential-stimulus-presentation-old","16","344738","0.0-9.0-1.3","SS1618365777258","trial","","40","500","1614.950000000128","images/stimuli/spore_stims/complex_15_A_a.gif","images/stimuli/spore_stims/complex_12_A_b.gif","self_paced","","0","complex_dissimilar","images/stimuli/spore_stims/complex_12_A_b.gif","","","","",""
"","null","html-keyboard-response","17","345887","0.0-9.0-0.4","SS1618365777258","","","null","","","","","","<p><img src= images/blank.png width =""600"" height = ""600"" style=""position:fixed;top:50%; left:50%; transform: translate(-50%, -50%); border:5px solid black"">","","","","","","","",""
"","2922.000000000058","sequential-stimulus-presentation-old","18","349311","0.0-9.0-1.4","SS1618365777258","trial","","40","500","3422.000000000058","images/stimuli/spore_stims/complex_15_A_a.gif","images/stimuli/spore_stims/complex_12_A_b.gif","self_paced","","0","complex_dissimilar","images/stimuli/spore_stims/complex_15_A_a.gif","","","","",""
"","null","html-keyboard-response","19","350335","0.0-9.0-0.5","SS1618365777258","","","null","","","","","","<p><img src= images/blank.png width =""600"" height = ""600"" style=""position:fixed;top:50%; left:50%; transform: translate(-50%, -50%); border:5px solid black"">","","","","","","","",""
"","4235.589999999967","sequential-stimulus-presentation-old","20","355074","0.0-9.0-1.5","SS1618365777258","trial","","40","500","4735.589999999967","images/stimuli/spore_stims/complex_15_A_a.gif","images/stimuli/spore_stims/complex_12_A_b.gif","self_paced","","0","complex_dissimilar","images/stimuli/spore_stims/complex_12_A_b.gif","","","","",""
"","3773.0950000000303","survey-multi-choice","21","358850","0.0-10.0","SS1618365777258","math_question","","","","","","","","","","","","{""Q0"":""4""}","[0]","4","",""
"","null","html-keyboard-response","22","359810","0.0-11.0-0.0","SS1618365777258","","","null","","","","","","<p><img src= images/blank.png width =""600"" height = ""600"" style=""position:fixed;top:50%; left:50%; transform: translate(-50%, -50%); border:5px solid black"">","","","","","","","",""
"","1072.4650000002002","sequential-stimulus-presentation-old","23","360943","0.0-11.0-1.0","SS1618365777258","trial","","40","500","1572.4650000002002","images/stimuli/spore_stims/complex_05_A_a.gif","images/stimuli/spore_stims/complex_20_A_b.gif","forced_short","","1","complex_dissimilar","images/stimuli/spore_stims/complex_20_A_b.gif","","","","",""
"","null","html-keyboard-response","24","362159","0.0-11.0-0.1","SS1618365777258","","","null","","","","","","<p><img src= images/blank.png width =""600"" height = ""600"" style=""position:fixed;top:50%; left:50%; transform: translate(-50%, -50%); border:5px solid black"">","","","","","","","",""
"","5709.1900000000605","sequential-stimulus-presentation-old","25","368381","0.0-11.0-1.1","SS1618365777258","trial","","40","500","6209.1900000000605","images/stimuli/spore_stims/complex_05_A_a.gif","images/stimuli/spore_stims/complex_20_A_b.gif","forced_short","","1","complex_dissimilar","images/stimuli/spore_stims/complex_20_A_b.gif","","","","",""
"","null","html-keyboard-response","26","369487","0.0-11.0-0.2","SS1618365777258","","","null","","","","","","<p><img src= images/blank.png width =""600"" height = ""600"" style=""position:fixed;top:50%; left:50%; transform: translate(-50%, -50%); border:5px solid black"">","","","","","","","",""
"","2979.0900000000256","sequential-stimulus-presentation-old","27","372969","0.0-11.0-1.2","SS1618365777258","trial","","40","500","3479.0900000000256","images/stimuli/spore_stims/complex_05_A_a.gif","images/stimuli/spore_stims/complex_20_A_b.gif","forced_short","","1","complex_dissimilar","images/stimuli/spore_stims/complex_20_A_b.gif","","","","",""
"","null","html-keyboard-response","28","373810","0.0-11.0-0.3","SS1618365777258","","","null","","","","","","<p><img src= images/blank.png width =""600"" height = ""600"" style=""position:fixed;top:50%; left:50%; transform: translate(-50%, -50%); border:5px solid black"">","","","","","","","",""
"","2322.689999999944","sequential-stimulus-presentation-old","29","376635","0.0-11.0-1.3","SS1618365777258","trial","","40","500","2822.689999999944","images/stimuli/spore_stims/complex_05_A_a.gif","images/stimuli/spore_stims/complex_20_A_b.gif","forced_short","","1","complex_dissimilar","images/stimuli/spore_stims/complex_05_A_a.gif","","","","",""
"","2379.859999999986","survey-multi-choice","30","379017","0.0-12.0","SS1618365777258","math_question","","","","","","","","","","","","{""Q0"":""9""}","[0]","9","",""
"","null","html-keyboard-response","31","380075","0.0-13.0-0.0","SS1618365777258","","","null","","","","","","<p><img src= images/blank.png width =""600"" height = ""600"" style=""position:fixed;top:50%; left:50%; transform: translate(-50%, -50%); border:5px solid black"">","","","","","","","",""
"","1482.049999999872","sequential-stimulus-presentation-old","32","381618","0.0-13.0-1.0","SS1618365777258","trial","","40","500","1982.049999999872","images/stimuli/spore_stims/simple_18_A_b.gif","images/stimuli/spore_stims/simple_01_A_a.gif","forced_short","","2","simple_dissimilar","images/stimuli/spore_stims/simple_01_A_a.gif","","","","",""
"","null","html-keyboard-response","33","382754","0.0-13.0-0.1","SS1618365777258","","","null","","","","","","<p><img src= images/blank.png width =""600"" height = ""600"" style=""position:fixed;top:50%; left:50%; transform: translate(-50%, -50%); border:5px solid black"">","","","","","","","",""
"","7616.975000000151","sequential-stimulus-presentation-old","34","391875","0.0-13.0-1.1","SS1618365777258","trial","","40","500","8116.975000000151","images/stimuli/spore_stims/simple_18_A_b.gif","images/stimuli/spore_stims/simple_01_A_a.gif","forced_short","","2","simple_dissimilar","images/stimuli/spore_stims/simple_01_A_a.gif","","","","",""
"","null","html-keyboard-response","35","393169","0.0-13.0-0.2","SS1618365777258","","","null","","","","","","<p><img src= images/blank.png width =""600"" height = ""600"" style=""position:fixed;top:50%; left:50%; transform: translate(-50%, -50%); border:5px solid black"">","","","","","","","",""
"","1681.9399999999441","sequential-stimulus-presentation-old","36","395355","0.0-13.0-1.2","SS1618365777258","trial","","40","500","2181.939999999944","images/stimuli/spore_stims/simple_18_A_b.gif","images/stimuli/spore_stims/simple_01_A_a.gif","forced_short","","2","simple_dissimilar","images/stimuli/spore_stims/simple_18_A_b.gif","","","","",""
"","null","html-keyboard-response","37","396564","0.0-13.0-0.3","SS1618365777258","","","null","","","","","","<p><img src= images/blank.png width =""600"" height = ""600"" style=""position:fixed;top:50%; left:50%; transform: translate(-50%, -50%); border:5px solid black"">","","","","","","","",""
"","1123.460000000021","sequential-stimulus-presentation-old","38","398193","0.0-13.0-1.3","SS1618365777258","trial","","40","500","1623.460000000021","images/stimuli/spore_stims/simple_18_A_b.gif","images/stimuli/spore_stims/simple_01_A_a.gif","forced_short","","2","simple_dissimilar","images/stimuli/spore_stims/simple_18_A_b.gif","","","","",""
"","null","html-keyboard-response","39","399455","0.0-13.0-0.4","SS1618365777258","","","null","","","","","","<p><img src= images/blank.png width =""600"" height = ""600"" style=""position:fixed;top:50%; left:50%; transform: translate(-50%, -50%); border:5px solid black"">","","","","","","","",""
"","1243.560000000114","sequential-stimulus-presentation-old","40","401203","0.0-13.0-1.4","SS1618365777258","trial","","40","500","1743.560000000114","images/stimuli/spore_stims/simple_18_A_b.gif","images/stimuli/spore_stims/simple_01_A_a.gif","forced_short","","2","simple_dissimilar","images/stimuli/spore_stims/simple_01_A_a.gif","","","","",""
"","null","html-keyboard-response","41","402374","0.0-13.0-0.5","SS1618365777258","","","null","","","","","","<p><img src= images/blank.png width =""600"" height = ""600"" style=""position:fixed;top:50%; left:50%; transform: translate(-50%, -50%); border:5px solid black"">","","","","","","","",""
"","857.664999999979","sequential-stimulus-presentation-old","42","403748","0.0-13.0-1.5","SS1618365777258","trial","","40","500","1357.664999999979","images/stimuli/spore_stims/simple_18_A_b.gif","images/stimuli/spore_stims/simple_01_A_a.gif","forced_short","","2","simple_dissimilar","images/stimuli/spore_stims/simple_01_A_a.gif","","","","",""
"","2779.7949999999255","survey-multi-choice","43","406529","0.0-14.0","SS1618365777258","math_question","","","","","","","","","","","","{""Q0"":""13""}","[0]","13","",""
"","null","html-keyboard-response","44","407513","0.0-15.0-0.0","SS1618365777258","","","null","","","","","","<p><img src= images/blank.png width =""600"" height = ""600"" style=""position:fixed;top:50%; left:50%; transform: translate(-50%, -50%); border:5px solid black"">","","","","","","","",""
"","804.0299999999697","sequential-stimulus-presentation-old","45","408370","0.0-15.0-1.0","SS1618365777258","trial","","40","500","1304.0299999999697","images/stimuli/spore_stims/simple_17_A_a.gif","images/stimuli/spore_stims/simple_10_A_b.gif","forced_short","","3","simple_dissimilar","images/stimuli/spore_stims/simple_10_A_b.gif","","","","",""
"","null","html-keyboard-response","46","409345","0.0-15.0-0.1","SS1618365777258","","","null","","","","","","<p><img src= images/blank.png width =""600"" height = ""600"" style=""position:fixed;top:50%; left:50%; transform: translate(-50%, -50%); border:5px solid black"">","","","","","","","",""
"","1150.7349999999278","sequential-stimulus-presentation-old","47","410999","0.0-15.0-1.1","SS1618365777258","trial","","40","500","1650.7349999999278","images/stimuli/spore_stims/simple_17_A_a.gif","images/stimuli/spore_stims/simple_10_A_b.gif","forced_short","","3","simple_dissimilar","images/stimuli/spore_stims/simple_17_A_a.gif","","","","",""
"","null","html-keyboard-response","48","411975","0.0-15.0-0.2","SS1618365777258","","","null","","","","","","<p><img src= images/blank.png width =""600"" height = ""600"" style=""position:fixed;top:50%; left:50%; transform: translate(-50%, -50%); border:5px solid black"">","","","","","","","",""
"","819.8099999999395","sequential-stimulus-presentation-old","49","413297","0.0-15.0-1.2","SS1618365777258","trial","","40","500","1319.8099999999395","images/stimuli/spore_stims/simple_17_A_a.gif","images/stimuli/spore_stims/simple_10_A_b.gif","forced_short","","3","simple_dissimilar","images/stimuli/spore_stims/simple_10_A_b.gif","","","","",""
"","null","html-keyboard-response","50","414530","0.0-15.0-0.3","SS1618365777258","","","null","","","","","","<p><img src= images/blank.png width =""600"" height = ""600"" style=""position:fixed;top:50%; left:50%; transform: translate(-50%, -50%); border:5px solid black"">","","","","","","","",""
"","674.6550000000279","sequential-stimulus-presentation-old","51","415708","0.0-15.0-1.3","SS1618365777258","trial","","40","500","1174.655000000028","images/stimuli/spore_stims/simple_17_A_a.gif","images/stimuli/spore_stims/simple_10_A_b.gif","forced_short","","3","simple_dissimilar","images/stimuli/spore_stims/simple_17_A_a.gif","","","","",""
"","null","html-keyboard-response","52","417008","0.0-15.0-0.4","SS1618365777258","","","null","","","","","","<p><img src= images/blank.png width =""600"" height = ""600"" style=""position:fixed;top:50%; left:50%; transform: translate(-50%, -50%); border:5px solid black"">","","","","","","","",""
"","815.1849999999395","sequential-stimulus-presentation-old","53","418327","0.0-15.0-1.4","SS1618365777258","trial","","40","500","1315.1849999999395","images/stimuli/spore_stims/simple_17_A_a.gif","images/stimuli/spore_stims/simple_10_A_b.gif","forced_short","","3","simple_dissimilar","images/stimuli/spore_stims/simple_10_A_b.gif","","","","",""
"","2968.9600000001956","survey-multi-choice","54","421297","0.0-16.0","SS1618365777258","math_question","","","","","","","","","","","","{""Q0"":""10""}","[0]","10","",""
"","null","html-keyboard-response","55","422210","0.0-17.0-0.0","SS1618365777258","","","null","","","","","","<p><img src= images/blank.png width =""600"" height = ""600"" style=""position:fixed;top:50%; left:50%; transform: translate(-50%, -50%); border:5px solid black"">","","","","","","","",""
"","1061.7199999999139","sequential-stimulus-presentation-old","56","428275","0.0-17.0-1.0","SS1618365777258","trial","","40","500","1561.7199999999139","images/stimuli/spore_stims/complex_10_A_b.gif","images/stimuli/spore_stims/complex_03_A_a.gif","forced_long","","4","complex_dissimilar","images/stimuli/spore_stims/complex_03_A_a.gif","","","","",""
"","null","html-keyboard-response","57","429250","0.0-17.0-0.1","SS1618365777258","","","null","","","","","","<p><img src= images/blank.png width =""600"" height = ""600"" style=""position:fixed;top:50%; left:50%; transform: translate(-50%, -50%); border:5px solid black"">","","","","","","","",""
"","13451.254999999888","sequential-stimulus-presentation-old","58","443206","0.0-17.0-1.1","SS1618365777258","trial","","40","500","13951.254999999888","images/stimuli/spore_stims/complex_10_A_b.gif","images/stimuli/spore_stims/complex_03_A_a.gif","forced_long","","4","complex_dissimilar","images/stimuli/spore_stims/complex_03_A_a.gif","","","","",""
"","null","html-keyboard-response","59","444129","0.0-17.0-0.2","SS1618365777258","","","null","","","","","","<p><img src= images/blank.png width =""600"" height = ""600"" style=""position:fixed;top:50%; left:50%; transform: translate(-50%, -50%); border:5px solid black"">","","","","","","","",""
"","5512.850000000093","sequential-stimulus-presentation-old","60","450146","0.0-17.0-1.2","SS1618365777258","trial","","40","500","6012.850000000093","images/stimuli/spore_stims/complex_10_A_b.gif","images/stimuli/spore_stims/complex_03_A_a.gif","forced_long","","4","complex_dissimilar","images/stimuli/spore_stims/complex_03_A_a.gif","","","","",""
"","null","html-keyboard-response","61","451077","0.0-17.0-0.3","SS1618365777258","","","null","","","","","","<p><img src= images/blank.png width =""600"" height = ""600"" style=""position:fixed;top:50%; left:50%; transform: translate(-50%, -50%); border:5px solid black"">","","","","","","","",""
"","1315.4550000003655","sequential-stimulus-presentation-old","62","452896","0.0-17.0-1.3","SS1618365777258","trial","","40","500","1815.4550000003655","images/stimuli/spore_stims/complex_10_A_b.gif","images/stimuli/spore_stims/complex_03_A_a.gif","forced_long","","4","complex_dissimilar","images/stimuli/spore_stims/complex_10_A_b.gif","","","","",""
"","null","html-keyboard-response","63","453820","0.0-17.0-0.4","SS1618365777258","","","null","","","","","","<p><img src= images/blank.png width =""600"" height = ""600"" style=""position:fixed;top:50%; left:50%; transform: translate(-50%, -50%); border:5px solid black"">","","","","","","","",""
"","1422.1899999997695","sequential-stimulus-presentation-old","64","455746","0.0-17.0-1.4","SS1618365777258","trial","","40","500","1922.1899999997695","images/stimuli/spore_stims/complex_10_A_b.gif","images/stimuli/spore_stims/complex_03_A_a.gif","forced_long","","4","complex_dissimilar","images/stimuli/spore_stims/complex_03_A_a.gif","","","","",""
"","null","html-keyboard-response","65","456822","0.0-17.0-0.5","SS1618365777258","","","null","","","","","","<p><img src= images/blank.png width =""600"" height = ""600"" style=""position:fixed;top:50%; left:50%; transform: translate(-50%, -50%); border:5px solid black"">","","","","","","","",""
"","1198.6050000000396","sequential-stimulus-presentation-old","66","458537","0.0-17.0-1.5","SS1618365777258","trial","","40","500","1698.6050000000396","images/stimuli/spore_stims/complex_10_A_b.gif","images/stimuli/spore_stims/complex_03_A_a.gif","forced_long","","4","complex_dissimilar","images/stimuli/spore_stims/complex_03_A_a.gif","","","","",""
"","2631.339999999909","survey-multi-choice","67","461170","0.0-18.0","SS1618365777258","math_question","","","","","","","","","","","","{""Q0"":""13""}","[0]","13","",""
"","null","html-keyboard-response","68","462083","0.0-19.0-0.0","SS1618365777258","","","null","","","","","","<p><img src= images/blank.png width =""600"" height = ""600"" style=""position:fixed;top:50%; left:50%; transform: translate(-50%, -50%); border:5px solid black"">","","","","","","","",""
"","658.7850000000326","sequential-stimulus-presentation-old","69","462802","0.0-19.0-1.0","SS1618365777258","trial","","40","500","1158.7850000000326","images/stimuli/spore_stims/complex_11_A_b.gif","images/stimuli/spore_stims/complex_16_A_a.gif","forced_short","","5","complex_dissimilar","images/stimuli/spore_stims/complex_16_A_a.gif","","","","",""
"","null","html-keyboard-response","70","463758","0.0-19.0-0.1","SS1618365777258","","","null","","","","","","<p><img src= images/blank.png width =""600"" height = ""600"" style=""position:fixed;top:50%; left:50%; transform: translate(-50%, -50%); border:5px solid black"">","","","","","","","",""
"","1436.5900000002584","sequential-stimulus-presentation-old","71","465697","0.0-19.0-1.1","SS1618365777258","trial","","40","500","1936.5900000002584","images/stimuli/spore_stims/complex_11_A_b.gif","images/stimuli/spore_stims/complex_16_A_a.gif","forced_short","","5","complex_dissimilar","images/stimuli/spore_stims/complex_11_A_b.gif","","","","",""
"","null","html-keyboard-response","72","466784","0.0-19.0-0.2","SS1618365777258","","","null","","","","","","<p><img src= images/blank.png width =""600"" height = ""600"" style=""position:fixed;top:50%; left:50%; transform: translate(-50%, -50%); border:5px solid black"">","","","","","","","",""
"","4121.744999999937","sequential-stimulus-presentation-old","73","471409","0.0-19.0-1.2","SS1618365777258","trial","","40","500","4621.744999999937","images/stimuli/spore_stims/complex_11_A_b.gif","images/stimuli/spore_stims/complex_16_A_a.gif","forced_short","","5","complex_dissimilar","images/stimuli/spore_stims/complex_16_A_a.gif","","","","",""
"","null","html-keyboard-response","74","472268","0.0-19.0-0.3","SS1618365777258","","","null","","","","","","<p><img src= images/blank.png width =""600"" height = ""600"" style=""position:fixed;top:50%; left:50%; transform: translate(-50%, -50%); border:5px solid black"">","","","","","","","",""
"","1417.5900000000256","sequential-stimulus-presentation-old","75","474189","0.0-19.0-1.3","SS1618365777258","trial","","40","500","1917.5900000000256","images/stimuli/spore_stims/complex_11_A_b.gif","images/stimuli/spore_stims/complex_16_A_a.gif","forced_short","","5","complex_dissimilar","images/stimuli/spore_stims/complex_11_A_b.gif","","","","",""
"","null","html-keyboard-response","76","475386","0.0-19.0-0.4","SS1618365777258","","","null","","","","","","<p><img src= images/blank.png width =""600"" height = ""600"" style=""position:fixed;top:50%; left:50%; transform: translate(-50%, -50%); border:5px solid black"">","","","","","","","",""
"","1583.9550000000745","sequential-stimulus-presentation-old","77","477473","0.0-19.0-1.4","SS1618365777258","trial","","40","500","2083.9550000000745","images/stimuli/spore_stims/complex_11_A_b.gif","images/stimuli/spore_stims/complex_16_A_a.gif","forced_short","","5","complex_dissimilar","images/stimuli/spore_stims/complex_16_A_a.gif","","","","",""
"","2782.075000000128","survey-multi-choice","78","480258","0.0-20.0","SS1618365777258","math_question","","","","","","","","","","","","{""Q0"":""6""}","[0]","6","",""
"","null","html-keyboard-response","79","481421","0.0-21.0-0.0","SS1618365777258","","","null","","","","","","<p><img src= images/blank.png width =""600"" height = ""600"" style=""position:fixed;top:50%; left:50%; transform: translate(-50%, -50%); border:5px solid black"">","","","","","","","",""
"","6544.50499999983","sequential-stimulus-presentation-old","80","488470","0.0-21.0-1.0","SS1618365777258","trial","","40","500","7044.50499999983","images/stimuli/spore_stims/complex_09_A_b.gif","images/stimuli/spore_stims/complex_19_A_a.gif","self_paced","","6","complex_dissimilar","images/stimuli/spore_stims/complex_19_A_a.gif","","","","",""
"","null","html-keyboard-response","81","489718","0.0-21.0-0.1","SS1618365777258","","","null","","","","","","<p><img src= images/blank.png width =""600"" height = ""600"" style=""position:fixed;top:50%; left:50%; transform: translate(-50%, -50%); border:5px solid black"">","","","","","","","",""
"","8363.685000000289","sequential-stimulus-presentation-old","82","498586","0.0-21.0-1.1","SS1618365777258","trial","","40","500","8863.685000000289","images/stimuli/spore_stims/complex_09_A_b.gif","images/stimuli/spore_stims/complex_19_A_a.gif","self_paced","","6","complex_dissimilar","images/stimuli/spore_stims/complex_09_A_b.gif","","","","",""
"","null","html-keyboard-response","83","499769","0.0-21.0-0.2","SS1618365777258","","","null","","","","","","<p><img src= images/blank.png width =""600"" height = ""600"" style=""position:fixed;top:50%; left:50%; transform: translate(-50%, -50%); border:5px solid black"">","","","","","","","",""
"","1187.5899999999674","sequential-stimulus-presentation-old","84","501460","0.0-21.0-1.2","SS1618365777258","trial","","40","500","1687.5899999999674","images/stimuli/spore_stims/complex_09_A_b.gif","images/stimuli/spore_stims/complex_19_A_a.gif","self_paced","","6","complex_dissimilar","images/stimuli/spore_stims/complex_19_A_a.gif","","","","",""
"","null","html-keyboard-response","85","502503","0.0-21.0-0.3","SS1618365777258","","","null","","","","","","<p><img src= images/blank.png width =""600"" height = ""600"" style=""position:fixed;top:50%; left:50%; transform: translate(-50%, -50%); border:5px solid black"">","","","","","","","",""
"","58196.425000000105","sequential-stimulus-presentation-old","86","561212","0.0-21.0-1.3","SS1618365777258","trial","","40","500","58696.425000000105","images/stimuli/spore_stims/complex_09_A_b.gif","images/stimuli/spore_stims/complex_19_A_a.gif","self_paced","","6","complex_dissimilar","images/stimuli/spore_stims/complex_09_A_b.gif","","","","",""
"","null","html-keyboard-response","87","562173","0.0-21.0-0.4","SS1618365777258","","","null","","","","","","<p><img src= images/blank.png width =""600"" height = ""600"" style=""position:fixed;top:50%; left:50%; transform: translate(-50%, -50%); border:5px solid black"">","","","","","","","",""
"","381.94499999959953","sequential-stimulus-presentation-old","88","563059","0.0-21.0-1.4","SS1618365777258","trial","","40","500","881.9449999995995","images/stimuli/spore_stims/complex_09_A_b.gif","images/stimuli/spore_stims/complex_19_A_a.gif","self_paced","","6","complex_dissimilar","images/stimuli/spore_stims/complex_19_A_a.gif","","","","",""
"","3180.3000000000466","survey-multi-choice","89","566242","0.0-22.0","SS1618365777258","math_question","","","","","","","","","","","","{""Q0"":""9""}","[0]","9","",""
"","null","html-keyboard-response","90","567167","0.0-23.0-0.0","SS1618365777258","","","null","","","","","","<p><img src= images/blank.png width =""600"" height = ""600"" style=""position:fixed;top:50%; left:50%; transform: translate(-50%, -50%); border:5px solid black"">","","","","","","","",""
"","1019.640000000014","sequential-stimulus-presentation-old","91","568690","0.0-23.0-1.0","SS1618365777258","trial","","40","500","1519.640000000014","images/stimuli/spore_stims/simple_04_A_a.gif","images/stimuli/spore_stims/simple_15_A_b.gif","self_paced","","7","simple_dissimilar","images/stimuli/spore_stims/simple_15_A_b.gif","","","","",""
"","null","html-keyboard-response","92","569647","0.0-23.0-0.1","SS1618365777258","","","null","","","","","","<p><img src= images/blank.png width =""600"" height = ""600"" style=""position:fixed;top:50%; left:50%; transform: translate(-50%, -50%); border:5px solid black"">","","","","","","","",""
"","2539.195000000298","sequential-stimulus-presentation-old","93","572694","0.0-23.0-1.1","SS1618365777258","trial","","40","500","3039.195000000298","images/stimuli/spore_stims/simple_04_A_a.gif","images/stimuli/spore_stims/simple_15_A_b.gif","self_paced","","7","simple_dissimilar","images/stimuli/spore_stims/simple_15_A_b.gif","","","","",""
"","null","html-keyboard-response","94","574270","0.0-23.0-0.2","SS1618365777258","","","null","","","","","","<p><img src= images/blank.png width =""600"" height = ""600"" style=""position:fixed;top:50%; left:50%; transform: translate(-50%, -50%); border:5px solid black"">","","","","","","","",""
"","1497.9300000000512","sequential-stimulus-presentation-old","95","576766","0.0-23.0-1.2","SS1618365777258","trial","","40","500","1997.9300000000512","images/stimuli/spore_stims/simple_04_A_a.gif","images/stimuli/spore_stims/simple_15_A_b.gif","self_paced","","7","simple_dissimilar","images/stimuli/spore_stims/simple_04_A_a.gif","","","","",""
"","null","html-keyboard-response","96","577917","0.0-23.0-0.3","SS1618365777258","","","null","","","","","","<p><img src= images/blank.png width =""600"" height = ""600"" style=""position:fixed;top:50%; left:50%; transform: translate(-50%, -50%); border:5px solid black"">","","","","","","","",""
"","561.7150000002002","sequential-stimulus-presentation-old","97","578982","0.0-23.0-1.3","SS1618365777258","trial","","40","500","1061.7150000002002","images/stimuli/spore_stims/simple_04_A_a.gif","images/stimuli/spore_stims/simple_15_A_b.gif","self_paced","","7","simple_dissimilar","images/stimuli/spore_stims/simple_15_A_b.gif","","","","",""
"","null","html-keyboard-response","98","579943","0.0-23.0-0.4","SS1618365777258","","","null","","","","","","<p><img src= images/blank.png width =""600"" height = ""600"" style=""position:fixed;top:50%; left:50%; transform: translate(-50%, -50%); border:5px solid black"">","","","","","","","",""
"","451.88999999978114","sequential-stimulus-presentation-old","99","580899","0.0-23.0-1.4","SS1618365777258","trial","","40","500","951.8899999997811","images/stimuli/spore_stims/simple_04_A_a.gif","images/stimuli/spore_stims/simple_15_A_b.gif","self_paced","","7","simple_dissimilar","images/stimuli/spore_stims/simple_04_A_a.gif","","","","",""
"","2013.1249999998836","survey-multi-choice","100","582914","0.0-24.0","SS1618365777258","math_question","","","","","","","","","","","","{""Q0"":""3""}","[0]","3","",""
"","null","html-keyboard-response","101","583988","0.0-25.0-0.0","SS1618365777258","","","null","","","","","","<p><img src= images/blank.png width =""600"" height = ""600"" style=""position:fixed;top:50%; left:50%; transform: translate(-50%, -50%); border:5px solid black"">","","","","","","","",""
"","8556.845000000088","sequential-stimulus-presentation-old","102","597550","0.0-25.0-1.0","SS1618365777258","trial","","40","500","9056.845000000088","images/stimuli/spore_stims/simple_10_A_a.gif","images/stimuli/spore_stims/simple_13_A_b.gif","forced_long","","8","simple_dissimilar","images/stimuli/spore_stims/simple_13_A_b.gif","","","","",""
"","null","html-keyboard-response","103","598482","0.0-25.0-0.1","SS1618365777258","","","null","","","","","","<p><img src= images/blank.png width =""600"" height = ""600"" style=""position:fixed;top:50%; left:50%; transform: translate(-50%, -50%); border:5px solid black"">","","","","","","","",""
"","1672.1599999996834","sequential-stimulus-presentation-old","104","600659","0.0-25.0-1.1","SS1618365777258","trial","","40","500","2172.1599999996834","images/stimuli/spore_stims/simple_10_A_a.gif","images/stimuli/spore_stims/simple_13_A_b.gif","forced_long","","8","simple_dissimilar","images/stimuli/spore_stims/simple_13_A_b.gif","","","","",""
"","null","html-keyboard-response","105","601948","0.0-25.0-0.2","SS1618365777258","","","null","","","","","","<p><img src= images/blank.png width =""600"" height = ""600"" style=""position:fixed;top:50%; left:50%; transform: translate(-50%, -50%); border:5px solid black"">","","","","","","","",""
"","753.0749999997206","sequential-stimulus-presentation-old","106","603204","0.0-25.0-1.2","SS1618365777258","trial","","40","500","1253.0749999997206","images/stimuli/spore_stims/simple_10_A_a.gif","images/stimuli/spore_stims/simple_13_A_b.gif","forced_long","","8","simple_dissimilar","images/stimuli/spore_stims/simple_13_A_b.gif","","","","",""
"","null","html-keyboard-response","107","604278","0.0-25.0-0.3","SS1618365777258","","","null","","","","","","<p><img src= images/blank.png width =""600"" height = ""600"" style=""position:fixed;top:50%; left:50%; transform: translate(-50%, -50%); border:5px solid black"">","","","","","","","",""
"","467.9550000000745","sequential-stimulus-presentation-old","108","605249","0.0-25.0-1.3","SS1618365777258","trial","","40","500","967.9550000000745","images/stimuli/spore_stims/simple_10_A_a.gif","images/stimuli/spore_stims/simple_13_A_b.gif","forced_long","","8","simple_dissimilar","images/stimuli/spore_stims/simple_13_A_b.gif","","","","",""
"","null","html-keyboard-response","109","606134","0.0-25.0-0.4","SS1618365777258","","","null","","","","","","<p><img src= images/blank.png width =""600"" height = ""600"" style=""position:fixed;top:50%; left:50%; transform: translate(-50%, -50%); border:5px solid black"">","","","","","","","",""
"","1205.7900000000373","sequential-stimulus-presentation-old","110","607843","0.0-25.0-1.4","SS1618365777258","trial","","40","500","1705.7900000000373","images/stimuli/spore_stims/simple_10_A_a.gif","images/stimuli/spore_stims/simple_13_A_b.gif","forced_long","","8","simple_dissimilar","images/stimuli/spore_stims/simple_13_A_b.gif","","","","",""
"","null","html-keyboard-response","111","608948","0.0-25.0-0.5","SS1618365777258","","","null","","","","","","<p><img src= images/blank.png width =""600"" height = ""600"" style=""position:fixed;top:50%; left:50%; transform: translate(-50%, -50%); border:5px solid black"">","","","","","","","",""
"","1333.4500000000698","sequential-stimulus-presentation-old","112","610784","0.0-25.0-1.5","SS1618365777258","trial","","40","500","1833.4500000000698","images/stimuli/spore_stims/simple_10_A_a.gif","images/stimuli/spore_stims/simple_13_A_b.gif","forced_long","","8","simple_dissimilar","images/stimuli/spore_stims/simple_13_A_b.gif","","","","",""
"","3047.3649999998743","survey-multi-choice","113","613834","0.0-26.0","SS1618365777258","math_question","","","","","","","","","","","","{""Q0"":""15""}","[0]","15","",""
"","null","html-keyboard-response","114","614668","0.0-27.0-0.0","SS1618365777258","","","null","","","","","","<p><img src= images/blank.png width =""600"" height = ""600"" style=""position:fixed;top:50%; left:50%; transform: translate(-50%, -50%); border:5px solid black"">","","","","","","","",""
"","641.5600000000559","sequential-stimulus-presentation-old","115","615814","0.0-27.0-1.0","SS1618365777258","trial","","40","500","1141.5600000000559","images/stimuli/spore_stims/simple_11_A_b.gif","images/stimuli/spore_stims/simple_14_A_a.gif","self_paced","","9","simple_dissimilar","images/stimuli/spore_stims/simple_14_A_a.gif","","","","",""
"","null","html-keyboard-response","116","616673","0.0-27.0-0.1","SS1618365777258","","","null","","","","","","<p><img src= images/blank.png width =""600"" height = ""600"" style=""position:fixed;top:50%; left:50%; transform: translate(-50%, -50%); border:5px solid black"">","","","","","","","",""
"","1210.3999999999069","sequential-stimulus-presentation-old","117","618387","0.0-27.0-1.1","SS1618365777258","trial","","40","500","1710.3999999999069","images/stimuli/spore_stims/simple_11_A_b.gif","images/stimuli/spore_stims/simple_14_A_a.gif","self_paced","","9","simple_dissimilar","images/stimuli/spore_stims/simple_14_A_a.gif","","","","",""
"","null","html-keyboard-response","118","619359","0.0-27.0-0.2","SS1618365777258","","","null","","","","","","<p><img src= images/blank.png width =""600"" height = ""600"" style=""position:fixed;top:50%; left:50%; transform: translate(-50%, -50%); border:5px solid black"">","","","","","","","",""
"","5879.354999999516","sequential-stimulus-presentation-old","119","625743","0.0-27.0-1.2","SS1618365777258","trial","","40","500","6379.354999999516","images/stimuli/spore_stims/simple_11_A_b.gif","images/stimuli/spore_stims/simple_14_A_a.gif","self_paced","","9","simple_dissimilar","images/stimuli/spore_stims/simple_14_A_a.gif","","","","",""
"","null","html-keyboard-response","120","626592","0.0-27.0-0.3","SS1618365777258","","","null","","","","","","<p><img src= images/blank.png width =""600"" height = ""600"" style=""position:fixed;top:50%; left:50%; transform: translate(-50%, -50%); border:5px solid black"">","","","","","","","",""
"","1742.949999999837","sequential-stimulus-presentation-old","121","628839","0.0-27.0-1.3","SS1618365777258","trial","","40","500","2242.949999999837","images/stimuli/spore_stims/simple_11_A_b.gif","images/stimuli/spore_stims/simple_14_A_a.gif","self_paced","","9","simple_dissimilar","images/stimuli/spore_stims/simple_14_A_a.gif","","","","",""
"","null","html-keyboard-response","122","630108","0.0-27.0-0.4","SS1618365777258","","","null","","","","","","<p><img src= images/blank.png width =""600"" height = ""600"" style=""position:fixed;top:50%; left:50%; transform: translate(-50%, -50%); border:5px solid black"">","","","","","","","",""
"","2568.7750000001397","sequential-stimulus-presentation-old","123","633181","0.0-27.0-1.4","SS1618365777258","trial","","40","500","3068.7750000001397","images/stimuli/spore_stims/simple_11_A_b.gif","images/stimuli/spore_stims/simple_14_A_a.gif","self_paced","","9","simple_dissimilar","images/stimuli/spore_stims/simple_11_A_b.gif","","","","",""
"","null","html-keyboard-response","124","634165","0.0-27.0-0.5","SS1618365777258","","","null","","","","","","<p><img src= images/blank.png width =""600"" height = ""600"" style=""position:fixed;top:50%; left:50%; transform: translate(-50%, -50%); border:5px solid black"">","","","","","","","",""
"","2363.734999999986","sequential-stimulus-presentation-old","125","637033","0.0-27.0-1.5","SS1618365777258","trial","","40","500","2863.734999999986","images/stimuli/spore_stims/simple_11_A_b.gif","images/stimuli/spore_stims/simple_14_A_a.gif","self_paced","","9","simple_dissimilar","images/stimuli/spore_stims/simple_11_A_b.gif","","","","",""
"","3014.230000000214","survey-multi-choice","126","640051","0.0-28.0","SS1618365777258","math_question","","","","","","","","","","","","{""Q0"":""11""}","[0]","11","",""
"","null","html-keyboard-response","127","641269","0.0-29.0-0.0","SS1618365777258","","","null","","","","","","<p><img src= images/blank.png width =""600"" height = ""600"" style=""position:fixed;top:50%; left:50%; transform: translate(-50%, -50%); border:5px solid black"">","","","","","","","",""
"","14818.489999999641","sequential-stimulus-presentation-old","128","662082","0.0-29.0-1.0","SS1618365777258","trial","","40","500","15318.489999999641","images/stimuli/spore_stims/complex_07_A_a.gif","images/stimuli/spore_stims/complex_04_A_b.gif","forced_long","","10","complex_dissimilar","images/stimuli/spore_stims/complex_04_A_b.gif","","","","",""
"","null","html-keyboard-response","129","663349","0.0-29.0-0.1","SS1618365777258","","","null","","","","","","<p><img src= images/blank.png width =""600"" height = ""600"" style=""position:fixed;top:50%; left:50%; transform: translate(-50%, -50%); border:5px solid black"">","","","","","","","",""
"","2582.644999999902","sequential-stimulus-presentation-old","130","666438","0.0-29.0-1.1","SS1618365777258","trial","","40","500","3082.644999999902","images/stimuli/spore_stims/complex_07_A_a.gif","images/stimuli/spore_stims/complex_04_A_b.gif","forced_long","","10","complex_dissimilar","images/stimuli/spore_stims/complex_07_A_a.gif","","","","",""
"","null","html-keyboard-response","131","667306","0.0-29.0-0.2","SS1618365777258","","","null","","","","","","<p><img src= images/blank.png width =""600"" height = ""600"" style=""position:fixed;top:50%; left:50%; transform: translate(-50%, -50%); border:5px solid black"">","","","","","","","",""
"","2032.0949999995064","sequential-stimulus-presentation-old","132","669843","0.0-29.0-1.2","SS1618365777258","trial","","40","500","2532.0949999995064","images/stimuli/spore_stims/complex_07_A_a.gif","images/stimuli/spore_stims/complex_04_A_b.gif","forced_long","","10","complex_dissimilar","images/stimuli/spore_stims/complex_04_A_b.gif","","","","",""
"","null","html-keyboard-response","133","671116","0.0-29.0-0.3","SS1618365777258","","","null","","","","","","<p><img src= images/blank.png width =""600"" height = ""600"" style=""position:fixed;top:50%; left:50%; transform: translate(-50%, -50%); border:5px solid black"">","","","","","","","",""
"","2027.9899999999907","sequential-stimulus-presentation-old","134","673648","0.0-29.0-1.3","SS1618365777258","trial","","40","500","2527.9899999999907","images/stimuli/spore_stims/complex_07_A_a.gif","images/stimuli/spore_stims/complex_04_A_b.gif","forced_long","","10","complex_dissimilar","images/stimuli/spore_stims/complex_07_A_a.gif","","","","",""
"","4232.219999999856","survey-multi-choice","135","677883","0.0-30.0","SS1618365777258","math_question","","","","","","","","","","","","{""Q0"":""15""}","[0]","15","",""
"","null","html-keyboard-response","136","679271","0.0-31.0-0.0","SS1618365777258","","","null","","","","","","<p><img src= images/blank.png width =""600"" height = ""600"" style=""position:fixed;top:50%; left:50%; transform: translate(-50%, -50%); border:5px solid black"">","","","","","","","",""
"","44135.96500000043","sequential-stimulus-presentation-old","137","728411","0.0-31.0-1.0","SS1618365777258","trial","","40","500","44635.96500000043","images/stimuli/spore_stims/simple_06_A_b.gif","images/stimuli/spore_stims/simple_20_A_a.gif","forced_long","","11","simple_dissimilar","images/stimuli/spore_stims/simple_20_A_a.gif","","","","",""
"","null","html-keyboard-response","138","729704","0.0-31.0-0.1","SS1618365777258","","","null","","","","","","<p><img src= images/blank.png width =""600"" height = ""600"" style=""position:fixed;top:50%; left:50%; transform: translate(-50%, -50%); border:5px solid black"">","","","","","","","",""
"","1382.7600000000093","sequential-stimulus-presentation-old","139","731593","0.0-31.0-1.1","SS1618365777258","trial","","40","500","1882.7600000000093","images/stimuli/spore_stims/simple_06_A_b.gif","images/stimuli/spore_stims/simple_20_A_a.gif","forced_long","","11","simple_dissimilar","images/stimuli/spore_stims/simple_20_A_a.gif","","","","",""
"","null","html-keyboard-response","140","732827","0.0-31.0-0.2","SS1618365777258","","","null","","","","","","<p><img src= images/blank.png width =""600"" height = ""600"" style=""position:fixed;top:50%; left:50%; transform: translate(-50%, -50%); border:5px solid black"">","","","","","","","",""
"","674.9749999999767","sequential-stimulus-presentation-old","141","734015","0.0-31.0-1.2","SS1618365777258","trial","","40","500","1174.9749999999767","images/stimuli/spore_stims/simple_06_A_b.gif","images/stimuli/spore_stims/simple_20_A_a.gif","forced_long","","11","simple_dissimilar","images/stimuli/spore_stims/simple_06_A_b.gif","","","","",""
"","null","html-keyboard-response","142","735149","0.0-31.0-0.3","SS1618365777258","","","null","","","","","","<p><img src= images/blank.png width =""600"" height = ""600"" style=""position:fixed;top:50%; left:50%; transform: translate(-50%, -50%); border:5px solid black"">","","","","","","","",""
"","787.1550000000279","sequential-stimulus-presentation-old","143","736447","0.0-31.0-1.3","SS1618365777258","trial","","40","500","1287.155000000028","images/stimuli/spore_stims/simple_06_A_b.gif","images/stimuli/spore_stims/simple_20_A_a.gif","forced_long","","11","simple_dissimilar","images/stimuli/spore_stims/simple_20_A_a.gif","","","","",""
"","null","html-keyboard-response","144","737307","0.0-31.0-0.4","SS1618365777258","","","null","","","","","","<p><img src= images/blank.png width =""600"" height = ""600"" style=""position:fixed;top:50%; left:50%; transform: translate(-50%, -50%); border:5px solid black"">","","","","","","","",""
"","755.2299999997485","sequential-stimulus-presentation-old","145","738566","0.0-31.0-1.4","SS1618365777258","trial","","40","500","1255.2299999997485","images/stimuli/spore_stims/simple_06_A_b.gif","images/stimuli/spore_stims/simple_20_A_a.gif","forced_long","","11","simple_dissimilar","images/stimuli/spore_stims/simple_06_A_b.gif","","","","",""
"[{""page_index"":0,""viewing_time"":4704.9550000000745}]","4705.185000000172","instructions","146","743276","0.0-32.0","SS1618365777258","instructions","","","","","","","","","","","","","","","",""
"","7388.010000000126","survey-likert","147","750668","0.0-33.0","SS1618365777258","similarity_question","","","","","","","","","","","","{""Q0"":2}","[0]","","images/stimuli/spore_stims/complex_04_A_b.gif","images/stimuli/spore_stims/complex_07_A_a.gif"
"","4235.454999999958","survey-likert","148","754908","0.0-34.0","SS1618365777258","similarity_question","","","","","","","","","","","","{""Q0"":3}","[0]","","images/stimuli/spore_stims/complex_05_A_a.gif","images/stimuli/spore_stims/complex_20_A_b.gif"
"","4779.930000000168","survey-likert","149","759692","0.0-35.0","SS1618365777258","similarity_question","","","","","","","","","","","","{""Q0"":5}","[0]","","images/stimuli/spore_stims/simple_06_A_b.gif","images/stimuli/spore_stims/simple_20_A_a.gif"
"","2819.3900000001304","survey-likert","150","762516","0.0-36.0","SS1618365777258","similarity_question","","","","","","","","","","","","{""Q0"":5}","[0]","","images/stimuli/spore_stims/simple_13_A_b.gif","images/stimuli/spore_stims/simple_10_A_a.gif"
"","2308.694999999716","survey-likert","151","764828","0.0-37.0","SS1618365777258","similarity_question","","","","","","","","","","","","{""Q0"":2}","[0]","","images/stimuli/spore_stims/simple_01_A_a.gif","images/stimuli/spore_stims/simple_18_A_b.gif"
"","2291.4649999997346","survey-likert","152","767124","0.0-38.0","SS1618365777258","similarity_question","","","","","","","","","","","","{""Q0"":5}","[0]","","images/stimuli/spore_stims/complex_10_A_b.gif","images/stimuli/spore_stims/complex_03_A_a.gif"
"","2163.82500000007","survey-likert","153","769292","0.0-39.0","SS1618365777258","similarity_question","","","","","","","","","","","","{""Q0"":4}","[0]","","images/stimuli/spore_stims/simple_14_A_a.gif","images/stimuli/spore_stims/simple_11_A_b.gif"
"","2892.41500000027","survey-likert","154","772188","0.0-40.0","SS1618365777258","similarity_question","","","","","","","","","","","","{""Q0"":2}","[0]","","images/stimuli/spore_stims/complex_09_A_b.gif","images/stimuli/spore_stims/complex_19_A_a.gif"
"","3483.68499999959","survey-likert","155","775676","0.0-41.0","SS1618365777258","similarity_question","","","","","","","","","","","","{""Q0"":6}","[0]","","images/stimuli/spore_stims/simple_04_A_a.gif","images/stimuli/spore_stims/simple_15_A_b.gif"
"","2611.680000000051","survey-likert","156","778292","0.0-42.0","SS1618365777258","similarity_question","","","","","","","","","","","","{""Q0"":2}","[0]","","images/stimuli/spore_stims/complex_11_A_b.gif","images/stimuli/spore_stims/complex_16_A_a.gif"
"","3972.1549999999115","survey-likert","157","782268","0.0-43.0","SS1618365777258","similarity_question","","","","","","","","","","","","{""Q0"":2}","[0]","","images/stimuli/spore_stims/complex_15_A_a.gif","images/stimuli/spore_stims/complex_12_A_b.gif"
"","2371.9949999999953","survey-likert","158","784644","0.0-44.0","SS1618365777258","similarity_question","","","","","","","","","","","","{""Q0"":6}","[0]","","images/stimuli/spore_stims/simple_17_A_a.gif","images/stimuli/spore_stims/simple_10_A_b.gif"
"[{""page_index"":0,""viewing_time"":3123.185000000405}]","3123.4450000001816","instructions","159","787771","0.0-45.0","SS1618365777258","instructions","","","","","","","","","","","","","","","",""
"","4493.020000000368","survey-likert","160","792268","0.0-46.0","SS1618365777258","","","","","","","","","images/stimuli/spore_stims/simple_15_A_b.gif","","","","{""Q0"":2}","[0]","","",""
"","1827.640000000014","survey-likert","161","794100","0.0-47.0","SS1618365777258","","","","","","","","","images/stimuli/spore_stims/simple_01_A_a.gif","","","","{""Q0"":2}","[0]","","",""
"","1924.0649999997113","survey-likert","162","796028","0.0-48.0","SS1618365777258","","","","","","","","","images/stimuli/spore_stims/complex_19_A_a.gif","","","","{""Q0"":5}","[0]","","",""
"","4419.864999999874","survey-likert","163","800452","0.0-49.0","SS1618365777258","","","","","","","","","images/stimuli/spore_stims/simple_11_A_b.gif","","","","{""Q0"":0}","[0]","","",""
"","3924.2249999998603","survey-likert","164","804380","0.0-50.0","SS1618365777258","","","","","","","","","images/stimuli/spore_stims/complex_04_A_b.gif","","","","{""Q0"":4}","[0]","","",""
"","2139.8049999998184","survey-likert","165","806524","0.0-51.0","SS1618365777258","","","","","","","","","images/stimuli/spore_stims/complex_11_A_b.gif","","","","{""Q0"":3}","[0]","","",""
"","1963.0050000000047","survey-likert","166","808492","0.0-52.0","SS1618365777258","","","","","","","","","images/stimuli/spore_stims/complex_10_A_b.gif","","","","{""Q0"":4}","[0]","","",""
"","1852.1299999997718","survey-likert","167","810348","0.0-53.0","SS1618365777258","","","","","","","","","images/stimuli/spore_stims/simple_06_A_b.gif","","","","{""Q0"":2}","[0]","","",""
"","1956.4199999999255","survey-likert","168","812308","0.0-54.0","SS1618365777258","","","","","","","","","images/stimuli/spore_stims/simple_10_A_a.gif","","","","{""Q0"":1}","[0]","","",""
"","5115.614999999641","survey-likert","169","817428","0.0-55.0","SS1618365777258","","","","","","","","","images/stimuli/spore_stims/simple_10_A_b.gif","","","","{""Q0"":1}","[0]","","",""
"","2580.0849999996135","survey-likert","170","820012","0.0-56.0","SS1618365777258","","","","","","","","","images/stimuli/spore_stims/complex_12_A_b.gif","","","","{""Q0"":5}","[0]","","",""
"","2427.92499999993","survey-likert","171","822444","0.0-57.0","SS1618365777258","","","","","","","","","images/stimuli/spore_stims/complex_05_A_a.gif","","","","{""Q0"":4}","[0]","","",""
"[{""page_index"":0,""viewing_time"":3692.1599999996834}]","3692.384999999893","instructions","172","826139","0.0-58.0","SS1618365777258","instructions","","","","","","","","","","","","","","","",""
"","1851.9049999999115","demog-age","173","827996","0.0-59.0","SS1618365777258","","","","","","","","","","","","","{""age"":""21""}","","","",""
"","3712.2400000002235","demog-ethnic-US","174","831716","0.0-60.0","SS1618365777258","","","","","","","","","","","","","{""ethnicity"":[""Hispanic or Latino""]}","[0]","","",""
"","5603.439999999828","demog-gender-and-education","175","837324","0.0-61.0","SS1618365777258","","","","","","","","","","","","","{""gender"":""Male"",""education"":""High school diploma""}","[0,1]","","",""
"","6666.520000000135","survey-text","176","843996","0.0-62.0","SS1618365777258","feedback","","","","","","","","","","","","{""Q0"":""no issues""}","","","",""
"[{""page_index"":0,""viewing_time"":4340.469999999623}]","4340.709999999846","instructions","177","848340","0.0-63.0","SS1618365777258","instructions","","","","","","","","","","","","","","","",""
