"view_history","rt","trial_type","trial_index","time_elapsed","internal_node_id","subject","stimulus_type","trial_stimulus","key_press","minimum_viewing_duration","trial_looking_time","block_deviant","block_background","exposure_type","stimulus","block_number","block_type","stimulus_displayed","responses","question_order","math_correct_answer","stimulus_left","stimulus_right"
"[{""page_index"":0,""viewing_time"":10219.789999999193}]","10220.39500000028","instructions","0","10222","0.0-0.0","SS1618435643646","","","","","","","","","","","","","","","","",""
"[{""page_index"":0,""viewing_time"":42191.72499999877},{""page_index"":1,""viewing_time"":4730.000000001382}]","46921.83499999919","instructions","1","59885","0.0-1.0","SS1618435643646","instructions","","","","","","","","","","","","","","","",""
"","10334.71499999905","sequential-stimulus-presentation-old","2","70726","0.0-2.0","SS1618435643646","","","40","500","10834.71499999905","null","null","self_paced","","","","","","","","",""
"","6244.855000000825","sequential-stimulus-presentation-old","3","77475","0.0-3.0","SS1618435643646","","","40","500","6744.855000000825","null","null","self_paced","","","","","","","","",""
"[{""page_index"":0,""viewing_time"":21073.37499999994}]","21073.58000000022","instructions","4","98549","0.0-4.0","SS1618435643646","instructions","","","","","","","","","","","","","","","",""
"","1259.3550000001414","sequential-stimulus-presentation-old","5","104811","0.0-5.0","SS1618435643646","","","40","500","1759.3550000001414","null","null","forced_long","","","","","","","","",""
"","3963.5249999992084","sequential-stimulus-presentation-old","6","108827","0.0-6.0","SS1618435643646","","","40","50","4013.5249999992084","null","null","forced_long","","","","","","","","",""
"[{""page_index"":0,""viewing_time"":5783.599999998842}]","5783.7949999993725","instructions","7","114612","0.0-7.0","SS1618435643646","instructions","","","","","","","","","","","","","","","",""
"[{""page_index"":0,""viewing_time"":8939.304999999891},{""page_index"":1,""viewing_time"":9771.484999999288},{""page_index"":2,""viewing_time"":4091.7950000002747},{""page_index"":3,""viewing_time"":1798.0900000002293},{""page_index"":4,""viewing_time"":1164.0000000006694}]","25764.794999999125","instructions","8","140377","0.0-8.0","SS1618435643646","instructions","","","","","","","","","","","","","","","",""
"","null","html-keyboard-response","9","141628","0.0-9.0-0.0","SS1618435643646","","","null","","","","","","<p><img src= images/blank.png width =""600"" height = ""600"" style=""position:fixed;top:50%; left:50%; transform: translate(-50%, -50%); border:5px solid black"">","","","","","","","",""
"","780.8599999989383","sequential-stimulus-presentation-old","10","147412","0.0-9.0-1.0","SS1618435643646","trial","","40","500","1280.8599999989383","images/stimuli/spore_stims/complex_01_A_b.gif","images/stimuli/spore_stims/complex_20_A_a.gif","forced_long","","0","complex_dissimilar","images/stimuli/spore_stims/complex_20_A_a.gif","","","","",""
"","null","html-keyboard-response","11","148502","0.0-9.0-0.1","SS1618435643646","","","null","","","","","","<p><img src= images/blank.png width =""600"" height = ""600"" style=""position:fixed;top:50%; left:50%; transform: translate(-50%, -50%); border:5px solid black"">","","","","","","","",""
"","5638.399999999849","sequential-stimulus-presentation-old","12","154651","0.0-9.0-1.1","SS1618435643646","trial","","40","500","6138.399999999849","images/stimuli/spore_stims/complex_01_A_b.gif","images/stimuli/spore_stims/complex_20_A_a.gif","forced_long","","0","complex_dissimilar","images/stimuli/spore_stims/complex_01_A_b.gif","","","","",""
"","null","html-keyboard-response","13","155552","0.0-9.0-0.2","SS1618435643646","","","null","","","","","","<p><img src= images/blank.png width =""600"" height = ""600"" style=""position:fixed;top:50%; left:50%; transform: translate(-50%, -50%); border:5px solid black"">","","","","","","","",""
"","3334.6650000003283","sequential-stimulus-presentation-old","14","159403","0.0-9.0-1.2","SS1618435643646","trial","","40","500","3834.6650000003283","images/stimuli/spore_stims/complex_01_A_b.gif","images/stimuli/spore_stims/complex_20_A_a.gif","forced_long","","0","complex_dissimilar","images/stimuli/spore_stims/complex_20_A_a.gif","","","","",""
"","null","html-keyboard-response","15","160688","0.0-9.0-0.3","SS1618435643646","","","null","","","","","","<p><img src= images/blank.png width =""600"" height = ""600"" style=""position:fixed;top:50%; left:50%; transform: translate(-50%, -50%); border:5px solid black"">","","","","","","","",""
"","2668.9100000003236","sequential-stimulus-presentation-old","16","163859","0.0-9.0-1.3","SS1618435643646","trial","","40","500","3168.9100000003236","images/stimuli/spore_stims/complex_01_A_b.gif","images/stimuli/spore_stims/complex_20_A_a.gif","forced_long","","0","complex_dissimilar","images/stimuli/spore_stims/complex_20_A_a.gif","","","","",""
"","null","html-keyboard-response","17","165159","0.0-9.0-0.4","SS1618435643646","","","null","","","","","","<p><img src= images/blank.png width =""600"" height = ""600"" style=""position:fixed;top:50%; left:50%; transform: translate(-50%, -50%); border:5px solid black"">","","","","","","","",""
"","1261.1649999998917","sequential-stimulus-presentation-old","18","166922","0.0-9.0-1.4","SS1618435643646","trial","","40","500","1761.1649999998917","images/stimuli/spore_stims/complex_01_A_b.gif","images/stimuli/spore_stims/complex_20_A_a.gif","forced_long","","0","complex_dissimilar","images/stimuli/spore_stims/complex_20_A_a.gif","","","","",""
"","null","html-keyboard-response","19","168193","0.0-9.0-0.5","SS1618435643646","","","null","","","","","","<p><img src= images/blank.png width =""600"" height = ""600"" style=""position:fixed;top:50%; left:50%; transform: translate(-50%, -50%); border:5px solid black"">","","","","","","","",""
"","3307.654999998689","sequential-stimulus-presentation-old","20","172003","0.0-9.0-1.5","SS1618435643646","trial","","40","500","3807.654999998689","images/stimuli/spore_stims/complex_01_A_b.gif","images/stimuli/spore_stims/complex_20_A_a.gif","forced_long","","0","complex_dissimilar","images/stimuli/spore_stims/complex_01_A_b.gif","","","","",""
"","4084.489999999263","survey-multi-choice","21","176089","0.0-10.0","SS1618435643646","math_question","","","","","","","","","","","","{""Q0"":""12""}","[0]","12","",""
"","null","html-keyboard-response","22","177169","0.0-11.0-0.0","SS1618435643646","","","null","","","","","","<p><img src= images/blank.png width =""600"" height = ""600"" style=""position:fixed;top:50%; left:50%; transform: translate(-50%, -50%); border:5px solid black"">","","","","","","","",""
"","2139.595000000554","sequential-stimulus-presentation-old","23","179371","0.0-11.0-1.0","SS1618435643646","trial","","40","500","2639.595000000554","images/stimuli/spore_stims/complex_16_A_a.gif","images/stimuli/spore_stims/complex_13_A_b.gif","forced_short","","1","complex_dissimilar","images/stimuli/spore_stims/complex_13_A_b.gif","","","","",""
"","null","html-keyboard-response","24","180497","0.0-11.0-0.1","SS1618435643646","","","null","","","","","","<p><img src= images/blank.png width =""600"" height = ""600"" style=""position:fixed;top:50%; left:50%; transform: translate(-50%, -50%); border:5px solid black"">","","","","","","","",""
"","2783.9400000011665","sequential-stimulus-presentation-old","25","183795","0.0-11.0-1.1","SS1618435643646","trial","","40","500","3283.9400000011665","images/stimuli/spore_stims/complex_16_A_a.gif","images/stimuli/spore_stims/complex_13_A_b.gif","forced_short","","1","complex_dissimilar","images/stimuli/spore_stims/complex_13_A_b.gif","","","","",""
"","null","html-keyboard-response","26","184882","0.0-11.0-0.2","SS1618435643646","","","null","","","","","","<p><img src= images/blank.png width =""600"" height = ""600"" style=""position:fixed;top:50%; left:50%; transform: translate(-50%, -50%); border:5px solid black"">","","","","","","","",""
"","3069.1850000002887","sequential-stimulus-presentation-old","27","188458","0.0-11.0-1.2","SS1618435643646","trial","","40","500","3569.1850000002887","images/stimuli/spore_stims/complex_16_A_a.gif","images/stimuli/spore_stims/complex_13_A_b.gif","forced_short","","1","complex_dissimilar","images/stimuli/spore_stims/complex_16_A_a.gif","","","","",""
"","null","html-keyboard-response","28","189596","0.0-11.0-0.3","SS1618435643646","","","null","","","","","","<p><img src= images/blank.png width =""600"" height = ""600"" style=""position:fixed;top:50%; left:50%; transform: translate(-50%, -50%); border:5px solid black"">","","","","","","","",""
"","869.3549999989045","sequential-stimulus-presentation-old","29","190978","0.0-11.0-1.3","SS1618435643646","trial","","40","500","1369.3549999989045","images/stimuli/spore_stims/complex_16_A_a.gif","images/stimuli/spore_stims/complex_13_A_b.gif","forced_short","","1","complex_dissimilar","images/stimuli/spore_stims/complex_13_A_b.gif","","","","",""
"","null","html-keyboard-response","30","192261","0.0-11.0-0.4","SS1618435643646","","","null","","","","","","<p><img src= images/blank.png width =""600"" height = ""600"" style=""position:fixed;top:50%; left:50%; transform: translate(-50%, -50%); border:5px solid black"">","","","","","","","",""
"","1479.0950000006123","sequential-stimulus-presentation-old","31","194243","0.0-11.0-1.4","SS1618435643646","trial","","40","500","1979.0950000006123","images/stimuli/spore_stims/complex_16_A_a.gif","images/stimuli/spore_stims/complex_13_A_b.gif","forced_short","","1","complex_dissimilar","images/stimuli/spore_stims/complex_16_A_a.gif","","","","",""
"","3173.0900000002002","survey-multi-choice","32","197417","0.0-12.0","SS1618435643646","math_question","","","","","","","","","","","","{""Q0"":""3""}","[0]","3","",""
"","null","html-keyboard-response","33","198358","0.0-13.0-0.0","SS1618435643646","","","null","","","","","","<p><img src= images/blank.png width =""600"" height = ""600"" style=""position:fixed;top:50%; left:50%; transform: translate(-50%, -50%); border:5px solid black"">","","","","","","","",""
"","2909.854999999865","sequential-stimulus-presentation-old","34","201771","0.0-13.0-1.0","SS1618435643646","trial","","40","500","3409.854999999865","images/stimuli/spore_stims/complex_14_A_b.gif","images/stimuli/spore_stims/complex_01_A_a.gif","self_paced","","2","complex_dissimilar","images/stimuli/spore_stims/complex_01_A_a.gif","","","","",""
"","null","html-keyboard-response","35","202862","0.0-13.0-0.1","SS1618435643646","","","null","","","","","","<p><img src= images/blank.png width =""600"" height = ""600"" style=""position:fixed;top:50%; left:50%; transform: translate(-50%, -50%); border:5px solid black"">","","","","","","","",""
"","382.5600000000268","sequential-stimulus-presentation-old","36","203747","0.0-13.0-1.1","SS1618435643646","trial","","40","500","882.5600000000268","images/stimuli/spore_stims/complex_14_A_b.gif","images/stimuli/spore_stims/complex_01_A_a.gif","self_paced","","2","complex_dissimilar","images/stimuli/spore_stims/complex_01_A_a.gif","","","","",""
"","null","html-keyboard-response","37","204813","0.0-13.0-0.2","SS1618435643646","","","null","","","","","","<p><img src= images/blank.png width =""600"" height = ""600"" style=""position:fixed;top:50%; left:50%; transform: translate(-50%, -50%); border:5px solid black"">","","","","","","","",""
"","1446.340000000433","sequential-stimulus-presentation-old","38","206763","0.0-13.0-1.2","SS1618435643646","trial","","40","500","1946.340000000433","images/stimuli/spore_stims/complex_14_A_b.gif","images/stimuli/spore_stims/complex_01_A_a.gif","self_paced","","2","complex_dissimilar","images/stimuli/spore_stims/complex_01_A_a.gif","","","","",""
"","null","html-keyboard-response","39","207654","0.0-13.0-0.3","SS1618435643646","","","null","","","","","","<p><img src= images/blank.png width =""600"" height = ""600"" style=""position:fixed;top:50%; left:50%; transform: translate(-50%, -50%); border:5px solid black"">","","","","","","","",""
"","579.809999999241","sequential-stimulus-presentation-old","40","208738","0.0-13.0-1.3","SS1618435643646","trial","","40","500","1079.809999999241","images/stimuli/spore_stims/complex_14_A_b.gif","images/stimuli/spore_stims/complex_01_A_a.gif","self_paced","","2","complex_dissimilar","images/stimuli/spore_stims/complex_01_A_a.gif","","","","",""
"","3737.2950000008277","survey-multi-choice","41","212477","0.0-14.0","SS1618435643646","math_question","","","","","","","","","","","","{""Q0"":""10""}","[0]","10","",""
"","null","html-keyboard-response","42","213530","0.0-15.0-0.0","SS1618435643646","","","null","","","","","","<p><img src= images/blank.png width =""600"" height = ""600"" style=""position:fixed;top:50%; left:50%; transform: translate(-50%, -50%); border:5px solid black"">","","","","","","","",""
"","574.2449999997916","sequential-stimulus-presentation-old","43","219107","0.0-15.0-1.0","SS1618435643646","trial","","40","500","1074.2449999997916","images/stimuli/spore_stims/simple_20_A_a.gif","images/stimuli/spore_stims/simple_02_A_b.gif","forced_long","","3","simple_dissimilar","images/stimuli/spore_stims/simple_02_A_b.gif","","","","",""
"","null","html-keyboard-response","44","220268","0.0-15.0-0.1","SS1618435643646","","","null","","","","","","<p><img src= images/blank.png width =""600"" height = ""600"" style=""position:fixed;top:50%; left:50%; transform: translate(-50%, -50%); border:5px solid black"">","","","","","","","",""
"","702.5649999995949","sequential-stimulus-presentation-old","45","221474","0.0-15.0-1.1","SS1618435643646","trial","","40","500","1202.5649999995949","images/stimuli/spore_stims/simple_20_A_a.gif","images/stimuli/spore_stims/simple_02_A_b.gif","forced_long","","3","simple_dissimilar","images/stimuli/spore_stims/simple_02_A_b.gif","","","","",""
"","null","html-keyboard-response","46","222328","0.0-15.0-0.2","SS1618435643646","","","null","","","","","","<p><img src= images/blank.png width =""600"" height = ""600"" style=""position:fixed;top:50%; left:50%; transform: translate(-50%, -50%); border:5px solid black"">","","","","","","","",""
"","684.6400000013236","sequential-stimulus-presentation-old","47","223514","0.0-15.0-1.2","SS1618435643646","trial","","40","500","1184.6400000013236","images/stimuli/spore_stims/simple_20_A_a.gif","images/stimuli/spore_stims/simple_02_A_b.gif","forced_long","","3","simple_dissimilar","images/stimuli/spore_stims/simple_02_A_b.gif","","","","",""
"","null","html-keyboard-response","48","224448","0.0-15.0-0.3","SS1618435643646","","","null","","","","","","<p><img src= images/blank.png width =""600"" height = ""600"" style=""position:fixed;top:50%; left:50%; transform: translate(-50%, -50%); border:5px solid black"">","","","","","","","",""
"","396.94499999861","sequential-stimulus-presentation-old","49","225347","0.0-15.0-1.3","SS1618435643646","trial","","40","500","896.94499999861","images/stimuli/spore_stims/simple_20_A_a.gif","images/stimuli/spore_stims/simple_02_A_b.gif","forced_long","","3","simple_dissimilar","images/stimuli/spore_stims/simple_02_A_b.gif","","","","",""
"","null","html-keyboard-response","50","226389","0.0-15.0-0.4","SS1618435643646","","","null","","","","","","<p><img src= images/blank.png width =""600"" height = ""600"" style=""position:fixed;top:50%; left:50%; transform: translate(-50%, -50%); border:5px solid black"">","","","","","","","",""
"","270.5750000004482","sequential-stimulus-presentation-old","51","227163","0.0-15.0-1.4","SS1618435643646","trial","","40","500","770.5750000004482","images/stimuli/spore_stims/simple_20_A_a.gif","images/stimuli/spore_stims/simple_02_A_b.gif","forced_long","","3","simple_dissimilar","images/stimuli/spore_stims/simple_02_A_b.gif","","","","",""
"","2593.030000000028","survey-multi-choice","52","229757","0.0-16.0","SS1618435643646","math_question","","","","","","","","","","","","{""Q0"":""9""}","[0]","9","",""
"","null","html-keyboard-response","53","231007","0.0-17.0-0.0","SS1618435643646","","","null","","","","","","<p><img src= images/blank.png width =""600"" height = ""600"" style=""position:fixed;top:50%; left:50%; transform: translate(-50%, -50%); border:5px solid black"">","","","","","","","",""
"","2966.3199999995413","sequential-stimulus-presentation-old","54","234027","0.0-17.0-1.0","SS1618435643646","trial","","40","500","3466.3199999995413","images/stimuli/spore_stims/complex_11_A_b.gif","images/stimuli/spore_stims/complex_04_A_a.gif","forced_short","","4","complex_dissimilar","images/stimuli/spore_stims/complex_04_A_a.gif","","","","",""
"","null","html-keyboard-response","55","234851","0.0-17.0-0.1","SS1618435643646","","","null","","","","","","<p><img src= images/blank.png width =""600"" height = ""600"" style=""position:fixed;top:50%; left:50%; transform: translate(-50%, -50%); border:5px solid black"">","","","","","","","",""
"","1761.039999999426","sequential-stimulus-presentation-old","56","237115","0.0-17.0-1.1","SS1618435643646","trial","","40","500","2261.039999999426","images/stimuli/spore_stims/complex_11_A_b.gif","images/stimuli/spore_stims/complex_04_A_a.gif","forced_short","","4","complex_dissimilar","images/stimuli/spore_stims/complex_04_A_a.gif","","","","",""
"","null","html-keyboard-response","57","238187","0.0-17.0-0.2","SS1618435643646","","","null","","","","","","<p><img src= images/blank.png width =""600"" height = ""600"" style=""position:fixed;top:50%; left:50%; transform: translate(-50%, -50%); border:5px solid black"">","","","","","","","",""
"","721.4999999996508","sequential-stimulus-presentation-old","58","239419","0.0-17.0-1.2","SS1618435643646","trial","","40","500","1221.4999999996508","images/stimuli/spore_stims/complex_11_A_b.gif","images/stimuli/spore_stims/complex_04_A_a.gif","forced_short","","4","complex_dissimilar","images/stimuli/spore_stims/complex_04_A_a.gif","","","","",""
"","null","html-keyboard-response","59","240578","0.0-17.0-0.3","SS1618435643646","","","null","","","","","","<p><img src= images/blank.png width =""600"" height = ""600"" style=""position:fixed;top:50%; left:50%; transform: translate(-50%, -50%); border:5px solid black"">","","","","","","","",""
"","1201.02999999834","sequential-stimulus-presentation-old","60","242283","0.0-17.0-1.3","SS1618435643646","trial","","40","500","1701.02999999834","images/stimuli/spore_stims/complex_11_A_b.gif","images/stimuli/spore_stims/complex_04_A_a.gif","forced_short","","4","complex_dissimilar","images/stimuli/spore_stims/complex_04_A_a.gif","","","","",""
"","2953.2699999999604","survey-multi-choice","61","245237","0.0-18.0","SS1618435643646","math_question","","","","","","","","","","","","{""Q0"":""7""}","[0]","7","",""
"","null","html-keyboard-response","62","246363","0.0-19.0-0.0","SS1618435643646","","","null","","","","","","<p><img src= images/blank.png width =""600"" height = ""600"" style=""position:fixed;top:50%; left:50%; transform: translate(-50%, -50%); border:5px solid black"">","","","","","","","",""
"","942.6300000013725","sequential-stimulus-presentation-old","63","247368","0.0-19.0-1.0","SS1618435643646","trial","","40","500","1442.6300000013725","images/stimuli/spore_stims/simple_11_A_a.gif","images/stimuli/spore_stims/simple_07_A_b.gif","forced_short","","5","simple_dissimilar","images/stimuli/spore_stims/simple_07_A_b.gif","","","","",""
"","null","html-keyboard-response","64","248234","0.0-19.0-0.1","SS1618435643646","","","null","","","","","","<p><img src= images/blank.png width =""600"" height = ""600"" style=""position:fixed;top:50%; left:50%; transform: translate(-50%, -50%); border:5px solid black"">","","","","","","","",""
"","1386.3199999995995","sequential-stimulus-presentation-old","65","250137","0.0-19.0-1.1","SS1618435643646","trial","","40","500","1886.3199999995995","images/stimuli/spore_stims/simple_11_A_a.gif","images/stimuli/spore_stims/simple_07_A_b.gif","forced_short","","5","simple_dissimilar","images/stimuli/spore_stims/simple_07_A_b.gif","","","","",""
"","null","html-keyboard-response","66","251170","0.0-19.0-0.2","SS1618435643646","","","null","","","","","","<p><img src= images/blank.png width =""600"" height = ""600"" style=""position:fixed;top:50%; left:50%; transform: translate(-50%, -50%); border:5px solid black"">","","","","","","","",""
"","605.5850000011269","sequential-stimulus-presentation-old","67","252290","0.0-19.0-1.2","SS1618435643646","trial","","40","500","1105.585000001127","images/stimuli/spore_stims/simple_11_A_a.gif","images/stimuli/spore_stims/simple_07_A_b.gif","forced_short","","5","simple_dissimilar","images/stimuli/spore_stims/simple_07_A_b.gif","","","","",""
"","null","html-keyboard-response","68","253351","0.0-19.0-0.3","SS1618435643646","","","null","","","","","","<p><img src= images/blank.png width =""600"" height = ""600"" style=""position:fixed;top:50%; left:50%; transform: translate(-50%, -50%); border:5px solid black"">","","","","","","","",""
"","654.2300000000978","sequential-stimulus-presentation-old","69","254518","0.0-19.0-1.3","SS1618435643646","trial","","40","500","1154.2300000000978","images/stimuli/spore_stims/simple_11_A_a.gif","images/stimuli/spore_stims/simple_07_A_b.gif","forced_short","","5","simple_dissimilar","images/stimuli/spore_stims/simple_07_A_b.gif","","","","",""
"","null","html-keyboard-response","70","255653","0.0-19.0-0.4","SS1618435643646","","","null","","","","","","<p><img src= images/blank.png width =""600"" height = ""600"" style=""position:fixed;top:50%; left:50%; transform: translate(-50%, -50%); border:5px solid black"">","","","","","","","",""
"","551.5899999990943","sequential-stimulus-presentation-old","71","256722","0.0-19.0-1.4","SS1618435643646","trial","","40","500","1051.5899999990943","images/stimuli/spore_stims/simple_11_A_a.gif","images/stimuli/spore_stims/simple_07_A_b.gif","forced_short","","5","simple_dissimilar","images/stimuli/spore_stims/simple_07_A_b.gif","","","","",""
"","null","html-keyboard-response","72","257895","0.0-19.0-0.5","SS1618435643646","","","null","","","","","","<p><img src= images/blank.png width =""600"" height = ""600"" style=""position:fixed;top:50%; left:50%; transform: translate(-50%, -50%); border:5px solid black"">","","","","","","","",""
"","1325.7300000005052","sequential-stimulus-presentation-old","73","259735","0.0-19.0-1.5","SS1618435643646","trial","","40","500","1825.7300000005052","images/stimuli/spore_stims/simple_11_A_a.gif","images/stimuli/spore_stims/simple_07_A_b.gif","forced_short","","5","simple_dissimilar","images/stimuli/spore_stims/simple_11_A_a.gif","","","","",""
"","2796.555000000808","survey-multi-choice","74","262533","0.0-20.0","SS1618435643646","math_question","","","","","","","","","","","","{""Q0"":""3""}","[0]","3","",""
"","null","html-keyboard-response","75","263428","0.0-21.0-0.0","SS1618435643646","","","null","","","","","","<p><img src= images/blank.png width =""600"" height = ""600"" style=""position:fixed;top:50%; left:50%; transform: translate(-50%, -50%); border:5px solid black"">","","","","","","","",""
"","1575.1550000004354","sequential-stimulus-presentation-old","76","265517","0.0-21.0-1.0","SS1618435643646","trial","","40","500","2075.1550000004354","images/stimuli/spore_stims/complex_06_A_a.gif","images/stimuli/spore_stims/complex_17_A_b.gif","self_paced","","6","complex_dissimilar","images/stimuli/spore_stims/complex_17_A_b.gif","","","","",""
"","null","html-keyboard-response","77","266465","0.0-21.0-0.1","SS1618435643646","","","null","","","","","","<p><img src= images/blank.png width =""600"" height = ""600"" style=""position:fixed;top:50%; left:50%; transform: translate(-50%, -50%); border:5px solid black"">","","","","","","","",""
"","1307.7400000002235","sequential-stimulus-presentation-old","78","268277","0.0-21.0-1.1","SS1618435643646","trial","","40","500","1807.7400000002235","images/stimuli/spore_stims/complex_06_A_a.gif","images/stimuli/spore_stims/complex_17_A_b.gif","self_paced","","6","complex_dissimilar","images/stimuli/spore_stims/complex_17_A_b.gif","","","","",""
"","null","html-keyboard-response","79","269231","0.0-21.0-0.2","SS1618435643646","","","null","","","","","","<p><img src= images/blank.png width =""600"" height = ""600"" style=""position:fixed;top:50%; left:50%; transform: translate(-50%, -50%); border:5px solid black"">","","","","","","","",""
"","198.14499999850523","sequential-stimulus-presentation-old","80","269931","0.0-21.0-1.2","SS1618435643646","trial","","40","500","698.1449999985052","images/stimuli/spore_stims/complex_06_A_a.gif","images/stimuli/spore_stims/complex_17_A_b.gif","self_paced","","6","complex_dissimilar","images/stimuli/spore_stims/complex_17_A_b.gif","","","","",""
"","null","html-keyboard-response","81","271097","0.0-21.0-0.3","SS1618435643646","","","null","","","","","","<p><img src= images/blank.png width =""600"" height = ""600"" style=""position:fixed;top:50%; left:50%; transform: translate(-50%, -50%); border:5px solid black"">","","","","","","","",""
"","138.225000000617","sequential-stimulus-presentation-old","82","271739","0.0-21.0-1.3","SS1618435643646","trial","","40","500","638.225000000617","images/stimuli/spore_stims/complex_06_A_a.gif","images/stimuli/spore_stims/complex_17_A_b.gif","self_paced","","6","complex_dissimilar","images/stimuli/spore_stims/complex_17_A_b.gif","","","","",""
"","3246.619999999879","survey-multi-choice","83","274987","0.0-22.0","SS1618435643646","math_question","","","","","","","","","","","","{""Q0"":""13""}","[0]","13","",""
"","null","html-keyboard-response","84","276192","0.0-23.0-0.0","SS1618435643646","","","null","","","","","","<p><img src= images/blank.png width =""600"" height = ""600"" style=""position:fixed;top:50%; left:50%; transform: translate(-50%, -50%); border:5px solid black"">","","","","","","","",""
"","1651.734999999404","sequential-stimulus-presentation-old","85","278358","0.0-23.0-1.0","SS1618435643646","trial","","40","500","2151.734999999404","images/stimuli/spore_stims/simple_14_A_b.gif","images/stimuli/spore_stims/simple_15_A_a.gif","self_paced","","7","simple_dissimilar","images/stimuli/spore_stims/simple_15_A_a.gif","","","","",""
"","null","html-keyboard-response","86","279460","0.0-23.0-0.1","SS1618435643646","","","null","","","","","","<p><img src= images/blank.png width =""600"" height = ""600"" style=""position:fixed;top:50%; left:50%; transform: translate(-50%, -50%); border:5px solid black"">","","","","","","","",""
"","1464.3999999989755","sequential-stimulus-presentation-old","87","281427","0.0-23.0-1.1","SS1618435643646","trial","","40","500","1964.3999999989755","images/stimuli/spore_stims/simple_14_A_b.gif","images/stimuli/spore_stims/simple_15_A_a.gif","self_paced","","7","simple_dissimilar","images/stimuli/spore_stims/simple_14_A_b.gif","","","","",""
"","null","html-keyboard-response","88","282473","0.0-23.0-0.2","SS1618435643646","","","null","","","","","","<p><img src= images/blank.png width =""600"" height = ""600"" style=""position:fixed;top:50%; left:50%; transform: translate(-50%, -50%); border:5px solid black"">","","","","","","","",""
"","344.95500000048196","sequential-stimulus-presentation-old","89","283321","0.0-23.0-1.2","SS1618435643646","trial","","40","500","844.955000000482","images/stimuli/spore_stims/simple_14_A_b.gif","images/stimuli/spore_stims/simple_15_A_a.gif","self_paced","","7","simple_dissimilar","images/stimuli/spore_stims/simple_15_A_a.gif","","","","",""
"","null","html-keyboard-response","90","284262","0.0-23.0-0.3","SS1618435643646","","","null","","","","","","<p><img src= images/blank.png width =""600"" height = ""600"" style=""position:fixed;top:50%; left:50%; transform: translate(-50%, -50%); border:5px solid black"">","","","","","","","",""
"","84.2400000001071","sequential-stimulus-presentation-old","91","284860","0.0-23.0-1.3","SS1618435643646","trial","","40","500","584.2400000001071","images/stimuli/spore_stims/simple_14_A_b.gif","images/stimuli/spore_stims/simple_15_A_a.gif","self_paced","","7","simple_dissimilar","images/stimuli/spore_stims/simple_15_A_a.gif","","","","",""
"","null","html-keyboard-response","92","285914","0.0-23.0-0.4","SS1618435643646","","","null","","","","","","<p><img src= images/blank.png width =""600"" height = ""600"" style=""position:fixed;top:50%; left:50%; transform: translate(-50%, -50%); border:5px solid black"">","","","","","","","",""
"","129.4199999992852","sequential-stimulus-presentation-old","93","286547","0.0-23.0-1.4","SS1618435643646","trial","","40","500","629.4199999992852","images/stimuli/spore_stims/simple_14_A_b.gif","images/stimuli/spore_stims/simple_15_A_a.gif","self_paced","","7","simple_dissimilar","images/stimuli/spore_stims/simple_15_A_a.gif","","","","",""
"","null","html-keyboard-response","94","287535","0.0-23.0-0.5","SS1618435643646","","","null","","","","","","<p><img src= images/blank.png width =""600"" height = ""600"" style=""position:fixed;top:50%; left:50%; transform: translate(-50%, -50%); border:5px solid black"">","","","","","","","",""
"","354.00000000116415","sequential-stimulus-presentation-old","95","288392","0.0-23.0-1.5","SS1618435643646","trial","","40","500","854.0000000011642","images/stimuli/spore_stims/simple_14_A_b.gif","images/stimuli/spore_stims/simple_15_A_a.gif","self_paced","","7","simple_dissimilar","images/stimuli/spore_stims/simple_14_A_b.gif","","","","",""
"","2735.620000001276","survey-multi-choice","96","291129","0.0-24.0","SS1618435643646","math_question","","","","","","","","","","","","{""Q0"":""9""}","[0]","9","",""
"","null","html-keyboard-response","97","292242","0.0-25.0-0.0","SS1618435643646","","","null","","","","","","<p><img src= images/blank.png width =""600"" height = ""600"" style=""position:fixed;top:50%; left:50%; transform: translate(-50%, -50%); border:5px solid black"">","","","","","","","",""
"","900.5599999999977","sequential-stimulus-presentation-old","98","298157","0.0-25.0-1.0","SS1618435643646","trial","","40","500","1400.5599999999977","images/stimuli/spore_stims/simple_12_A_a.gif","images/stimuli/spore_stims/simple_18_A_b.gif","forced_long","","8","simple_dissimilar","images/stimuli/spore_stims/simple_18_A_b.gif","","","","",""
"","null","html-keyboard-response","99","299405","0.0-25.0-0.1","SS1618435643646","","","null","","","","","","<p><img src= images/blank.png width =""600"" height = ""600"" style=""position:fixed;top:50%; left:50%; transform: translate(-50%, -50%); border:5px solid black"">","","","","","","","",""
"","924.6299999994808","sequential-stimulus-presentation-old","100","300833","0.0-25.0-1.1","SS1618435643646","trial","","40","500","1424.6299999994808","images/stimuli/spore_stims/simple_12_A_a.gif","images/stimuli/spore_stims/simple_18_A_b.gif","forced_long","","8","simple_dissimilar","images/stimuli/spore_stims/simple_12_A_a.gif","","","","",""
"","null","html-keyboard-response","101","301691","0.0-25.0-0.2","SS1618435643646","","","null","","","","","","<p><img src= images/blank.png width =""600"" height = ""600"" style=""position:fixed;top:50%; left:50%; transform: translate(-50%, -50%); border:5px solid black"">","","","","","","","",""
"","578.52000000095","sequential-stimulus-presentation-old","102","302773","0.0-25.0-1.2","SS1618435643646","trial","","40","500","1078.52000000095","images/stimuli/spore_stims/simple_12_A_a.gif","images/stimuli/spore_stims/simple_18_A_b.gif","forced_long","","8","simple_dissimilar","images/stimuli/spore_stims/simple_18_A_b.gif","","","","",""
"","null","html-keyboard-response","103","303686","0.0-25.0-0.3","SS1618435643646","","","null","","","","","","<p><img src= images/blank.png width =""600"" height = ""600"" style=""position:fixed;top:50%; left:50%; transform: translate(-50%, -50%); border:5px solid black"">","","","","","","","",""
"","10054.22499999986","sequential-stimulus-presentation-old","104","314243","0.0-25.0-1.3","SS1618435643646","trial","","40","500","10554.22499999986","images/stimuli/spore_stims/simple_12_A_a.gif","images/stimuli/spore_stims/simple_18_A_b.gif","forced_long","","8","simple_dissimilar","images/stimuli/spore_stims/simple_18_A_b.gif","","","","",""
"","null","html-keyboard-response","105","315359","0.0-25.0-0.4","SS1618435643646","","","null","","","","","","<p><img src= images/blank.png width =""600"" height = ""600"" style=""position:fixed;top:50%; left:50%; transform: translate(-50%, -50%); border:5px solid black"">","","","","","","","",""
"","334.11000000161584","sequential-stimulus-presentation-old","106","316195","0.0-25.0-1.4","SS1618435643646","trial","","40","500","834.1100000016158","images/stimuli/spore_stims/simple_12_A_a.gif","images/stimuli/spore_stims/simple_18_A_b.gif","forced_long","","8","simple_dissimilar","images/stimuli/spore_stims/simple_18_A_b.gif","","","","",""
"","4627.870000000286","survey-multi-choice","107","320825","0.0-26.0","SS1618435643646","math_question","","","","","","","","","","","","{""Q0"":""11""}","[0]","11","",""
"","null","html-keyboard-response","108","322088","0.0-27.0-0.0","SS1618435643646","","","null","","","","","","<p><img src= images/blank.png width =""600"" height = ""600"" style=""position:fixed;top:50%; left:50%; transform: translate(-50%, -50%); border:5px solid black"">","","","","","","","",""
"","661.6100000010338","sequential-stimulus-presentation-old","109","322813","0.0-27.0-1.0","SS1618435643646","trial","","40","500","1161.6100000010338","images/stimuli/spore_stims/simple_01_A_b.gif","images/stimuli/spore_stims/simple_02_A_a.gif","forced_short","","9","simple_dissimilar","images/stimuli/spore_stims/simple_02_A_a.gif","","","","",""
"","null","html-keyboard-response","110","324059","0.0-27.0-0.1","SS1618435643646","","","null","","","","","","<p><img src= images/blank.png width =""600"" height = ""600"" style=""position:fixed;top:50%; left:50%; transform: translate(-50%, -50%); border:5px solid black"">","","","","","","","",""
"","285.5099999997183","sequential-stimulus-presentation-old","111","324846","0.0-27.0-1.1","SS1618435643646","trial","","40","500","785.5099999997183","images/stimuli/spore_stims/simple_01_A_b.gif","images/stimuli/spore_stims/simple_02_A_a.gif","forced_short","","9","simple_dissimilar","images/stimuli/spore_stims/simple_02_A_a.gif","","","","",""
"","null","html-keyboard-response","112","326097","0.0-27.0-0.2","SS1618435643646","","","null","","","","","","<p><img src= images/blank.png width =""600"" height = ""600"" style=""position:fixed;top:50%; left:50%; transform: translate(-50%, -50%); border:5px solid black"">","","","","","","","",""
"","1258.3100000010454","sequential-stimulus-presentation-old","113","327858","0.0-27.0-1.2","SS1618435643646","trial","","40","500","1758.3100000010454","images/stimuli/spore_stims/simple_01_A_b.gif","images/stimuli/spore_stims/simple_02_A_a.gif","forced_short","","9","simple_dissimilar","images/stimuli/spore_stims/simple_02_A_a.gif","","","","",""
"","null","html-keyboard-response","114","328901","0.0-27.0-0.3","SS1618435643646","","","null","","","","","","<p><img src= images/blank.png width =""600"" height = ""600"" style=""position:fixed;top:50%; left:50%; transform: translate(-50%, -50%); border:5px solid black"">","","","","","","","",""
"","356.9050000005518","sequential-stimulus-presentation-old","115","329776","0.0-27.0-1.3","SS1618435643646","trial","","40","500","856.9050000005518","images/stimuli/spore_stims/simple_01_A_b.gif","images/stimuli/spore_stims/simple_02_A_a.gif","forced_short","","9","simple_dissimilar","images/stimuli/spore_stims/simple_02_A_a.gif","","","","",""
"","null","html-keyboard-response","116","330605","0.0-27.0-0.4","SS1618435643646","","","null","","","","","","<p><img src= images/blank.png width =""600"" height = ""600"" style=""position:fixed;top:50%; left:50%; transform: translate(-50%, -50%); border:5px solid black"">","","","","","","","",""
"","213.18999999854714","sequential-stimulus-presentation-old","117","331321","0.0-27.0-1.4","SS1618435643646","trial","","40","500","713.1899999985471","images/stimuli/spore_stims/simple_01_A_b.gif","images/stimuli/spore_stims/simple_02_A_a.gif","forced_short","","9","simple_dissimilar","images/stimuli/spore_stims/simple_02_A_a.gif","","","","",""
"","null","html-keyboard-response","118","332303","0.0-27.0-0.5","SS1618435643646","","","null","","","","","","<p><img src= images/blank.png width =""600"" height = ""600"" style=""position:fixed;top:50%; left:50%; transform: translate(-50%, -50%); border:5px solid black"">","","","","","","","",""
"","72.22999999974854","sequential-stimulus-presentation-old","119","332893","0.0-27.0-1.5","SS1618435643646","trial","","40","500","572.2299999997485","images/stimuli/spore_stims/simple_01_A_b.gif","images/stimuli/spore_stims/simple_02_A_a.gif","forced_short","","9","simple_dissimilar","images/stimuli/spore_stims/simple_02_A_a.gif","","","","",""
"","2722.4050000004354","survey-multi-choice","120","335617","0.0-28.0","SS1618435643646","math_question","","","","","","","","","","","","{""Q0"":""12""}","[0]","12","",""
"","null","html-keyboard-response","121","336886","0.0-29.0-0.0","SS1618435643646","","","null","","","","","","<p><img src= images/blank.png width =""600"" height = ""600"" style=""position:fixed;top:50%; left:50%; transform: translate(-50%, -50%); border:5px solid black"">","","","","","","","",""
"","1869.805000000284","sequential-stimulus-presentation-old","122","339272","0.0-29.0-1.0","SS1618435643646","trial","","40","500","2369.805000000284","images/stimuli/spore_stims/simple_03_A_b.gif","images/stimuli/spore_stims/simple_17_A_a.gif","self_paced","","10","simple_dissimilar","images/stimuli/spore_stims/simple_17_A_a.gif","","","","",""
"","null","html-keyboard-response","123","340559","0.0-29.0-0.1","SS1618435643646","","","null","","","","","","<p><img src= images/blank.png width =""600"" height = ""600"" style=""position:fixed;top:50%; left:50%; transform: translate(-50%, -50%); border:5px solid black"">","","","","","","","",""
"","1091.1550000000861","sequential-stimulus-presentation-old","124","342162","0.0-29.0-1.1","SS1618435643646","trial","","40","500","1591.1550000000861","images/stimuli/spore_stims/simple_03_A_b.gif","images/stimuli/spore_stims/simple_17_A_a.gif","self_paced","","10","simple_dissimilar","images/stimuli/spore_stims/simple_17_A_a.gif","","","","",""
"","null","html-keyboard-response","125","343220","0.0-29.0-0.2","SS1618435643646","","","null","","","","","","<p><img src= images/blank.png width =""600"" height = ""600"" style=""position:fixed;top:50%; left:50%; transform: translate(-50%, -50%); border:5px solid black"">","","","","","","","",""
"","482.18499999894993","sequential-stimulus-presentation-old","126","344206","0.0-29.0-1.2","SS1618435643646","trial","","40","500","982.1849999989499","images/stimuli/spore_stims/simple_03_A_b.gif","images/stimuli/spore_stims/simple_17_A_a.gif","self_paced","","10","simple_dissimilar","images/stimuli/spore_stims/simple_17_A_a.gif","","","","",""
"","null","html-keyboard-response","127","345186","0.0-29.0-0.3","SS1618435643646","","","null","","","","","","<p><img src= images/blank.png width =""600"" height = ""600"" style=""position:fixed;top:50%; left:50%; transform: translate(-50%, -50%); border:5px solid black"">","","","","","","","",""
"","403.95499999978347","sequential-stimulus-presentation-old","128","346093","0.0-29.0-1.3","SS1618435643646","trial","","40","500","903.9549999997835","images/stimuli/spore_stims/simple_03_A_b.gif","images/stimuli/spore_stims/simple_17_A_a.gif","self_paced","","10","simple_dissimilar","images/stimuli/spore_stims/simple_17_A_a.gif","","","","",""
"","null","html-keyboard-response","129","346945","0.0-29.0-0.4","SS1618435643646","","","null","","","","","","<p><img src= images/blank.png width =""600"" height = ""600"" style=""position:fixed;top:50%; left:50%; transform: translate(-50%, -50%); border:5px solid black"">","","","","","","","",""
"","1864.2450000006356","sequential-stimulus-presentation-old","130","349319","0.0-29.0-1.4","SS1618435643646","trial","","40","500","2364.2450000006356","images/stimuli/spore_stims/simple_03_A_b.gif","images/stimuli/spore_stims/simple_17_A_a.gif","self_paced","","10","simple_dissimilar","images/stimuli/spore_stims/simple_03_A_b.gif","","","","",""
"","null","html-keyboard-response","131","350529","0.0-29.0-0.5","SS1618435643646","","","null","","","","","","<p><img src= images/blank.png width =""600"" height = ""600"" style=""position:fixed;top:50%; left:50%; transform: translate(-50%, -50%); border:5px solid black"">","","","","","","","",""
"","1457.2599999991944","sequential-stimulus-presentation-old","132","352491","0.0-29.0-1.5","SS1618435643646","trial","","40","500","1957.2599999991944","images/stimuli/spore_stims/simple_03_A_b.gif","images/stimuli/spore_stims/simple_17_A_a.gif","self_paced","","10","simple_dissimilar","images/stimuli/spore_stims/simple_03_A_b.gif","","","","",""
"","2778.2150000002584","survey-multi-choice","133","355271","0.0-30.0","SS1618435643646","math_question","","","","","","","","","","","","{""Q0"":""8""}","[0]","8","",""
"","null","html-keyboard-response","134","356570","0.0-31.0-0.0","SS1618435643646","","","null","","","","","","<p><img src= images/blank.png width =""600"" height = ""600"" style=""position:fixed;top:50%; left:50%; transform: translate(-50%, -50%); border:5px solid black"">","","","","","","","",""
"","429.76499999896623","sequential-stimulus-presentation-old","135","362002","0.0-31.0-1.0","SS1618435643646","trial","","40","500","929.7649999989662","images/stimuli/spore_stims/complex_20_A_b.gif","images/stimuli/spore_stims/complex_15_A_a.gif","forced_long","","11","complex_dissimilar","images/stimuli/spore_stims/complex_15_A_a.gif","","","","",""
"","null","html-keyboard-response","136","362852","0.0-31.0-0.1","SS1618435643646","","","null","","","","","","<p><img src= images/blank.png width =""600"" height = ""600"" style=""position:fixed;top:50%; left:50%; transform: translate(-50%, -50%); border:5px solid black"">","","","","","","","",""
"","2650.139999999781","sequential-stimulus-presentation-old","137","366009","0.0-31.0-1.1","SS1618435643646","trial","","40","500","3150.139999999781","images/stimuli/spore_stims/complex_20_A_b.gif","images/stimuli/spore_stims/complex_15_A_a.gif","forced_long","","11","complex_dissimilar","images/stimuli/spore_stims/complex_15_A_a.gif","","","","",""
"","null","html-keyboard-response","138","366941","0.0-31.0-0.2","SS1618435643646","","","null","","","","","","<p><img src= images/blank.png width =""600"" height = ""600"" style=""position:fixed;top:50%; left:50%; transform: translate(-50%, -50%); border:5px solid black"">","","","","","","","",""
"","384.9150000005611","sequential-stimulus-presentation-old","139","367840","0.0-31.0-1.2","SS1618435643646","trial","","40","500","884.9150000005611","images/stimuli/spore_stims/complex_20_A_b.gif","images/stimuli/spore_stims/complex_15_A_a.gif","forced_long","","11","complex_dissimilar","images/stimuli/spore_stims/complex_15_A_a.gif","","","","",""
"","null","html-keyboard-response","140","369122","0.0-31.0-0.3","SS1618435643646","","","null","","","","","","<p><img src= images/blank.png width =""600"" height = ""600"" style=""position:fixed;top:50%; left:50%; transform: translate(-50%, -50%); border:5px solid black"">","","","","","","","",""
"","563.3500000003842","sequential-stimulus-presentation-old","141","370188","0.0-31.0-1.3","SS1618435643646","trial","","40","500","1063.3500000003842","images/stimuli/spore_stims/complex_20_A_b.gif","images/stimuli/spore_stims/complex_15_A_a.gif","forced_long","","11","complex_dissimilar","images/stimuli/spore_stims/complex_15_A_a.gif","","","","",""
"","null","html-keyboard-response","142","371341","0.0-31.0-0.4","SS1618435643646","","","null","","","","","","<p><img src= images/blank.png width =""600"" height = ""600"" style=""position:fixed;top:50%; left:50%; transform: translate(-50%, -50%); border:5px solid black"">","","","","","","","",""
"","1154.324999999546","sequential-stimulus-presentation-old","143","372999","0.0-31.0-1.4","SS1618435643646","trial","","40","500","1654.324999999546","images/stimuli/spore_stims/complex_20_A_b.gif","images/stimuli/spore_stims/complex_15_A_a.gif","forced_long","","11","complex_dissimilar","images/stimuli/spore_stims/complex_20_A_b.gif","","","","",""
"","null","html-keyboard-response","144","374011","0.0-31.0-0.5","SS1618435643646","","","null","","","","","","<p><img src= images/blank.png width =""600"" height = ""600"" style=""position:fixed;top:50%; left:50%; transform: translate(-50%, -50%); border:5px solid black"">","","","","","","","",""
"","857.715000000142","sequential-stimulus-presentation-old","145","375373","0.0-31.0-1.5","SS1618435643646","trial","","40","500","1357.715000000142","images/stimuli/spore_stims/complex_20_A_b.gif","images/stimuli/spore_stims/complex_15_A_a.gif","forced_long","","11","complex_dissimilar","images/stimuli/spore_stims/complex_20_A_b.gif","","","","",""
"[{""page_index"":0,""viewing_time"":5520.85500000068}]","5521.020000000135","instructions","146","380895","0.0-32.0","SS1618435643646","instructions","","","","","","","","","","","","","","","",""
"","13848.565000000235","survey-likert","147","394747","0.0-33.0","SS1618435643646","similarity_question","","","","","","","","","","","","{""Q0"":2}","[0]","","images/stimuli/spore_stims/complex_01_A_b.gif","images/stimuli/spore_stims/complex_20_A_a.gif"
"","5528.309999999707","survey-likert","148","400281","0.0-34.0","SS1618435643646","similarity_question","","","","","","","","","","","","{""Q0"":2}","[0]","","images/stimuli/spore_stims/complex_13_A_b.gif","images/stimuli/spore_stims/complex_16_A_a.gif"
"","11486.780000001076","survey-likert","149","411773","0.0-35.0","SS1618435643646","similarity_question","","","","","","","","","","","","{""Q0"":3}","[0]","","images/stimuli/spore_stims/complex_17_A_b.gif","images/stimuli/spore_stims/complex_06_A_a.gif"
"","7090.104999999341","survey-likert","150","418869","0.0-36.0","SS1618435643646","similarity_question","","","","","","","","","","","","{""Q0"":4}","[0]","","images/stimuli/spore_stims/simple_20_A_a.gif","images/stimuli/spore_stims/simple_02_A_b.gif"
"","6590.115000000864","survey-likert","151","425465","0.0-37.0","SS1618435643646","similarity_question","","","","","","","","","","","","{""Q0"":2}","[0]","","images/stimuli/spore_stims/simple_18_A_b.gif","images/stimuli/spore_stims/simple_12_A_a.gif"
"","4692.489999999409","survey-likert","152","430164","0.0-38.0","SS1618435643646","similarity_question","","","","","","","","","","","","{""Q0"":5}","[0]","","images/stimuli/spore_stims/simple_01_A_b.gif","images/stimuli/spore_stims/simple_02_A_a.gif"
"","3300.155000000843","survey-likert","153","433471","0.0-39.0","SS1618435643646","similarity_question","","","","","","","","","","","","{""Q0"":2}","[0]","","images/stimuli/spore_stims/simple_11_A_a.gif","images/stimuli/spore_stims/simple_07_A_b.gif"
"","5710.839999999735","survey-likert","154","439187","0.0-40.0","SS1618435643646","similarity_question","","","","","","","","","","","","{""Q0"":2}","[0]","","images/stimuli/spore_stims/complex_11_A_b.gif","images/stimuli/spore_stims/complex_04_A_a.gif"
"","7193.94000000105","survey-likert","155","446387","0.0-41.0","SS1618435643646","similarity_question","","","","","","","","","","","","{""Q0"":2}","[0]","","images/stimuli/spore_stims/complex_14_A_b.gif","images/stimuli/spore_stims/complex_01_A_a.gif"
"","3797.9899999991176","survey-likert","156","450191","0.0-42.0","SS1618435643646","similarity_question","","","","","","","","","","","","{""Q0"":4}","[0]","","images/stimuli/spore_stims/simple_14_A_b.gif","images/stimuli/spore_stims/simple_15_A_a.gif"
"","3722.3649999996414","survey-likert","157","453919","0.0-43.0","SS1618435643646","similarity_question","","","","","","","","","","","","{""Q0"":4}","[0]","","images/stimuli/spore_stims/simple_03_A_b.gif","images/stimuli/spore_stims/simple_17_A_a.gif"
"","7040.570000001055","survey-likert","158","460965","0.0-44.0","SS1618435643646","similarity_question","","","","","","","","","","","","{""Q0"":2}","[0]","","images/stimuli/spore_stims/complex_20_A_b.gif","images/stimuli/spore_stims/complex_15_A_a.gif"
"[{""page_index"":0,""viewing_time"":5166.414999999688}]","5166.535000000324","instructions","159","466137","0.0-45.0","SS1618435643646","instructions","","","","","","","","","","","","","","","",""
"","5434.7050000014715","survey-likert","160","471574","0.0-46.0","SS1618435643646","","","","","","","","","images/stimuli/spore_stims/simple_11_A_a.gif","","","","{""Q0"":1}","[0]","","",""
"","1961.8899999986752","survey-likert","161","473541","0.0-47.0","SS1618435643646","","","","","","","","","images/stimuli/spore_stims/simple_17_A_a.gif","","","","{""Q0"":1}","[0]","","",""
"","4507.014999999257","survey-likert","162","478056","0.0-48.0","SS1618435643646","","","","","","","","","images/stimuli/spore_stims/complex_20_A_a.gif","","","","{""Q0"":4}","[0]","","",""
"","2562.0299999990966","survey-likert","163","480624","0.0-49.0","SS1618435643646","","","","","","","","","images/stimuli/spore_stims/complex_15_A_a.gif","","","","{""Q0"":5}","[0]","","",""
"","1944.4800000000978","survey-likert","164","482575","0.0-50.0","SS1618435643646","","","","","","","","","images/stimuli/spore_stims/complex_04_A_a.gif","","","","{""Q0"":4}","[0]","","",""
"","2382.0300000007264","survey-likert","165","484963","0.0-51.0","SS1618435643646","","","","","","","","","images/stimuli/spore_stims/simple_02_A_a.gif","","","","{""Q0"":0}","[0]","","",""
"","7119.969999999739","survey-likert","166","492089","0.0-52.0","SS1618435643646","","","","","","","","","images/stimuli/spore_stims/complex_13_A_b.gif","","","","{""Q0"":4}","[0]","","",""
"","2616.7750000003725","survey-likert","167","494711","0.0-53.0","SS1618435643646","","","","","","","","","images/stimuli/spore_stims/simple_15_A_a.gif","","","","{""Q0"":1}","[0]","","",""
"","2257.870000001276","survey-likert","168","496975","0.0-54.0","SS1618435643646","","","","","","","","","images/stimuli/spore_stims/complex_14_A_b.gif","","","","{""Q0"":4}","[0]","","",""
"","2924.2649999996065","survey-likert","169","499905","0.0-55.0","SS1618435643646","","","","","","","","","images/stimuli/spore_stims/simple_12_A_a.gif","","","","{""Q0"":1}","[0]","","",""
"","4083.8850000000093","survey-likert","170","503995","0.0-56.0","SS1618435643646","","","","","","","","","images/stimuli/spore_stims/complex_17_A_b.gif","","","","{""Q0"":4}","[0]","","",""
"","3097.8400000003166","survey-likert","171","507098","0.0-57.0","SS1618435643646","","","","","","","","","images/stimuli/spore_stims/simple_02_A_b.gif","","","","{""Q0"":0}","[0]","","",""
"[{""page_index"":0,""viewing_time"":1686.2750000000233}]","1686.4050000003772","instructions","172","508790","0.0-58.0","SS1618435643646","instructions","","","","","","","","","","","","","","","",""
"","2307.694999999483","demog-age","173","511103","0.0-59.0","SS1618435643646","","","","","","","","","","","","","{""age"":""35""}","","","",""
"","2436.0199999992037","demog-ethnic-US","174","513544","0.0-60.0","SS1618435643646","","","","","","","","","","","","","{""ethnicity"":[""White""]}","[0]","","",""
"","5598.655000001541","demog-gender-and-education","175","519149","0.0-61.0","SS1618435643646","","","","","","","","","","","","","{""gender"":""Male"",""education"":""Bachelor's Degree""}","[0,1]","","",""
"","26652.210000000196","survey-text","176","545809","0.0-62.0","SS1618435643646","feedback","","","","","","","","","","","","{""Q0"":""Didn't experience any problems.""}","","","",""
"[{""page_index"":0,""viewing_time"":1896.8799999983748}]","1896.9899999992922","instructions","177","547708","0.0-63.0","SS1618435643646","instructions","","","","","","","","","","","","","","","",""
