"view_history","rt","trial_type","trial_index","time_elapsed","internal_node_id","subject","stimulus_type","trial_stimulus","key_press","minimum_viewing_duration","trial_looking_time","block_deviant","block_background","exposure_type","stimulus","block_number","block_type","stimulus_displayed","responses","question_order","math_correct_answer","stimulus_left","stimulus_right"
"[{""page_index"":0,""viewing_time"":38812}]","38813","instructions","0","38825","0.0-0.0","SS1618365753212","","","","","","","","","","","","","","","","",""
"[{""page_index"":0,""viewing_time"":15469},{""page_index"":1,""viewing_time"":17545}]","33014","instructions","1","73852","0.0-1.0","SS1618365753212","instructions","","","","","","","","","","","","","","","",""
"","19598","sequential-stimulus-presentation-old","2","93978","0.0-2.0","SS1618365753212","","","40","500","20098","null","null","self_paced","","","","","","","","",""
"","2122","sequential-stimulus-presentation-old","3","96623","0.0-3.0","SS1618365753212","","","40","500","2622","null","null","self_paced","","","","","","","","",""
"[{""page_index"":0,""viewing_time"":18569}]","18569","instructions","4","115203","0.0-4.0","SS1618365753212","instructions","","","","","","","","","","","","","","","",""
"","701","sequential-stimulus-presentation-old","5","120923","0.0-5.0","SS1618365753212","","","40","500","1201","null","null","forced_long","","","","","","","","",""
"","2110","sequential-stimulus-presentation-old","6","123095","0.0-6.0","SS1618365753212","","","40","50","2160","null","null","forced_long","","","","","","","","",""
"[{""page_index"":0,""viewing_time"":1828}]","1829","instructions","7","124927","0.0-7.0","SS1618365753212","instructions","","","","","","","","","","","","","","","",""
"[{""page_index"":0,""viewing_time"":13248},{""page_index"":1,""viewing_time"":17281},{""page_index"":2,""viewing_time"":6797},{""page_index"":3,""viewing_time"":1396},{""page_index"":4,""viewing_time"":1111}]","39834","instructions","8","164769","0.0-8.0","SS1618365753212","instructions","","","","","","","","","","","","","","","",""
"","null","html-keyboard-response","9","165625","0.0-9.0-0.0","SS1618365753212","","","null","","","","","","<p><img src= images/blank.png width =""600"" height = ""600"" style=""position:fixed;top:50%; left:50%; transform: translate(-50%, -50%); border:5px solid black"">","","","","","","","",""
"","8586","sequential-stimulus-presentation-old","10","174722","0.0-9.0-1.0","SS1618365753212","trial","","40","500","9086","images/stimuli/spore_stims/simple_02_A_a.gif","images/stimuli/spore_stims/simple_11_A_b.gif","self_paced","","0","simple_dissimilar","images/stimuli/spore_stims/simple_11_A_b.gif","","","","",""
"","null","html-keyboard-response","11","175616","0.0-9.0-0.1","SS1618365753212","","","null","","","","","","<p><img src= images/blank.png width =""600"" height = ""600"" style=""position:fixed;top:50%; left:50%; transform: translate(-50%, -50%); border:5px solid black"">","","","","","","","",""
"","3785","sequential-stimulus-presentation-old","12","179914","0.0-9.0-1.1","SS1618365753212","trial","","40","500","4285","images/stimuli/spore_stims/simple_02_A_a.gif","images/stimuli/spore_stims/simple_11_A_b.gif","self_paced","","0","simple_dissimilar","images/stimuli/spore_stims/simple_11_A_b.gif","","","","",""
"","null","html-keyboard-response","13","180939","0.0-9.0-0.2","SS1618365753212","","","null","","","","","","<p><img src= images/blank.png width =""600"" height = ""600"" style=""position:fixed;top:50%; left:50%; transform: translate(-50%, -50%); border:5px solid black"">","","","","","","","",""
"","17268","sequential-stimulus-presentation-old","14","198715","0.0-9.0-1.2","SS1618365753212","trial","","40","500","17768","images/stimuli/spore_stims/simple_02_A_a.gif","images/stimuli/spore_stims/simple_11_A_b.gif","self_paced","","0","simple_dissimilar","images/stimuli/spore_stims/simple_11_A_b.gif","","","","",""
"","null","html-keyboard-response","15","199996","0.0-9.0-0.3","SS1618365753212","","","null","","","","","","<p><img src= images/blank.png width =""600"" height = ""600"" style=""position:fixed;top:50%; left:50%; transform: translate(-50%, -50%); border:5px solid black"">","","","","","","","",""
"","9537","sequential-stimulus-presentation-old","16","210046","0.0-9.0-1.3","SS1618365753212","trial","","40","500","10037","images/stimuli/spore_stims/simple_02_A_a.gif","images/stimuli/spore_stims/simple_11_A_b.gif","self_paced","","0","simple_dissimilar","images/stimuli/spore_stims/simple_11_A_b.gif","","","","",""
"","null","html-keyboard-response","17","211268","0.0-9.0-0.4","SS1618365753212","","","null","","","","","","<p><img src= images/blank.png width =""600"" height = ""600"" style=""position:fixed;top:50%; left:50%; transform: translate(-50%, -50%); border:5px solid black"">","","","","","","","",""
"","23045","sequential-stimulus-presentation-old","18","234820","0.0-9.0-1.4","SS1618365753212","trial","","40","500","23545","images/stimuli/spore_stims/simple_02_A_a.gif","images/stimuli/spore_stims/simple_11_A_b.gif","self_paced","","0","simple_dissimilar","images/stimuli/spore_stims/simple_11_A_b.gif","","","","",""
"","null","html-keyboard-response","19","236035","0.0-9.0-0.5","SS1618365753212","","","null","","","","","","<p><img src= images/blank.png width =""600"" height = ""600"" style=""position:fixed;top:50%; left:50%; transform: translate(-50%, -50%); border:5px solid black"">","","","","","","","",""
"","18196","sequential-stimulus-presentation-old","20","254739","0.0-9.0-1.5","SS1618365753212","trial","","40","500","18696","images/stimuli/spore_stims/simple_02_A_a.gif","images/stimuli/spore_stims/simple_11_A_b.gif","self_paced","","0","simple_dissimilar","images/stimuli/spore_stims/simple_02_A_a.gif","","","","",""
"","10224","survey-multi-choice","21","264981","0.0-10.0","SS1618365753212","math_question","","","","","","","","","","","","{""Q0"":""17""}","[0]","17","",""
"","null","html-keyboard-response","22","266141","0.0-11.0-0.0","SS1618365753212","","","null","","","","","","<p><img src= images/blank.png width =""600"" height = ""600"" style=""position:fixed;top:50%; left:50%; transform: translate(-50%, -50%); border:5px solid black"">","","","","","","","",""
"","9630","sequential-stimulus-presentation-old","23","276284","0.0-11.0-1.0","SS1618365753212","trial","","40","500","10130","images/stimuli/spore_stims/complex_18_A_a.gif","images/stimuli/spore_stims/complex_17_A_b.gif","self_paced","","1","complex_dissimilar","images/stimuli/spore_stims/complex_17_A_b.gif","","","","",""
"","null","html-keyboard-response","24","277471","0.0-11.0-0.1","SS1618365753212","","","null","","","","","","<p><img src= images/blank.png width =""600"" height = ""600"" style=""position:fixed;top:50%; left:50%; transform: translate(-50%, -50%); border:5px solid black"">","","","","","","","",""
"","7247","sequential-stimulus-presentation-old","25","285226","0.0-11.0-1.1","SS1618365753212","trial","","40","500","7747","images/stimuli/spore_stims/complex_18_A_a.gif","images/stimuli/spore_stims/complex_17_A_b.gif","self_paced","","1","complex_dissimilar","images/stimuli/spore_stims/complex_17_A_b.gif","","","","",""
"","null","html-keyboard-response","26","286238","0.0-11.0-0.2","SS1618365753212","","","null","","","","","","<p><img src= images/blank.png width =""600"" height = ""600"" style=""position:fixed;top:50%; left:50%; transform: translate(-50%, -50%); border:5px solid black"">","","","","","","","",""
"","8122","sequential-stimulus-presentation-old","27","294874","0.0-11.0-1.2","SS1618365753212","trial","","40","500","8622","images/stimuli/spore_stims/complex_18_A_a.gif","images/stimuli/spore_stims/complex_17_A_b.gif","self_paced","","1","complex_dissimilar","images/stimuli/spore_stims/complex_17_A_b.gif","","","","",""
"","null","html-keyboard-response","28","296104","0.0-11.0-0.3","SS1618365753212","","","null","","","","","","<p><img src= images/blank.png width =""600"" height = ""600"" style=""position:fixed;top:50%; left:50%; transform: translate(-50%, -50%); border:5px solid black"">","","","","","","","",""
"","3103","sequential-stimulus-presentation-old","29","299715","0.0-11.0-1.3","SS1618365753212","trial","","40","500","3603","images/stimuli/spore_stims/complex_18_A_a.gif","images/stimuli/spore_stims/complex_17_A_b.gif","self_paced","","1","complex_dissimilar","images/stimuli/spore_stims/complex_18_A_a.gif","","","","",""
"","null","html-keyboard-response","30","300984","0.0-11.0-0.4","SS1618365753212","","","null","","","","","","<p><img src= images/blank.png width =""600"" height = ""600"" style=""position:fixed;top:50%; left:50%; transform: translate(-50%, -50%); border:5px solid black"">","","","","","","","",""
"","2278","sequential-stimulus-presentation-old","31","303780","0.0-11.0-1.4","SS1618365753212","trial","","40","500","2778","images/stimuli/spore_stims/complex_18_A_a.gif","images/stimuli/spore_stims/complex_17_A_b.gif","self_paced","","1","complex_dissimilar","images/stimuli/spore_stims/complex_18_A_a.gif","","","","",""
"","2764","survey-multi-choice","32","306555","0.0-12.0","SS1618365753212","math_question","","","","","","","","","","","","{""Q0"":""5""}","[0]","5","",""
"","null","html-keyboard-response","33","307659","0.0-13.0-0.0","SS1618365753212","","","null","","","","","","<p><img src= images/blank.png width =""600"" height = ""600"" style=""position:fixed;top:50%; left:50%; transform: translate(-50%, -50%); border:5px solid black"">","","","","","","","",""
"","1706","sequential-stimulus-presentation-old","34","309427","0.0-13.0-1.0","SS1618365753212","trial","","40","500","2206","images/stimuli/spore_stims/complex_19_A_b.gif","images/stimuli/spore_stims/complex_09_A_a.gif","forced_short","","2","complex_dissimilar","images/stimuli/spore_stims/complex_09_A_a.gif","","","","",""
"","null","html-keyboard-response","35","310287","0.0-13.0-0.1","SS1618365753212","","","null","","","","","","<p><img src= images/blank.png width =""600"" height = ""600"" style=""position:fixed;top:50%; left:50%; transform: translate(-50%, -50%); border:5px solid black"">","","","","","","","",""
"","3223","sequential-stimulus-presentation-old","36","314026","0.0-13.0-1.1","SS1618365753212","trial","","40","500","3723","images/stimuli/spore_stims/complex_19_A_b.gif","images/stimuli/spore_stims/complex_09_A_a.gif","forced_short","","2","complex_dissimilar","images/stimuli/spore_stims/complex_09_A_a.gif","","","","",""
"","null","html-keyboard-response","37","315182","0.0-13.0-0.2","SS1618365753212","","","null","","","","","","<p><img src= images/blank.png width =""600"" height = ""600"" style=""position:fixed;top:50%; left:50%; transform: translate(-50%, -50%); border:5px solid black"">","","","","","","","",""
"","1244","sequential-stimulus-presentation-old","38","316938","0.0-13.0-1.2","SS1618365753212","trial","","40","500","1744","images/stimuli/spore_stims/complex_19_A_b.gif","images/stimuli/spore_stims/complex_09_A_a.gif","forced_short","","2","complex_dissimilar","images/stimuli/spore_stims/complex_09_A_a.gif","","","","",""
"","null","html-keyboard-response","39","317798","0.0-13.0-0.3","SS1618365753212","","","null","","","","","","<p><img src= images/blank.png width =""600"" height = ""600"" style=""position:fixed;top:50%; left:50%; transform: translate(-50%, -50%); border:5px solid black"">","","","","","","","",""
"","1337","sequential-stimulus-presentation-old","40","319648","0.0-13.0-1.3","SS1618365753212","trial","","40","500","1837","images/stimuli/spore_stims/complex_19_A_b.gif","images/stimuli/spore_stims/complex_09_A_a.gif","forced_short","","2","complex_dissimilar","images/stimuli/spore_stims/complex_09_A_a.gif","","","","",""
"","4894","survey-multi-choice","41","324546","0.0-14.0","SS1618365753212","math_question","","","","","","","","","","","","{""Q0"":""12""}","[0]","12","",""
"","null","html-keyboard-response","42","325447","0.0-15.0-0.0","SS1618365753212","","","null","","","","","","<p><img src= images/blank.png width =""600"" height = ""600"" style=""position:fixed;top:50%; left:50%; transform: translate(-50%, -50%); border:5px solid black"">","","","","","","","",""
"","3130","sequential-stimulus-presentation-old","43","329090","0.0-15.0-1.0","SS1618365753212","trial","","40","500","3630","images/stimuli/spore_stims/complex_13_A_b.gif","images/stimuli/spore_stims/complex_10_A_a.gif","self_paced","","3","complex_dissimilar","images/stimuli/spore_stims/complex_10_A_a.gif","","","","",""
"","null","html-keyboard-response","44","329972","0.0-15.0-0.1","SS1618365753212","","","null","","","","","","<p><img src= images/blank.png width =""600"" height = ""600"" style=""position:fixed;top:50%; left:50%; transform: translate(-50%, -50%); border:5px solid black"">","","","","","","","",""
"","6427","sequential-stimulus-presentation-old","45","336913","0.0-15.0-1.1","SS1618365753212","trial","","40","500","6927","images/stimuli/spore_stims/complex_13_A_b.gif","images/stimuli/spore_stims/complex_10_A_a.gif","self_paced","","3","complex_dissimilar","images/stimuli/spore_stims/complex_10_A_a.gif","","","","",""
"","null","html-keyboard-response","46","338206","0.0-15.0-0.2","SS1618365753212","","","null","","","","","","<p><img src= images/blank.png width =""600"" height = ""600"" style=""position:fixed;top:50%; left:50%; transform: translate(-50%, -50%); border:5px solid black"">","","","","","","","",""
"","3018","sequential-stimulus-presentation-old","47","341738","0.0-15.0-1.2","SS1618365753212","trial","","40","500","3518","images/stimuli/spore_stims/complex_13_A_b.gif","images/stimuli/spore_stims/complex_10_A_a.gif","self_paced","","3","complex_dissimilar","images/stimuli/spore_stims/complex_10_A_a.gif","","","","",""
"","null","html-keyboard-response","48","342796","0.0-15.0-0.3","SS1618365753212","","","null","","","","","","<p><img src= images/blank.png width =""600"" height = ""600"" style=""position:fixed;top:50%; left:50%; transform: translate(-50%, -50%); border:5px solid black"">","","","","","","","",""
"","1379","sequential-stimulus-presentation-old","49","344691","0.0-15.0-1.3","SS1618365753212","trial","","40","500","1879","images/stimuli/spore_stims/complex_13_A_b.gif","images/stimuli/spore_stims/complex_10_A_a.gif","self_paced","","3","complex_dissimilar","images/stimuli/spore_stims/complex_10_A_a.gif","","","","",""
"","null","html-keyboard-response","50","345856","0.0-15.0-0.4","SS1618365753212","","","null","","","","","","<p><img src= images/blank.png width =""600"" height = ""600"" style=""position:fixed;top:50%; left:50%; transform: translate(-50%, -50%); border:5px solid black"">","","","","","","","",""
"","855","sequential-stimulus-presentation-old","51","347219","0.0-15.0-1.4","SS1618365753212","trial","","40","500","1355","images/stimuli/spore_stims/complex_13_A_b.gif","images/stimuli/spore_stims/complex_10_A_a.gif","self_paced","","3","complex_dissimilar","images/stimuli/spore_stims/complex_10_A_a.gif","","","","",""
"","3132","survey-multi-choice","52","350378","0.0-16.0","SS1618365753212","math_question","","","","","","","","","","","","{""Q0"":""8""}","[0]","8","",""
"","null","html-keyboard-response","53","351594","0.0-17.0-0.0","SS1618365753212","","","null","","","","","","<p><img src= images/blank.png width =""600"" height = ""600"" style=""position:fixed;top:50%; left:50%; transform: translate(-50%, -50%); border:5px solid black"">","","","","","","","",""
"","1253","sequential-stimulus-presentation-old","54","352936","0.0-17.0-1.0","SS1618365753212","trial","","40","500","1753","images/stimuli/spore_stims/simple_04_A_b.gif","images/stimuli/spore_stims/simple_05_A_a.gif","forced_short","","4","simple_dissimilar","images/stimuli/spore_stims/simple_05_A_a.gif","","","","",""
"","null","html-keyboard-response","55","353937","0.0-17.0-0.1","SS1618365753212","","","null","","","","","","<p><img src= images/blank.png width =""600"" height = ""600"" style=""position:fixed;top:50%; left:50%; transform: translate(-50%, -50%); border:5px solid black"">","","","","","","","",""
"","1977","sequential-stimulus-presentation-old","56","356427","0.0-17.0-1.1","SS1618365753212","trial","","40","500","2477","images/stimuli/spore_stims/simple_04_A_b.gif","images/stimuli/spore_stims/simple_05_A_a.gif","forced_short","","4","simple_dissimilar","images/stimuli/spore_stims/simple_05_A_a.gif","","","","",""
"","null","html-keyboard-response","57","357383","0.0-17.0-0.2","SS1618365753212","","","null","","","","","","<p><img src= images/blank.png width =""600"" height = ""600"" style=""position:fixed;top:50%; left:50%; transform: translate(-50%, -50%); border:5px solid black"">","","","","","","","",""
"","4537","sequential-stimulus-presentation-old","58","362435","0.0-17.0-1.2","SS1618365753212","trial","","40","500","5037","images/stimuli/spore_stims/simple_04_A_b.gif","images/stimuli/spore_stims/simple_05_A_a.gif","forced_short","","4","simple_dissimilar","images/stimuli/spore_stims/simple_05_A_a.gif","","","","",""
"","null","html-keyboard-response","59","363639","0.0-17.0-0.3","SS1618365753212","","","null","","","","","","<p><img src= images/blank.png width =""600"" height = ""600"" style=""position:fixed;top:50%; left:50%; transform: translate(-50%, -50%); border:5px solid black"">","","","","","","","",""
"","3807","sequential-stimulus-presentation-old","60","367957","0.0-17.0-1.3","SS1618365753212","trial","","40","500","4307","images/stimuli/spore_stims/simple_04_A_b.gif","images/stimuli/spore_stims/simple_05_A_a.gif","forced_short","","4","simple_dissimilar","images/stimuli/spore_stims/simple_05_A_a.gif","","","","",""
"","null","html-keyboard-response","61","369256","0.0-17.0-0.4","SS1618365753212","","","null","","","","","","<p><img src= images/blank.png width =""600"" height = ""600"" style=""position:fixed;top:50%; left:50%; transform: translate(-50%, -50%); border:5px solid black"">","","","","","","","",""
"","9759","sequential-stimulus-presentation-old","62","379529","0.0-17.0-1.4","SS1618365753212","trial","","40","500","10259","images/stimuli/spore_stims/simple_04_A_b.gif","images/stimuli/spore_stims/simple_05_A_a.gif","forced_short","","4","simple_dissimilar","images/stimuli/spore_stims/simple_04_A_b.gif","","","","",""
"","2986","survey-multi-choice","63","382529","0.0-18.0","SS1618365753212","math_question","","","","","","","","","","","","{""Q0"":""6""}","[0]","6","",""
"","null","html-keyboard-response","64","383417","0.0-19.0-0.0","SS1618365753212","","","null","","","","","","<p><img src= images/blank.png width =""600"" height = ""600"" style=""position:fixed;top:50%; left:50%; transform: translate(-50%, -50%); border:5px solid black"">","","","","","","","",""
"","6053","sequential-stimulus-presentation-old","65","389979","0.0-19.0-1.0","SS1618365753212","trial","","40","500","6553","images/stimuli/spore_stims/simple_06_A_b.gif","images/stimuli/spore_stims/simple_16_A_a.gif","self_paced","","5","simple_dissimilar","images/stimuli/spore_stims/simple_16_A_a.gif","","","","",""
"","null","html-keyboard-response","66","391149","0.0-19.0-0.1","SS1618365753212","","","null","","","","","","<p><img src= images/blank.png width =""600"" height = ""600"" style=""position:fixed;top:50%; left:50%; transform: translate(-50%, -50%); border:5px solid black"">","","","","","","","",""
"","5051","sequential-stimulus-presentation-old","67","396713","0.0-19.0-1.1","SS1618365753212","trial","","40","500","5551","images/stimuli/spore_stims/simple_06_A_b.gif","images/stimuli/spore_stims/simple_16_A_a.gif","self_paced","","5","simple_dissimilar","images/stimuli/spore_stims/simple_06_A_b.gif","","","","",""
"","null","html-keyboard-response","68","397806","0.0-19.0-0.2","SS1618365753212","","","null","","","","","","<p><img src= images/blank.png width =""600"" height = ""600"" style=""position:fixed;top:50%; left:50%; transform: translate(-50%, -50%); border:5px solid black"">","","","","","","","",""
"","3699","sequential-stimulus-presentation-old","69","402010","0.0-19.0-1.2","SS1618365753212","trial","","40","500","4199","images/stimuli/spore_stims/simple_06_A_b.gif","images/stimuli/spore_stims/simple_16_A_a.gif","self_paced","","5","simple_dissimilar","images/stimuli/spore_stims/simple_16_A_a.gif","","","","",""
"","null","html-keyboard-response","70","403095","0.0-19.0-0.3","SS1618365753212","","","null","","","","","","<p><img src= images/blank.png width =""600"" height = ""600"" style=""position:fixed;top:50%; left:50%; transform: translate(-50%, -50%); border:5px solid black"">","","","","","","","",""
"","3909","sequential-stimulus-presentation-old","71","407515","0.0-19.0-1.3","SS1618365753212","trial","","40","500","4409","images/stimuli/spore_stims/simple_06_A_b.gif","images/stimuli/spore_stims/simple_16_A_a.gif","self_paced","","5","simple_dissimilar","images/stimuli/spore_stims/simple_16_A_a.gif","","","","",""
"","null","html-keyboard-response","72","408756","0.0-19.0-0.4","SS1618365753212","","","null","","","","","","<p><img src= images/blank.png width =""600"" height = ""600"" style=""position:fixed;top:50%; left:50%; transform: translate(-50%, -50%); border:5px solid black"">","","","","","","","",""
"","976","sequential-stimulus-presentation-old","73","410258","0.0-19.0-1.4","SS1618365753212","trial","","40","500","1476","images/stimuli/spore_stims/simple_06_A_b.gif","images/stimuli/spore_stims/simple_16_A_a.gif","self_paced","","5","simple_dissimilar","images/stimuli/spore_stims/simple_16_A_a.gif","","","","",""
"","null","html-keyboard-response","74","411517","0.0-19.0-0.5","SS1618365753212","","","null","","","","","","<p><img src= images/blank.png width =""600"" height = ""600"" style=""position:fixed;top:50%; left:50%; transform: translate(-50%, -50%); border:5px solid black"">","","","","","","","",""
"","2218","sequential-stimulus-presentation-old","75","414242","0.0-19.0-1.5","SS1618365753212","trial","","40","500","2718","images/stimuli/spore_stims/simple_06_A_b.gif","images/stimuli/spore_stims/simple_16_A_a.gif","self_paced","","5","simple_dissimilar","images/stimuli/spore_stims/simple_06_A_b.gif","","","","",""
"","5108","survey-multi-choice","76","419364","0.0-20.0","SS1618365753212","math_question","","","","","","","","","","","","{""Q0"":""10""}","[0]","10","",""
"","null","html-keyboard-response","77","420339","0.0-21.0-0.0","SS1618365753212","","","null","","","","","","<p><img src= images/blank.png width =""600"" height = ""600"" style=""position:fixed;top:50%; left:50%; transform: translate(-50%, -50%); border:5px solid black"">","","","","","","","",""
"","902","sequential-stimulus-presentation-old","78","421306","0.0-21.0-1.0","SS1618365753212","trial","","40","500","1402","images/stimuli/spore_stims/complex_03_A_a.gif","images/stimuli/spore_stims/complex_08_A_b.gif","forced_short","","6","complex_dissimilar","images/stimuli/spore_stims/complex_08_A_b.gif","","","","",""
"","null","html-keyboard-response","79","422203","0.0-21.0-0.1","SS1618365753212","","","null","","","","","","<p><img src= images/blank.png width =""600"" height = ""600"" style=""position:fixed;top:50%; left:50%; transform: translate(-50%, -50%); border:5px solid black"">","","","","","","","",""
"","3243","sequential-stimulus-presentation-old","80","425961","0.0-21.0-1.1","SS1618365753212","trial","","40","500","3743","images/stimuli/spore_stims/complex_03_A_a.gif","images/stimuli/spore_stims/complex_08_A_b.gif","forced_short","","6","complex_dissimilar","images/stimuli/spore_stims/complex_03_A_a.gif","","","","",""
"","null","html-keyboard-response","81","427146","0.0-21.0-0.2","SS1618365753212","","","null","","","","","","<p><img src= images/blank.png width =""600"" height = ""600"" style=""position:fixed;top:50%; left:50%; transform: translate(-50%, -50%); border:5px solid black"">","","","","","","","",""
"","2401","sequential-stimulus-presentation-old","82","430062","0.0-21.0-1.2","SS1618365753212","trial","","40","500","2901","images/stimuli/spore_stims/complex_03_A_a.gif","images/stimuli/spore_stims/complex_08_A_b.gif","forced_short","","6","complex_dissimilar","images/stimuli/spore_stims/complex_08_A_b.gif","","","","",""
"","null","html-keyboard-response","83","431314","0.0-21.0-0.3","SS1618365753212","","","null","","","","","","<p><img src= images/blank.png width =""600"" height = ""600"" style=""position:fixed;top:50%; left:50%; transform: translate(-50%, -50%); border:5px solid black"">","","","","","","","",""
"","1694","sequential-stimulus-presentation-old","84","433518","0.0-21.0-1.3","SS1618365753212","trial","","40","500","2194","images/stimuli/spore_stims/complex_03_A_a.gif","images/stimuli/spore_stims/complex_08_A_b.gif","forced_short","","6","complex_dissimilar","images/stimuli/spore_stims/complex_08_A_b.gif","","","","",""
"","null","html-keyboard-response","85","434335","0.0-21.0-0.4","SS1618365753212","","","null","","","","","","<p><img src= images/blank.png width =""600"" height = ""600"" style=""position:fixed;top:50%; left:50%; transform: translate(-50%, -50%); border:5px solid black"">","","","","","","","",""
"","1214","sequential-stimulus-presentation-old","86","436066","0.0-21.0-1.4","SS1618365753212","trial","","40","500","1714","images/stimuli/spore_stims/complex_03_A_a.gif","images/stimuli/spore_stims/complex_08_A_b.gif","forced_short","","6","complex_dissimilar","images/stimuli/spore_stims/complex_08_A_b.gif","","","","",""
"","4300","survey-multi-choice","87","440389","0.0-22.0","SS1618365753212","math_question","","","","","","","","","","","","{""Q0"":""13""}","[0]","13","",""
"","null","html-keyboard-response","88","441448","0.0-23.0-0.0","SS1618365753212","","","null","","","","","","<p><img src= images/blank.png width =""600"" height = ""600"" style=""position:fixed;top:50%; left:50%; transform: translate(-50%, -50%); border:5px solid black"">","","","","","","","",""
"","5161","sequential-stimulus-presentation-old","89","451618","0.0-23.0-1.0","SS1618365753212","trial","","40","500","5661","images/stimuli/spore_stims/simple_01_A_a.gif","images/stimuli/spore_stims/simple_02_A_b.gif","forced_long","","7","simple_dissimilar","images/stimuli/spore_stims/simple_02_A_b.gif","","","","",""
"","null","html-keyboard-response","90","452878","0.0-23.0-0.1","SS1618365753212","","","null","","","","","","<p><img src= images/blank.png width =""600"" height = ""600"" style=""position:fixed;top:50%; left:50%; transform: translate(-50%, -50%); border:5px solid black"">","","","","","","","",""
"","2047","sequential-stimulus-presentation-old","91","455450","0.0-23.0-1.1","SS1618365753212","trial","","40","500","2547","images/stimuli/spore_stims/simple_01_A_a.gif","images/stimuli/spore_stims/simple_02_A_b.gif","forced_long","","7","simple_dissimilar","images/stimuli/spore_stims/simple_02_A_b.gif","","","","",""
"","null","html-keyboard-response","92","456723","0.0-23.0-0.2","SS1618365753212","","","null","","","","","","<p><img src= images/blank.png width =""600"" height = ""600"" style=""position:fixed;top:50%; left:50%; transform: translate(-50%, -50%); border:5px solid black"">","","","","","","","",""
"","322","sequential-stimulus-presentation-old","93","457564","0.0-23.0-1.2","SS1618365753212","trial","","40","500","822","images/stimuli/spore_stims/simple_01_A_a.gif","images/stimuli/spore_stims/simple_02_A_b.gif","forced_long","","7","simple_dissimilar","images/stimuli/spore_stims/simple_02_A_b.gif","","","","",""
"","null","html-keyboard-response","94","458699","0.0-23.0-0.3","SS1618365753212","","","null","","","","","","<p><img src= images/blank.png width =""600"" height = ""600"" style=""position:fixed;top:50%; left:50%; transform: translate(-50%, -50%); border:5px solid black"">","","","","","","","",""
"","235","sequential-stimulus-presentation-old","95","459452","0.0-23.0-1.3","SS1618365753212","trial","","40","500","735","images/stimuli/spore_stims/simple_01_A_a.gif","images/stimuli/spore_stims/simple_02_A_b.gif","forced_long","","7","simple_dissimilar","images/stimuli/spore_stims/simple_02_A_b.gif","","","","",""
"","null","html-keyboard-response","96","460635","0.0-23.0-0.4","SS1618365753212","","","null","","","","","","<p><img src= images/blank.png width =""600"" height = ""600"" style=""position:fixed;top:50%; left:50%; transform: translate(-50%, -50%); border:5px solid black"">","","","","","","","",""
"","1826","sequential-stimulus-presentation-old","97","462978","0.0-23.0-1.4","SS1618365753212","trial","","40","500","2326","images/stimuli/spore_stims/simple_01_A_a.gif","images/stimuli/spore_stims/simple_02_A_b.gif","forced_long","","7","simple_dissimilar","images/stimuli/spore_stims/simple_02_A_b.gif","","","","",""
"","null","html-keyboard-response","98","464281","0.0-23.0-0.5","SS1618365753212","","","null","","","","","","<p><img src= images/blank.png width =""600"" height = ""600"" style=""position:fixed;top:50%; left:50%; transform: translate(-50%, -50%); border:5px solid black"">","","","","","","","",""
"","1510","sequential-stimulus-presentation-old","99","466309","0.0-23.0-1.5","SS1618365753212","trial","","40","500","2010","images/stimuli/spore_stims/simple_01_A_a.gif","images/stimuli/spore_stims/simple_02_A_b.gif","forced_long","","7","simple_dissimilar","images/stimuli/spore_stims/simple_02_A_b.gif","","","","",""
"","2578","survey-multi-choice","100","468904","0.0-24.0","SS1618365753212","math_question","","","","","","","","","","","","{""Q0"":""2""}","[0]","2","",""
"","null","html-keyboard-response","101","469921","0.0-25.0-0.0","SS1618365753212","","","null","","","","","","<p><img src= images/blank.png width =""600"" height = ""600"" style=""position:fixed;top:50%; left:50%; transform: translate(-50%, -50%); border:5px solid black"">","","","","","","","",""
"","2982","sequential-stimulus-presentation-old","102","477919","0.0-25.0-1.0","SS1618365753212","trial","","40","500","3482","images/stimuli/spore_stims/complex_02_A_a.gif","images/stimuli/spore_stims/complex_05_A_b.gif","forced_long","","8","complex_dissimilar","images/stimuli/spore_stims/complex_05_A_b.gif","","","","",""
"","null","html-keyboard-response","103","479077","0.0-25.0-0.1","SS1618365753212","","","null","","","","","","<p><img src= images/blank.png width =""600"" height = ""600"" style=""position:fixed;top:50%; left:50%; transform: translate(-50%, -50%); border:5px solid black"">","","","","","","","",""
"","4639","sequential-stimulus-presentation-old","104","484226","0.0-25.0-1.1","SS1618365753212","trial","","40","500","5139","images/stimuli/spore_stims/complex_02_A_a.gif","images/stimuli/spore_stims/complex_05_A_b.gif","forced_long","","8","complex_dissimilar","images/stimuli/spore_stims/complex_05_A_b.gif","","","","",""
"","null","html-keyboard-response","105","485357","0.0-25.0-0.2","SS1618365753212","","","null","","","","","","<p><img src= images/blank.png width =""600"" height = ""600"" style=""position:fixed;top:50%; left:50%; transform: translate(-50%, -50%); border:5px solid black"">","","","","","","","",""
"","3680","sequential-stimulus-presentation-old","106","489554","0.0-25.0-1.2","SS1618365753212","trial","","40","500","4180","images/stimuli/spore_stims/complex_02_A_a.gif","images/stimuli/spore_stims/complex_05_A_b.gif","forced_long","","8","complex_dissimilar","images/stimuli/spore_stims/complex_05_A_b.gif","","","","",""
"","null","html-keyboard-response","107","490840","0.0-25.0-0.3","SS1618365753212","","","null","","","","","","<p><img src= images/blank.png width =""600"" height = ""600"" style=""position:fixed;top:50%; left:50%; transform: translate(-50%, -50%); border:5px solid black"">","","","","","","","",""
"","3277","sequential-stimulus-presentation-old","108","494634","0.0-25.0-1.3","SS1618365753212","trial","","40","500","3777","images/stimuli/spore_stims/complex_02_A_a.gif","images/stimuli/spore_stims/complex_05_A_b.gif","forced_long","","8","complex_dissimilar","images/stimuli/spore_stims/complex_05_A_b.gif","","","","",""
"","null","html-keyboard-response","109","495629","0.0-25.0-0.4","SS1618365753212","","","null","","","","","","<p><img src= images/blank.png width =""600"" height = ""600"" style=""position:fixed;top:50%; left:50%; transform: translate(-50%, -50%); border:5px solid black"">","","","","","","","",""
"","3849","sequential-stimulus-presentation-old","110","500011","0.0-25.0-1.4","SS1618365753212","trial","","40","500","4349","images/stimuli/spore_stims/complex_02_A_a.gif","images/stimuli/spore_stims/complex_05_A_b.gif","forced_long","","8","complex_dissimilar","images/stimuli/spore_stims/complex_05_A_b.gif","","","","",""
"","null","html-keyboard-response","111","500960","0.0-25.0-0.5","SS1618365753212","","","null","","","","","","<p><img src= images/blank.png width =""600"" height = ""600"" style=""position:fixed;top:50%; left:50%; transform: translate(-50%, -50%); border:5px solid black"">","","","","","","","",""
"","2368","sequential-stimulus-presentation-old","112","503842","0.0-25.0-1.5","SS1618365753212","trial","","40","500","2868","images/stimuli/spore_stims/complex_02_A_a.gif","images/stimuli/spore_stims/complex_05_A_b.gif","forced_long","","8","complex_dissimilar","images/stimuli/spore_stims/complex_05_A_b.gif","","","","",""
"","4572","survey-multi-choice","113","508434","0.0-26.0","SS1618365753212","math_question","","","","","","","","","","","","{""Q0"":""10""}","[0]","10","",""
"","null","html-keyboard-response","114","509502","0.0-27.0-0.0","SS1618365753212","","","null","","","","","","<p><img src= images/blank.png width =""600"" height = ""600"" style=""position:fixed;top:50%; left:50%; transform: translate(-50%, -50%); border:5px solid black"">","","","","","","","",""
"","4018","sequential-stimulus-presentation-old","115","518530","0.0-27.0-1.0","SS1618365753212","trial","","40","500","4518","images/stimuli/spore_stims/simple_17_A_b.gif","images/stimuli/spore_stims/simple_15_A_a.gif","forced_long","","9","simple_dissimilar","images/stimuli/spore_stims/simple_15_A_a.gif","","","","",""
"","null","html-keyboard-response","116","519727","0.0-27.0-0.1","SS1618365753212","","","null","","","","","","<p><img src= images/blank.png width =""600"" height = ""600"" style=""position:fixed;top:50%; left:50%; transform: translate(-50%, -50%); border:5px solid black"">","","","","","","","",""
"","2060","sequential-stimulus-presentation-old","117","522303","0.0-27.0-1.1","SS1618365753212","trial","","40","500","2560","images/stimuli/spore_stims/simple_17_A_b.gif","images/stimuli/spore_stims/simple_15_A_a.gif","forced_long","","9","simple_dissimilar","images/stimuli/spore_stims/simple_15_A_a.gif","","","","",""
"","null","html-keyboard-response","118","523326","0.0-27.0-0.2","SS1618365753212","","","null","","","","","","<p><img src= images/blank.png width =""600"" height = ""600"" style=""position:fixed;top:50%; left:50%; transform: translate(-50%, -50%); border:5px solid black"">","","","","","","","",""
"","695","sequential-stimulus-presentation-old","119","524538","0.0-27.0-1.2","SS1618365753212","trial","","40","500","1195","images/stimuli/spore_stims/simple_17_A_b.gif","images/stimuli/spore_stims/simple_15_A_a.gif","forced_long","","9","simple_dissimilar","images/stimuli/spore_stims/simple_15_A_a.gif","","","","",""
"","null","html-keyboard-response","120","525760","0.0-27.0-0.3","SS1618365753212","","","null","","","","","","<p><img src= images/blank.png width =""600"" height = ""600"" style=""position:fixed;top:50%; left:50%; transform: translate(-50%, -50%); border:5px solid black"">","","","","","","","",""
"","703","sequential-stimulus-presentation-old","121","526969","0.0-27.0-1.3","SS1618365753212","trial","","40","500","1203","images/stimuli/spore_stims/simple_17_A_b.gif","images/stimuli/spore_stims/simple_15_A_a.gif","forced_long","","9","simple_dissimilar","images/stimuli/spore_stims/simple_15_A_a.gif","","","","",""
"","null","html-keyboard-response","122","527955","0.0-27.0-0.4","SS1618365753212","","","null","","","","","","<p><img src= images/blank.png width =""600"" height = ""600"" style=""position:fixed;top:50%; left:50%; transform: translate(-50%, -50%); border:5px solid black"">","","","","","","","",""
"","170","sequential-stimulus-presentation-old","123","528650","0.0-27.0-1.4","SS1618365753212","trial","","40","500","670","images/stimuli/spore_stims/simple_17_A_b.gif","images/stimuli/spore_stims/simple_15_A_a.gif","forced_long","","9","simple_dissimilar","images/stimuli/spore_stims/simple_15_A_a.gif","","","","",""
"","4678","survey-multi-choice","124","533347","0.0-28.0","SS1618365753212","math_question","","","","","","","","","","","","{""Q0"":""13""}","[0]","13","",""
"","null","html-keyboard-response","125","534200","0.0-29.0-0.0","SS1618365753212","","","null","","","","","","<p><img src= images/blank.png width =""600"" height = ""600"" style=""position:fixed;top:50%; left:50%; transform: translate(-50%, -50%); border:5px solid black"">","","","","","","","",""
"","3821","sequential-stimulus-presentation-old","126","543038","0.0-29.0-1.0","SS1618365753212","trial","","40","500","4321","images/stimuli/spore_stims/complex_10_A_b.gif","images/stimuli/spore_stims/complex_17_A_a.gif","forced_long","","10","complex_dissimilar","images/stimuli/spore_stims/complex_17_A_a.gif","","","","",""
"","null","html-keyboard-response","127","543881","0.0-29.0-0.1","SS1618365753212","","","null","","","","","","<p><img src= images/blank.png width =""600"" height = ""600"" style=""position:fixed;top:50%; left:50%; transform: translate(-50%, -50%); border:5px solid black"">","","","","","","","",""
"","2655","sequential-stimulus-presentation-old","128","547060","0.0-29.0-1.1","SS1618365753212","trial","","40","500","3155","images/stimuli/spore_stims/complex_10_A_b.gif","images/stimuli/spore_stims/complex_17_A_a.gif","forced_long","","10","complex_dissimilar","images/stimuli/spore_stims/complex_10_A_b.gif","","","","",""
"","null","html-keyboard-response","129","548262","0.0-29.0-0.2","SS1618365753212","","","null","","","","","","<p><img src= images/blank.png width =""600"" height = ""600"" style=""position:fixed;top:50%; left:50%; transform: translate(-50%, -50%); border:5px solid black"">","","","","","","","",""
"","1986","sequential-stimulus-presentation-old","130","550770","0.0-29.0-1.2","SS1618365753212","trial","","40","500","2486","images/stimuli/spore_stims/complex_10_A_b.gif","images/stimuli/spore_stims/complex_17_A_a.gif","forced_long","","10","complex_dissimilar","images/stimuli/spore_stims/complex_17_A_a.gif","","","","",""
"","null","html-keyboard-response","131","551829","0.0-29.0-0.3","SS1618365753212","","","null","","","","","","<p><img src= images/blank.png width =""600"" height = ""600"" style=""position:fixed;top:50%; left:50%; transform: translate(-50%, -50%); border:5px solid black"">","","","","","","","",""
"","973","sequential-stimulus-presentation-old","132","553321","0.0-29.0-1.3","SS1618365753212","trial","","40","500","1473","images/stimuli/spore_stims/complex_10_A_b.gif","images/stimuli/spore_stims/complex_17_A_a.gif","forced_long","","10","complex_dissimilar","images/stimuli/spore_stims/complex_17_A_a.gif","","","","",""
"","6251","survey-multi-choice","133","559597","0.0-30.0","SS1618365753212","math_question","","","","","","","","","","","","{""Q0"":""7""}","[0]","7","",""
"","null","html-keyboard-response","134","560677","0.0-31.0-0.0","SS1618365753212","","","null","","","","","","<p><img src= images/blank.png width =""600"" height = ""600"" style=""position:fixed;top:50%; left:50%; transform: translate(-50%, -50%); border:5px solid black"">","","","","","","","",""
"","2021","sequential-stimulus-presentation-old","135","562769","0.0-31.0-1.0","SS1618365753212","trial","","40","500","2521","images/stimuli/spore_stims/simple_06_A_a.gif","images/stimuli/spore_stims/simple_08_A_b.gif","forced_short","","11","simple_dissimilar","images/stimuli/spore_stims/simple_08_A_b.gif","","","","",""
"","null","html-keyboard-response","136","563702","0.0-31.0-0.1","SS1618365753212","","","null","","","","","","<p><img src= images/blank.png width =""600"" height = ""600"" style=""position:fixed;top:50%; left:50%; transform: translate(-50%, -50%); border:5px solid black"">","","","","","","","",""
"","1614","sequential-stimulus-presentation-old","137","565842","0.0-31.0-1.1","SS1618365753212","trial","","40","500","2114","images/stimuli/spore_stims/simple_06_A_a.gif","images/stimuli/spore_stims/simple_08_A_b.gif","forced_short","","11","simple_dissimilar","images/stimuli/spore_stims/simple_06_A_a.gif","","","","",""
"","null","html-keyboard-response","138","566711","0.0-31.0-0.2","SS1618365753212","","","null","","","","","","<p><img src= images/blank.png width =""600"" height = ""600"" style=""position:fixed;top:50%; left:50%; transform: translate(-50%, -50%); border:5px solid black"">","","","","","","","",""
"","1273","sequential-stimulus-presentation-old","139","568504","0.0-31.0-1.2","SS1618365753212","trial","","40","500","1773","images/stimuli/spore_stims/simple_06_A_a.gif","images/stimuli/spore_stims/simple_08_A_b.gif","forced_short","","11","simple_dissimilar","images/stimuli/spore_stims/simple_08_A_b.gif","","","","",""
"","null","html-keyboard-response","140","569398","0.0-31.0-0.3","SS1618365753212","","","null","","","","","","<p><img src= images/blank.png width =""600"" height = ""600"" style=""position:fixed;top:50%; left:50%; transform: translate(-50%, -50%); border:5px solid black"">","","","","","","","",""
"","95","sequential-stimulus-presentation-old","141","570018","0.0-31.0-1.3","SS1618365753212","trial","","40","500","595","images/stimuli/spore_stims/simple_06_A_a.gif","images/stimuli/spore_stims/simple_08_A_b.gif","forced_short","","11","simple_dissimilar","images/stimuli/spore_stims/simple_08_A_b.gif","","","","",""
"[{""page_index"":0,""viewing_time"":2046}]","2046","instructions","142","572081","0.0-32.0","SS1618365753212","instructions","","","","","","","","","","","","","","","",""
"","8974","survey-likert","143","581085","0.0-33.0","SS1618365753212","similarity_question","","","","","","","","","","","","{""Q0"":2}","[0]","","images/stimuli/spore_stims/simple_17_A_b.gif","images/stimuli/spore_stims/simple_15_A_a.gif"
"","3942","survey-likert","144","585062","0.0-34.0","SS1618365753212","similarity_question","","","","","","","","","","","","{""Q0"":1}","[0]","","images/stimuli/spore_stims/simple_02_A_a.gif","images/stimuli/spore_stims/simple_11_A_b.gif"
"","6977","survey-likert","145","592079","0.0-35.0","SS1618365753212","similarity_question","","","","","","","","","","","","{""Q0"":0}","[0]","","images/stimuli/spore_stims/complex_09_A_a.gif","images/stimuli/spore_stims/complex_19_A_b.gif"
"","4120","survey-likert","146","596235","0.0-36.0","SS1618365753212","similarity_question","","","","","","","","","","","","{""Q0"":0}","[0]","","images/stimuli/spore_stims/complex_10_A_a.gif","images/stimuli/spore_stims/complex_13_A_b.gif"
"","4935","survey-likert","147","601206","0.0-37.0","SS1618365753212","similarity_question","","","","","","","","","","","","{""Q0"":1}","[0]","","images/stimuli/spore_stims/complex_03_A_a.gif","images/stimuli/spore_stims/complex_08_A_b.gif"
"","5006","survey-likert","148","606251","0.0-38.0","SS1618365753212","similarity_question","","","","","","","","","","","","{""Q0"":2}","[0]","","images/stimuli/spore_stims/simple_04_A_b.gif","images/stimuli/spore_stims/simple_05_A_a.gif"
"","4288","survey-likert","149","610600","0.0-39.0","SS1618365753212","similarity_question","","","","","","","","","","","","{""Q0"":0}","[0]","","images/stimuli/spore_stims/complex_17_A_b.gif","images/stimuli/spore_stims/complex_18_A_a.gif"
"","3079","survey-likert","150","613720","0.0-40.0","SS1618365753212","similarity_question","","","","","","","","","","","","{""Q0"":0}","[0]","","images/stimuli/spore_stims/complex_10_A_b.gif","images/stimuli/spore_stims/complex_17_A_a.gif"
"","2897","survey-likert","151","616637","0.0-41.0","SS1618365753212","similarity_question","","","","","","","","","","","","{""Q0"":0}","[0]","","images/stimuli/spore_stims/complex_05_A_b.gif","images/stimuli/spore_stims/complex_02_A_a.gif"
"","3739","survey-likert","152","620409","0.0-42.0","SS1618365753212","similarity_question","","","","","","","","","","","","{""Q0"":1}","[0]","","images/stimuli/spore_stims/simple_06_A_b.gif","images/stimuli/spore_stims/simple_16_A_a.gif"
"","3426","survey-likert","153","623876","0.0-43.0","SS1618365753212","similarity_question","","","","","","","","","","","","{""Q0"":2}","[0]","","images/stimuli/spore_stims/simple_08_A_b.gif","images/stimuli/spore_stims/simple_06_A_a.gif"
"","2975","survey-likert","154","626896","0.0-44.0","SS1618365753212","similarity_question","","","","","","","","","","","","{""Q0"":1}","[0]","","images/stimuli/spore_stims/simple_02_A_b.gif","images/stimuli/spore_stims/simple_01_A_a.gif"
"[{""page_index"":0,""viewing_time"":1754}]","1754","instructions","155","628703","0.0-45.0","SS1618365753212","instructions","","","","","","","","","","","","","","","",""
"","4154","survey-likert","156","632887","0.0-46.0","SS1618365753212","","","","","","","","","images/stimuli/spore_stims/complex_09_A_a.gif","","","","{""Q0"":5}","[0]","","",""
"","2837","survey-likert","157","635757","0.0-47.0","SS1618365753212","","","","","","","","","images/stimuli/spore_stims/complex_05_A_b.gif","","","","{""Q0"":5}","[0]","","",""
"","5863","survey-likert","158","641655","0.0-48.0","SS1618365753212","","","","","","","","","images/stimuli/spore_stims/complex_17_A_a.gif","","","","{""Q0"":5}","[0]","","",""
"","4205","survey-likert","159","645969","0.0-49.0","SS1618365753212","","","","","","","","","images/stimuli/spore_stims/complex_08_A_b.gif","","","","{""Q0"":6}","[0]","","",""
"","5188","survey-likert","160","651193","0.0-50.0","SS1618365753212","","","","","","","","","images/stimuli/spore_stims/complex_18_A_a.gif","","","","{""Q0"":6}","[0]","","",""
"","3402","survey-likert","161","654634","0.0-51.0","SS1618365753212","","","","","","","","","images/stimuli/spore_stims/simple_06_A_a.gif","","","","{""Q0"":0}","[0]","","",""
"","2556","survey-likert","162","657222","0.0-52.0","SS1618365753212","","","","","","","","","images/stimuli/spore_stims/simple_11_A_b.gif","","","","{""Q0"":1}","[0]","","",""
"","2527","survey-likert","163","659784","0.0-53.0","SS1618365753212","","","","","","","","","images/stimuli/spore_stims/simple_16_A_a.gif","","","","{""Q0"":1}","[0]","","",""
"","3412","survey-likert","164","663226","0.0-54.0","SS1618365753212","","","","","","","","","images/stimuli/spore_stims/simple_02_A_b.gif","","","","{""Q0"":1}","[0]","","",""
"","2586","survey-likert","165","665827","0.0-55.0","SS1618365753212","","","","","","","","","images/stimuli/spore_stims/simple_04_A_b.gif","","","","{""Q0"":1}","[0]","","",""
"","2865","survey-likert","166","668735","0.0-56.0","SS1618365753212","","","","","","","","","images/stimuli/spore_stims/simple_17_A_b.gif","","","","{""Q0"":1}","[0]","","",""
"","2854","survey-likert","167","671619","0.0-57.0","SS1618365753212","","","","","","","","","images/stimuli/spore_stims/complex_10_A_a.gif","","","","{""Q0"":6}","[0]","","",""
"[{""page_index"":0,""viewing_time"":2818}]","2818","instructions","168","674442","0.0-58.0","SS1618365753212","instructions","","","","","","","","","","","","","","","",""
"","4423","demog-age","169","678903","0.0-59.0","SS1618365753212","","","","","","","","","","","","","{""age"":""29""}","","","",""
"","8735","demog-ethnic-US","170","687692","0.0-60.0","SS1618365753212","","","","","","","","","","","","","{""ethnicity"":[""White""]}","[0]","","",""
"","7450","demog-gender-and-education","171","695178","0.0-61.0","SS1618365753212","","","","","","","","","","","","","{""gender"":""Non-binary"",""education"":""Master's Degree""}","[0,1]","","",""
"","17464","survey-text","172","712698","0.0-62.0","SS1618365753212","feedback","","","","","","","","","","","","{""Q0"":""no issue. cute animations!""}","","","",""
"[{""page_index"":0,""viewing_time"":1379}]","1380","instructions","173","714133","0.0-63.0","SS1618365753212","instructions","","","","","","","","","","","","","","","",""
