"view_history","rt","trial_type","trial_index","time_elapsed","internal_node_id","subject","stimulus_type","trial_stimulus","key_press","minimum_viewing_duration","trial_looking_time","block_deviant","block_background","exposure_type","stimulus","block_number","block_type","stimulus_displayed","responses","question_order","math_correct_answer","stimulus_left","stimulus_right"
"[{""page_index"":0,""viewing_time"":5772.7950000044075}]","5773.679999998421","instructions","0","5775","0.0-0.0","SS1618365337109","","","","","","","","","","","","","","","","",""
"[{""page_index"":0,""viewing_time"":7731.509999997797},{""page_index"":1,""viewing_time"":3582.975000004808}]","11314.825000001292","instructions","1","19092","0.0-1.0","SS1618365337109","instructions","","","","","","","","","","","","","","","",""
"","5562.689999998838","sequential-stimulus-presentation-old","2","25159","0.0-2.0","SS1618365337109","","","40","500","6062.689999998838","null","null","self_paced","","","","","","","","",""
"","2561.9749999968917","sequential-stimulus-presentation-old","3","28223","0.0-3.0","SS1618365337109","","","40","500","3061.9749999968917","null","null","self_paced","","","","","","","","",""
"[{""page_index"":0,""viewing_time"":13142.999999996391}]","13143.274999994901","instructions","4","41368","0.0-4.0","SS1618365337109","instructions","","","","","","","","","","","","","","","",""
"","1308.004999998957","sequential-stimulus-presentation-old","5","47678","0.0-5.0","SS1618365337109","","","40","500","1808.004999998957","null","null","forced_long","","","","","","","","",""
"","4637.9999999990105","sequential-stimulus-presentation-old","6","52368","0.0-6.0","SS1618365337109","","","40","50","4687.9999999990105","null","null","forced_long","","","","","","","","",""
"[{""page_index"":0,""viewing_time"":9150.88499999547}]","9151.21999999974","instructions","7","61520","0.0-7.0","SS1618365337109","instructions","","","","","","","","","","","","","","","",""
"[{""page_index"":0,""viewing_time"":3758.299999994051},{""page_index"":1,""viewing_time"":6193.155000000843},{""page_index"":2,""viewing_time"":3206.8100000033155},{""page_index"":3,""viewing_time"":850.269999995362},{""page_index"":4,""viewing_time"":783.9850000018487}]","14792.770000000019","instructions","8","76315","0.0-8.0","SS1618365337109","instructions","","","","","","","","","","","","","","","",""
"","null","html-keyboard-response","9","77170","0.0-9.0-0.0","SS1618365337109","","","null","","","","","","<p><img src= images/blank.png width =""600"" height = ""600"" style=""position:fixed;top:50%; left:50%; transform: translate(-50%, -50%); border:5px solid black"">","","","","","","","",""
"","1359.5300000015413","sequential-stimulus-presentation-old","10","78583","0.0-9.0-1.0","SS1618365337109","trial","","40","500","1859.5300000015413","images/stimuli/spore_stims/simple_20_A_a.gif","images/stimuli/spore_stims/simple_03_A_b.gif","forced_short","","0","simple_dissimilar","images/stimuli/spore_stims/simple_03_A_b.gif","","","","",""
"","null","html-keyboard-response","11","79482","0.0-9.0-0.1","SS1618365337109","","","null","","","","","","<p><img src= images/blank.png width =""600"" height = ""600"" style=""position:fixed;top:50%; left:50%; transform: translate(-50%, -50%); border:5px solid black"">","","","","","","","",""
"","43248.15999999555","sequential-stimulus-presentation-old","12","123234","0.0-9.0-1.1","SS1618365337109","trial","","40","500","43748.15999999555","images/stimuli/spore_stims/simple_20_A_a.gif","images/stimuli/spore_stims/simple_03_A_b.gif","forced_short","","0","simple_dissimilar","images/stimuli/spore_stims/simple_03_A_b.gif","","","","",""
"","null","html-keyboard-response","13","124225","0.0-9.0-0.2","SS1618365337109","","","null","","","","","","<p><img src= images/blank.png width =""600"" height = ""600"" style=""position:fixed;top:50%; left:50%; transform: translate(-50%, -50%); border:5px solid black"">","","","","","","","",""
"","20208.639999997104","sequential-stimulus-presentation-old","14","144937","0.0-9.0-1.2","SS1618365337109","trial","","40","500","20708.639999997104","images/stimuli/spore_stims/simple_20_A_a.gif","images/stimuli/spore_stims/simple_03_A_b.gif","forced_short","","0","simple_dissimilar","images/stimuli/spore_stims/simple_03_A_b.gif","","","","",""
"","null","html-keyboard-response","15","145767","0.0-9.0-0.3","SS1618365337109","","","null","","","","","","<p><img src= images/blank.png width =""600"" height = ""600"" style=""position:fixed;top:50%; left:50%; transform: translate(-50%, -50%); border:5px solid black"">","","","","","","","",""
"","13355.100000000675","sequential-stimulus-presentation-old","16","159626","0.0-9.0-1.3","SS1618365337109","trial","","40","500","13855.100000000675","images/stimuli/spore_stims/simple_20_A_a.gif","images/stimuli/spore_stims/simple_03_A_b.gif","forced_short","","0","simple_dissimilar","images/stimuli/spore_stims/simple_03_A_b.gif","","","","",""
"","3746.644999999262","survey-multi-choice","17","163376","0.0-10.0","SS1618365337109","math_question","","","","","","","","","","","","{""Q0"":""10""}","[0]","10","",""
"","null","html-keyboard-response","18","164664","0.0-11.0-0.0","SS1618365337109","","","null","","","","","","<p><img src= images/blank.png width =""600"" height = ""600"" style=""position:fixed;top:50%; left:50%; transform: translate(-50%, -50%); border:5px solid black"">","","","","","","","",""
"","17259.229999996023","sequential-stimulus-presentation-old","19","182426","0.0-11.0-1.0","SS1618365337109","trial","","40","500","17759.229999996023","images/stimuli/spore_stims/simple_15_A_b.gif","images/stimuli/spore_stims/simple_10_A_a.gif","self_paced","","1","simple_dissimilar","images/stimuli/spore_stims/simple_10_A_a.gif","","","","",""
"","null","html-keyboard-response","20","183681","0.0-11.0-0.1","SS1618365337109","","","null","","","","","","<p><img src= images/blank.png width =""600"" height = ""600"" style=""position:fixed;top:50%; left:50%; transform: translate(-50%, -50%); border:5px solid black"">","","","","","","","",""
"","20200.329999999667","sequential-stimulus-presentation-old","21","204387","0.0-11.0-1.1","SS1618365337109","trial","","40","500","20700.329999999667","images/stimuli/spore_stims/simple_15_A_b.gif","images/stimuli/spore_stims/simple_10_A_a.gif","self_paced","","1","simple_dissimilar","images/stimuli/spore_stims/simple_10_A_a.gif","","","","",""
"","null","html-keyboard-response","22","205358","0.0-11.0-0.2","SS1618365337109","","","null","","","","","","<p><img src= images/blank.png width =""600"" height = ""600"" style=""position:fixed;top:50%; left:50%; transform: translate(-50%, -50%); border:5px solid black"">","","","","","","","",""
"","10677.904999996827","sequential-stimulus-presentation-old","23","216539","0.0-11.0-1.2","SS1618365337109","trial","","40","500","11177.904999996827","images/stimuli/spore_stims/simple_15_A_b.gif","images/stimuli/spore_stims/simple_10_A_a.gif","self_paced","","1","simple_dissimilar","images/stimuli/spore_stims/simple_10_A_a.gif","","","","",""
"","null","html-keyboard-response","24","217573","0.0-11.0-0.3","SS1618365337109","","","null","","","","","","<p><img src= images/blank.png width =""600"" height = ""600"" style=""position:fixed;top:50%; left:50%; transform: translate(-50%, -50%); border:5px solid black"">","","","","","","","",""
"","12989.550000005693","sequential-stimulus-presentation-old","25","231066","0.0-11.0-1.3","SS1618365337109","trial","","40","500","13489.550000005693","images/stimuli/spore_stims/simple_15_A_b.gif","images/stimuli/spore_stims/simple_10_A_a.gif","self_paced","","1","simple_dissimilar","images/stimuli/spore_stims/simple_15_A_b.gif","","","","",""
"","null","html-keyboard-response","26","232154","0.0-11.0-0.4","SS1618365337109","","","null","","","","","","<p><img src= images/blank.png width =""600"" height = ""600"" style=""position:fixed;top:50%; left:50%; transform: translate(-50%, -50%); border:5px solid black"">","","","","","","","",""
"","15945.104999998875","sequential-stimulus-presentation-old","27","248603","0.0-11.0-1.4","SS1618365337109","trial","","40","500","16445.104999998875","images/stimuli/spore_stims/simple_15_A_b.gif","images/stimuli/spore_stims/simple_10_A_a.gif","self_paced","","1","simple_dissimilar","images/stimuli/spore_stims/simple_10_A_a.gif","","","","",""
"","2109.5600000044215","survey-multi-choice","28","250714","0.0-12.0","SS1618365337109","math_question","","","","","","","","","","","","{""Q0"":""8""}","[0]","8","",""
"","null","html-keyboard-response","29","251777","0.0-13.0-0.0","SS1618365337109","","","null","","","","","","<p><img src= images/blank.png width =""600"" height = ""600"" style=""position:fixed;top:50%; left:50%; transform: translate(-50%, -50%); border:5px solid black"">","","","","","","","",""
"","1188.7750000023516","sequential-stimulus-presentation-old","30","253019","0.0-13.0-1.0","SS1618365337109","trial","","40","500","1688.7750000023516","images/stimuli/spore_stims/complex_02_A_a.gif","images/stimuli/spore_stims/complex_11_A_b.gif","forced_short","","2","complex_dissimilar","images/stimuli/spore_stims/complex_11_A_b.gif","","","","",""
"","null","html-keyboard-response","31","253822","0.0-13.0-0.1","SS1618365337109","","","null","","","","","","<p><img src= images/blank.png width =""600"" height = ""600"" style=""position:fixed;top:50%; left:50%; transform: translate(-50%, -50%); border:5px solid black"">","","","","","","","",""
"","12158.42999999586","sequential-stimulus-presentation-old","32","266484","0.0-13.0-1.1","SS1618365337109","trial","","40","500","12658.42999999586","images/stimuli/spore_stims/complex_02_A_a.gif","images/stimuli/spore_stims/complex_11_A_b.gif","forced_short","","2","complex_dissimilar","images/stimuli/spore_stims/complex_11_A_b.gif","","","","",""
"","null","html-keyboard-response","33","267431","0.0-13.0-0.2","SS1618365337109","","","null","","","","","","<p><img src= images/blank.png width =""600"" height = ""600"" style=""position:fixed;top:50%; left:50%; transform: translate(-50%, -50%); border:5px solid black"">","","","","","","","",""
"","9485.549999997602","sequential-stimulus-presentation-old","34","277420","0.0-13.0-1.2","SS1618365337109","trial","","40","500","9985.549999997602","images/stimuli/spore_stims/complex_02_A_a.gif","images/stimuli/spore_stims/complex_11_A_b.gif","forced_short","","2","complex_dissimilar","images/stimuli/spore_stims/complex_11_A_b.gif","","","","",""
"","null","html-keyboard-response","35","278534","0.0-13.0-0.3","SS1618365337109","","","null","","","","","","<p><img src= images/blank.png width =""600"" height = ""600"" style=""position:fixed;top:50%; left:50%; transform: translate(-50%, -50%); border:5px solid black"">","","","","","","","",""
"","5149.305000006279","sequential-stimulus-presentation-old","36","284188","0.0-13.0-1.3","SS1618365337109","trial","","40","500","5649.305000006279","images/stimuli/spore_stims/complex_02_A_a.gif","images/stimuli/spore_stims/complex_11_A_b.gif","forced_short","","2","complex_dissimilar","images/stimuli/spore_stims/complex_11_A_b.gif","","","","",""
"","null","html-keyboard-response","37","284995","0.0-13.0-0.4","SS1618365337109","","","null","","","","","","<p><img src= images/blank.png width =""600"" height = ""600"" style=""position:fixed;top:50%; left:50%; transform: translate(-50%, -50%); border:5px solid black"">","","","","","","","",""
"","6616.82500000461","sequential-stimulus-presentation-old","38","292116","0.0-13.0-1.4","SS1618365337109","trial","","40","500","7116.82500000461","images/stimuli/spore_stims/complex_02_A_a.gif","images/stimuli/spore_stims/complex_11_A_b.gif","forced_short","","2","complex_dissimilar","images/stimuli/spore_stims/complex_11_A_b.gif","","","","",""
"","177972.12999999465","survey-multi-choice","39","470093","0.0-14.0","SS1618365337109","math_question","","","","","","","","","","","","{""Q0"":""5""}","[0]","5","",""
"","null","html-keyboard-response","40","471014","0.0-15.0-0.0","SS1618365337109","","","null","","","","","","<p><img src= images/blank.png width =""600"" height = ""600"" style=""position:fixed;top:50%; left:50%; transform: translate(-50%, -50%); border:5px solid black"">","","","","","","","",""
"","8826.035000005504","sequential-stimulus-presentation-old","41","480344","0.0-15.0-1.0","SS1618365337109","trial","","40","500","9326.035000005504","images/stimuli/spore_stims/complex_06_A_b.gif","images/stimuli/spore_stims/complex_16_A_a.gif","self_paced","","3","complex_dissimilar","images/stimuli/spore_stims/complex_16_A_a.gif","","","","",""
"","null","html-keyboard-response","42","481538","0.0-15.0-0.1","SS1618365337109","","","null","","","","","","<p><img src= images/blank.png width =""600"" height = ""600"" style=""position:fixed;top:50%; left:50%; transform: translate(-50%, -50%); border:5px solid black"">","","","","","","","",""
"","8415.81999999471","sequential-stimulus-presentation-old","43","490457","0.0-15.0-1.1","SS1618365337109","trial","","40","500","8915.81999999471","images/stimuli/spore_stims/complex_06_A_b.gif","images/stimuli/spore_stims/complex_16_A_a.gif","self_paced","","3","complex_dissimilar","images/stimuli/spore_stims/complex_16_A_a.gif","","","","",""
"","null","html-keyboard-response","44","491321","0.0-15.0-0.2","SS1618365337109","","","null","","","","","","<p><img src= images/blank.png width =""600"" height = ""600"" style=""position:fixed;top:50%; left:50%; transform: translate(-50%, -50%); border:5px solid black"">","","","","","","","",""
"","7029.965000001539","sequential-stimulus-presentation-old","45","498855","0.0-15.0-1.2","SS1618365337109","trial","","40","500","7529.965000001539","images/stimuli/spore_stims/complex_06_A_b.gif","images/stimuli/spore_stims/complex_16_A_a.gif","self_paced","","3","complex_dissimilar","images/stimuli/spore_stims/complex_16_A_a.gif","","","","",""
"","null","html-keyboard-response","46","499959","0.0-15.0-0.3","SS1618365337109","","","null","","","","","","<p><img src= images/blank.png width =""600"" height = ""600"" style=""position:fixed;top:50%; left:50%; transform: translate(-50%, -50%); border:5px solid black"">","","","","","","","",""
"","8121.784999995725","sequential-stimulus-presentation-old","47","508585","0.0-15.0-1.3","SS1618365337109","trial","","40","500","8621.784999995725","images/stimuli/spore_stims/complex_06_A_b.gif","images/stimuli/spore_stims/complex_16_A_a.gif","self_paced","","3","complex_dissimilar","images/stimuli/spore_stims/complex_06_A_b.gif","","","","",""
"","null","html-keyboard-response","48","509823","0.0-15.0-0.4","SS1618365337109","","","null","","","","","","<p><img src= images/blank.png width =""600"" height = ""600"" style=""position:fixed;top:50%; left:50%; transform: translate(-50%, -50%); border:5px solid black"">","","","","","","","",""
"","6465.0000000037835","sequential-stimulus-presentation-old","49","516792","0.0-15.0-1.4","SS1618365337109","trial","","40","500","6965.0000000037835","images/stimuli/spore_stims/complex_06_A_b.gif","images/stimuli/spore_stims/complex_16_A_a.gif","self_paced","","3","complex_dissimilar","images/stimuli/spore_stims/complex_16_A_a.gif","","","","",""
"","1968.8200000018696","survey-multi-choice","50","518762","0.0-16.0","SS1618365337109","math_question","","","","","","","","","","","","{""Q0"":""12""}","[0]","12","",""
"","null","html-keyboard-response","51","519951","0.0-17.0-0.0","SS1618365337109","","","null","","","","","","<p><img src= images/blank.png width =""600"" height = ""600"" style=""position:fixed;top:50%; left:50%; transform: translate(-50%, -50%); border:5px solid black"">","","","","","","","",""
"","9920.750000004773","sequential-stimulus-presentation-old","52","530377","0.0-17.0-1.0","SS1618365337109","trial","","40","500","10420.750000004773","images/stimuli/spore_stims/complex_15_A_b.gif","images/stimuli/spore_stims/complex_10_A_a.gif","self_paced","","4","complex_dissimilar","images/stimuli/spore_stims/complex_10_A_a.gif","","","","",""
"","null","html-keyboard-response","53","531515","0.0-17.0-0.1","SS1618365337109","","","null","","","","","","<p><img src= images/blank.png width =""600"" height = ""600"" style=""position:fixed;top:50%; left:50%; transform: translate(-50%, -50%); border:5px solid black"">","","","","","","","",""
"","6372.69500000542","sequential-stimulus-presentation-old","54","538393","0.0-17.0-1.1","SS1618365337109","trial","","40","500","6872.69500000542","images/stimuli/spore_stims/complex_15_A_b.gif","images/stimuli/spore_stims/complex_10_A_a.gif","self_paced","","4","complex_dissimilar","images/stimuli/spore_stims/complex_10_A_a.gif","","","","",""
"","null","html-keyboard-response","55","539576","0.0-17.0-0.2","SS1618365337109","","","null","","","","","","<p><img src= images/blank.png width =""600"" height = ""600"" style=""position:fixed;top:50%; left:50%; transform: translate(-50%, -50%); border:5px solid black"">","","","","","","","",""
"","10977.240000000224","sequential-stimulus-presentation-old","56","551058","0.0-17.0-1.2","SS1618365337109","trial","","40","500","11477.240000000224","images/stimuli/spore_stims/complex_15_A_b.gif","images/stimuli/spore_stims/complex_10_A_a.gif","self_paced","","4","complex_dissimilar","images/stimuli/spore_stims/complex_10_A_a.gif","","","","",""
"","null","html-keyboard-response","57","552284","0.0-17.0-0.3","SS1618365337109","","","null","","","","","","<p><img src= images/blank.png width =""600"" height = ""600"" style=""position:fixed;top:50%; left:50%; transform: translate(-50%, -50%); border:5px solid black"">","","","","","","","",""
"","5868.969999995781","sequential-stimulus-presentation-old","58","558657","0.0-17.0-1.3","SS1618365337109","trial","","40","500","6368.969999995781","images/stimuli/spore_stims/complex_15_A_b.gif","images/stimuli/spore_stims/complex_10_A_a.gif","self_paced","","4","complex_dissimilar","images/stimuli/spore_stims/complex_15_A_b.gif","","","","",""
"","null","html-keyboard-response","59","559538","0.0-17.0-0.4","SS1618365337109","","","null","","","","","","<p><img src= images/blank.png width =""600"" height = ""600"" style=""position:fixed;top:50%; left:50%; transform: translate(-50%, -50%); border:5px solid black"">","","","","","","","",""
"","6751.895000001299","sequential-stimulus-presentation-old","60","566794","0.0-17.0-1.4","SS1618365337109","trial","","40","500","7251.895000001299","images/stimuli/spore_stims/complex_15_A_b.gif","images/stimuli/spore_stims/complex_10_A_a.gif","self_paced","","4","complex_dissimilar","images/stimuli/spore_stims/complex_15_A_b.gif","","","","",""
"","2050.7849999994505","survey-multi-choice","61","568847","0.0-18.0","SS1618365337109","math_question","","","","","","","","","","","","{""Q0"":""7""}","[0]","7","",""
"","null","html-keyboard-response","62","569860","0.0-19.0-0.0","SS1618365337109","","","null","","","","","","<p><img src= images/blank.png width =""600"" height = ""600"" style=""position:fixed;top:50%; left:50%; transform: translate(-50%, -50%); border:5px solid black"">","","","","","","","",""
"","1016.7700000021141","sequential-stimulus-presentation-old","63","575881","0.0-19.0-1.0","SS1618365337109","trial","","40","500","1516.770000002114","images/stimuli/spore_stims/simple_17_A_a.gif","images/stimuli/spore_stims/simple_04_A_b.gif","forced_long","","5","simple_dissimilar","images/stimuli/spore_stims/simple_04_A_b.gif","","","","",""
"","null","html-keyboard-response","64","576844","0.0-19.0-0.1","SS1618365337109","","","null","","","","","","<p><img src= images/blank.png width =""600"" height = ""600"" style=""position:fixed;top:50%; left:50%; transform: translate(-50%, -50%); border:5px solid black"">","","","","","","","",""
"","13725.53499999782","sequential-stimulus-presentation-old","65","591075","0.0-19.0-1.1","SS1618365337109","trial","","40","500","14225.53499999782","images/stimuli/spore_stims/simple_17_A_a.gif","images/stimuli/spore_stims/simple_04_A_b.gif","forced_long","","5","simple_dissimilar","images/stimuli/spore_stims/simple_04_A_b.gif","","","","",""
"","null","html-keyboard-response","66","592164","0.0-19.0-0.2","SS1618365337109","","","null","","","","","","<p><img src= images/blank.png width =""600"" height = ""600"" style=""position:fixed;top:50%; left:50%; transform: translate(-50%, -50%); border:5px solid black"">","","","","","","","",""
"","10486.515000004089","sequential-stimulus-presentation-old","67","603155","0.0-19.0-1.2","SS1618365337109","trial","","40","500","10986.515000004089","images/stimuli/spore_stims/simple_17_A_a.gif","images/stimuli/spore_stims/simple_04_A_b.gif","forced_long","","5","simple_dissimilar","images/stimuli/spore_stims/simple_04_A_b.gif","","","","",""
"","null","html-keyboard-response","68","604358","0.0-19.0-0.3","SS1618365337109","","","null","","","","","","<p><img src= images/blank.png width =""600"" height = ""600"" style=""position:fixed;top:50%; left:50%; transform: translate(-50%, -50%); border:5px solid black"">","","","","","","","",""
"","7035.289999999804","sequential-stimulus-presentation-old","69","611898","0.0-19.0-1.3","SS1618365337109","trial","","40","500","7535.289999999804","images/stimuli/spore_stims/simple_17_A_a.gif","images/stimuli/spore_stims/simple_04_A_b.gif","forced_long","","5","simple_dissimilar","images/stimuli/spore_stims/simple_17_A_a.gif","","","","",""
"","null","html-keyboard-response","70","612868","0.0-19.0-0.4","SS1618365337109","","","null","","","","","","<p><img src= images/blank.png width =""600"" height = ""600"" style=""position:fixed;top:50%; left:50%; transform: translate(-50%, -50%); border:5px solid black"">","","","","","","","",""
"","7485.28999999701","sequential-stimulus-presentation-old","71","620858","0.0-19.0-1.4","SS1618365337109","trial","","40","500","7985.28999999701","images/stimuli/spore_stims/simple_17_A_a.gif","images/stimuli/spore_stims/simple_04_A_b.gif","forced_long","","5","simple_dissimilar","images/stimuli/spore_stims/simple_04_A_b.gif","","","","",""
"","2950.4200000009732","survey-multi-choice","72","623811","0.0-20.0","SS1618365337109","math_question","","","","","","","","","","","","{""Q0"":""8""}","[0]","8","",""
"","null","html-keyboard-response","73","624636","0.0-21.0-0.0","SS1618365337109","","","null","","","","","","<p><img src= images/blank.png width =""600"" height = ""600"" style=""position:fixed;top:50%; left:50%; transform: translate(-50%, -50%); border:5px solid black"">","","","","","","","",""
"","745.7149999972899","sequential-stimulus-presentation-old","74","630386","0.0-21.0-1.0","SS1618365337109","trial","","40","500","1245.7149999972899","images/stimuli/spore_stims/complex_19_A_a.gif","images/stimuli/spore_stims/complex_07_A_b.gif","forced_long","","6","complex_dissimilar","images/stimuli/spore_stims/complex_07_A_b.gif","","","","",""
"","null","html-keyboard-response","75","631626","0.0-21.0-0.1","SS1618365337109","","","null","","","","","","<p><img src= images/blank.png width =""600"" height = ""600"" style=""position:fixed;top:50%; left:50%; transform: translate(-50%, -50%); border:5px solid black"">","","","","","","","",""
"","11272.994999999413","sequential-stimulus-presentation-old","76","643403","0.0-21.0-1.1","SS1618365337109","trial","","40","500","11772.994999999413","images/stimuli/spore_stims/complex_19_A_a.gif","images/stimuli/spore_stims/complex_07_A_b.gif","forced_long","","6","complex_dissimilar","images/stimuli/spore_stims/complex_07_A_b.gif","","","","",""
"","null","html-keyboard-response","77","644265","0.0-21.0-0.2","SS1618365337109","","","null","","","","","","<p><img src= images/blank.png width =""600"" height = ""600"" style=""position:fixed;top:50%; left:50%; transform: translate(-50%, -50%); border:5px solid black"">","","","","","","","",""
"","7529.09999999986","sequential-stimulus-presentation-old","78","652299","0.0-21.0-1.2","SS1618365337109","trial","","40","500","8029.09999999986","images/stimuli/spore_stims/complex_19_A_a.gif","images/stimuli/spore_stims/complex_07_A_b.gif","forced_long","","6","complex_dissimilar","images/stimuli/spore_stims/complex_07_A_b.gif","","","","",""
"","null","html-keyboard-response","79","653460","0.0-21.0-0.3","SS1618365337109","","","null","","","","","","<p><img src= images/blank.png width =""600"" height = ""600"" style=""position:fixed;top:50%; left:50%; transform: translate(-50%, -50%); border:5px solid black"">","","","","","","","",""
"","4477.2850000008475","sequential-stimulus-presentation-old","80","658443","0.0-21.0-1.3","SS1618365337109","trial","","40","500","4977.2850000008475","images/stimuli/spore_stims/complex_19_A_a.gif","images/stimuli/spore_stims/complex_07_A_b.gif","forced_long","","6","complex_dissimilar","images/stimuli/spore_stims/complex_07_A_b.gif","","","","",""
"","1802.0899999975227","survey-multi-choice","81","660247","0.0-22.0","SS1618365337109","math_question","","","","","","","","","","","","{""Q0"":""9""}","[0]","9","",""
"","null","html-keyboard-response","82","661488","0.0-23.0-0.0","SS1618365337109","","","null","","","","","","<p><img src= images/blank.png width =""600"" height = ""600"" style=""position:fixed;top:50%; left:50%; transform: translate(-50%, -50%); border:5px solid black"">","","","","","","","",""
"","7501.134999998612","sequential-stimulus-presentation-old","83","669492","0.0-23.0-1.0","SS1618365337109","trial","","40","500","8001.134999998612","images/stimuli/spore_stims/simple_03_A_a.gif","images/stimuli/spore_stims/simple_13_A_b.gif","self_paced","","7","simple_dissimilar","images/stimuli/spore_stims/simple_13_A_b.gif","","","","",""
"","null","html-keyboard-response","84","670747","0.0-23.0-0.1","SS1618365337109","","","null","","","","","","<p><img src= images/blank.png width =""600"" height = ""600"" style=""position:fixed;top:50%; left:50%; transform: translate(-50%, -50%); border:5px solid black"">","","","","","","","",""
"","5103.575000001001","sequential-stimulus-presentation-old","85","676355","0.0-23.0-1.1","SS1618365337109","trial","","40","500","5603.575000001001","images/stimuli/spore_stims/simple_03_A_a.gif","images/stimuli/spore_stims/simple_13_A_b.gif","self_paced","","7","simple_dissimilar","images/stimuli/spore_stims/simple_13_A_b.gif","","","","",""
"","null","html-keyboard-response","86","677399","0.0-23.0-0.2","SS1618365337109","","","null","","","","","","<p><img src= images/blank.png width =""600"" height = ""600"" style=""position:fixed;top:50%; left:50%; transform: translate(-50%, -50%); border:5px solid black"">","","","","","","","",""
"","4341.700000004377","sequential-stimulus-presentation-old","87","682245","0.0-23.0-1.2","SS1618365337109","trial","","40","500","4841.700000004377","images/stimuli/spore_stims/simple_03_A_a.gif","images/stimuli/spore_stims/simple_13_A_b.gif","self_paced","","7","simple_dissimilar","images/stimuli/spore_stims/simple_13_A_b.gif","","","","",""
"","null","html-keyboard-response","88","683215","0.0-23.0-0.3","SS1618365337109","","","null","","","","","","<p><img src= images/blank.png width =""600"" height = ""600"" style=""position:fixed;top:50%; left:50%; transform: translate(-50%, -50%); border:5px solid black"">","","","","","","","",""
"","5074.894999997923","sequential-stimulus-presentation-old","89","688796","0.0-23.0-1.3","SS1618365337109","trial","","40","500","5574.894999997923","images/stimuli/spore_stims/simple_03_A_a.gif","images/stimuli/spore_stims/simple_13_A_b.gif","self_paced","","7","simple_dissimilar","images/stimuli/spore_stims/simple_03_A_a.gif","","","","",""
"","null","html-keyboard-response","90","689935","0.0-23.0-0.4","SS1618365337109","","","null","","","","","","<p><img src= images/blank.png width =""600"" height = ""600"" style=""position:fixed;top:50%; left:50%; transform: translate(-50%, -50%); border:5px solid black"">","","","","","","","",""
"","5495.555000001332","sequential-stimulus-presentation-old","91","695934","0.0-23.0-1.4","SS1618365337109","trial","","40","500","5995.555000001332","images/stimuli/spore_stims/simple_03_A_a.gif","images/stimuli/spore_stims/simple_13_A_b.gif","self_paced","","7","simple_dissimilar","images/stimuli/spore_stims/simple_13_A_b.gif","","","","",""
"","1924.7949999989942","survey-multi-choice","92","697861","0.0-24.0","SS1618365337109","math_question","","","","","","","","","","","","{""Q0"":""2""}","[0]","2","",""
"","null","html-keyboard-response","93","698739","0.0-25.0-0.0","SS1618365337109","","","null","","","","","","<p><img src= images/blank.png width =""600"" height = ""600"" style=""position:fixed;top:50%; left:50%; transform: translate(-50%, -50%); border:5px solid black"">","","","","","","","",""
"","1090.4799999989336","sequential-stimulus-presentation-old","94","699884","0.0-25.0-1.0","SS1618365337109","trial","","40","500","1590.4799999989336","images/stimuli/spore_stims/simple_14_A_a.gif","images/stimuli/spore_stims/simple_11_A_b.gif","forced_short","","8","simple_dissimilar","images/stimuli/spore_stims/simple_11_A_b.gif","","","","",""
"","null","html-keyboard-response","95","700830","0.0-25.0-0.1","SS1618365337109","","","null","","","","","","<p><img src= images/blank.png width =""600"" height = ""600"" style=""position:fixed;top:50%; left:50%; transform: translate(-50%, -50%); border:5px solid black"">","","","","","","","",""
"","6926.364999999292","sequential-stimulus-presentation-old","96","708261","0.0-25.0-1.1","SS1618365337109","trial","","40","500","7426.364999999292","images/stimuli/spore_stims/simple_14_A_a.gif","images/stimuli/spore_stims/simple_11_A_b.gif","forced_short","","8","simple_dissimilar","images/stimuli/spore_stims/simple_14_A_a.gif","","","","",""
"","null","html-keyboard-response","97","709228","0.0-25.0-0.2","SS1618365337109","","","null","","","","","","<p><img src= images/blank.png width =""600"" height = ""600"" style=""position:fixed;top:50%; left:50%; transform: translate(-50%, -50%); border:5px solid black"">","","","","","","","",""
"","5863.219999999274","sequential-stimulus-presentation-old","98","715596","0.0-25.0-1.2","SS1618365337109","trial","","40","500","6363.219999999274","images/stimuli/spore_stims/simple_14_A_a.gif","images/stimuli/spore_stims/simple_11_A_b.gif","forced_short","","8","simple_dissimilar","images/stimuli/spore_stims/simple_11_A_b.gif","","","","",""
"","null","html-keyboard-response","99","716551","0.0-25.0-0.3","SS1618365337109","","","null","","","","","","<p><img src= images/blank.png width =""600"" height = ""600"" style=""position:fixed;top:50%; left:50%; transform: translate(-50%, -50%); border:5px solid black"">","","","","","","","",""
"","5141.530000000843","sequential-stimulus-presentation-old","100","722198","0.0-25.0-1.3","SS1618365337109","trial","","40","500","5641.530000000843","images/stimuli/spore_stims/simple_14_A_a.gif","images/stimuli/spore_stims/simple_11_A_b.gif","forced_short","","8","simple_dissimilar","images/stimuli/spore_stims/simple_11_A_b.gif","","","","",""
"","1760.0900000033434","survey-multi-choice","101","723960","0.0-26.0","SS1618365337109","math_question","","","","","","","","","","","","{""Q0"":""3""}","[0]","3","",""
"","null","html-keyboard-response","102","725077","0.0-27.0-0.0","SS1618365337109","","","null","","","","","","<p><img src= images/blank.png width =""600"" height = ""600"" style=""position:fixed;top:50%; left:50%; transform: translate(-50%, -50%); border:5px solid black"">","","","","","","","",""
"","11913.625000001048","sequential-stimulus-presentation-old","103","741996","0.0-27.0-1.0","SS1618365337109","trial","","40","500","12413.625000001048","images/stimuli/spore_stims/complex_18_A_b.gif","images/stimuli/spore_stims/complex_03_A_a.gif","forced_long","","9","complex_dissimilar","images/stimuli/spore_stims/complex_03_A_a.gif","","","","",""
"","null","html-keyboard-response","104","743024","0.0-27.0-0.1","SS1618365337109","","","null","","","","","","<p><img src= images/blank.png width =""600"" height = ""600"" style=""position:fixed;top:50%; left:50%; transform: translate(-50%, -50%); border:5px solid black"">","","","","","","","",""
"","5716.885000001639","sequential-stimulus-presentation-old","105","749246","0.0-27.0-1.1","SS1618365337109","trial","","40","500","6216.885000001639","images/stimuli/spore_stims/complex_18_A_b.gif","images/stimuli/spore_stims/complex_03_A_a.gif","forced_long","","9","complex_dissimilar","images/stimuli/spore_stims/complex_18_A_b.gif","","","","",""
"","null","html-keyboard-response","106","750307","0.0-27.0-0.2","SS1618365337109","","","null","","","","","","<p><img src= images/blank.png width =""600"" height = ""600"" style=""position:fixed;top:50%; left:50%; transform: translate(-50%, -50%); border:5px solid black"">","","","","","","","",""
"","5608.124999998836","sequential-stimulus-presentation-old","107","756420","0.0-27.0-1.2","SS1618365337109","trial","","40","500","6108.124999998836","images/stimuli/spore_stims/complex_18_A_b.gif","images/stimuli/spore_stims/complex_03_A_a.gif","forced_long","","9","complex_dissimilar","images/stimuli/spore_stims/complex_03_A_a.gif","","","","",""
"","null","html-keyboard-response","108","757538","0.0-27.0-0.3","SS1618365337109","","","null","","","","","","<p><img src= images/blank.png width =""600"" height = ""600"" style=""position:fixed;top:50%; left:50%; transform: translate(-50%, -50%); border:5px solid black"">","","","","","","","",""
"","4811.539999995148","sequential-stimulus-presentation-old","109","762854","0.0-27.0-1.3","SS1618365337109","trial","","40","500","5311.539999995148","images/stimuli/spore_stims/complex_18_A_b.gif","images/stimuli/spore_stims/complex_03_A_a.gif","forced_long","","9","complex_dissimilar","images/stimuli/spore_stims/complex_03_A_a.gif","","","","",""
"","null","html-keyboard-response","110","764004","0.0-27.0-0.4","SS1618365337109","","","null","","","","","","<p><img src= images/blank.png width =""600"" height = ""600"" style=""position:fixed;top:50%; left:50%; transform: translate(-50%, -50%); border:5px solid black"">","","","","","","","",""
"","4135.64000000048","sequential-stimulus-presentation-old","111","768644","0.0-27.0-1.4","SS1618365337109","trial","","40","500","4635.64000000048","images/stimuli/spore_stims/complex_18_A_b.gif","images/stimuli/spore_stims/complex_03_A_a.gif","forced_long","","9","complex_dissimilar","images/stimuli/spore_stims/complex_03_A_a.gif","","","","",""
"","null","html-keyboard-response","112","769736","0.0-27.0-0.5","SS1618365337109","","","null","","","","","","<p><img src= images/blank.png width =""600"" height = ""600"" style=""position:fixed;top:50%; left:50%; transform: translate(-50%, -50%); border:5px solid black"">","","","","","","","",""
"","6022.035000001779","sequential-stimulus-presentation-old","113","776262","0.0-27.0-1.5","SS1618365337109","trial","","40","500","6522.035000001779","images/stimuli/spore_stims/complex_18_A_b.gif","images/stimuli/spore_stims/complex_03_A_a.gif","forced_long","","9","complex_dissimilar","images/stimuli/spore_stims/complex_18_A_b.gif","","","","",""
"","16427.79999999772","survey-multi-choice","114","792693","0.0-28.0","SS1618365337109","math_question","","","","","","","","","","","","{""Q0"":""11""}","[0]","11","",""
"","null","html-keyboard-response","115","793713","0.0-29.0-0.0","SS1618365337109","","","null","","","","","","<p><img src= images/blank.png width =""600"" height = ""600"" style=""position:fixed;top:50%; left:50%; transform: translate(-50%, -50%); border:5px solid black"">","","","","","","","",""
"","1276.6950000005309","sequential-stimulus-presentation-old","116","795046","0.0-29.0-1.0","SS1618365337109","trial","","40","500","1776.6950000005309","images/stimuli/spore_stims/complex_20_A_a.gif","images/stimuli/spore_stims/complex_10_A_b.gif","forced_short","","10","complex_dissimilar","images/stimuli/spore_stims/complex_10_A_b.gif","","","","",""
"","null","html-keyboard-response","117","796103","0.0-29.0-0.1","SS1618365337109","","","null","","","","","","<p><img src= images/blank.png width =""600"" height = ""600"" style=""position:fixed;top:50%; left:50%; transform: translate(-50%, -50%); border:5px solid black"">","","","","","","","",""
"","5381.050000003655","sequential-stimulus-presentation-old","118","801990","0.0-29.0-1.1","SS1618365337109","trial","","40","500","5881.050000003655","images/stimuli/spore_stims/complex_20_A_a.gif","images/stimuli/spore_stims/complex_10_A_b.gif","forced_short","","10","complex_dissimilar","images/stimuli/spore_stims/complex_10_A_b.gif","","","","",""
"","null","html-keyboard-response","119","802795","0.0-29.0-0.2","SS1618365337109","","","null","","","","","","<p><img src= images/blank.png width =""600"" height = ""600"" style=""position:fixed;top:50%; left:50%; transform: translate(-50%, -50%); border:5px solid black"">","","","","","","","",""
"","6258.815000001108","sequential-stimulus-presentation-old","120","809559","0.0-29.0-1.2","SS1618365337109","trial","","40","500","6758.815000001108","images/stimuli/spore_stims/complex_20_A_a.gif","images/stimuli/spore_stims/complex_10_A_b.gif","forced_short","","10","complex_dissimilar","images/stimuli/spore_stims/complex_10_A_b.gif","","","","",""
"","null","html-keyboard-response","121","810449","0.0-29.0-0.3","SS1618365337109","","","null","","","","","","<p><img src= images/blank.png width =""600"" height = ""600"" style=""position:fixed;top:50%; left:50%; transform: translate(-50%, -50%); border:5px solid black"">","","","","","","","",""
"","3604.364999999176","sequential-stimulus-presentation-old","122","814558","0.0-29.0-1.3","SS1618365337109","trial","","40","500","4104.364999999176","images/stimuli/spore_stims/complex_20_A_a.gif","images/stimuli/spore_stims/complex_10_A_b.gif","forced_short","","10","complex_dissimilar","images/stimuli/spore_stims/complex_10_A_b.gif","","","","",""
"","null","html-keyboard-response","123","815369","0.0-29.0-0.4","SS1618365337109","","","null","","","","","","<p><img src= images/blank.png width =""600"" height = ""600"" style=""position:fixed;top:50%; left:50%; transform: translate(-50%, -50%); border:5px solid black"">","","","","","","","",""
"","6293.505000001402","sequential-stimulus-presentation-old","124","822167","0.0-29.0-1.4","SS1618365337109","trial","","40","500","6793.505000001402","images/stimuli/spore_stims/complex_20_A_a.gif","images/stimuli/spore_stims/complex_10_A_b.gif","forced_short","","10","complex_dissimilar","images/stimuli/spore_stims/complex_20_A_a.gif","","","","",""
"","1851.5400000032969","survey-multi-choice","125","824021","0.0-30.0","SS1618365337109","math_question","","","","","","","","","","","","{""Q0"":""5""}","[0]","5","",""
"","null","html-keyboard-response","126","824982","0.0-31.0-0.0","SS1618365337109","","","null","","","","","","<p><img src= images/blank.png width =""600"" height = ""600"" style=""position:fixed;top:50%; left:50%; transform: translate(-50%, -50%); border:5px solid black"">","","","","","","","",""
"","8852.960000003804","sequential-stimulus-presentation-old","127","838839","0.0-31.0-1.0","SS1618365337109","trial","","40","500","9352.960000003804","images/stimuli/spore_stims/simple_18_A_a.gif","images/stimuli/spore_stims/simple_06_A_b.gif","forced_long","","11","simple_dissimilar","images/stimuli/spore_stims/simple_06_A_b.gif","","","","",""
"","null","html-keyboard-response","128","839753","0.0-31.0-0.1","SS1618365337109","","","null","","","","","","<p><img src= images/blank.png width =""600"" height = ""600"" style=""position:fixed;top:50%; left:50%; transform: translate(-50%, -50%); border:5px solid black"">","","","","","","","",""
"","5403.570000002161","sequential-stimulus-presentation-old","129","845662","0.0-31.0-1.1","SS1618365337109","trial","","40","500","5903.570000002161","images/stimuli/spore_stims/simple_18_A_a.gif","images/stimuli/spore_stims/simple_06_A_b.gif","forced_long","","11","simple_dissimilar","images/stimuli/spore_stims/simple_06_A_b.gif","","","","",""
"","null","html-keyboard-response","130","846882","0.0-31.0-0.2","SS1618365337109","","","null","","","","","","<p><img src= images/blank.png width =""600"" height = ""600"" style=""position:fixed;top:50%; left:50%; transform: translate(-50%, -50%); border:5px solid black"">","","","","","","","",""
"","6516.560000003548","sequential-stimulus-presentation-old","131","853903","0.0-31.0-1.2","SS1618365337109","trial","","40","500","7016.560000003548","images/stimuli/spore_stims/simple_18_A_a.gif","images/stimuli/spore_stims/simple_06_A_b.gif","forced_long","","11","simple_dissimilar","images/stimuli/spore_stims/simple_18_A_a.gif","","","","",""
"","null","html-keyboard-response","132","854774","0.0-31.0-0.3","SS1618365337109","","","null","","","","","","<p><img src= images/blank.png width =""600"" height = ""600"" style=""position:fixed;top:50%; left:50%; transform: translate(-50%, -50%); border:5px solid black"">","","","","","","","",""
"","5343.62000000698","sequential-stimulus-presentation-old","133","860623","0.0-31.0-1.3","SS1618365337109","trial","","40","500","5843.62000000698","images/stimuli/spore_stims/simple_18_A_a.gif","images/stimuli/spore_stims/simple_06_A_b.gif","forced_long","","11","simple_dissimilar","images/stimuli/spore_stims/simple_06_A_b.gif","","","","",""
"[{""page_index"":0,""viewing_time"":3016.51000000129}]","3017.475000000559","instructions","134","863643","0.0-32.0","SS1618365337109","instructions","","","","","","","","","","","","","","","",""
"","11581.66500000516","survey-likert","135","875229","0.0-33.0","SS1618365337109","similarity_question","","","","","","","","","","","","{""Q0"":2}","[0]","","images/stimuli/spore_stims/simple_18_A_a.gif","images/stimuli/spore_stims/simple_06_A_b.gif"
"","12206.215000005555","survey-likert","136","887440","0.0-34.0","SS1618365337109","similarity_question","","","","","","","","","","","","{""Q0"":4}","[0]","","images/stimuli/spore_stims/simple_15_A_b.gif","images/stimuli/spore_stims/simple_10_A_a.gif"
"","7328.804999997374","survey-likert","137","894773","0.0-35.0","SS1618365337109","similarity_question","","","","","","","","","","","","{""Q0"":6}","[0]","","images/stimuli/spore_stims/simple_20_A_a.gif","images/stimuli/spore_stims/simple_03_A_b.gif"
"","9504.239999994868","survey-likert","138","904282","0.0-36.0","SS1618365337109","similarity_question","","","","","","","","","","","","{""Q0"":4}","[0]","","images/stimuli/spore_stims/simple_14_A_a.gif","images/stimuli/spore_stims/simple_11_A_b.gif"
"","5915.195000001346","survey-likert","139","910201","0.0-37.0","SS1618365337109","similarity_question","","","","","","","","","","","","{""Q0"":4}","[0]","","images/stimuli/spore_stims/complex_11_A_b.gif","images/stimuli/spore_stims/complex_02_A_a.gif"
"","6539.955000000191","survey-likert","140","916746","0.0-38.0","SS1618365337109","similarity_question","","","","","","","","","","","","{""Q0"":5}","[0]","","images/stimuli/spore_stims/complex_10_A_b.gif","images/stimuli/spore_stims/complex_20_A_a.gif"
"","4748.544999994803","survey-likert","141","921499","0.0-39.0","SS1618365337109","similarity_question","","","","","","","","","","","","{""Q0"":4}","[0]","","images/stimuli/spore_stims/simple_04_A_b.gif","images/stimuli/spore_stims/simple_17_A_a.gif"
"","5938.585000003455","survey-likert","142","927442","0.0-40.0","SS1618365337109","similarity_question","","","","","","","","","","","","{""Q0"":4}","[0]","","images/stimuli/spore_stims/complex_16_A_a.gif","images/stimuli/spore_stims/complex_06_A_b.gif"
"","4132.389999998733","survey-likert","143","931579","0.0-41.0","SS1618365337109","similarity_question","","","","","","","","","","","","{""Q0"":3}","[0]","","images/stimuli/spore_stims/simple_03_A_a.gif","images/stimuli/spore_stims/simple_13_A_b.gif"
"","5961.790000001201","survey-likert","144","937545","0.0-42.0","SS1618365337109","similarity_question","","","","","","","","","","","","{""Q0"":4}","[0]","","images/stimuli/spore_stims/complex_18_A_b.gif","images/stimuli/spore_stims/complex_03_A_a.gif"
"","4326.07999999891","survey-likert","145","941876","0.0-43.0","SS1618365337109","similarity_question","","","","","","","","","","","","{""Q0"":6}","[0]","","images/stimuli/spore_stims/complex_07_A_b.gif","images/stimuli/spore_stims/complex_19_A_a.gif"
"","8130.595000002417","survey-likert","146","950012","0.0-44.0","SS1618365337109","similarity_question","","","","","","","","","","","","{""Q0"":4}","[0]","","images/stimuli/spore_stims/complex_10_A_a.gif","images/stimuli/spore_stims/complex_15_A_b.gif"
"[{""page_index"":0,""viewing_time"":2527.074999998091}]","2527.4350000035483","instructions","147","952543","0.0-45.0","SS1618365337109","instructions","","","","","","","","","","","","","","","",""
"","10415.379999998491","survey-likert","148","962962","0.0-46.0","SS1618365337109","","","","","","","","","images/stimuli/spore_stims/complex_20_A_a.gif","","","","{""Q0"":3}","[0]","","",""
"","3319.310000006226","survey-likert","149","966286","0.0-47.0","SS1618365337109","","","","","","","","","images/stimuli/spore_stims/simple_15_A_b.gif","","","","{""Q0"":0}","[0]","","",""
"","8378.895000001648","survey-likert","150","974670","0.0-48.0","SS1618365337109","","","","","","","","","images/stimuli/spore_stims/complex_02_A_a.gif","","","","{""Q0"":3}","[0]","","",""
"","2889.185000000056","survey-likert","151","977564","0.0-49.0","SS1618365337109","","","","","","","","","images/stimuli/spore_stims/complex_03_A_a.gif","","","","{""Q0"":4}","[0]","","",""
"","4579.349999999977","survey-likert","152","982149","0.0-50.0","SS1618365337109","","","","","","","","","images/stimuli/spore_stims/complex_06_A_b.gif","","","","{""Q0"":5}","[0]","","",""
"","6765.1199999963865","survey-likert","153","988918","0.0-51.0","SS1618365337109","","","","","","","","","images/stimuli/spore_stims/simple_13_A_b.gif","","","","{""Q0"":1}","[0]","","",""
"","2476.1099999959115","survey-likert","154","991400","0.0-52.0","SS1618365337109","","","","","","","","","images/stimuli/spore_stims/simple_03_A_b.gif","","","","{""Q0"":1}","[0]","","",""
"","2383.3899999954738","survey-likert","155","993789","0.0-53.0","SS1618365337109","","","","","","","","","images/stimuli/spore_stims/complex_10_A_a.gif","","","","{""Q0"":4}","[0]","","",""
"","5350.194999999134","survey-likert","156","999144","0.0-54.0","SS1618365337109","","","","","","","","","images/stimuli/spore_stims/simple_04_A_b.gif","","","","{""Q0"":1}","[0]","","",""
"","3148.0650000012247","survey-likert","157","1002297","0.0-55.0","SS1618365337109","","","","","","","","","images/stimuli/spore_stims/complex_07_A_b.gif","","","","{""Q0"":4}","[0]","","",""
"","4304.77499999688","survey-likert","158","1006607","0.0-56.0","SS1618365337109","","","","","","","","","images/stimuli/spore_stims/simple_06_A_b.gif","","","","{""Q0"":1}","[0]","","",""
"","4607.129999996629","survey-likert","159","1011218","0.0-57.0","SS1618365337109","","","","","","","","","images/stimuli/spore_stims/simple_11_A_b.gif","","","","{""Q0"":0}","[0]","","",""
"[{""page_index"":0,""viewing_time"":932.5300000054995}]","932.8850000019884","instructions","160","1012155","0.0-58.0","SS1618365337109","instructions","","","","","","","","","","","","","","","",""
"","2360.7649999975692","demog-age","161","1014522","0.0-59.0","SS1618365337109","","","","","","","","","","","","","{""age"":""28""}","","","",""
"","1852.7199999953154","demog-ethnic-US","162","1016381","0.0-60.0","SS1618365337109","","","","","","","","","","","","","{""ethnicity"":[""Asian""]}","[0]","","",""
"","3940.354999998817","demog-gender-and-education","163","1020325","0.0-61.0","SS1618365337109","","","","","","","","","","","","","{""gender"":""Female"",""education"":""Bachelor's Degree""}","[0,1]","","",""
"","32483.924999993294","survey-text","164","1052816","0.0-62.0","SS1618365337109","feedback","","","","","","","","","","","","{""Q0"":""no lag, but some of the animations were very jaggedy in image quality""}","","","",""
"[{""page_index"":0,""viewing_time"":900.9800000058021}]","901.3600000033621","instructions","165","1053720","0.0-63.0","SS1618365337109","instructions","","","","","","","","","","","","","","","",""
