"view_history","rt","trial_type","trial_index","time_elapsed","internal_node_id","subject","stimulus_type","trial_stimulus","key_press","minimum_viewing_duration","trial_looking_time","block_deviant","block_background","exposure_type","stimulus","block_number","block_type","stimulus_displayed","responses","question_order","math_correct_answer","stimulus_left","stimulus_right"
"[{""page_index"":0,""viewing_time"":7367.924999969546}]","7369.914999988396","instructions","0","7372","0.0-0.0","SS1618435646795","","","","","","","","","","","","","","","","",""
"[{""page_index"":0,""viewing_time"":7334.534999972675},{""page_index"":1,""viewing_time"":8259.200000029523}]","15594.184999994468","instructions","1","24970","0.0-1.0","SS1618435646795","instructions","","","","","","","","","","","","","","","",""
"","7222.990000038408","sequential-stimulus-presentation-old","2","32699","0.0-2.0","SS1618435646795","","","40","500","7722.990000038408","null","null","self_paced","","","","","","","","",""
"","4432.5900000403635","sequential-stimulus-presentation-old","3","37635","0.0-3.0","SS1618435646795","","","40","500","4932.5900000403635","null","null","self_paced","","","","","","","","",""
"[{""page_index"":0,""viewing_time"":15698.975000006612}]","15699.51999996556","instructions","4","53337","0.0-4.0","SS1618435646795","instructions","","","","","","","","","","","","","","","",""
"","1370.3199999872595","sequential-stimulus-presentation-old","5","59711","0.0-5.0","SS1618435646795","","","40","500","1870.3199999872595","null","null","forced_long","","","","","","","","",""
"","3995.649999997113","sequential-stimulus-presentation-old","6","63759","0.0-6.0","SS1618435646795","","","40","50","4045.649999997113","null","null","forced_long","","","","","","","","",""
"[{""page_index"":0,""viewing_time"":6142.605000000913}]","6142.784999974538","instructions","7","69904","0.0-7.0","SS1618435646795","instructions","","","","","","","","","","","","","","","",""
"[{""page_index"":0,""viewing_time"":7201.2249999679625},{""page_index"":1,""viewing_time"":8785.860000003595},{""page_index"":2,""viewing_time"":6181.655000022147},{""page_index"":3,""viewing_time"":2094.3049999768846},{""page_index"":4,""viewing_time"":1293.98499999661}]","25557.540000008885","instructions","8","95462","0.0-8.0","SS1618435646795","instructions","","","","","","","","","","","","","","","",""
"","null","html-keyboard-response","9","96317","0.0-9.0-0.0","SS1618435646795","","","null","","","","","","<p><img src= images/blank.png width =""600"" height = ""600"" style=""position:fixed;top:50%; left:50%; transform: translate(-50%, -50%); border:5px solid black"">","","","","","","","",""
"","4275.949999981094","sequential-stimulus-presentation-old","10","100649","0.0-9.0-1.0","SS1618435646795","trial","","40","500","4775.949999981094","images/stimuli/spore_stims/simple_07_A_a.gif","images/stimuli/spore_stims/simple_03_A_b.gif","forced_short","","0","simple_dissimilar","images/stimuli/spore_stims/simple_03_A_b.gif","","","","",""
"","null","html-keyboard-response","11","101847","0.0-9.0-0.1","SS1618435646795","","","null","","","","","","<p><img src= images/blank.png width =""600"" height = ""600"" style=""position:fixed;top:50%; left:50%; transform: translate(-50%, -50%); border:5px solid black"">","","","","","","","",""
"","10279.945000016596","sequential-stimulus-presentation-old","12","112631","0.0-9.0-1.1","SS1618435646795","trial","","40","500","10779.945000016596","images/stimuli/spore_stims/simple_07_A_a.gif","images/stimuli/spore_stims/simple_03_A_b.gif","forced_short","","0","simple_dissimilar","images/stimuli/spore_stims/simple_03_A_b.gif","","","","",""
"","null","html-keyboard-response","13","113832","0.0-9.0-0.2","SS1618435646795","","","null","","","","","","<p><img src= images/blank.png width =""600"" height = ""600"" style=""position:fixed;top:50%; left:50%; transform: translate(-50%, -50%); border:5px solid black"">","","","","","","","",""
"","8837.624999985565","sequential-stimulus-presentation-old","14","123174","0.0-9.0-1.2","SS1618435646795","trial","","40","500","9337.624999985565","images/stimuli/spore_stims/simple_07_A_a.gif","images/stimuli/spore_stims/simple_03_A_b.gif","forced_short","","0","simple_dissimilar","images/stimuli/spore_stims/simple_03_A_b.gif","","","","",""
"","null","html-keyboard-response","15","124234","0.0-9.0-0.3","SS1618435646795","","","null","","","","","","<p><img src= images/blank.png width =""600"" height = ""600"" style=""position:fixed;top:50%; left:50%; transform: translate(-50%, -50%); border:5px solid black"">","","","","","","","",""
"","5518.1699999957345","sequential-stimulus-presentation-old","16","130257","0.0-9.0-1.3","SS1618435646795","trial","","40","500","6018.1699999957345","images/stimuli/spore_stims/simple_07_A_a.gif","images/stimuli/spore_stims/simple_03_A_b.gif","forced_short","","0","simple_dissimilar","images/stimuli/spore_stims/simple_03_A_b.gif","","","","",""
"","null","html-keyboard-response","17","131113","0.0-9.0-0.4","SS1618435646795","","","null","","","","","","<p><img src= images/blank.png width =""600"" height = ""600"" style=""position:fixed;top:50%; left:50%; transform: translate(-50%, -50%); border:5px solid black"">","","","","","","","",""
"","5381.074999982957","sequential-stimulus-presentation-old","18","137000","0.0-9.0-1.4","SS1618435646795","trial","","40","500","5881.074999982957","images/stimuli/spore_stims/simple_07_A_a.gif","images/stimuli/spore_stims/simple_03_A_b.gif","forced_short","","0","simple_dissimilar","images/stimuli/spore_stims/simple_07_A_a.gif","","","","",""
"","null","html-keyboard-response","19","138034","0.0-9.0-0.5","SS1618435646795","","","null","","","","","","<p><img src= images/blank.png width =""600"" height = ""600"" style=""position:fixed;top:50%; left:50%; transform: translate(-50%, -50%); border:5px solid black"">","","","","","","","",""
"","5839.984999969602","sequential-stimulus-presentation-old","20","144379","0.0-9.0-1.5","SS1618435646795","trial","","40","500","6339.984999969602","images/stimuli/spore_stims/simple_07_A_a.gif","images/stimuli/spore_stims/simple_03_A_b.gif","forced_short","","0","simple_dissimilar","images/stimuli/spore_stims/simple_07_A_a.gif","","","","",""
"","5738.904999976512","survey-multi-choice","21","150127","0.0-10.0","SS1618435646795","math_question","","","","","","","","","","","","{""Q0"":""17""}","[0]","17","",""
"","null","html-keyboard-response","22","151020","0.0-11.0-0.0","SS1618435646795","","","null","","","","","","<p><img src= images/blank.png width =""600"" height = ""600"" style=""position:fixed;top:50%; left:50%; transform: translate(-50%, -50%); border:5px solid black"">","","","","","","","",""
"","1335.0700000301003","sequential-stimulus-presentation-old","23","157361","0.0-11.0-1.0","SS1618435646795","trial","","40","500","1835.0700000301003","images/stimuli/spore_stims/complex_01_A_a.gif","images/stimuli/spore_stims/complex_03_A_b.gif","forced_long","","1","complex_dissimilar","images/stimuli/spore_stims/complex_03_A_b.gif","","","","",""
"","null","html-keyboard-response","24","158353","0.0-11.0-0.1","SS1618435646795","","","null","","","","","","<p><img src= images/blank.png width =""600"" height = ""600"" style=""position:fixed;top:50%; left:50%; transform: translate(-50%, -50%); border:5px solid black"">","","","","","","","",""
"","8058.105000003707","sequential-stimulus-presentation-old","25","166916","0.0-11.0-1.1","SS1618435646795","trial","","40","500","8558.105000003707","images/stimuli/spore_stims/complex_01_A_a.gif","images/stimuli/spore_stims/complex_03_A_b.gif","forced_long","","1","complex_dissimilar","images/stimuli/spore_stims/complex_01_A_a.gif","","","","",""
"","null","html-keyboard-response","26","167993","0.0-11.0-0.2","SS1618435646795","","","null","","","","","","<p><img src= images/blank.png width =""600"" height = ""600"" style=""position:fixed;top:50%; left:50%; transform: translate(-50%, -50%); border:5px solid black"">","","","","","","","",""
"","5915.724999969825","sequential-stimulus-presentation-old","27","174415","0.0-11.0-1.2","SS1618435646795","trial","","40","500","6415.724999969825","images/stimuli/spore_stims/complex_01_A_a.gif","images/stimuli/spore_stims/complex_03_A_b.gif","forced_long","","1","complex_dissimilar","images/stimuli/spore_stims/complex_01_A_a.gif","","","","",""
"","null","html-keyboard-response","28","175434","0.0-11.0-0.3","SS1618435646795","","","null","","","","","","<p><img src= images/blank.png width =""600"" height = ""600"" style=""position:fixed;top:50%; left:50%; transform: translate(-50%, -50%); border:5px solid black"">","","","","","","","",""
"","3554.37000002712","sequential-stimulus-presentation-old","29","179494","0.0-11.0-1.3","SS1618435646795","trial","","40","500","4054.37000002712","images/stimuli/spore_stims/complex_01_A_a.gif","images/stimuli/spore_stims/complex_03_A_b.gif","forced_long","","1","complex_dissimilar","images/stimuli/spore_stims/complex_03_A_b.gif","","","","",""
"","null","html-keyboard-response","30","180499","0.0-11.0-0.4","SS1618435646795","","","null","","","","","","<p><img src= images/blank.png width =""600"" height = ""600"" style=""position:fixed;top:50%; left:50%; transform: translate(-50%, -50%); border:5px solid black"">","","","","","","","",""
"","1551.2900000321679","sequential-stimulus-presentation-old","31","182557","0.0-11.0-1.4","SS1618435646795","trial","","40","500","2051.290000032168","images/stimuli/spore_stims/complex_01_A_a.gif","images/stimuli/spore_stims/complex_03_A_b.gif","forced_long","","1","complex_dissimilar","images/stimuli/spore_stims/complex_03_A_b.gif","","","","",""
"","4431.375000043772","survey-multi-choice","32","186994","0.0-12.0","SS1618435646795","math_question","","","","","","","","","","","","{""Q0"":""8""}","[0]","8","",""
"","null","html-keyboard-response","33","188225","0.0-13.0-0.0","SS1618435646795","","","null","","","","","","<p><img src= images/blank.png width =""600"" height = ""600"" style=""position:fixed;top:50%; left:50%; transform: translate(-50%, -50%); border:5px solid black"">","","","","","","","",""
"","7562.885000021197","sequential-stimulus-presentation-old","34","195842","0.0-13.0-1.0","SS1618435646795","trial","","40","500","8062.885000021197","images/stimuli/spore_stims/complex_11_A_a.gif","images/stimuli/spore_stims/complex_19_A_b.gif","forced_short","","2","complex_dissimilar","images/stimuli/spore_stims/complex_19_A_b.gif","","","","",""
"","null","html-keyboard-response","35","196886","0.0-13.0-0.1","SS1618435646795","","","null","","","","","","<p><img src= images/blank.png width =""600"" height = ""600"" style=""position:fixed;top:50%; left:50%; transform: translate(-50%, -50%); border:5px solid black"">","","","","","","","",""
"","5236.1650000093505","sequential-stimulus-presentation-old","36","202628","0.0-13.0-1.1","SS1618435646795","trial","","40","500","5736.1650000093505","images/stimuli/spore_stims/complex_11_A_a.gif","images/stimuli/spore_stims/complex_19_A_b.gif","forced_short","","2","complex_dissimilar","images/stimuli/spore_stims/complex_19_A_b.gif","","","","",""
"","null","html-keyboard-response","37","203475","0.0-13.0-0.2","SS1618435646795","","","null","","","","","","<p><img src= images/blank.png width =""600"" height = ""600"" style=""position:fixed;top:50%; left:50%; transform: translate(-50%, -50%); border:5px solid black"">","","","","","","","",""
"","5547.634999966249","sequential-stimulus-presentation-old","38","209529","0.0-13.0-1.2","SS1618435646795","trial","","40","500","6047.634999966249","images/stimuli/spore_stims/complex_11_A_a.gif","images/stimuli/spore_stims/complex_19_A_b.gif","forced_short","","2","complex_dissimilar","images/stimuli/spore_stims/complex_11_A_a.gif","","","","",""
"","null","html-keyboard-response","39","210547","0.0-13.0-0.3","SS1618435646795","","","null","","","","","","<p><img src= images/blank.png width =""600"" height = ""600"" style=""position:fixed;top:50%; left:50%; transform: translate(-50%, -50%); border:5px solid black"">","","","","","","","",""
"","4107.495000003837","sequential-stimulus-presentation-old","40","215158","0.0-13.0-1.3","SS1618435646795","trial","","40","500","4607.495000003837","images/stimuli/spore_stims/complex_11_A_a.gif","images/stimuli/spore_stims/complex_19_A_b.gif","forced_short","","2","complex_dissimilar","images/stimuli/spore_stims/complex_19_A_b.gif","","","","",""
"","null","html-keyboard-response","41","216009","0.0-13.0-0.4","SS1618435646795","","","null","","","","","","<p><img src= images/blank.png width =""600"" height = ""600"" style=""position:fixed;top:50%; left:50%; transform: translate(-50%, -50%); border:5px solid black"">","","","","","","","",""
"","1702.2549999528565","sequential-stimulus-presentation-old","42","218217","0.0-13.0-1.4","SS1618435646795","trial","","40","500","2202.2549999528565","images/stimuli/spore_stims/complex_11_A_a.gif","images/stimuli/spore_stims/complex_19_A_b.gif","forced_short","","2","complex_dissimilar","images/stimuli/spore_stims/complex_11_A_a.gif","","","","",""
"","null","html-keyboard-response","43","219079","0.0-13.0-0.5","SS1618435646795","","","null","","","","","","<p><img src= images/blank.png width =""600"" height = ""600"" style=""position:fixed;top:50%; left:50%; transform: translate(-50%, -50%); border:5px solid black"">","","","","","","","",""
"","1809.4749999581836","sequential-stimulus-presentation-old","44","221394","0.0-13.0-1.5","SS1618435646795","trial","","40","500","2309.4749999581836","images/stimuli/spore_stims/complex_11_A_a.gif","images/stimuli/spore_stims/complex_19_A_b.gif","forced_short","","2","complex_dissimilar","images/stimuli/spore_stims/complex_19_A_b.gif","","","","",""
"","4376.270000007935","survey-multi-choice","45","225776","0.0-14.0","SS1618435646795","math_question","","","","","","","","","","","","{""Q0"":""4""}","[0]","4","",""
"","null","html-keyboard-response","46","227064","0.0-15.0-0.0","SS1618435646795","","","null","","","","","","<p><img src= images/blank.png width =""600"" height = ""600"" style=""position:fixed;top:50%; left:50%; transform: translate(-50%, -50%); border:5px solid black"">","","","","","","","",""
"","968.6699999729171","sequential-stimulus-presentation-old","47","228087","0.0-15.0-1.0","SS1618435646795","trial","","40","500","1468.6699999729171","images/stimuli/spore_stims/complex_07_A_b.gif","images/stimuli/spore_stims/complex_12_A_a.gif","forced_short","","3","complex_dissimilar","images/stimuli/spore_stims/complex_12_A_a.gif","","","","",""
"","null","html-keyboard-response","48","229347","0.0-15.0-0.1","SS1618435646795","","","null","","","","","","<p><img src= images/blank.png width =""600"" height = ""600"" style=""position:fixed;top:50%; left:50%; transform: translate(-50%, -50%); border:5px solid black"">","","","","","","","",""
"","3069.6250000037253","sequential-stimulus-presentation-old","49","232922","0.0-15.0-1.1","SS1618435646795","trial","","40","500","3569.6250000037253","images/stimuli/spore_stims/complex_07_A_b.gif","images/stimuli/spore_stims/complex_12_A_a.gif","forced_short","","3","complex_dissimilar","images/stimuli/spore_stims/complex_12_A_a.gif","","","","",""
"","null","html-keyboard-response","50","234067","0.0-15.0-0.2","SS1618435646795","","","null","","","","","","<p><img src= images/blank.png width =""600"" height = ""600"" style=""position:fixed;top:50%; left:50%; transform: translate(-50%, -50%); border:5px solid black"">","","","","","","","",""
"","966.9499999727122","sequential-stimulus-presentation-old","51","235539","0.0-15.0-1.2","SS1618435646795","trial","","40","500","1466.9499999727122","images/stimuli/spore_stims/complex_07_A_b.gif","images/stimuli/spore_stims/complex_12_A_a.gif","forced_short","","3","complex_dissimilar","images/stimuli/spore_stims/complex_12_A_a.gif","","","","",""
"","null","html-keyboard-response","52","236706","0.0-15.0-0.3","SS1618435646795","","","null","","","","","","<p><img src= images/blank.png width =""600"" height = ""600"" style=""position:fixed;top:50%; left:50%; transform: translate(-50%, -50%); border:5px solid black"">","","","","","","","",""
"","1124.0349999861792","sequential-stimulus-presentation-old","53","238336","0.0-15.0-1.3","SS1618435646795","trial","","40","500","1624.0349999861792","images/stimuli/spore_stims/complex_07_A_b.gif","images/stimuli/spore_stims/complex_12_A_a.gif","forced_short","","3","complex_dissimilar","images/stimuli/spore_stims/complex_12_A_a.gif","","","","",""
"","null","html-keyboard-response","54","239337","0.0-15.0-0.4","SS1618435646795","","","null","","","","","","<p><img src= images/blank.png width =""600"" height = ""600"" style=""position:fixed;top:50%; left:50%; transform: translate(-50%, -50%); border:5px solid black"">","","","","","","","",""
"","2889.644999988377","sequential-stimulus-presentation-old","55","242733","0.0-15.0-1.4","SS1618435646795","trial","","40","500","3389.644999988377","images/stimuli/spore_stims/complex_07_A_b.gif","images/stimuli/spore_stims/complex_12_A_a.gif","forced_short","","3","complex_dissimilar","images/stimuli/spore_stims/complex_07_A_b.gif","","","","",""
"","4516.215000010561","survey-multi-choice","56","247255","0.0-16.0","SS1618435646795","math_question","","","","","","","","","","","","{""Q0"":""17""}","[0]","17","",""
"","null","html-keyboard-response","57","248117","0.0-17.0-0.0","SS1618435646795","","","null","","","","","","<p><img src= images/blank.png width =""600"" height = ""600"" style=""position:fixed;top:50%; left:50%; transform: translate(-50%, -50%); border:5px solid black"">","","","","","","","",""
"","1012.9200000083074","sequential-stimulus-presentation-old","58","254134","0.0-17.0-1.0","SS1618435646795","trial","","40","500","1512.9200000083074","images/stimuli/spore_stims/simple_15_A_a.gif","images/stimuli/spore_stims/simple_16_A_b.gif","forced_long","","4","simple_dissimilar","images/stimuli/spore_stims/simple_16_A_b.gif","","","","",""
"","null","html-keyboard-response","59","255032","0.0-17.0-0.1","SS1618435646795","","","null","","","","","","<p><img src= images/blank.png width =""600"" height = ""600"" style=""position:fixed;top:50%; left:50%; transform: translate(-50%, -50%); border:5px solid black"">","","","","","","","",""
"","3265.6149999820627","sequential-stimulus-presentation-old","60","258804","0.0-17.0-1.1","SS1618435646795","trial","","40","500","3765.6149999820627","images/stimuli/spore_stims/simple_15_A_a.gif","images/stimuli/spore_stims/simple_16_A_b.gif","forced_long","","4","simple_dissimilar","images/stimuli/spore_stims/simple_15_A_a.gif","","","","",""
"","null","html-keyboard-response","61","260021","0.0-17.0-0.2","SS1618435646795","","","null","","","","","","<p><img src= images/blank.png width =""600"" height = ""600"" style=""position:fixed;top:50%; left:50%; transform: translate(-50%, -50%); border:5px solid black"">","","","","","","","",""
"","3578.785000019707","sequential-stimulus-presentation-old","62","264107","0.0-17.0-1.2","SS1618435646795","trial","","40","500","4078.785000019707","images/stimuli/spore_stims/simple_15_A_a.gif","images/stimuli/spore_stims/simple_16_A_b.gif","forced_long","","4","simple_dissimilar","images/stimuli/spore_stims/simple_16_A_b.gif","","","","",""
"","null","html-keyboard-response","63","265259","0.0-17.0-0.3","SS1618435646795","","","null","","","","","","<p><img src= images/blank.png width =""600"" height = ""600"" style=""position:fixed;top:50%; left:50%; transform: translate(-50%, -50%); border:5px solid black"">","","","","","","","",""
"","1289.1250000102445","sequential-stimulus-presentation-old","64","267057","0.0-17.0-1.3","SS1618435646795","trial","","40","500","1789.1250000102445","images/stimuli/spore_stims/simple_15_A_a.gif","images/stimuli/spore_stims/simple_16_A_b.gif","forced_long","","4","simple_dissimilar","images/stimuli/spore_stims/simple_15_A_a.gif","","","","",""
"","null","html-keyboard-response","65","268234","0.0-17.0-0.4","SS1618435646795","","","null","","","","","","<p><img src= images/blank.png width =""600"" height = ""600"" style=""position:fixed;top:50%; left:50%; transform: translate(-50%, -50%); border:5px solid black"">","","","","","","","",""
"","1338.164999964647","sequential-stimulus-presentation-old","66","270081","0.0-17.0-1.4","SS1618435646795","trial","","40","500","1838.164999964647","images/stimuli/spore_stims/simple_15_A_a.gif","images/stimuli/spore_stims/simple_16_A_b.gif","forced_long","","4","simple_dissimilar","images/stimuli/spore_stims/simple_16_A_b.gif","","","","",""
"","null","html-keyboard-response","67","271118","0.0-17.0-0.5","SS1618435646795","","","null","","","","","","<p><img src= images/blank.png width =""600"" height = ""600"" style=""position:fixed;top:50%; left:50%; transform: translate(-50%, -50%); border:5px solid black"">","","","","","","","",""
"","87.33499998925254","sequential-stimulus-presentation-old","68","271708","0.0-17.0-1.5","SS1618435646795","trial","","40","500","587.3349999892525","images/stimuli/spore_stims/simple_15_A_a.gif","images/stimuli/spore_stims/simple_16_A_b.gif","forced_long","","4","simple_dissimilar","images/stimuli/spore_stims/simple_16_A_b.gif","","","","",""
"","3428.9650000282563","survey-multi-choice","69","275146","0.0-18.0","SS1618435646795","math_question","","","","","","","","","","","","{""Q0"":""5""}","[0]","5","",""
"","null","html-keyboard-response","70","276128","0.0-19.0-0.0","SS1618435646795","","","null","","","","","","<p><img src= images/blank.png width =""600"" height = ""600"" style=""position:fixed;top:50%; left:50%; transform: translate(-50%, -50%); border:5px solid black"">","","","","","","","",""
"","1588.2299999939278","sequential-stimulus-presentation-old","71","278222","0.0-19.0-1.0","SS1618435646795","trial","","40","500","2088.229999993928","images/stimuli/spore_stims/simple_17_A_b.gif","images/stimuli/spore_stims/simple_06_A_a.gif","self_paced","","5","simple_dissimilar","images/stimuli/spore_stims/simple_06_A_a.gif","","","","",""
"","null","html-keyboard-response","72","279299","0.0-19.0-0.1","SS1618435646795","","","null","","","","","","<p><img src= images/blank.png width =""600"" height = ""600"" style=""position:fixed;top:50%; left:50%; transform: translate(-50%, -50%); border:5px solid black"">","","","","","","","",""
"","1701.2099999701604","sequential-stimulus-presentation-old","73","281507","0.0-19.0-1.1","SS1618435646795","trial","","40","500","2201.2099999701604","images/stimuli/spore_stims/simple_17_A_b.gif","images/stimuli/spore_stims/simple_06_A_a.gif","self_paced","","5","simple_dissimilar","images/stimuli/spore_stims/simple_06_A_a.gif","","","","",""
"","null","html-keyboard-response","74","282517","0.0-19.0-0.2","SS1618435646795","","","null","","","","","","<p><img src= images/blank.png width =""600"" height = ""600"" style=""position:fixed;top:50%; left:50%; transform: translate(-50%, -50%); border:5px solid black"">","","","","","","","",""
"","698.1350000132807","sequential-stimulus-presentation-old","75","283721","0.0-19.0-1.2","SS1618435646795","trial","","40","500","1198.1350000132807","images/stimuli/spore_stims/simple_17_A_b.gif","images/stimuli/spore_stims/simple_06_A_a.gif","self_paced","","5","simple_dissimilar","images/stimuli/spore_stims/simple_06_A_a.gif","","","","",""
"","null","html-keyboard-response","76","284563","0.0-19.0-0.3","SS1618435646795","","","null","","","","","","<p><img src= images/blank.png width =""600"" height = ""600"" style=""position:fixed;top:50%; left:50%; transform: translate(-50%, -50%); border:5px solid black"">","","","","","","","",""
"","1266.4349999977276","sequential-stimulus-presentation-old","77","286334","0.0-19.0-1.3","SS1618435646795","trial","","40","500","1766.4349999977276","images/stimuli/spore_stims/simple_17_A_b.gif","images/stimuli/spore_stims/simple_06_A_a.gif","self_paced","","5","simple_dissimilar","images/stimuli/spore_stims/simple_06_A_a.gif","","","","",""
"","null","html-keyboard-response","78","287458","0.0-19.0-0.4","SS1618435646795","","","null","","","","","","<p><img src= images/blank.png width =""600"" height = ""600"" style=""position:fixed;top:50%; left:50%; transform: translate(-50%, -50%); border:5px solid black"">","","","","","","","",""
"","2465.3699999907985","sequential-stimulus-presentation-old","79","290429","0.0-19.0-1.4","SS1618435646795","trial","","40","500","2965.3699999907985","images/stimuli/spore_stims/simple_17_A_b.gif","images/stimuli/spore_stims/simple_06_A_a.gif","self_paced","","5","simple_dissimilar","images/stimuli/spore_stims/simple_06_A_a.gif","","","","",""
"","null","html-keyboard-response","80","291688","0.0-19.0-0.5","SS1618435646795","","","null","","","","","","<p><img src= images/blank.png width =""600"" height = ""600"" style=""position:fixed;top:50%; left:50%; transform: translate(-50%, -50%); border:5px solid black"">","","","","","","","",""
"","915.3149999910966","sequential-stimulus-presentation-old","81","293109","0.0-19.0-1.5","SS1618435646795","trial","","40","500","1415.3149999910966","images/stimuli/spore_stims/simple_17_A_b.gif","images/stimuli/spore_stims/simple_06_A_a.gif","self_paced","","5","simple_dissimilar","images/stimuli/spore_stims/simple_17_A_b.gif","","","","",""
"","3361.414999992121","survey-multi-choice","82","296473","0.0-20.0","SS1618435646795","math_question","","","","","","","","","","","","{""Q0"":""5""}","[0]","5","",""
"","null","html-keyboard-response","83","297634","0.0-21.0-0.0","SS1618435646795","","","null","","","","","","<p><img src= images/blank.png width =""600"" height = ""600"" style=""position:fixed;top:50%; left:50%; transform: translate(-50%, -50%); border:5px solid black"">","","","","","","","",""
"","3447.7049999986775","sequential-stimulus-presentation-old","84","306087","0.0-21.0-1.0","SS1618435646795","trial","","40","500","3947.7049999986775","images/stimuli/spore_stims/simple_18_A_b.gif","images/stimuli/spore_stims/simple_16_A_a.gif","forced_long","","6","simple_dissimilar","images/stimuli/spore_stims/simple_16_A_a.gif","","","","",""
"","null","html-keyboard-response","85","307273","0.0-21.0-0.1","SS1618435646795","","","null","","","","","","<p><img src= images/blank.png width =""600"" height = ""600"" style=""position:fixed;top:50%; left:50%; transform: translate(-50%, -50%); border:5px solid black"">","","","","","","","",""
"","633.6949999677017","sequential-stimulus-presentation-old","86","308413","0.0-21.0-1.1","SS1618435646795","trial","","40","500","1133.6949999677017","images/stimuli/spore_stims/simple_18_A_b.gif","images/stimuli/spore_stims/simple_16_A_a.gif","forced_long","","6","simple_dissimilar","images/stimuli/spore_stims/simple_16_A_a.gif","","","","",""
"","null","html-keyboard-response","87","309647","0.0-21.0-0.2","SS1618435646795","","","null","","","","","","<p><img src= images/blank.png width =""600"" height = ""600"" style=""position:fixed;top:50%; left:50%; transform: translate(-50%, -50%); border:5px solid black"">","","","","","","","",""
"","227.0600000047125","sequential-stimulus-presentation-old","88","310379","0.0-21.0-1.2","SS1618435646795","trial","","40","500","727.0600000047125","images/stimuli/spore_stims/simple_18_A_b.gif","images/stimuli/spore_stims/simple_16_A_a.gif","forced_long","","6","simple_dissimilar","images/stimuli/spore_stims/simple_16_A_a.gif","","","","",""
"","null","html-keyboard-response","89","311371","0.0-21.0-0.3","SS1618435646795","","","null","","","","","","<p><img src= images/blank.png width =""600"" height = ""600"" style=""position:fixed;top:50%; left:50%; transform: translate(-50%, -50%); border:5px solid black"">","","","","","","","",""
"","230.90999998385087","sequential-stimulus-presentation-old","90","312109","0.0-21.0-1.3","SS1618435646795","trial","","40","500","730.9099999838509","images/stimuli/spore_stims/simple_18_A_b.gif","images/stimuli/spore_stims/simple_16_A_a.gif","forced_long","","6","simple_dissimilar","images/stimuli/spore_stims/simple_16_A_a.gif","","","","",""
"","null","html-keyboard-response","91","313170","0.0-21.0-0.4","SS1618435646795","","","null","","","","","","<p><img src= images/blank.png width =""600"" height = ""600"" style=""position:fixed;top:50%; left:50%; transform: translate(-50%, -50%); border:5px solid black"">","","","","","","","",""
"","469.19499995419756","sequential-stimulus-presentation-old","92","314144","0.0-21.0-1.4","SS1618435646795","trial","","40","500","969.1949999541976","images/stimuli/spore_stims/simple_18_A_b.gif","images/stimuli/spore_stims/simple_16_A_a.gif","forced_long","","6","simple_dissimilar","images/stimuli/spore_stims/simple_16_A_a.gif","","","","",""
"","3147.7650000015274","survey-multi-choice","93","317299","0.0-22.0","SS1618435646795","math_question","","","","","","","","","","","","{""Q0"":""7""}","[0]","7","",""
"","null","html-keyboard-response","94","318173","0.0-23.0-0.0","SS1618435646795","","","null","","","","","","<p><img src= images/blank.png width =""600"" height = ""600"" style=""position:fixed;top:50%; left:50%; transform: translate(-50%, -50%); border:5px solid black"">","","","","","","","",""
"","2802.6049999753013","sequential-stimulus-presentation-old","95","321484","0.0-23.0-1.0","SS1618435646795","trial","","40","500","3302.6049999753013","images/stimuli/spore_stims/complex_14_A_b.gif","images/stimuli/spore_stims/complex_04_A_a.gif","self_paced","","7","complex_dissimilar","images/stimuli/spore_stims/complex_04_A_a.gif","","","","",""
"","null","html-keyboard-response","96","322424","0.0-23.0-0.1","SS1618435646795","","","null","","","","","","<p><img src= images/blank.png width =""600"" height = ""600"" style=""position:fixed;top:50%; left:50%; transform: translate(-50%, -50%); border:5px solid black"">","","","","","","","",""
"","3752.8000000165775","sequential-stimulus-presentation-old","97","326684","0.0-23.0-1.1","SS1618435646795","trial","","40","500","4252.8000000165775","images/stimuli/spore_stims/complex_14_A_b.gif","images/stimuli/spore_stims/complex_04_A_a.gif","self_paced","","7","complex_dissimilar","images/stimuli/spore_stims/complex_04_A_a.gif","","","","",""
"","null","html-keyboard-response","98","327552","0.0-23.0-0.2","SS1618435646795","","","null","","","","","","<p><img src= images/blank.png width =""600"" height = ""600"" style=""position:fixed;top:50%; left:50%; transform: translate(-50%, -50%); border:5px solid black"">","","","","","","","",""
"","603.0249999603257","sequential-stimulus-presentation-old","99","328665","0.0-23.0-1.2","SS1618435646795","trial","","40","500","1103.0249999603257","images/stimuli/spore_stims/complex_14_A_b.gif","images/stimuli/spore_stims/complex_04_A_a.gif","self_paced","","7","complex_dissimilar","images/stimuli/spore_stims/complex_04_A_a.gif","","","","",""
"","null","html-keyboard-response","100","329685","0.0-23.0-0.3","SS1618435646795","","","null","","","","","","<p><img src= images/blank.png width =""600"" height = ""600"" style=""position:fixed;top:50%; left:50%; transform: translate(-50%, -50%); border:5px solid black"">","","","","","","","",""
"","983.6900000227615","sequential-stimulus-presentation-old","101","331174","0.0-23.0-1.3","SS1618435646795","trial","","40","500","1483.6900000227615","images/stimuli/spore_stims/complex_14_A_b.gif","images/stimuli/spore_stims/complex_04_A_a.gif","self_paced","","7","complex_dissimilar","images/stimuli/spore_stims/complex_04_A_a.gif","","","","",""
"","null","html-keyboard-response","102","332141","0.0-23.0-0.4","SS1618435646795","","","null","","","","","","<p><img src= images/blank.png width =""600"" height = ""600"" style=""position:fixed;top:50%; left:50%; transform: translate(-50%, -50%); border:5px solid black"">","","","","","","","",""
"","506.37999997707084","sequential-stimulus-presentation-old","103","333151","0.0-23.0-1.4","SS1618435646795","trial","","40","500","1006.3799999770708","images/stimuli/spore_stims/complex_14_A_b.gif","images/stimuli/spore_stims/complex_04_A_a.gif","self_paced","","7","complex_dissimilar","images/stimuli/spore_stims/complex_04_A_a.gif","","","","",""
"","null","html-keyboard-response","104","334149","0.0-23.0-0.5","SS1618435646795","","","null","","","","","","<p><img src= images/blank.png width =""600"" height = ""600"" style=""position:fixed;top:50%; left:50%; transform: translate(-50%, -50%); border:5px solid black"">","","","","","","","",""
"","2010.5050000129268","sequential-stimulus-presentation-old","105","336667","0.0-23.0-1.5","SS1618435646795","trial","","40","500","2510.5050000129268","images/stimuli/spore_stims/complex_14_A_b.gif","images/stimuli/spore_stims/complex_04_A_a.gif","self_paced","","7","complex_dissimilar","images/stimuli/spore_stims/complex_04_A_a.gif","","","","",""
"","5288.464999990538","survey-multi-choice","106","341962","0.0-24.0","SS1618435646795","math_question","","","","","","","","","","","","{""Q0"":""15""}","[0]","15","",""
"","null","html-keyboard-response","107","342838","0.0-25.0-0.0","SS1618435646795","","","null","","","","","","<p><img src= images/blank.png width =""600"" height = ""600"" style=""position:fixed;top:50%; left:50%; transform: translate(-50%, -50%); border:5px solid black"">","","","","","","","",""
"","786.3649999490008","sequential-stimulus-presentation-old","108","344134","0.0-25.0-1.0","SS1618435646795","trial","","40","500","1286.3649999490008","images/stimuli/spore_stims/simple_11_A_b.gif","images/stimuli/spore_stims/simple_03_A_a.gif","self_paced","","8","simple_dissimilar","images/stimuli/spore_stims/simple_03_A_a.gif","","","","",""
"","null","html-keyboard-response","109","345365","0.0-25.0-0.1","SS1618435646795","","","null","","","","","","<p><img src= images/blank.png width =""600"" height = ""600"" style=""position:fixed;top:50%; left:50%; transform: translate(-50%, -50%); border:5px solid black"">","","","","","","","",""
"","898.2799999648705","sequential-stimulus-presentation-old","110","346771","0.0-25.0-1.1","SS1618435646795","trial","","40","500","1398.2799999648705","images/stimuli/spore_stims/simple_11_A_b.gif","images/stimuli/spore_stims/simple_03_A_a.gif","self_paced","","8","simple_dissimilar","images/stimuli/spore_stims/simple_03_A_a.gif","","","","",""
"","null","html-keyboard-response","111","347994","0.0-25.0-0.2","SS1618435646795","","","null","","","","","","<p><img src= images/blank.png width =""600"" height = ""600"" style=""position:fixed;top:50%; left:50%; transform: translate(-50%, -50%); border:5px solid black"">","","","","","","","",""
"","718.810000049416","sequential-stimulus-presentation-old","112","349222","0.0-25.0-1.2","SS1618435646795","trial","","40","500","1218.810000049416","images/stimuli/spore_stims/simple_11_A_b.gif","images/stimuli/spore_stims/simple_03_A_a.gif","self_paced","","8","simple_dissimilar","images/stimuli/spore_stims/simple_11_A_b.gif","","","","",""
"","null","html-keyboard-response","113","350029","0.0-25.0-0.3","SS1618435646795","","","null","","","","","","<p><img src= images/blank.png width =""600"" height = ""600"" style=""position:fixed;top:50%; left:50%; transform: translate(-50%, -50%); border:5px solid black"">","","","","","","","",""
"","1157.984999998007","sequential-stimulus-presentation-old","114","351693","0.0-25.0-1.3","SS1618435646795","trial","","40","500","1657.984999998007","images/stimuli/spore_stims/simple_11_A_b.gif","images/stimuli/spore_stims/simple_03_A_a.gif","self_paced","","8","simple_dissimilar","images/stimuli/spore_stims/simple_03_A_a.gif","","","","",""
"","3334.6199999796227","survey-multi-choice","115","355034","0.0-26.0","SS1618435646795","math_question","","","","","","","","","","","","{""Q0"":""14""}","[0]","14","",""
"","null","html-keyboard-response","116","356150","0.0-27.0-0.0","SS1618435646795","","","null","","","","","","<p><img src= images/blank.png width =""600"" height = ""600"" style=""position:fixed;top:50%; left:50%; transform: translate(-50%, -50%); border:5px solid black"">","","","","","","","",""
"","2958.6100000306033","sequential-stimulus-presentation-old","117","364114","0.0-27.0-1.0","SS1618435646795","trial","","40","500","3458.6100000306033","images/stimuli/spore_stims/complex_04_A_b.gif","images/stimuli/spore_stims/complex_18_A_a.gif","forced_long","","9","complex_dissimilar","images/stimuli/spore_stims/complex_18_A_a.gif","","","","",""
"","null","html-keyboard-response","118","365067","0.0-27.0-0.1","SS1618435646795","","","null","","","","","","<p><img src= images/blank.png width =""600"" height = ""600"" style=""position:fixed;top:50%; left:50%; transform: translate(-50%, -50%); border:5px solid black"">","","","","","","","",""
"","274.73500004271045","sequential-stimulus-presentation-old","119","365848","0.0-27.0-1.1","SS1618435646795","trial","","40","500","774.7350000427105","images/stimuli/spore_stims/complex_04_A_b.gif","images/stimuli/spore_stims/complex_18_A_a.gif","forced_long","","9","complex_dissimilar","images/stimuli/spore_stims/complex_18_A_a.gif","","","","",""
"","null","html-keyboard-response","120","366742","0.0-27.0-0.2","SS1618435646795","","","null","","","","","","<p><img src= images/blank.png width =""600"" height = ""600"" style=""position:fixed;top:50%; left:50%; transform: translate(-50%, -50%); border:5px solid black"">","","","","","","","",""
"","717.5350000034086","sequential-stimulus-presentation-old","121","367966","0.0-27.0-1.2","SS1618435646795","trial","","40","500","1217.5350000034086","images/stimuli/spore_stims/complex_04_A_b.gif","images/stimuli/spore_stims/complex_18_A_a.gif","forced_long","","9","complex_dissimilar","images/stimuli/spore_stims/complex_18_A_a.gif","","","","",""
"","null","html-keyboard-response","122","368995","0.0-27.0-0.3","SS1618435646795","","","null","","","","","","<p><img src= images/blank.png width =""600"" height = ""600"" style=""position:fixed;top:50%; left:50%; transform: translate(-50%, -50%); border:5px solid black"">","","","","","","","",""
"","2513.6899999924935","sequential-stimulus-presentation-old","123","372015","0.0-27.0-1.3","SS1618435646795","trial","","40","500","3013.6899999924935","images/stimuli/spore_stims/complex_04_A_b.gif","images/stimuli/spore_stims/complex_18_A_a.gif","forced_long","","9","complex_dissimilar","images/stimuli/spore_stims/complex_04_A_b.gif","","","","",""
"","null","html-keyboard-response","124","373067","0.0-27.0-0.4","SS1618435646795","","","null","","","","","","<p><img src= images/blank.png width =""600"" height = ""600"" style=""position:fixed;top:50%; left:50%; transform: translate(-50%, -50%); border:5px solid black"">","","","","","","","",""
"","1286.0450000152923","sequential-stimulus-presentation-old","125","374860","0.0-27.0-1.4","SS1618435646795","trial","","40","500","1786.0450000152923","images/stimuli/spore_stims/complex_04_A_b.gif","images/stimuli/spore_stims/complex_18_A_a.gif","forced_long","","9","complex_dissimilar","images/stimuli/spore_stims/complex_18_A_a.gif","","","","",""
"","null","html-keyboard-response","126","375711","0.0-27.0-0.5","SS1618435646795","","","null","","","","","","<p><img src= images/blank.png width =""600"" height = ""600"" style=""position:fixed;top:50%; left:50%; transform: translate(-50%, -50%); border:5px solid black"">","","","","","","","",""
"","984.8049999563955","sequential-stimulus-presentation-old","127","377203","0.0-27.0-1.5","SS1618435646795","trial","","40","500","1484.8049999563955","images/stimuli/spore_stims/complex_04_A_b.gif","images/stimuli/spore_stims/complex_18_A_a.gif","forced_long","","9","complex_dissimilar","images/stimuli/spore_stims/complex_18_A_a.gif","","","","",""
"","3379.8449999885634","survey-multi-choice","128","380592","0.0-28.0","SS1618435646795","math_question","","","","","","","","","","","","{""Q0"":""10""}","[0]","10","",""
"","null","html-keyboard-response","129","381518","0.0-29.0-0.0","SS1618435646795","","","null","","","","","","<p><img src= images/blank.png width =""600"" height = ""600"" style=""position:fixed;top:50%; left:50%; transform: translate(-50%, -50%); border:5px solid black"">","","","","","","","",""
"","2866.2749999784864","sequential-stimulus-presentation-old","130","384894","0.0-29.0-1.0","SS1618435646795","trial","","40","500","3366.2749999784864","images/stimuli/spore_stims/complex_16_A_a.gif","images/stimuli/spore_stims/complex_06_A_b.gif","self_paced","","10","complex_dissimilar","images/stimuli/spore_stims/complex_06_A_b.gif","","","","",""
"","null","html-keyboard-response","131","385964","0.0-29.0-0.1","SS1618435646795","","","null","","","","","","<p><img src= images/blank.png width =""600"" height = ""600"" style=""position:fixed;top:50%; left:50%; transform: translate(-50%, -50%); border:5px solid black"">","","","","","","","",""
"","55.02500000875443","sequential-stimulus-presentation-old","132","386524","0.0-29.0-1.1","SS1618435646795","trial","","40","500","555.0250000087544","images/stimuli/spore_stims/complex_16_A_a.gif","images/stimuli/spore_stims/complex_06_A_b.gif","self_paced","","10","complex_dissimilar","images/stimuli/spore_stims/complex_06_A_b.gif","","","","",""
"","null","html-keyboard-response","133","387603","0.0-29.0-0.2","SS1618435646795","","","null","","","","","","<p><img src= images/blank.png width =""600"" height = ""600"" style=""position:fixed;top:50%; left:50%; transform: translate(-50%, -50%); border:5px solid black"">","","","","","","","",""
"","3038.9450000366196","sequential-stimulus-presentation-old","134","391151","0.0-29.0-1.2","SS1618435646795","trial","","40","500","3538.9450000366196","images/stimuli/spore_stims/complex_16_A_a.gif","images/stimuli/spore_stims/complex_06_A_b.gif","self_paced","","10","complex_dissimilar","images/stimuli/spore_stims/complex_16_A_a.gif","","","","",""
"","null","html-keyboard-response","135","392327","0.0-29.0-0.3","SS1618435646795","","","null","","","","","","<p><img src= images/blank.png width =""600"" height = ""600"" style=""position:fixed;top:50%; left:50%; transform: translate(-50%, -50%); border:5px solid black"">","","","","","","","",""
"","1067.0950000057928","sequential-stimulus-presentation-old","136","393905","0.0-29.0-1.3","SS1618435646795","trial","","40","500","1567.0950000057928","images/stimuli/spore_stims/complex_16_A_a.gif","images/stimuli/spore_stims/complex_06_A_b.gif","self_paced","","10","complex_dissimilar","images/stimuli/spore_stims/complex_06_A_b.gif","","","","",""
"","null","html-keyboard-response","137","394805","0.0-29.0-0.4","SS1618435646795","","","null","","","","","","<p><img src= images/blank.png width =""600"" height = ""600"" style=""position:fixed;top:50%; left:50%; transform: translate(-50%, -50%); border:5px solid black"">","","","","","","","",""
"","12.389999988954514","sequential-stimulus-presentation-old","138","395323","0.0-29.0-1.4","SS1618435646795","trial","","40","500","512.3899999889545","images/stimuli/spore_stims/complex_16_A_a.gif","images/stimuli/spore_stims/complex_06_A_b.gif","self_paced","","10","complex_dissimilar","images/stimuli/spore_stims/complex_06_A_b.gif","","","","",""
"","null","html-keyboard-response","139","396178","0.0-29.0-0.5","SS1618435646795","","","null","","","","","","<p><img src= images/blank.png width =""600"" height = ""600"" style=""position:fixed;top:50%; left:50%; transform: translate(-50%, -50%); border:5px solid black"">","","","","","","","",""
"","255.33000001451","sequential-stimulus-presentation-old","140","396939","0.0-29.0-1.5","SS1618435646795","trial","","40","500","755.33000001451","images/stimuli/spore_stims/complex_16_A_a.gif","images/stimuli/spore_stims/complex_06_A_b.gif","self_paced","","10","complex_dissimilar","images/stimuli/spore_stims/complex_06_A_b.gif","","","","",""
"","3149.3400000035763","survey-multi-choice","141","400096","0.0-30.0","SS1618435646795","math_question","","","","","","","","","","","","{""Q0"":""9""}","[0]","9","",""
"","null","html-keyboard-response","142","401368","0.0-31.0-0.0","SS1618435646795","","","null","","","","","","<p><img src= images/blank.png width =""600"" height = ""600"" style=""position:fixed;top:50%; left:50%; transform: translate(-50%, -50%); border:5px solid black"">","","","","","","","",""
"","704.3749999720603","sequential-stimulus-presentation-old","143","402132","0.0-31.0-1.0","SS1618435646795","trial","","40","500","1204.3749999720603","images/stimuli/spore_stims/simple_18_A_a.gif","images/stimuli/spore_stims/simple_05_A_b.gif","forced_short","","11","simple_dissimilar","images/stimuli/spore_stims/simple_05_A_b.gif","","","","",""
"","null","html-keyboard-response","144","403198","0.0-31.0-0.1","SS1618435646795","","","null","","","","","","<p><img src= images/blank.png width =""600"" height = ""600"" style=""position:fixed;top:50%; left:50%; transform: translate(-50%, -50%); border:5px solid black"">","","","","","","","",""
"","432.5049999752082","sequential-stimulus-presentation-old","145","404139","0.0-31.0-1.1","SS1618435646795","trial","","40","500","932.5049999752082","images/stimuli/spore_stims/simple_18_A_a.gif","images/stimuli/spore_stims/simple_05_A_b.gif","forced_short","","11","simple_dissimilar","images/stimuli/spore_stims/simple_18_A_a.gif","","","","",""
"","null","html-keyboard-response","146","405137","0.0-31.0-0.2","SS1618435646795","","","null","","","","","","<p><img src= images/blank.png width =""600"" height = ""600"" style=""position:fixed;top:50%; left:50%; transform: translate(-50%, -50%); border:5px solid black"">","","","","","","","",""
"","347.01000002678484","sequential-stimulus-presentation-old","147","405994","0.0-31.0-1.2","SS1618435646795","trial","","40","500","847.0100000267848","images/stimuli/spore_stims/simple_18_A_a.gif","images/stimuli/spore_stims/simple_05_A_b.gif","forced_short","","11","simple_dissimilar","images/stimuli/spore_stims/simple_05_A_b.gif","","","","",""
"","null","html-keyboard-response","148","406867","0.0-31.0-0.3","SS1618435646795","","","null","","","","","","<p><img src= images/blank.png width =""600"" height = ""600"" style=""position:fixed;top:50%; left:50%; transform: translate(-50%, -50%); border:5px solid black"">","","","","","","","",""
"","280.16999998362735","sequential-stimulus-presentation-old","149","407653","0.0-31.0-1.3","SS1618435646795","trial","","40","500","780.1699999836273","images/stimuli/spore_stims/simple_18_A_a.gif","images/stimuli/spore_stims/simple_05_A_b.gif","forced_short","","11","simple_dissimilar","images/stimuli/spore_stims/simple_05_A_b.gif","","","","",""
"","null","html-keyboard-response","150","408914","0.0-31.0-0.4","SS1618435646795","","","null","","","","","","<p><img src= images/blank.png width =""600"" height = ""600"" style=""position:fixed;top:50%; left:50%; transform: translate(-50%, -50%); border:5px solid black"">","","","","","","","",""
"","1042.3200000077486","sequential-stimulus-presentation-old","151","410461","0.0-31.0-1.4","SS1618435646795","trial","","40","500","1542.3200000077486","images/stimuli/spore_stims/simple_18_A_a.gif","images/stimuli/spore_stims/simple_05_A_b.gif","forced_short","","11","simple_dissimilar","images/stimuli/spore_stims/simple_05_A_b.gif","","","","",""
"[{""page_index"":0,""viewing_time"":3658.995000005234}]","3659.525000024587","instructions","152","414127","0.0-32.0","SS1618435646795","instructions","","","","","","","","","","","","","","","",""
"","7945.840000000317","survey-likert","153","422085","0.0-33.0","SS1618435646795","similarity_question","","","","","","","","","","","","{""Q0"":2}","[0]","","images/stimuli/spore_stims/complex_12_A_a.gif","images/stimuli/spore_stims/complex_07_A_b.gif"
"","5687.400000053458","survey-likert","154","427784","0.0-34.0","SS1618435646795","similarity_question","","","","","","","","","","","","{""Q0"":1}","[0]","","images/stimuli/spore_stims/complex_11_A_a.gif","images/stimuli/spore_stims/complex_19_A_b.gif"
"","3513.9949999866076","survey-likert","155","431312","0.0-35.0","SS1618435646795","similarity_question","","","","","","","","","","","","{""Q0"":2}","[0]","","images/stimuli/spore_stims/simple_16_A_a.gif","images/stimuli/spore_stims/simple_18_A_b.gif"
"","3392.744999960996","survey-likert","156","434717","0.0-36.0","SS1618435646795","similarity_question","","","","","","","","","","","","{""Q0"":2}","[0]","","images/stimuli/spore_stims/simple_05_A_b.gif","images/stimuli/spore_stims/simple_18_A_a.gif"
"","4487.309999996796","survey-likert","157","439216","0.0-37.0","SS1618435646795","similarity_question","","","","","","","","","","","","{""Q0"":4}","[0]","","images/stimuli/spore_stims/simple_16_A_b.gif","images/stimuli/spore_stims/simple_15_A_a.gif"
"","3629.6300000394695","survey-likert","158","442856","0.0-38.0","SS1618435646795","similarity_question","","","","","","","","","","","","{""Q0"":2}","[0]","","images/stimuli/spore_stims/complex_04_A_a.gif","images/stimuli/spore_stims/complex_14_A_b.gif"
"","6117.964999983087","survey-likert","159","448985","0.0-39.0","SS1618435646795","similarity_question","","","","","","","","","","","","{""Q0"":1}","[0]","","images/stimuli/spore_stims/complex_06_A_b.gif","images/stimuli/spore_stims/complex_16_A_a.gif"
"","3056.990000011865","survey-likert","160","452053","0.0-40.0","SS1618435646795","similarity_question","","","","","","","","","","","","{""Q0"":4}","[0]","","images/stimuli/spore_stims/simple_03_A_a.gif","images/stimuli/spore_stims/simple_11_A_b.gif"
"","5637.724999978673","survey-likert","161","457701","0.0-41.0","SS1618435646795","similarity_question","","","","","","","","","","","","{""Q0"":3}","[0]","","images/stimuli/spore_stims/complex_03_A_b.gif","images/stimuli/spore_stims/complex_01_A_a.gif"
"","2745.070000004489","survey-likert","162","460457","0.0-42.0","SS1618435646795","similarity_question","","","","","","","","","","","","{""Q0"":4}","[0]","","images/stimuli/spore_stims/simple_06_A_a.gif","images/stimuli/spore_stims/simple_17_A_b.gif"
"","2814.0450000064448","survey-likert","163","463283","0.0-43.0","SS1618435646795","similarity_question","","","","","","","","","","","","{""Q0"":3}","[0]","","images/stimuli/spore_stims/simple_07_A_a.gif","images/stimuli/spore_stims/simple_03_A_b.gif"
"","3287.644999974873","survey-likert","164","466583","0.0-44.0","SS1618435646795","similarity_question","","","","","","","","","","","","{""Q0"":1}","[0]","","images/stimuli/spore_stims/complex_18_A_a.gif","images/stimuli/spore_stims/complex_04_A_b.gif"
"[{""page_index"":0,""viewing_time"":3761.8249999941327}]","3762.449999980163","instructions","165","470355","0.0-45.0","SS1618435646795","instructions","","","","","","","","","","","","","","","",""
"","3207.300000009127","survey-likert","166","473569","0.0-46.0","SS1618435646795","","","","","","","","","images/stimuli/spore_stims/simple_17_A_b.gif","","","","{""Q0"":1}","[0]","","",""
"","3221.9899999909103","survey-likert","167","476802","0.0-47.0","SS1618435646795","","","","","","","","","images/stimuli/spore_stims/simple_05_A_b.gif","","","","{""Q0"":0}","[0]","","",""
"","4840.925000025891","survey-likert","168","481656","0.0-48.0","SS1618435646795","","","","","","","","","images/stimuli/spore_stims/complex_11_A_a.gif","","","","{""Q0"":5}","[0]","","",""
"","2412.65499999281","survey-likert","169","484081","0.0-49.0","SS1618435646795","","","","","","","","","images/stimuli/spore_stims/complex_06_A_b.gif","","","","{""Q0"":4}","[0]","","",""
"","4383.040000044275","survey-likert","170","488477","0.0-50.0","SS1618435646795","","","","","","","","","images/stimuli/spore_stims/simple_03_A_a.gif","","","","{""Q0"":1}","[0]","","",""
"","3721.4050000184216","survey-likert","171","492209","0.0-51.0","SS1618435646795","","","","","","","","","images/stimuli/spore_stims/complex_03_A_b.gif","","","","{""Q0"":4}","[0]","","",""
"","2934.1950000380166","survey-likert","172","495152","0.0-52.0","SS1618435646795","","","","","","","","","images/stimuli/spore_stims/complex_18_A_a.gif","","","","{""Q0"":6}","[0]","","",""
"","2442.38000002224","survey-likert","173","497608","0.0-53.0","SS1618435646795","","","","","","","","","images/stimuli/spore_stims/simple_03_A_b.gif","","","","{""Q0"":2}","[0]","","",""
"","2625.4900000058115","survey-likert","174","500245","0.0-54.0","SS1618435646795","","","","","","","","","images/stimuli/spore_stims/simple_16_A_b.gif","","","","{""Q0"":2}","[0]","","",""
"","2213.805000006687","survey-likert","175","502471","0.0-55.0","SS1618435646795","","","","","","","","","images/stimuli/spore_stims/simple_16_A_a.gif","","","","{""Q0"":2}","[0]","","",""
"","3320.385000028182","survey-likert","176","505803","0.0-56.0","SS1618435646795","","","","","","","","","images/stimuli/spore_stims/complex_04_A_a.gif","","","","{""Q0"":5}","[0]","","",""
"","2717.7499999525025","survey-likert","177","508532","0.0-57.0","SS1618435646795","","","","","","","","","images/stimuli/spore_stims/complex_07_A_b.gif","","","","{""Q0"":6}","[0]","","",""
"[{""page_index"":0,""viewing_time"":2180.8750000200234}]","2181.5199999837205","instructions","178","510724","0.0-58.0","SS1618435646795","instructions","","","","","","","","","","","","","","","",""
"","2892.5750000053085","demog-age","179","513631","0.0-59.0","SS1618435646795","","","","","","","","","","","","","{""age"":""40""}","","","",""
"","2711.569999984931","demog-ethnic-US","180","516360","0.0-60.0","SS1618435646795","","","","","","","","","","","","","{""ethnicity"":[""White""]}","[0]","","",""
"","8979.449999984354","demog-gender-and-education","181","525352","0.0-61.0","SS1618435646795","","","","","","","","","","","","","{""gender"":""Male"",""education"":""Associate Degree/Technical certification""}","[0,1]","","",""
"","6988.709999946877","survey-text","182","532355","0.0-62.0","SS1618435646795","feedback","","","","","","","","","","","","{""Q0"":""none""}","","","",""
"[{""page_index"":0,""viewing_time"":4052.670000004582}]","4053.3000000286847","instructions","183","536414","0.0-63.0","SS1618435646795","instructions","","","","","","","","","","","","","","","",""
