"view_history","rt","trial_type","trial_index","time_elapsed","internal_node_id","subject","stimulus_type","trial_stimulus","key_press","minimum_viewing_duration","trial_looking_time","block_deviant","block_background","exposure_type","stimulus","block_number","block_type","stimulus_displayed","responses","question_order","math_correct_answer","stimulus_left","stimulus_right"
"[{""page_index"":0,""viewing_time"":13590}]","13590","instructions","0","13596","0.0-0.0","SS1618435651710","","","","","","","","","","","","","","","","",""
"[{""page_index"":0,""viewing_time"":21186},{""page_index"":1,""viewing_time"":20311}]","41498","instructions","1","57100","0.0-1.0","SS1618435651710","instructions","","","","","","","","","","","","","","","",""
"","10793","sequential-stimulus-presentation-old","2","68414","0.0-2.0","SS1618435651710","","","40","500","11293","null","null","self_paced","","","","","","","","",""
"","5917","sequential-stimulus-presentation-old","3","74848","0.0-3.0","SS1618435651710","","","40","500","6417","null","null","self_paced","","","","","","","","",""
"[{""page_index"":0,""viewing_time"":21887}]","21887","instructions","4","96737","0.0-4.0","SS1618435651710","instructions","","","","","","","","","","","","","","","",""
"","1901","sequential-stimulus-presentation-old","5","103657","0.0-5.0","SS1618435651710","","","40","500","2401","null","null","forced_long","","","","","","","","",""
"","4587","sequential-stimulus-presentation-old","6","108301","0.0-6.0","SS1618435651710","","","40","50","4637","null","null","forced_long","","","","","","","","",""
"[{""page_index"":0,""viewing_time"":3391}]","3391","instructions","7","111694","0.0-7.0","SS1618435651710","instructions","","","","","","","","","","","","","","","",""
"[{""page_index"":0,""viewing_time"":12508},{""page_index"":1,""viewing_time"":11431},{""page_index"":2,""viewing_time"":6865},{""page_index"":3,""viewing_time"":1869},{""page_index"":4,""viewing_time"":1386}]","34059","instructions","8","145756","0.0-8.0","SS1618435651710","instructions","","","","","","","","","","","","","","","",""
"","null","html-keyboard-response","9","146707","0.0-9.0-0.0","SS1618435651710","","","null","","","","","","<p><img src= images/blank.png width =""600"" height = ""600"" style=""position:fixed;top:50%; left:50%; transform: translate(-50%, -50%); border:5px solid black"">","","","","","","","",""
"","2189","sequential-stimulus-presentation-old","10","148955","0.0-9.0-1.0","SS1618435651710","trial","","40","500","2689","images/stimuli/spore_stims/simple_11_A_a.gif","images/stimuli/spore_stims/simple_18_A_b.gif","forced_short","","0","simple_dissimilar","images/stimuli/spore_stims/simple_18_A_b.gif","","","","",""
"","null","html-keyboard-response","11","150253","0.0-9.0-0.1","SS1618435651710","","","null","","","","","","<p><img src= images/blank.png width =""600"" height = ""600"" style=""position:fixed;top:50%; left:50%; transform: translate(-50%, -50%); border:5px solid black"">","","","","","","","",""
"","6483","sequential-stimulus-presentation-old","12","157245","0.0-9.0-1.1","SS1618435651710","trial","","40","500","6983","images/stimuli/spore_stims/simple_11_A_a.gif","images/stimuli/spore_stims/simple_18_A_b.gif","forced_short","","0","simple_dissimilar","images/stimuli/spore_stims/simple_18_A_b.gif","","","","",""
"","null","html-keyboard-response","13","158382","0.0-9.0-0.2","SS1618435651710","","","null","","","","","","<p><img src= images/blank.png width =""600"" height = ""600"" style=""position:fixed;top:50%; left:50%; transform: translate(-50%, -50%); border:5px solid black"">","","","","","","","",""
"","3500","sequential-stimulus-presentation-old","14","162384","0.0-9.0-1.2","SS1618435651710","trial","","40","500","4000","images/stimuli/spore_stims/simple_11_A_a.gif","images/stimuli/spore_stims/simple_18_A_b.gif","forced_short","","0","simple_dissimilar","images/stimuli/spore_stims/simple_18_A_b.gif","","","","",""
"","null","html-keyboard-response","15","163249","0.0-9.0-0.3","SS1618435651710","","","null","","","","","","<p><img src= images/blank.png width =""600"" height = ""600"" style=""position:fixed;top:50%; left:50%; transform: translate(-50%, -50%); border:5px solid black"">","","","","","","","",""
"","3348","sequential-stimulus-presentation-old","16","167104","0.0-9.0-1.3","SS1618435651710","trial","","40","500","3848","images/stimuli/spore_stims/simple_11_A_a.gif","images/stimuli/spore_stims/simple_18_A_b.gif","forced_short","","0","simple_dissimilar","images/stimuli/spore_stims/simple_18_A_b.gif","","","","",""
"","null","html-keyboard-response","17","168066","0.0-9.0-0.4","SS1618435651710","","","null","","","","","","<p><img src= images/blank.png width =""600"" height = ""600"" style=""position:fixed;top:50%; left:50%; transform: translate(-50%, -50%); border:5px solid black"">","","","","","","","",""
"","3274","sequential-stimulus-presentation-old","18","171848","0.0-9.0-1.4","SS1618435651710","trial","","40","500","3774","images/stimuli/spore_stims/simple_11_A_a.gif","images/stimuli/spore_stims/simple_18_A_b.gif","forced_short","","0","simple_dissimilar","images/stimuli/spore_stims/simple_18_A_b.gif","","","","",""
"","null","html-keyboard-response","19","172873","0.0-9.0-0.5","SS1618435651710","","","null","","","","","","<p><img src= images/blank.png width =""600"" height = ""600"" style=""position:fixed;top:50%; left:50%; transform: translate(-50%, -50%); border:5px solid black"">","","","","","","","",""
"","3163","sequential-stimulus-presentation-old","20","176554","0.0-9.0-1.5","SS1618435651710","trial","","40","500","3663","images/stimuli/spore_stims/simple_11_A_a.gif","images/stimuli/spore_stims/simple_18_A_b.gif","forced_short","","0","simple_dissimilar","images/stimuli/spore_stims/simple_18_A_b.gif","","","","",""
"","5009","survey-multi-choice","21","181569","0.0-10.0","SS1618435651710","math_question","","","","","","","","","","","","{""Q0"":""7""}","[0]","7","",""
"","null","html-keyboard-response","22","182627","0.0-11.0-0.0","SS1618435651710","","","null","","","","","","<p><img src= images/blank.png width =""600"" height = ""600"" style=""position:fixed;top:50%; left:50%; transform: translate(-50%, -50%); border:5px solid black"">","","","","","","","",""
"","4683","sequential-stimulus-presentation-old","23","192325","0.0-11.0-1.0","SS1618435651710","trial","","40","500","5183","images/stimuli/spore_stims/complex_19_A_a.gif","images/stimuli/spore_stims/complex_08_A_b.gif","forced_long","","1","complex_dissimilar","images/stimuli/spore_stims/complex_08_A_b.gif","","","","",""
"","null","html-keyboard-response","24","193176","0.0-11.0-0.1","SS1618435651710","","","null","","","","","","<p><img src= images/blank.png width =""600"" height = ""600"" style=""position:fixed;top:50%; left:50%; transform: translate(-50%, -50%); border:5px solid black"">","","","","","","","",""
"","3667","sequential-stimulus-presentation-old","25","197349","0.0-11.0-1.1","SS1618435651710","trial","","40","500","4167","images/stimuli/spore_stims/complex_19_A_a.gif","images/stimuli/spore_stims/complex_08_A_b.gif","forced_long","","1","complex_dissimilar","images/stimuli/spore_stims/complex_08_A_b.gif","","","","",""
"","null","html-keyboard-response","26","198357","0.0-11.0-0.2","SS1618435651710","","","null","","","","","","<p><img src= images/blank.png width =""600"" height = ""600"" style=""position:fixed;top:50%; left:50%; transform: translate(-50%, -50%); border:5px solid black"">","","","","","","","",""
"","3328","sequential-stimulus-presentation-old","27","202203","0.0-11.0-1.2","SS1618435651710","trial","","40","500","3828","images/stimuli/spore_stims/complex_19_A_a.gif","images/stimuli/spore_stims/complex_08_A_b.gif","forced_long","","1","complex_dissimilar","images/stimuli/spore_stims/complex_08_A_b.gif","","","","",""
"","null","html-keyboard-response","28","203254","0.0-11.0-0.3","SS1618435651710","","","null","","","","","","<p><img src= images/blank.png width =""600"" height = ""600"" style=""position:fixed;top:50%; left:50%; transform: translate(-50%, -50%); border:5px solid black"">","","","","","","","",""
"","3270","sequential-stimulus-presentation-old","29","207033","0.0-11.0-1.3","SS1618435651710","trial","","40","500","3770","images/stimuli/spore_stims/complex_19_A_a.gif","images/stimuli/spore_stims/complex_08_A_b.gif","forced_long","","1","complex_dissimilar","images/stimuli/spore_stims/complex_08_A_b.gif","","","","",""
"","2999","survey-multi-choice","30","210035","0.0-12.0","SS1618435651710","math_question","","","","","","","","","","","","{""Q0"":""5""}","[0]","5","",""
"","null","html-keyboard-response","31","211208","0.0-13.0-0.0","SS1618435651710","","","null","","","","","","<p><img src= images/blank.png width =""600"" height = ""600"" style=""position:fixed;top:50%; left:50%; transform: translate(-50%, -50%); border:5px solid black"">","","","","","","","",""
"","1186","sequential-stimulus-presentation-old","32","212456","0.0-13.0-1.0","SS1618435651710","trial","","40","500","1686","images/stimuli/spore_stims/complex_06_A_a.gif","images/stimuli/spore_stims/complex_03_A_b.gif","forced_short","","2","complex_dissimilar","images/stimuli/spore_stims/complex_03_A_b.gif","","","","",""
"","null","html-keyboard-response","33","213431","0.0-13.0-0.1","SS1618435651710","","","null","","","","","","<p><img src= images/blank.png width =""600"" height = ""600"" style=""position:fixed;top:50%; left:50%; transform: translate(-50%, -50%); border:5px solid black"">","","","","","","","",""
"","3248","sequential-stimulus-presentation-old","34","217186","0.0-13.0-1.1","SS1618435651710","trial","","40","500","3748","images/stimuli/spore_stims/complex_06_A_a.gif","images/stimuli/spore_stims/complex_03_A_b.gif","forced_short","","2","complex_dissimilar","images/stimuli/spore_stims/complex_03_A_b.gif","","","","",""
"","null","html-keyboard-response","35","218244","0.0-13.0-0.2","SS1618435651710","","","null","","","","","","<p><img src= images/blank.png width =""600"" height = ""600"" style=""position:fixed;top:50%; left:50%; transform: translate(-50%, -50%); border:5px solid black"">","","","","","","","",""
"","4233","sequential-stimulus-presentation-old","36","222987","0.0-13.0-1.2","SS1618435651710","trial","","40","500","4733","images/stimuli/spore_stims/complex_06_A_a.gif","images/stimuli/spore_stims/complex_03_A_b.gif","forced_short","","2","complex_dissimilar","images/stimuli/spore_stims/complex_06_A_a.gif","","","","",""
"","null","html-keyboard-response","37","223917","0.0-13.0-0.3","SS1618435651710","","","null","","","","","","<p><img src= images/blank.png width =""600"" height = ""600"" style=""position:fixed;top:50%; left:50%; transform: translate(-50%, -50%); border:5px solid black"">","","","","","","","",""
"","7806","sequential-stimulus-presentation-old","38","232233","0.0-13.0-1.3","SS1618435651710","trial","","40","500","8306","images/stimuli/spore_stims/complex_06_A_a.gif","images/stimuli/spore_stims/complex_03_A_b.gif","forced_short","","2","complex_dissimilar","images/stimuli/spore_stims/complex_03_A_b.gif","","","","",""
"","null","html-keyboard-response","39","233101","0.0-13.0-0.4","SS1618435651710","","","null","","","","","","<p><img src= images/blank.png width =""600"" height = ""600"" style=""position:fixed;top:50%; left:50%; transform: translate(-50%, -50%); border:5px solid black"">","","","","","","","",""
"","5436","sequential-stimulus-presentation-old","40","239041","0.0-13.0-1.4","SS1618435651710","trial","","40","500","5936","images/stimuli/spore_stims/complex_06_A_a.gif","images/stimuli/spore_stims/complex_03_A_b.gif","forced_short","","2","complex_dissimilar","images/stimuli/spore_stims/complex_03_A_b.gif","","","","",""
"","null","html-keyboard-response","41","240226","0.0-13.0-0.5","SS1618435651710","","","null","","","","","","<p><img src= images/blank.png width =""600"" height = ""600"" style=""position:fixed;top:50%; left:50%; transform: translate(-50%, -50%); border:5px solid black"">","","","","","","","",""
"","1860","sequential-stimulus-presentation-old","42","242601","0.0-13.0-1.5","SS1618435651710","trial","","40","500","2360","images/stimuli/spore_stims/complex_06_A_a.gif","images/stimuli/spore_stims/complex_03_A_b.gif","forced_short","","2","complex_dissimilar","images/stimuli/spore_stims/complex_03_A_b.gif","","","","",""
"","3134","survey-multi-choice","43","245740","0.0-14.0","SS1618435651710","math_question","","","","","","","","","","","","{""Q0"":""10""}","[0]","10","",""
"","null","html-keyboard-response","44","246644","0.0-15.0-0.0","SS1618435651710","","","null","","","","","","<p><img src= images/blank.png width =""600"" height = ""600"" style=""position:fixed;top:50%; left:50%; transform: translate(-50%, -50%); border:5px solid black"">","","","","","","","",""
"","449","sequential-stimulus-presentation-old","45","252106","0.0-15.0-1.0","SS1618435651710","trial","","40","500","949","images/stimuli/spore_stims/complex_02_A_a.gif","images/stimuli/spore_stims/complex_01_A_b.gif","forced_long","","3","complex_dissimilar","images/stimuli/spore_stims/complex_01_A_b.gif","","","","",""
"","null","html-keyboard-response","46","253359","0.0-15.0-0.1","SS1618435651710","","","null","","","","","","<p><img src= images/blank.png width =""600"" height = ""600"" style=""position:fixed;top:50%; left:50%; transform: translate(-50%, -50%); border:5px solid black"">","","","","","","","",""
"","2155","sequential-stimulus-presentation-old","47","256026","0.0-15.0-1.1","SS1618435651710","trial","","40","500","2655","images/stimuli/spore_stims/complex_02_A_a.gif","images/stimuli/spore_stims/complex_01_A_b.gif","forced_long","","3","complex_dissimilar","images/stimuli/spore_stims/complex_01_A_b.gif","","","","",""
"","null","html-keyboard-response","48","257024","0.0-15.0-0.2","SS1618435651710","","","null","","","","","","<p><img src= images/blank.png width =""600"" height = ""600"" style=""position:fixed;top:50%; left:50%; transform: translate(-50%, -50%); border:5px solid black"">","","","","","","","",""
"","4427","sequential-stimulus-presentation-old","49","261970","0.0-15.0-1.2","SS1618435651710","trial","","40","500","4927","images/stimuli/spore_stims/complex_02_A_a.gif","images/stimuli/spore_stims/complex_01_A_b.gif","forced_long","","3","complex_dissimilar","images/stimuli/spore_stims/complex_02_A_a.gif","","","","",""
"","null","html-keyboard-response","50","263241","0.0-15.0-0.3","SS1618435651710","","","null","","","","","","<p><img src= images/blank.png width =""600"" height = ""600"" style=""position:fixed;top:50%; left:50%; transform: translate(-50%, -50%); border:5px solid black"">","","","","","","","",""
"","4257","sequential-stimulus-presentation-old","51","268003","0.0-15.0-1.3","SS1618435651710","trial","","40","500","4757","images/stimuli/spore_stims/complex_02_A_a.gif","images/stimuli/spore_stims/complex_01_A_b.gif","forced_long","","3","complex_dissimilar","images/stimuli/spore_stims/complex_02_A_a.gif","","","","",""
"","null","html-keyboard-response","52","269152","0.0-15.0-0.4","SS1618435651710","","","null","","","","","","<p><img src= images/blank.png width =""600"" height = ""600"" style=""position:fixed;top:50%; left:50%; transform: translate(-50%, -50%); border:5px solid black"">","","","","","","","",""
"","2299","sequential-stimulus-presentation-old","53","271959","0.0-15.0-1.4","SS1618435651710","trial","","40","500","2799","images/stimuli/spore_stims/complex_02_A_a.gif","images/stimuli/spore_stims/complex_01_A_b.gif","forced_long","","3","complex_dissimilar","images/stimuli/spore_stims/complex_01_A_b.gif","","","","",""
"","null","html-keyboard-response","54","272806","0.0-15.0-0.5","SS1618435651710","","","null","","","","","","<p><img src= images/blank.png width =""600"" height = ""600"" style=""position:fixed;top:50%; left:50%; transform: translate(-50%, -50%); border:5px solid black"">","","","","","","","",""
"","1010","sequential-stimulus-presentation-old","55","274320","0.0-15.0-1.5","SS1618435651710","trial","","40","500","1510","images/stimuli/spore_stims/complex_02_A_a.gif","images/stimuli/spore_stims/complex_01_A_b.gif","forced_long","","3","complex_dissimilar","images/stimuli/spore_stims/complex_01_A_b.gif","","","","",""
"","4913","survey-multi-choice","56","279238","0.0-16.0","SS1618435651710","math_question","","","","","","","","","","","","{""Q0"":""15""}","[0]","15","",""
"","null","html-keyboard-response","57","280474","0.0-17.0-0.0","SS1618435651710","","","null","","","","","","<p><img src= images/blank.png width =""600"" height = ""600"" style=""position:fixed;top:50%; left:50%; transform: translate(-50%, -50%); border:5px solid black"">","","","","","","","",""
"","2080","sequential-stimulus-presentation-old","58","283061","0.0-17.0-1.0","SS1618435651710","trial","","40","500","2580","images/stimuli/spore_stims/simple_08_A_b.gif","images/stimuli/spore_stims/simple_07_A_a.gif","self_paced","","4","simple_dissimilar","images/stimuli/spore_stims/simple_07_A_a.gif","","","","",""
"","null","html-keyboard-response","59","284014","0.0-17.0-0.1","SS1618435651710","","","null","","","","","","<p><img src= images/blank.png width =""600"" height = ""600"" style=""position:fixed;top:50%; left:50%; transform: translate(-50%, -50%); border:5px solid black"">","","","","","","","",""
"","2952","sequential-stimulus-presentation-old","60","287472","0.0-17.0-1.1","SS1618435651710","trial","","40","500","3452","images/stimuli/spore_stims/simple_08_A_b.gif","images/stimuli/spore_stims/simple_07_A_a.gif","self_paced","","4","simple_dissimilar","images/stimuli/spore_stims/simple_08_A_b.gif","","","","",""
"","null","html-keyboard-response","61","288661","0.0-17.0-0.2","SS1618435651710","","","null","","","","","","<p><img src= images/blank.png width =""600"" height = ""600"" style=""position:fixed;top:50%; left:50%; transform: translate(-50%, -50%); border:5px solid black"">","","","","","","","",""
"","2277","sequential-stimulus-presentation-old","62","291452","0.0-17.0-1.2","SS1618435651710","trial","","40","500","2777","images/stimuli/spore_stims/simple_08_A_b.gif","images/stimuli/spore_stims/simple_07_A_a.gif","self_paced","","4","simple_dissimilar","images/stimuli/spore_stims/simple_07_A_a.gif","","","","",""
"","null","html-keyboard-response","63","292424","0.0-17.0-0.3","SS1618435651710","","","null","","","","","","<p><img src= images/blank.png width =""600"" height = ""600"" style=""position:fixed;top:50%; left:50%; transform: translate(-50%, -50%); border:5px solid black"">","","","","","","","",""
"","1982","sequential-stimulus-presentation-old","64","294913","0.0-17.0-1.3","SS1618435651710","trial","","40","500","2482","images/stimuli/spore_stims/simple_08_A_b.gif","images/stimuli/spore_stims/simple_07_A_a.gif","self_paced","","4","simple_dissimilar","images/stimuli/spore_stims/simple_07_A_a.gif","","","","",""
"","null","html-keyboard-response","65","295818","0.0-17.0-0.4","SS1618435651710","","","null","","","","","","<p><img src= images/blank.png width =""600"" height = ""600"" style=""position:fixed;top:50%; left:50%; transform: translate(-50%, -50%); border:5px solid black"">","","","","","","","",""
"","1253","sequential-stimulus-presentation-old","66","297580","0.0-17.0-1.4","SS1618435651710","trial","","40","500","1753","images/stimuli/spore_stims/simple_08_A_b.gif","images/stimuli/spore_stims/simple_07_A_a.gif","self_paced","","4","simple_dissimilar","images/stimuli/spore_stims/simple_07_A_a.gif","","","","",""
"","null","html-keyboard-response","67","298740","0.0-17.0-0.5","SS1618435651710","","","null","","","","","","<p><img src= images/blank.png width =""600"" height = ""600"" style=""position:fixed;top:50%; left:50%; transform: translate(-50%, -50%); border:5px solid black"">","","","","","","","",""
"","978","sequential-stimulus-presentation-old","68","300237","0.0-17.0-1.5","SS1618435651710","trial","","40","500","1478","images/stimuli/spore_stims/simple_08_A_b.gif","images/stimuli/spore_stims/simple_07_A_a.gif","self_paced","","4","simple_dissimilar","images/stimuli/spore_stims/simple_08_A_b.gif","","","","",""
"","2714","survey-multi-choice","69","302955","0.0-18.0","SS1618435651710","math_question","","","","","","","","","","","","{""Q0"":""10""}","[0]","10","",""
"","null","html-keyboard-response","70","303960","0.0-19.0-0.0","SS1618435651710","","","null","","","","","","<p><img src= images/blank.png width =""600"" height = ""600"" style=""position:fixed;top:50%; left:50%; transform: translate(-50%, -50%); border:5px solid black"">","","","","","","","",""
"","877","sequential-stimulus-presentation-old","71","304897","0.0-19.0-1.0","SS1618435651710","trial","","40","500","1377","images/stimuli/spore_stims/simple_16_A_a.gif","images/stimuli/spore_stims/simple_15_A_b.gif","forced_short","","5","simple_dissimilar","images/stimuli/spore_stims/simple_15_A_b.gif","","","","",""
"","null","html-keyboard-response","72","305815","0.0-19.0-0.1","SS1618435651710","","","null","","","","","","<p><img src= images/blank.png width =""600"" height = ""600"" style=""position:fixed;top:50%; left:50%; transform: translate(-50%, -50%); border:5px solid black"">","","","","","","","",""
"","1157","sequential-stimulus-presentation-old","73","307479","0.0-19.0-1.1","SS1618435651710","trial","","40","500","1657","images/stimuli/spore_stims/simple_16_A_a.gif","images/stimuli/spore_stims/simple_15_A_b.gif","forced_short","","5","simple_dissimilar","images/stimuli/spore_stims/simple_15_A_b.gif","","","","",""
"","null","html-keyboard-response","74","308425","0.0-19.0-0.2","SS1618435651710","","","null","","","","","","<p><img src= images/blank.png width =""600"" height = ""600"" style=""position:fixed;top:50%; left:50%; transform: translate(-50%, -50%); border:5px solid black"">","","","","","","","",""
"","1097","sequential-stimulus-presentation-old","75","310027","0.0-19.0-1.2","SS1618435651710","trial","","40","500","1597","images/stimuli/spore_stims/simple_16_A_a.gif","images/stimuli/spore_stims/simple_15_A_b.gif","forced_short","","5","simple_dissimilar","images/stimuli/spore_stims/simple_15_A_b.gif","","","","",""
"","null","html-keyboard-response","76","310926","0.0-19.0-0.3","SS1618435651710","","","null","","","","","","<p><img src= images/blank.png width =""600"" height = ""600"" style=""position:fixed;top:50%; left:50%; transform: translate(-50%, -50%); border:5px solid black"">","","","","","","","",""
"","1263","sequential-stimulus-presentation-old","77","312699","0.0-19.0-1.3","SS1618435651710","trial","","40","500","1763","images/stimuli/spore_stims/simple_16_A_a.gif","images/stimuli/spore_stims/simple_15_A_b.gif","forced_short","","5","simple_dissimilar","images/stimuli/spore_stims/simple_16_A_a.gif","","","","",""
"","3388","survey-multi-choice","78","316095","0.0-20.0","SS1618435651710","math_question","","","","","","","","","","","","{""Q0"":""10""}","[0]","10","",""
"","null","html-keyboard-response","79","317276","0.0-21.0-0.0","SS1618435651710","","","null","","","","","","<p><img src= images/blank.png width =""600"" height = ""600"" style=""position:fixed;top:50%; left:50%; transform: translate(-50%, -50%); border:5px solid black"">","","","","","","","",""
"","372","sequential-stimulus-presentation-old","80","322662","0.0-21.0-1.0","SS1618435651710","trial","","40","500","872","images/stimuli/spore_stims/simple_19_A_b.gif","images/stimuli/spore_stims/simple_17_A_a.gif","forced_long","","6","simple_dissimilar","images/stimuli/spore_stims/simple_17_A_a.gif","","","","",""
"","null","html-keyboard-response","81","323817","0.0-21.0-0.1","SS1618435651710","","","null","","","","","","<p><img src= images/blank.png width =""600"" height = ""600"" style=""position:fixed;top:50%; left:50%; transform: translate(-50%, -50%); border:5px solid black"">","","","","","","","",""
"","3626","sequential-stimulus-presentation-old","82","327951","0.0-21.0-1.1","SS1618435651710","trial","","40","500","4126","images/stimuli/spore_stims/simple_19_A_b.gif","images/stimuli/spore_stims/simple_17_A_a.gif","forced_long","","6","simple_dissimilar","images/stimuli/spore_stims/simple_17_A_a.gif","","","","",""
"","null","html-keyboard-response","83","329086","0.0-21.0-0.2","SS1618435651710","","","null","","","","","","<p><img src= images/blank.png width =""600"" height = ""600"" style=""position:fixed;top:50%; left:50%; transform: translate(-50%, -50%); border:5px solid black"">","","","","","","","",""
"","1091","sequential-stimulus-presentation-old","84","330688","0.0-21.0-1.2","SS1618435651710","trial","","40","500","1591","images/stimuli/spore_stims/simple_19_A_b.gif","images/stimuli/spore_stims/simple_17_A_a.gif","forced_long","","6","simple_dissimilar","images/stimuli/spore_stims/simple_17_A_a.gif","","","","",""
"","null","html-keyboard-response","85","331872","0.0-21.0-0.3","SS1618435651710","","","null","","","","","","<p><img src= images/blank.png width =""600"" height = ""600"" style=""position:fixed;top:50%; left:50%; transform: translate(-50%, -50%); border:5px solid black"">","","","","","","","",""
"","1263","sequential-stimulus-presentation-old","86","333650","0.0-21.0-1.3","SS1618435651710","trial","","40","500","1763","images/stimuli/spore_stims/simple_19_A_b.gif","images/stimuli/spore_stims/simple_17_A_a.gif","forced_long","","6","simple_dissimilar","images/stimuli/spore_stims/simple_17_A_a.gif","","","","",""
"","2767","survey-multi-choice","87","336423","0.0-22.0","SS1618435651710","math_question","","","","","","","","","","","","{""Q0"":""6""}","[0]","6","",""
"","null","html-keyboard-response","88","337274","0.0-23.0-0.0","SS1618435651710","","","null","","","","","","<p><img src= images/blank.png width =""600"" height = ""600"" style=""position:fixed;top:50%; left:50%; transform: translate(-50%, -50%); border:5px solid black"">","","","","","","","",""
"","728","sequential-stimulus-presentation-old","89","338064","0.0-23.0-1.0","SS1618435651710","trial","","40","500","1228","images/stimuli/spore_stims/complex_11_A_a.gif","images/stimuli/spore_stims/complex_10_A_b.gif","forced_short","","7","complex_dissimilar","images/stimuli/spore_stims/complex_10_A_b.gif","","","","",""
"","null","html-keyboard-response","90","339020","0.0-23.0-0.1","SS1618435651710","","","null","","","","","","<p><img src= images/blank.png width =""600"" height = ""600"" style=""position:fixed;top:50%; left:50%; transform: translate(-50%, -50%); border:5px solid black"">","","","","","","","",""
"","1522","sequential-stimulus-presentation-old","91","341055","0.0-23.0-1.1","SS1618435651710","trial","","40","500","2022","images/stimuli/spore_stims/complex_11_A_a.gif","images/stimuli/spore_stims/complex_10_A_b.gif","forced_short","","7","complex_dissimilar","images/stimuli/spore_stims/complex_10_A_b.gif","","","","",""
"","null","html-keyboard-response","92","342000","0.0-23.0-0.2","SS1618435651710","","","null","","","","","","<p><img src= images/blank.png width =""600"" height = ""600"" style=""position:fixed;top:50%; left:50%; transform: translate(-50%, -50%); border:5px solid black"">","","","","","","","",""
"","2234","sequential-stimulus-presentation-old","93","344741","0.0-23.0-1.2","SS1618435651710","trial","","40","500","2734","images/stimuli/spore_stims/complex_11_A_a.gif","images/stimuli/spore_stims/complex_10_A_b.gif","forced_short","","7","complex_dissimilar","images/stimuli/spore_stims/complex_10_A_b.gif","","","","",""
"","null","html-keyboard-response","94","346020","0.0-23.0-0.3","SS1618435651710","","","null","","","","","","<p><img src= images/blank.png width =""600"" height = ""600"" style=""position:fixed;top:50%; left:50%; transform: translate(-50%, -50%); border:5px solid black"">","","","","","","","",""
"","1892","sequential-stimulus-presentation-old","95","348418","0.0-23.0-1.3","SS1618435651710","trial","","40","500","2392","images/stimuli/spore_stims/complex_11_A_a.gif","images/stimuli/spore_stims/complex_10_A_b.gif","forced_short","","7","complex_dissimilar","images/stimuli/spore_stims/complex_10_A_b.gif","","","","",""
"","null","html-keyboard-response","96","349441","0.0-23.0-0.4","SS1618435651710","","","null","","","","","","<p><img src= images/blank.png width =""600"" height = ""600"" style=""position:fixed;top:50%; left:50%; transform: translate(-50%, -50%); border:5px solid black"">","","","","","","","",""
"","1798","sequential-stimulus-presentation-old","97","351744","0.0-23.0-1.4","SS1618435651710","trial","","40","500","2298","images/stimuli/spore_stims/complex_11_A_a.gif","images/stimuli/spore_stims/complex_10_A_b.gif","forced_short","","7","complex_dissimilar","images/stimuli/spore_stims/complex_10_A_b.gif","","","","",""
"","null","html-keyboard-response","98","352903","0.0-23.0-0.5","SS1618435651710","","","null","","","","","","<p><img src= images/blank.png width =""600"" height = ""600"" style=""position:fixed;top:50%; left:50%; transform: translate(-50%, -50%); border:5px solid black"">","","","","","","","",""
"","1441","sequential-stimulus-presentation-old","99","354865","0.0-23.0-1.5","SS1618435651710","trial","","40","500","1941","images/stimuli/spore_stims/complex_11_A_a.gif","images/stimuli/spore_stims/complex_10_A_b.gif","forced_short","","7","complex_dissimilar","images/stimuli/spore_stims/complex_10_A_b.gif","","","","",""
"","5180","survey-multi-choice","100","360050","0.0-24.0","SS1618435651710","math_question","","","","","","","","","","","","{""Q0"":""14""}","[0]","14","",""
"","null","html-keyboard-response","101","361171","0.0-25.0-0.0","SS1618435651710","","","null","","","","","","<p><img src= images/blank.png width =""600"" height = ""600"" style=""position:fixed;top:50%; left:50%; transform: translate(-50%, -50%); border:5px solid black"">","","","","","","","",""
"","654","sequential-stimulus-presentation-old","102","366841","0.0-25.0-1.0","SS1618435651710","trial","","40","500","1154","images/stimuli/spore_stims/simple_18_A_a.gif","images/stimuli/spore_stims/simple_12_A_b.gif","forced_long","","8","simple_dissimilar","images/stimuli/spore_stims/simple_12_A_b.gif","","","","",""
"","null","html-keyboard-response","103","367867","0.0-25.0-0.1","SS1618435651710","","","null","","","","","","<p><img src= images/blank.png width =""600"" height = ""600"" style=""position:fixed;top:50%; left:50%; transform: translate(-50%, -50%); border:5px solid black"">","","","","","","","",""
"","3937","sequential-stimulus-presentation-old","104","372321","0.0-25.0-1.1","SS1618435651710","trial","","40","500","4437","images/stimuli/spore_stims/simple_18_A_a.gif","images/stimuli/spore_stims/simple_12_A_b.gif","forced_long","","8","simple_dissimilar","images/stimuli/spore_stims/simple_12_A_b.gif","","","","",""
"","null","html-keyboard-response","105","373252","0.0-25.0-0.2","SS1618435651710","","","null","","","","","","<p><img src= images/blank.png width =""600"" height = ""600"" style=""position:fixed;top:50%; left:50%; transform: translate(-50%, -50%); border:5px solid black"">","","","","","","","",""
"","2699","sequential-stimulus-presentation-old","106","376470","0.0-25.0-1.2","SS1618435651710","trial","","40","500","3199","images/stimuli/spore_stims/simple_18_A_a.gif","images/stimuli/spore_stims/simple_12_A_b.gif","forced_long","","8","simple_dissimilar","images/stimuli/spore_stims/simple_18_A_a.gif","","","","",""
"","null","html-keyboard-response","107","377685","0.0-25.0-0.3","SS1618435651710","","","null","","","","","","<p><img src= images/blank.png width =""600"" height = ""600"" style=""position:fixed;top:50%; left:50%; transform: translate(-50%, -50%); border:5px solid black"">","","","","","","","",""
"","2821","sequential-stimulus-presentation-old","108","381015","0.0-25.0-1.3","SS1618435651710","trial","","40","500","3321","images/stimuli/spore_stims/simple_18_A_a.gif","images/stimuli/spore_stims/simple_12_A_b.gif","forced_long","","8","simple_dissimilar","images/stimuli/spore_stims/simple_12_A_b.gif","","","","",""
"","null","html-keyboard-response","109","381960","0.0-25.0-0.4","SS1618435651710","","","null","","","","","","<p><img src= images/blank.png width =""600"" height = ""600"" style=""position:fixed;top:50%; left:50%; transform: translate(-50%, -50%); border:5px solid black"">","","","","","","","",""
"","2222","sequential-stimulus-presentation-old","110","384690","0.0-25.0-1.4","SS1618435651710","trial","","40","500","2722","images/stimuli/spore_stims/simple_18_A_a.gif","images/stimuli/spore_stims/simple_12_A_b.gif","forced_long","","8","simple_dissimilar","images/stimuli/spore_stims/simple_12_A_b.gif","","","","",""
"","null","html-keyboard-response","111","385957","0.0-25.0-0.5","SS1618435651710","","","null","","","","","","<p><img src= images/blank.png width =""600"" height = ""600"" style=""position:fixed;top:50%; left:50%; transform: translate(-50%, -50%); border:5px solid black"">","","","","","","","",""
"","1180","sequential-stimulus-presentation-old","112","387651","0.0-25.0-1.5","SS1618435651710","trial","","40","500","1680","images/stimuli/spore_stims/simple_18_A_a.gif","images/stimuli/spore_stims/simple_12_A_b.gif","forced_long","","8","simple_dissimilar","images/stimuli/spore_stims/simple_18_A_a.gif","","","","",""
"","2948","survey-multi-choice","113","390605","0.0-26.0","SS1618435651710","math_question","","","","","","","","","","","","{""Q0"":""10""}","[0]","10","",""
"","null","html-keyboard-response","114","391814","0.0-27.0-0.0","SS1618435651710","","","null","","","","","","<p><img src= images/blank.png width =""600"" height = ""600"" style=""position:fixed;top:50%; left:50%; transform: translate(-50%, -50%); border:5px solid black"">","","","","","","","",""
"","3636","sequential-stimulus-presentation-old","115","395962","0.0-27.0-1.0","SS1618435651710","trial","","40","500","4136","images/stimuli/spore_stims/complex_13_A_b.gif","images/stimuli/spore_stims/complex_12_A_a.gif","self_paced","","9","complex_dissimilar","images/stimuli/spore_stims/complex_12_A_a.gif","","","","",""
"","null","html-keyboard-response","116","396949","0.0-27.0-0.1","SS1618435651710","","","null","","","","","","<p><img src= images/blank.png width =""600"" height = ""600"" style=""position:fixed;top:50%; left:50%; transform: translate(-50%, -50%); border:5px solid black"">","","","","","","","",""
"","3476","sequential-stimulus-presentation-old","117","400942","0.0-27.0-1.1","SS1618435651710","trial","","40","500","3976","images/stimuli/spore_stims/complex_13_A_b.gif","images/stimuli/spore_stims/complex_12_A_a.gif","self_paced","","9","complex_dissimilar","images/stimuli/spore_stims/complex_12_A_a.gif","","","","",""
"","null","html-keyboard-response","118","402200","0.0-27.0-0.2","SS1618435651710","","","null","","","","","","<p><img src= images/blank.png width =""600"" height = ""600"" style=""position:fixed;top:50%; left:50%; transform: translate(-50%, -50%); border:5px solid black"">","","","","","","","",""
"","3231","sequential-stimulus-presentation-old","119","405950","0.0-27.0-1.2","SS1618435651710","trial","","40","500","3731","images/stimuli/spore_stims/complex_13_A_b.gif","images/stimuli/spore_stims/complex_12_A_a.gif","self_paced","","9","complex_dissimilar","images/stimuli/spore_stims/complex_12_A_a.gif","","","","",""
"","null","html-keyboard-response","120","406803","0.0-27.0-0.3","SS1618435651710","","","null","","","","","","<p><img src= images/blank.png width =""600"" height = ""600"" style=""position:fixed;top:50%; left:50%; transform: translate(-50%, -50%); border:5px solid black"">","","","","","","","",""
"","2171","sequential-stimulus-presentation-old","121","409482","0.0-27.0-1.3","SS1618435651710","trial","","40","500","2671","images/stimuli/spore_stims/complex_13_A_b.gif","images/stimuli/spore_stims/complex_12_A_a.gif","self_paced","","9","complex_dissimilar","images/stimuli/spore_stims/complex_13_A_b.gif","","","","",""
"","null","html-keyboard-response","122","410786","0.0-27.0-0.4","SS1618435651710","","","null","","","","","","<p><img src= images/blank.png width =""600"" height = ""600"" style=""position:fixed;top:50%; left:50%; transform: translate(-50%, -50%); border:5px solid black"">","","","","","","","",""
"","2519","sequential-stimulus-presentation-old","123","413812","0.0-27.0-1.4","SS1618435651710","trial","","40","500","3019","images/stimuli/spore_stims/complex_13_A_b.gif","images/stimuli/spore_stims/complex_12_A_a.gif","self_paced","","9","complex_dissimilar","images/stimuli/spore_stims/complex_13_A_b.gif","","","","",""
"","null","html-keyboard-response","124","414682","0.0-27.0-0.5","SS1618435651710","","","null","","","","","","<p><img src= images/blank.png width =""600"" height = ""600"" style=""position:fixed;top:50%; left:50%; transform: translate(-50%, -50%); border:5px solid black"">","","","","","","","",""
"","3426","sequential-stimulus-presentation-old","125","418621","0.0-27.0-1.5","SS1618435651710","trial","","40","500","3926","images/stimuli/spore_stims/complex_13_A_b.gif","images/stimuli/spore_stims/complex_12_A_a.gif","self_paced","","9","complex_dissimilar","images/stimuli/spore_stims/complex_12_A_a.gif","","","","",""
"","3235","survey-multi-choice","126","421862","0.0-28.0","SS1618435651710","math_question","","","","","","","","","","","","{""Q0"":""12""}","[0]","12","",""
"","null","html-keyboard-response","127","423080","0.0-29.0-0.0","SS1618435651710","","","null","","","","","","<p><img src= images/blank.png width =""600"" height = ""600"" style=""position:fixed;top:50%; left:50%; transform: translate(-50%, -50%); border:5px solid black"">","","","","","","","",""
"","48","sequential-stimulus-presentation-old","128","423635","0.0-29.0-1.0","SS1618435651710","trial","","40","500","548","images/stimuli/spore_stims/simple_02_A_a.gif","images/stimuli/spore_stims/simple_20_A_b.gif","self_paced","","10","simple_dissimilar","images/stimuli/spore_stims/simple_20_A_b.gif","","","","",""
"","null","html-keyboard-response","129","424893","0.0-29.0-0.1","SS1618435651710","","","null","","","","","","<p><img src= images/blank.png width =""600"" height = ""600"" style=""position:fixed;top:50%; left:50%; transform: translate(-50%, -50%); border:5px solid black"">","","","","","","","",""
"","1069","sequential-stimulus-presentation-old","130","426467","0.0-29.0-1.1","SS1618435651710","trial","","40","500","1569","images/stimuli/spore_stims/simple_02_A_a.gif","images/stimuli/spore_stims/simple_20_A_b.gif","self_paced","","10","simple_dissimilar","images/stimuli/spore_stims/simple_02_A_a.gif","","","","",""
"","null","html-keyboard-response","131","427350","0.0-29.0-0.2","SS1618435651710","","","null","","","","","","<p><img src= images/blank.png width =""600"" height = ""600"" style=""position:fixed;top:50%; left:50%; transform: translate(-50%, -50%); border:5px solid black"">","","","","","","","",""
"","962","sequential-stimulus-presentation-old","132","428829","0.0-29.0-1.2","SS1618435651710","trial","","40","500","1462","images/stimuli/spore_stims/simple_02_A_a.gif","images/stimuli/spore_stims/simple_20_A_b.gif","self_paced","","10","simple_dissimilar","images/stimuli/spore_stims/simple_02_A_a.gif","","","","",""
"","null","html-keyboard-response","133","429746","0.0-29.0-0.3","SS1618435651710","","","null","","","","","","<p><img src= images/blank.png width =""600"" height = ""600"" style=""position:fixed;top:50%; left:50%; transform: translate(-50%, -50%); border:5px solid black"">","","","","","","","",""
"","1268","sequential-stimulus-presentation-old","134","431526","0.0-29.0-1.3","SS1618435651710","trial","","40","500","1768","images/stimuli/spore_stims/simple_02_A_a.gif","images/stimuli/spore_stims/simple_20_A_b.gif","self_paced","","10","simple_dissimilar","images/stimuli/spore_stims/simple_20_A_b.gif","","","","",""
"","null","html-keyboard-response","135","432557","0.0-29.0-0.4","SS1618435651710","","","null","","","","","","<p><img src= images/blank.png width =""600"" height = ""600"" style=""position:fixed;top:50%; left:50%; transform: translate(-50%, -50%); border:5px solid black"">","","","","","","","",""
"","1040","sequential-stimulus-presentation-old","136","434109","0.0-29.0-1.4","SS1618435651710","trial","","40","500","1540","images/stimuli/spore_stims/simple_02_A_a.gif","images/stimuli/spore_stims/simple_20_A_b.gif","self_paced","","10","simple_dissimilar","images/stimuli/spore_stims/simple_20_A_b.gif","","","","",""
"","null","html-keyboard-response","137","435372","0.0-29.0-0.5","SS1618435651710","","","null","","","","","","<p><img src= images/blank.png width =""600"" height = ""600"" style=""position:fixed;top:50%; left:50%; transform: translate(-50%, -50%); border:5px solid black"">","","","","","","","",""
"","1368","sequential-stimulus-presentation-old","138","437250","0.0-29.0-1.5","SS1618435651710","trial","","40","500","1868","images/stimuli/spore_stims/simple_02_A_a.gif","images/stimuli/spore_stims/simple_20_A_b.gif","self_paced","","10","simple_dissimilar","images/stimuli/spore_stims/simple_20_A_b.gif","","","","",""
"","3231","survey-multi-choice","139","440487","0.0-30.0","SS1618435651710","math_question","","","","","","","","","","","","{""Q0"":""12""}","[0]","12","",""
"","null","html-keyboard-response","140","441522","0.0-31.0-0.0","SS1618435651710","","","null","","","","","","<p><img src= images/blank.png width =""600"" height = ""600"" style=""position:fixed;top:50%; left:50%; transform: translate(-50%, -50%); border:5px solid black"">","","","","","","","",""
"","1580","sequential-stimulus-presentation-old","141","443612","0.0-31.0-1.0","SS1618435651710","trial","","40","500","2080","images/stimuli/spore_stims/complex_20_A_b.gif","images/stimuli/spore_stims/complex_07_A_a.gif","self_paced","","11","complex_dissimilar","images/stimuli/spore_stims/complex_07_A_a.gif","","","","",""
"","null","html-keyboard-response","142","444757","0.0-31.0-0.1","SS1618435651710","","","null","","","","","","<p><img src= images/blank.png width =""600"" height = ""600"" style=""position:fixed;top:50%; left:50%; transform: translate(-50%, -50%); border:5px solid black"">","","","","","","","",""
"","2732","sequential-stimulus-presentation-old","143","448002","0.0-31.0-1.1","SS1618435651710","trial","","40","500","3232","images/stimuli/spore_stims/complex_20_A_b.gif","images/stimuli/spore_stims/complex_07_A_a.gif","self_paced","","11","complex_dissimilar","images/stimuli/spore_stims/complex_20_A_b.gif","","","","",""
"","null","html-keyboard-response","144","449068","0.0-31.0-0.2","SS1618435651710","","","null","","","","","","<p><img src= images/blank.png width =""600"" height = ""600"" style=""position:fixed;top:50%; left:50%; transform: translate(-50%, -50%); border:5px solid black"">","","","","","","","",""
"","1881","sequential-stimulus-presentation-old","145","451471","0.0-31.0-1.2","SS1618435651710","trial","","40","500","2381","images/stimuli/spore_stims/complex_20_A_b.gif","images/stimuli/spore_stims/complex_07_A_a.gif","self_paced","","11","complex_dissimilar","images/stimuli/spore_stims/complex_20_A_b.gif","","","","",""
"","null","html-keyboard-response","146","452361","0.0-31.0-0.3","SS1618435651710","","","null","","","","","","<p><img src= images/blank.png width =""600"" height = ""600"" style=""position:fixed;top:50%; left:50%; transform: translate(-50%, -50%); border:5px solid black"">","","","","","","","",""
"","1836","sequential-stimulus-presentation-old","147","454715","0.0-31.0-1.3","SS1618435651710","trial","","40","500","2336","images/stimuli/spore_stims/complex_20_A_b.gif","images/stimuli/spore_stims/complex_07_A_a.gif","self_paced","","11","complex_dissimilar","images/stimuli/spore_stims/complex_07_A_a.gif","","","","",""
"[{""page_index"":0,""viewing_time"":6468}]","6468","instructions","148","461188","0.0-32.0","SS1618435651710","instructions","","","","","","","","","","","","","","","",""
"","8596","survey-likert","149","469793","0.0-33.0","SS1618435651710","similarity_question","","","","","","","","","","","","{""Q0"":2}","[0]","","images/stimuli/spore_stims/simple_18_A_b.gif","images/stimuli/spore_stims/simple_11_A_a.gif"
"","9514","survey-likert","150","479315","0.0-34.0","SS1618435651710","similarity_question","","","","","","","","","","","","{""Q0"":2}","[0]","","images/stimuli/spore_stims/complex_20_A_b.gif","images/stimuli/spore_stims/complex_07_A_a.gif"
"","3310","survey-likert","151","482634","0.0-35.0","SS1618435651710","similarity_question","","","","","","","","","","","","{""Q0"":2}","[0]","","images/stimuli/spore_stims/simple_07_A_a.gif","images/stimuli/spore_stims/simple_08_A_b.gif"
"","5156","survey-likert","152","487799","0.0-36.0","SS1618435651710","similarity_question","","","","","","","","","","","","{""Q0"":5}","[0]","","images/stimuli/spore_stims/simple_02_A_a.gif","images/stimuli/spore_stims/simple_20_A_b.gif"
"","4373","survey-likert","153","492180","0.0-37.0","SS1618435651710","similarity_question","","","","","","","","","","","","{""Q0"":3}","[0]","","images/stimuli/spore_stims/simple_12_A_b.gif","images/stimuli/spore_stims/simple_18_A_a.gif"
"","4668","survey-likert","154","496858","0.0-38.0","SS1618435651710","similarity_question","","","","","","","","","","","","{""Q0"":1}","[0]","","images/stimuli/spore_stims/complex_08_A_b.gif","images/stimuli/spore_stims/complex_19_A_a.gif"
"","8653","survey-likert","155","505520","0.0-39.0","SS1618435651710","similarity_question","","","","","","","","","","","","{""Q0"":2}","[0]","","images/stimuli/spore_stims/complex_01_A_b.gif","images/stimuli/spore_stims/complex_02_A_a.gif"
"","3896","survey-likert","156","509426","0.0-40.0","SS1618435651710","similarity_question","","","","","","","","","","","","{""Q0"":0}","[0]","","images/stimuli/spore_stims/complex_10_A_b.gif","images/stimuli/spore_stims/complex_11_A_a.gif"
"","6767","survey-likert","157","516203","0.0-41.0","SS1618435651710","similarity_question","","","","","","","","","","","","{""Q0"":1}","[0]","","images/stimuli/spore_stims/complex_12_A_a.gif","images/stimuli/spore_stims/complex_13_A_b.gif"
"","4034","survey-likert","158","520245","0.0-42.0","SS1618435651710","similarity_question","","","","","","","","","","","","{""Q0"":1}","[0]","","images/stimuli/spore_stims/complex_03_A_b.gif","images/stimuli/spore_stims/complex_06_A_a.gif"
"","3507","survey-likert","159","523763","0.0-43.0","SS1618435651710","similarity_question","","","","","","","","","","","","{""Q0"":5}","[0]","","images/stimuli/spore_stims/simple_16_A_a.gif","images/stimuli/spore_stims/simple_15_A_b.gif"
"","3256","survey-likert","160","527028","0.0-44.0","SS1618435651710","similarity_question","","","","","","","","","","","","{""Q0"":4}","[0]","","images/stimuli/spore_stims/simple_19_A_b.gif","images/stimuli/spore_stims/simple_17_A_a.gif"
"[{""page_index"":0,""viewing_time"":4660}]","4660","instructions","161","531696","0.0-45.0","SS1618435651710","instructions","","","","","","","","","","","","","","","",""
"","3977","survey-likert","162","535681","0.0-46.0","SS1618435651710","","","","","","","","","images/stimuli/spore_stims/simple_17_A_a.gif","","","","{""Q0"":1}","[0]","","",""
"","3783","survey-likert","163","539476","0.0-47.0","SS1618435651710","","","","","","","","","images/stimuli/spore_stims/simple_11_A_a.gif","","","","{""Q0"":0}","[0]","","",""
"","3789","survey-likert","164","543279","0.0-48.0","SS1618435651710","","","","","","","","","images/stimuli/spore_stims/complex_20_A_b.gif","","","","{""Q0"":5}","[0]","","",""
"","3654","survey-likert","165","546948","0.0-49.0","SS1618435651710","","","","","","","","","images/stimuli/spore_stims/complex_12_A_a.gif","","","","{""Q0"":6}","[0]","","",""
"","2700","survey-likert","166","549658","0.0-50.0","SS1618435651710","","","","","","","","","images/stimuli/spore_stims/complex_19_A_a.gif","","","","{""Q0"":6}","[0]","","",""
"","3343","survey-likert","167","553013","0.0-51.0","SS1618435651710","","","","","","","","","images/stimuli/spore_stims/simple_08_A_b.gif","","","","{""Q0"":0}","[0]","","",""
"","3245","survey-likert","168","556271","0.0-52.0","SS1618435651710","","","","","","","","","images/stimuli/spore_stims/simple_02_A_a.gif","","","","{""Q0"":0}","[0]","","",""
"","2752","survey-likert","169","559034","0.0-53.0","SS1618435651710","","","","","","","","","images/stimuli/spore_stims/simple_12_A_b.gif","","","","{""Q0"":1}","[0]","","",""
"","2398","survey-likert","170","561440","0.0-54.0","SS1618435651710","","","","","","","","","images/stimuli/spore_stims/simple_16_A_a.gif","","","","{""Q0"":1}","[0]","","",""
"","5428","survey-likert","171","566876","0.0-55.0","SS1618435651710","","","","","","","","","images/stimuli/spore_stims/complex_10_A_b.gif","","","","{""Q0"":5}","[0]","","",""
"","5769","survey-likert","172","572660","0.0-56.0","SS1618435651710","","","","","","","","","images/stimuli/spore_stims/complex_03_A_b.gif","","","","{""Q0"":5}","[0]","","",""
"","2753","survey-likert","173","575423","0.0-57.0","SS1618435651710","","","","","","","","","images/stimuli/spore_stims/complex_01_A_b.gif","","","","{""Q0"":5}","[0]","","",""
"[{""page_index"":0,""viewing_time"":3373}]","3373","instructions","174","578805","0.0-58.0","SS1618435651710","instructions","","","","","","","","","","","","","","","",""
"","2705","demog-age","175","581522","0.0-59.0","SS1618435651710","","","","","","","","","","","","","{""age"":""21""}","","","",""
"","3760","demog-ethnic-US","176","585292","0.0-60.0","SS1618435651710","","","","","","","","","","","","","{""ethnicity"":[""White""]}","[0]","","",""
"","7358","demog-gender-and-education","177","592662","0.0-61.0","SS1618435651710","","","","","","","","","","","","","{""gender"":""Female"",""education"":""Bachelor's Degree""}","[0,1]","","",""
"","7245","survey-text","178","599920","0.0-62.0","SS1618435651710","feedback","","","","","","","","","","","","{""Q0"":""no""}","","","",""
"[{""page_index"":0,""viewing_time"":2782}]","2782","instructions","179","602713","0.0-63.0","SS1618435651710","instructions","","","","","","","","","","","","","","","",""
