"view_history","rt","trial_type","trial_index","time_elapsed","internal_node_id","subject","stimulus_type","trial_stimulus","key_press","minimum_viewing_duration","trial_looking_time","block_deviant","block_background","exposure_type","stimulus","block_number","block_type","stimulus_displayed","responses","question_order","math_correct_answer","stimulus_left","stimulus_right"
"[{""page_index"":0,""viewing_time"":11816.069999999854}]","11817.059999999856","instructions","0","11819","0.0-0.0","SS1618435699599","","","","","","","","","","","","","","","","",""
"[{""page_index"":0,""viewing_time"":40002.54499999983},{""page_index"":1,""viewing_time"":7601.085000000239}]","47604.02999999996","instructions","1","61426","0.0-1.0","SS1618435699599","instructions","","","","","","","","","","","","","","","",""
"","10795.634999999951","sequential-stimulus-presentation-old","2","72727","0.0-2.0","SS1618435699599","","","40","500","11295.634999999951","null","null","self_paced","","","","","","","","",""
"","5889.9750000000495","sequential-stimulus-presentation-old","3","79119","0.0-3.0","SS1618435699599","","","40","500","6389.9750000000495","null","null","self_paced","","","","","","","","",""
"[{""page_index"":0,""viewing_time"":25952.144999999757}]","25952.459999999977","instructions","4","105073","0.0-4.0","SS1618435699599","instructions","","","","","","","","","","","","","","","",""
"","1787.045000000042","sequential-stimulus-presentation-old","5","111863","0.0-5.0","SS1618435699599","","","40","500","2287.045000000042","null","null","forced_long","","","","","","","","",""
"","4512.4249999998865","sequential-stimulus-presentation-old","6","116429","0.0-6.0","SS1618435699599","","","40","50","4562.4249999998865","null","null","forced_long","","","","","","","","",""
"[{""page_index"":0,""viewing_time"":4536.540000000052}]","4536.915000000139","instructions","7","120967","0.0-7.0","SS1618435699599","instructions","","","","","","","","","","","","","","","",""
"[{""page_index"":0,""viewing_time"":14083.735000000146},{""page_index"":1,""viewing_time"":10448.75000000003},{""page_index"":2,""viewing_time"":6623.814999999915},{""page_index"":3,""viewing_time"":2271.409999999829},{""page_index"":4,""viewing_time"":1832.6150000002817}]","35260.64499999983","instructions","8","156229","0.0-8.0","SS1618435699599","instructions","","","","","","","","","","","","","","","",""
"","null","html-keyboard-response","9","157169","0.0-9.0-0.0","SS1618435699599","","","null","","","","","","<p><img src= images/blank.png width =""600"" height = ""600"" style=""position:fixed;top:50%; left:50%; transform: translate(-50%, -50%); border:5px solid black"">","","","","","","","",""
"","6628.5250000000815","sequential-stimulus-presentation-old","10","163852","0.0-9.0-1.0","SS1618435699599","trial","","40","500","7128.5250000000815","images/stimuli/spore_stims/complex_03_A_a.gif","images/stimuli/spore_stims/complex_13_A_b.gif","forced_short","","0","complex_dissimilar","images/stimuli/spore_stims/complex_13_A_b.gif","","","","",""
"","null","html-keyboard-response","11","165155","0.0-9.0-0.1","SS1618435699599","","","null","","","","","","<p><img src= images/blank.png width =""600"" height = ""600"" style=""position:fixed;top:50%; left:50%; transform: translate(-50%, -50%); border:5px solid black"">","","","","","","","",""
"","7121.834999999934","sequential-stimulus-presentation-old","12","172780","0.0-9.0-1.1","SS1618435699599","trial","","40","500","7621.834999999934","images/stimuli/spore_stims/complex_03_A_a.gif","images/stimuli/spore_stims/complex_13_A_b.gif","forced_short","","0","complex_dissimilar","images/stimuli/spore_stims/complex_13_A_b.gif","","","","",""
"","null","html-keyboard-response","13","173773","0.0-9.0-0.2","SS1618435699599","","","null","","","","","","<p><img src= images/blank.png width =""600"" height = ""600"" style=""position:fixed;top:50%; left:50%; transform: translate(-50%, -50%); border:5px solid black"">","","","","","","","",""
"","2903.409999999887","sequential-stimulus-presentation-old","14","177179","0.0-9.0-1.2","SS1618435699599","trial","","40","500","3403.409999999887","images/stimuli/spore_stims/complex_03_A_a.gif","images/stimuli/spore_stims/complex_13_A_b.gif","forced_short","","0","complex_dissimilar","images/stimuli/spore_stims/complex_13_A_b.gif","","","","",""
"","null","html-keyboard-response","15","178359","0.0-9.0-0.3","SS1618435699599","","","null","","","","","","<p><img src= images/blank.png width =""600"" height = ""600"" style=""position:fixed;top:50%; left:50%; transform: translate(-50%, -50%); border:5px solid black"">","","","","","","","",""
"","5023.235000000102","sequential-stimulus-presentation-old","16","183885","0.0-9.0-1.3","SS1618435699599","trial","","40","500","5523.235000000102","images/stimuli/spore_stims/complex_03_A_a.gif","images/stimuli/spore_stims/complex_13_A_b.gif","forced_short","","0","complex_dissimilar","images/stimuli/spore_stims/complex_03_A_a.gif","","","","",""
"","4861.034999999887","survey-multi-choice","17","188750","0.0-10.0","SS1618435699599","math_question","","","","","","","","","","","","{""Q0"":""7""}","[0]","7","",""
"","null","html-keyboard-response","18","189699","0.0-11.0-0.0","SS1618435699599","","","null","","","","","","<p><img src= images/blank.png width =""600"" height = ""600"" style=""position:fixed;top:50%; left:50%; transform: translate(-50%, -50%); border:5px solid black"">","","","","","","","",""
"","1887.4599999999336","sequential-stimulus-presentation-old","19","191647","0.0-11.0-1.0","SS1618435699599","trial","","40","500","2387.4599999999336","images/stimuli/spore_stims/complex_06_A_b.gif","images/stimuli/spore_stims/complex_07_A_a.gif","forced_short","","1","complex_dissimilar","images/stimuli/spore_stims/complex_07_A_a.gif","","","","",""
"","null","html-keyboard-response","20","192831","0.0-11.0-0.1","SS1618435699599","","","null","","","","","","<p><img src= images/blank.png width =""600"" height = ""600"" style=""position:fixed;top:50%; left:50%; transform: translate(-50%, -50%); border:5px solid black"">","","","","","","","",""
"","5916.774999999703","sequential-stimulus-presentation-old","21","199252","0.0-11.0-1.1","SS1618435699599","trial","","40","500","6416.774999999703","images/stimuli/spore_stims/complex_06_A_b.gif","images/stimuli/spore_stims/complex_07_A_a.gif","forced_short","","1","complex_dissimilar","images/stimuli/spore_stims/complex_06_A_b.gif","","","","",""
"","null","html-keyboard-response","22","200118","0.0-11.0-0.2","SS1618435699599","","","null","","","","","","<p><img src= images/blank.png width =""600"" height = ""600"" style=""position:fixed;top:50%; left:50%; transform: translate(-50%, -50%); border:5px solid black"">","","","","","","","",""
"","4632.730000000272","sequential-stimulus-presentation-old","23","205254","0.0-11.0-1.2","SS1618435699599","trial","","40","500","5132.730000000272","images/stimuli/spore_stims/complex_06_A_b.gif","images/stimuli/spore_stims/complex_07_A_a.gif","forced_short","","1","complex_dissimilar","images/stimuli/spore_stims/complex_07_A_a.gif","","","","",""
"","null","html-keyboard-response","24","206207","0.0-11.0-0.3","SS1618435699599","","","null","","","","","","<p><img src= images/blank.png width =""600"" height = ""600"" style=""position:fixed;top:50%; left:50%; transform: translate(-50%, -50%); border:5px solid black"">","","","","","","","",""
"","3547.545000000362","sequential-stimulus-presentation-old","25","210259","0.0-11.0-1.3","SS1618435699599","trial","","40","500","4047.545000000362","images/stimuli/spore_stims/complex_06_A_b.gif","images/stimuli/spore_stims/complex_07_A_a.gif","forced_short","","1","complex_dissimilar","images/stimuli/spore_stims/complex_07_A_a.gif","","","","",""
"","null","html-keyboard-response","26","211538","0.0-11.0-0.4","SS1618435699599","","","null","","","","","","<p><img src= images/blank.png width =""600"" height = ""600"" style=""position:fixed;top:50%; left:50%; transform: translate(-50%, -50%); border:5px solid black"">","","","","","","","",""
"","2376.7600000000966","sequential-stimulus-presentation-old","27","214418","0.0-11.0-1.4","SS1618435699599","trial","","40","500","2876.7600000000966","images/stimuli/spore_stims/complex_06_A_b.gif","images/stimuli/spore_stims/complex_07_A_a.gif","forced_short","","1","complex_dissimilar","images/stimuli/spore_stims/complex_06_A_b.gif","","","","",""
"","null","html-keyboard-response","28","215681","0.0-11.0-0.5","SS1618435699599","","","null","","","","","","<p><img src= images/blank.png width =""600"" height = ""600"" style=""position:fixed;top:50%; left:50%; transform: translate(-50%, -50%); border:5px solid black"">","","","","","","","",""
"","1961.284999999858","sequential-stimulus-presentation-old","29","218146","0.0-11.0-1.5","SS1618435699599","trial","","40","500","2461.284999999858","images/stimuli/spore_stims/complex_06_A_b.gif","images/stimuli/spore_stims/complex_07_A_a.gif","forced_short","","1","complex_dissimilar","images/stimuli/spore_stims/complex_07_A_a.gif","","","","",""
"","7800.780000000028","survey-multi-choice","30","225951","0.0-12.0","SS1618435699599","math_question","","","","","","","","","","","","{""Q0"":""13""}","[0]","13","",""
"","null","html-keyboard-response","31","227236","0.0-13.0-0.0","SS1618435699599","","","null","","","","","","<p><img src= images/blank.png width =""600"" height = ""600"" style=""position:fixed;top:50%; left:50%; transform: translate(-50%, -50%); border:5px solid black"">","","","","","","","",""
"","3000.2800000002026","sequential-stimulus-presentation-old","32","230740","0.0-13.0-1.0","SS1618435699599","trial","","40","500","3500.2800000002026","images/stimuli/spore_stims/simple_13_A_b.gif","images/stimuli/spore_stims/simple_09_A_a.gif","self_paced","","2","simple_dissimilar","images/stimuli/spore_stims/simple_09_A_a.gif","","","","",""
"","null","html-keyboard-response","33","231795","0.0-13.0-0.1","SS1618435699599","","","null","","","","","","<p><img src= images/blank.png width =""600"" height = ""600"" style=""position:fixed;top:50%; left:50%; transform: translate(-50%, -50%); border:5px solid black"">","","","","","","","",""
"","2261.939999999857","sequential-stimulus-presentation-old","34","234560","0.0-13.0-1.1","SS1618435699599","trial","","40","500","2761.939999999857","images/stimuli/spore_stims/simple_13_A_b.gif","images/stimuli/spore_stims/simple_09_A_a.gif","self_paced","","2","simple_dissimilar","images/stimuli/spore_stims/simple_09_A_a.gif","","","","",""
"","null","html-keyboard-response","35","235814","0.0-13.0-0.2","SS1618435699599","","","null","","","","","","<p><img src= images/blank.png width =""600"" height = ""600"" style=""position:fixed;top:50%; left:50%; transform: translate(-50%, -50%); border:5px solid black"">","","","","","","","",""
"","2914.1449999997276","sequential-stimulus-presentation-old","36","239231","0.0-13.0-1.2","SS1618435699599","trial","","40","500","3414.1449999997276","images/stimuli/spore_stims/simple_13_A_b.gif","images/stimuli/spore_stims/simple_09_A_a.gif","self_paced","","2","simple_dissimilar","images/stimuli/spore_stims/simple_09_A_a.gif","","","","",""
"","null","html-keyboard-response","37","240165","0.0-13.0-0.3","SS1618435699599","","","null","","","","","","<p><img src= images/blank.png width =""600"" height = ""600"" style=""position:fixed;top:50%; left:50%; transform: translate(-50%, -50%); border:5px solid black"">","","","","","","","",""
"","3603.099999999831","sequential-stimulus-presentation-old","38","244272","0.0-13.0-1.3","SS1618435699599","trial","","40","500","4103.099999999831","images/stimuli/spore_stims/simple_13_A_b.gif","images/stimuli/spore_stims/simple_09_A_a.gif","self_paced","","2","simple_dissimilar","images/stimuli/spore_stims/simple_13_A_b.gif","","","","",""
"","6247.640000000043","survey-multi-choice","39","250523","0.0-14.0","SS1618435699599","math_question","","","","","","","","","","","","{""Q0"":""7""}","[0]","7","",""
"","null","html-keyboard-response","40","251384","0.0-15.0-0.0","SS1618435699599","","","null","","","","","","<p><img src= images/blank.png width =""600"" height = ""600"" style=""position:fixed;top:50%; left:50%; transform: translate(-50%, -50%); border:5px solid black"">","","","","","","","",""
"","1668.274999999965","sequential-stimulus-presentation-old","41","253106","0.0-15.0-1.0","SS1618435699599","trial","","40","500","2168.274999999965","images/stimuli/spore_stims/simple_02_A_b.gif","images/stimuli/spore_stims/simple_11_A_a.gif","forced_short","","3","simple_dissimilar","images/stimuli/spore_stims/simple_11_A_a.gif","","","","",""
"","null","html-keyboard-response","42","254191","0.0-15.0-0.1","SS1618435699599","","","null","","","","","","<p><img src= images/blank.png width =""600"" height = ""600"" style=""position:fixed;top:50%; left:50%; transform: translate(-50%, -50%); border:5px solid black"">","","","","","","","",""
"","2891.5400000000955","sequential-stimulus-presentation-old","43","257586","0.0-15.0-1.1","SS1618435699599","trial","","40","500","3391.5400000000955","images/stimuli/spore_stims/simple_02_A_b.gif","images/stimuli/spore_stims/simple_11_A_a.gif","forced_short","","3","simple_dissimilar","images/stimuli/spore_stims/simple_02_A_b.gif","","","","",""
"","null","html-keyboard-response","44","258625","0.0-15.0-0.2","SS1618435699599","","","null","","","","","","<p><img src= images/blank.png width =""600"" height = ""600"" style=""position:fixed;top:50%; left:50%; transform: translate(-50%, -50%); border:5px solid black"">","","","","","","","",""
"","2286.3600000001024","sequential-stimulus-presentation-old","45","261415","0.0-15.0-1.2","SS1618435699599","trial","","40","500","2786.3600000001024","images/stimuli/spore_stims/simple_02_A_b.gif","images/stimuli/spore_stims/simple_11_A_a.gif","forced_short","","3","simple_dissimilar","images/stimuli/spore_stims/simple_11_A_a.gif","","","","",""
"","null","html-keyboard-response","46","262339","0.0-15.0-0.3","SS1618435699599","","","null","","","","","","<p><img src= images/blank.png width =""600"" height = ""600"" style=""position:fixed;top:50%; left:50%; transform: translate(-50%, -50%); border:5px solid black"">","","","","","","","",""
"","3423.9049999996205","sequential-stimulus-presentation-old","47","266266","0.0-15.0-1.3","SS1618435699599","trial","","40","500","3923.9049999996205","images/stimuli/spore_stims/simple_02_A_b.gif","images/stimuli/spore_stims/simple_11_A_a.gif","forced_short","","3","simple_dissimilar","images/stimuli/spore_stims/simple_02_A_b.gif","","","","",""
"","5739.295000000275","survey-multi-choice","48","272009","0.0-16.0","SS1618435699599","math_question","","","","","","","","","","","","{""Q0"":""10""}","[0]","10","",""
"","null","html-keyboard-response","49","273188","0.0-17.0-0.0","SS1618435699599","","","null","","","","","","<p><img src= images/blank.png width =""600"" height = ""600"" style=""position:fixed;top:50%; left:50%; transform: translate(-50%, -50%); border:5px solid black"">","","","","","","","",""
"","1658.7199999999139","sequential-stimulus-presentation-old","50","274901","0.0-17.0-1.0","SS1618435699599","trial","","40","500","2158.719999999914","images/stimuli/spore_stims/simple_09_A_b.gif","images/stimuli/spore_stims/simple_07_A_a.gif","forced_short","","4","simple_dissimilar","images/stimuli/spore_stims/simple_07_A_a.gif","","","","",""
"","null","html-keyboard-response","51","276178","0.0-17.0-0.1","SS1618435699599","","","null","","","","","","<p><img src= images/blank.png width =""600"" height = ""600"" style=""position:fixed;top:50%; left:50%; transform: translate(-50%, -50%); border:5px solid black"">","","","","","","","",""
"","4019.1350000000093","sequential-stimulus-presentation-old","52","280701","0.0-17.0-1.1","SS1618435699599","trial","","40","500","4519.135000000009","images/stimuli/spore_stims/simple_09_A_b.gif","images/stimuli/spore_stims/simple_07_A_a.gif","forced_short","","4","simple_dissimilar","images/stimuli/spore_stims/simple_07_A_a.gif","","","","",""
"","null","html-keyboard-response","53","281629","0.0-17.0-0.2","SS1618435699599","","","null","","","","","","<p><img src= images/blank.png width =""600"" height = ""600"" style=""position:fixed;top:50%; left:50%; transform: translate(-50%, -50%); border:5px solid black"">","","","","","","","",""
"","3003.7300000003306","sequential-stimulus-presentation-old","54","285137","0.0-17.0-1.2","SS1618435699599","trial","","40","500","3503.7300000003306","images/stimuli/spore_stims/simple_09_A_b.gif","images/stimuli/spore_stims/simple_07_A_a.gif","forced_short","","4","simple_dissimilar","images/stimuli/spore_stims/simple_07_A_a.gif","","","","",""
"","null","html-keyboard-response","55","286313","0.0-17.0-0.3","SS1618435699599","","","null","","","","","","<p><img src= images/blank.png width =""600"" height = ""600"" style=""position:fixed;top:50%; left:50%; transform: translate(-50%, -50%); border:5px solid black"">","","","","","","","",""
"","1873.6650000000955","sequential-stimulus-presentation-old","56","288690","0.0-17.0-1.3","SS1618435699599","trial","","40","500","2373.6650000000955","images/stimuli/spore_stims/simple_09_A_b.gif","images/stimuli/spore_stims/simple_07_A_a.gif","forced_short","","4","simple_dissimilar","images/stimuli/spore_stims/simple_07_A_a.gif","","","","",""
"","null","html-keyboard-response","57","289623","0.0-17.0-0.4","SS1618435699599","","","null","","","","","","<p><img src= images/blank.png width =""600"" height = ""600"" style=""position:fixed;top:50%; left:50%; transform: translate(-50%, -50%); border:5px solid black"">","","","","","","","",""
"","2099.0849999998463","sequential-stimulus-presentation-old","58","292225","0.0-17.0-1.4","SS1618435699599","trial","","40","500","2599.0849999998463","images/stimuli/spore_stims/simple_09_A_b.gif","images/stimuli/spore_stims/simple_07_A_a.gif","forced_short","","4","simple_dissimilar","images/stimuli/spore_stims/simple_09_A_b.gif","","","","",""
"","null","html-keyboard-response","59","293092","0.0-17.0-0.5","SS1618435699599","","","null","","","","","","<p><img src= images/blank.png width =""600"" height = ""600"" style=""position:fixed;top:50%; left:50%; transform: translate(-50%, -50%); border:5px solid black"">","","","","","","","",""
"","2649.0799999997253","sequential-stimulus-presentation-old","60","296246","0.0-17.0-1.5","SS1618435699599","trial","","40","500","3149.0799999997253","images/stimuli/spore_stims/simple_09_A_b.gif","images/stimuli/spore_stims/simple_07_A_a.gif","forced_short","","4","simple_dissimilar","images/stimuli/spore_stims/simple_07_A_a.gif","","","","",""
"","5794.655000000144","survey-multi-choice","61","302044","0.0-18.0","SS1618435699599","math_question","","","","","","","","","","","","{""Q0"":""12""}","[0]","12","",""
"","null","html-keyboard-response","62","302902","0.0-19.0-0.0","SS1618435699599","","","null","","","","","","<p><img src= images/blank.png width =""600"" height = ""600"" style=""position:fixed;top:50%; left:50%; transform: translate(-50%, -50%); border:5px solid black"">","","","","","","","",""
"","1042.9949999998207","sequential-stimulus-presentation-old","63","308951","0.0-19.0-1.0","SS1618435699599","trial","","40","500","1542.9949999998207","images/stimuli/spore_stims/complex_15_A_b.gif","images/stimuli/spore_stims/complex_12_A_a.gif","forced_long","","5","complex_dissimilar","images/stimuli/spore_stims/complex_12_A_a.gif","","","","",""
"","null","html-keyboard-response","64","309840","0.0-19.0-0.1","SS1618435699599","","","null","","","","","","<p><img src= images/blank.png width =""600"" height = ""600"" style=""position:fixed;top:50%; left:50%; transform: translate(-50%, -50%); border:5px solid black"">","","","","","","","",""
"","7508.600000000151","sequential-stimulus-presentation-old","65","317853","0.0-19.0-1.1","SS1618435699599","trial","","40","500","8008.600000000151","images/stimuli/spore_stims/complex_15_A_b.gif","images/stimuli/spore_stims/complex_12_A_a.gif","forced_long","","5","complex_dissimilar","images/stimuli/spore_stims/complex_12_A_a.gif","","","","",""
"","null","html-keyboard-response","66","319079","0.0-19.0-0.2","SS1618435699599","","","null","","","","","","<p><img src= images/blank.png width =""600"" height = ""600"" style=""position:fixed;top:50%; left:50%; transform: translate(-50%, -50%); border:5px solid black"">","","","","","","","",""
"","3371.979999999923","sequential-stimulus-presentation-old","67","322954","0.0-19.0-1.2","SS1618435699599","trial","","40","500","3871.979999999923","images/stimuli/spore_stims/complex_15_A_b.gif","images/stimuli/spore_stims/complex_12_A_a.gif","forced_long","","5","complex_dissimilar","images/stimuli/spore_stims/complex_12_A_a.gif","","","","",""
"","null","html-keyboard-response","68","323930","0.0-19.0-0.3","SS1618435699599","","","null","","","","","","<p><img src= images/blank.png width =""600"" height = ""600"" style=""position:fixed;top:50%; left:50%; transform: translate(-50%, -50%); border:5px solid black"">","","","","","","","",""
"","4515.335000000079","sequential-stimulus-presentation-old","69","328966","0.0-19.0-1.3","SS1618435699599","trial","","40","500","5015.335000000079","images/stimuli/spore_stims/complex_15_A_b.gif","images/stimuli/spore_stims/complex_12_A_a.gif","forced_long","","5","complex_dissimilar","images/stimuli/spore_stims/complex_12_A_a.gif","","","","",""
"","null","html-keyboard-response","70","329858","0.0-19.0-0.4","SS1618435699599","","","null","","","","","","<p><img src= images/blank.png width =""600"" height = ""600"" style=""position:fixed;top:50%; left:50%; transform: translate(-50%, -50%); border:5px solid black"">","","","","","","","",""
"","3671.919999999809","sequential-stimulus-presentation-old","71","334034","0.0-19.0-1.4","SS1618435699599","trial","","40","500","4171.919999999809","images/stimuli/spore_stims/complex_15_A_b.gif","images/stimuli/spore_stims/complex_12_A_a.gif","forced_long","","5","complex_dissimilar","images/stimuli/spore_stims/complex_12_A_a.gif","","","","",""
"","null","html-keyboard-response","72","335289","0.0-19.0-0.5","SS1618435699599","","","null","","","","","","<p><img src= images/blank.png width =""600"" height = ""600"" style=""position:fixed;top:50%; left:50%; transform: translate(-50%, -50%); border:5px solid black"">","","","","","","","",""
"","4753.065000000352","sequential-stimulus-presentation-old","73","340546","0.0-19.0-1.5","SS1618435699599","trial","","40","500","5253.065000000352","images/stimuli/spore_stims/complex_15_A_b.gif","images/stimuli/spore_stims/complex_12_A_a.gif","forced_long","","5","complex_dissimilar","images/stimuli/spore_stims/complex_15_A_b.gif","","","","",""
"","6510.729999999981","survey-multi-choice","74","347060","0.0-20.0","SS1618435699599","math_question","","","","","","","","","","","","{""Q0"":""6""}","[0]","6","",""
"","null","html-keyboard-response","75","348285","0.0-21.0-0.0","SS1618435699599","","","null","","","","","","<p><img src= images/blank.png width =""600"" height = ""600"" style=""position:fixed;top:50%; left:50%; transform: translate(-50%, -50%); border:5px solid black"">","","","","","","","",""
"","9502.599999999802","sequential-stimulus-presentation-old","76","362793","0.0-21.0-1.0","SS1618435699599","trial","","40","500","10002.599999999802","images/stimuli/spore_stims/complex_14_A_a.gif","images/stimuli/spore_stims/complex_12_A_b.gif","forced_long","","6","complex_dissimilar","images/stimuli/spore_stims/complex_12_A_b.gif","","","","",""
"","null","html-keyboard-response","77","363620","0.0-21.0-0.1","SS1618435699599","","","null","","","","","","<p><img src= images/blank.png width =""600"" height = ""600"" style=""position:fixed;top:50%; left:50%; transform: translate(-50%, -50%); border:5px solid black"">","","","","","","","",""
"","4429.549999999814","sequential-stimulus-presentation-old","78","368554","0.0-21.0-1.1","SS1618435699599","trial","","40","500","4929.549999999814","images/stimuli/spore_stims/complex_14_A_a.gif","images/stimuli/spore_stims/complex_12_A_b.gif","forced_long","","6","complex_dissimilar","images/stimuli/spore_stims/complex_12_A_b.gif","","","","",""
"","null","html-keyboard-response","79","369663","0.0-21.0-0.2","SS1618435699599","","","null","","","","","","<p><img src= images/blank.png width =""600"" height = ""600"" style=""position:fixed;top:50%; left:50%; transform: translate(-50%, -50%); border:5px solid black"">","","","","","","","",""
"","3894.5849999999627","sequential-stimulus-presentation-old","80","374062","0.0-21.0-1.2","SS1618435699599","trial","","40","500","4394.584999999963","images/stimuli/spore_stims/complex_14_A_a.gif","images/stimuli/spore_stims/complex_12_A_b.gif","forced_long","","6","complex_dissimilar","images/stimuli/spore_stims/complex_12_A_b.gif","","","","",""
"","null","html-keyboard-response","81","375007","0.0-21.0-0.3","SS1618435699599","","","null","","","","","","<p><img src= images/blank.png width =""600"" height = ""600"" style=""position:fixed;top:50%; left:50%; transform: translate(-50%, -50%); border:5px solid black"">","","","","","","","",""
"","2736.8300000003073","sequential-stimulus-presentation-old","82","378248","0.0-21.0-1.3","SS1618435699599","trial","","40","500","3236.8300000003073","images/stimuli/spore_stims/complex_14_A_a.gif","images/stimuli/spore_stims/complex_12_A_b.gif","forced_long","","6","complex_dissimilar","images/stimuli/spore_stims/complex_12_A_b.gif","","","","",""
"","null","html-keyboard-response","83","379514","0.0-21.0-0.4","SS1618435699599","","","null","","","","","","<p><img src= images/blank.png width =""600"" height = ""600"" style=""position:fixed;top:50%; left:50%; transform: translate(-50%, -50%); border:5px solid black"">","","","","","","","",""
"","1708.795000000042","sequential-stimulus-presentation-old","84","381727","0.0-21.0-1.4","SS1618435699599","trial","","40","500","2208.795000000042","images/stimuli/spore_stims/complex_14_A_a.gif","images/stimuli/spore_stims/complex_12_A_b.gif","forced_long","","6","complex_dissimilar","images/stimuli/spore_stims/complex_12_A_b.gif","","","","",""
"","null","html-keyboard-response","85","382811","0.0-21.0-0.5","SS1618435699599","","","null","","","","","","<p><img src= images/blank.png width =""600"" height = ""600"" style=""position:fixed;top:50%; left:50%; transform: translate(-50%, -50%); border:5px solid black"">","","","","","","","",""
"","2165.719999999972","sequential-stimulus-presentation-old","86","385482","0.0-21.0-1.5","SS1618435699599","trial","","40","500","2665.719999999972","images/stimuli/spore_stims/complex_14_A_a.gif","images/stimuli/spore_stims/complex_12_A_b.gif","forced_long","","6","complex_dissimilar","images/stimuli/spore_stims/complex_12_A_b.gif","","","","",""
"","5443.119999999879","survey-multi-choice","87","390928","0.0-22.0","SS1618435699599","math_question","","","","","","","","","","","","{""Q0"":""9""}","[0]","9","",""
"","null","html-keyboard-response","88","392050","0.0-23.0-0.0","SS1618435699599","","","null","","","","","","<p><img src= images/blank.png width =""600"" height = ""600"" style=""position:fixed;top:50%; left:50%; transform: translate(-50%, -50%); border:5px solid black"">","","","","","","","",""
"","2876.604999999923","sequential-stimulus-presentation-old","89","395431","0.0-23.0-1.0","SS1618435699599","trial","","40","500","3376.604999999923","images/stimuli/spore_stims/complex_19_A_a.gif","images/stimuli/spore_stims/complex_03_A_b.gif","self_paced","","7","complex_dissimilar","images/stimuli/spore_stims/complex_03_A_b.gif","","","","",""
"","null","html-keyboard-response","90","396357","0.0-23.0-0.1","SS1618435699599","","","null","","","","","","<p><img src= images/blank.png width =""600"" height = ""600"" style=""position:fixed;top:50%; left:50%; transform: translate(-50%, -50%); border:5px solid black"">","","","","","","","",""
"","2895.074999999895","sequential-stimulus-presentation-old","91","399757","0.0-23.0-1.1","SS1618435699599","trial","","40","500","3395.074999999895","images/stimuli/spore_stims/complex_19_A_a.gif","images/stimuli/spore_stims/complex_03_A_b.gif","self_paced","","7","complex_dissimilar","images/stimuli/spore_stims/complex_03_A_b.gif","","","","",""
"","null","html-keyboard-response","92","400847","0.0-23.0-0.2","SS1618435699599","","","null","","","","","","<p><img src= images/blank.png width =""600"" height = ""600"" style=""position:fixed;top:50%; left:50%; transform: translate(-50%, -50%); border:5px solid black"">","","","","","","","",""
"","1099.8199999998906","sequential-stimulus-presentation-old","93","402452","0.0-23.0-1.2","SS1618435699599","trial","","40","500","1599.8199999998906","images/stimuli/spore_stims/complex_19_A_a.gif","images/stimuli/spore_stims/complex_03_A_b.gif","self_paced","","7","complex_dissimilar","images/stimuli/spore_stims/complex_03_A_b.gif","","","","",""
"","null","html-keyboard-response","94","403328","0.0-23.0-0.3","SS1618435699599","","","null","","","","","","<p><img src= images/blank.png width =""600"" height = ""600"" style=""position:fixed;top:50%; left:50%; transform: translate(-50%, -50%); border:5px solid black"">","","","","","","","",""
"","1979.7199999997974","sequential-stimulus-presentation-old","95","405812","0.0-23.0-1.3","SS1618435699599","trial","","40","500","2479.7199999997974","images/stimuli/spore_stims/complex_19_A_a.gif","images/stimuli/spore_stims/complex_03_A_b.gif","self_paced","","7","complex_dissimilar","images/stimuli/spore_stims/complex_03_A_b.gif","","","","",""
"","3490.7550000002375","survey-multi-choice","96","409306","0.0-24.0","SS1618435699599","math_question","","","","","","","","","","","","{""Q0"":""7""}","[0]","7","",""
"","null","html-keyboard-response","97","410287","0.0-25.0-0.0","SS1618435699599","","","null","","","","","","<p><img src= images/blank.png width =""600"" height = ""600"" style=""position:fixed;top:50%; left:50%; transform: translate(-50%, -50%); border:5px solid black"">","","","","","","","",""
"","3725.0249999997322","sequential-stimulus-presentation-old","98","414517","0.0-25.0-1.0","SS1618435699599","trial","","40","500","4225.024999999732","images/stimuli/spore_stims/complex_16_A_b.gif","images/stimuli/spore_stims/complex_20_A_a.gif","self_paced","","8","complex_dissimilar","images/stimuli/spore_stims/complex_20_A_a.gif","","","","",""
"","null","html-keyboard-response","99","415332","0.0-25.0-0.1","SS1618435699599","","","null","","","","","","<p><img src= images/blank.png width =""600"" height = ""600"" style=""position:fixed;top:50%; left:50%; transform: translate(-50%, -50%); border:5px solid black"">","","","","","","","",""
"","4057.6699999996927","sequential-stimulus-presentation-old","100","419894","0.0-25.0-1.1","SS1618435699599","trial","","40","500","4557.669999999693","images/stimuli/spore_stims/complex_16_A_b.gif","images/stimuli/spore_stims/complex_20_A_a.gif","self_paced","","8","complex_dissimilar","images/stimuli/spore_stims/complex_16_A_b.gif","","","","",""
"","null","html-keyboard-response","101","420820","0.0-25.0-0.2","SS1618435699599","","","null","","","","","","<p><img src= images/blank.png width =""600"" height = ""600"" style=""position:fixed;top:50%; left:50%; transform: translate(-50%, -50%); border:5px solid black"">","","","","","","","",""
"","2952.5949999997392","sequential-stimulus-presentation-old","102","424277","0.0-25.0-1.2","SS1618435699599","trial","","40","500","3452.5949999997392","images/stimuli/spore_stims/complex_16_A_b.gif","images/stimuli/spore_stims/complex_20_A_a.gif","self_paced","","8","complex_dissimilar","images/stimuli/spore_stims/complex_20_A_a.gif","","","","",""
"","null","html-keyboard-response","103","425463","0.0-25.0-0.3","SS1618435699599","","","null","","","","","","<p><img src= images/blank.png width =""600"" height = ""600"" style=""position:fixed;top:50%; left:50%; transform: translate(-50%, -50%); border:5px solid black"">","","","","","","","",""
"","954.1749999998137","sequential-stimulus-presentation-old","104","426925","0.0-25.0-1.3","SS1618435699599","trial","","40","500","1454.1749999998137","images/stimuli/spore_stims/complex_16_A_b.gif","images/stimuli/spore_stims/complex_20_A_a.gif","self_paced","","8","complex_dissimilar","images/stimuli/spore_stims/complex_20_A_a.gif","","","","",""
"","null","html-keyboard-response","105","428044","0.0-25.0-0.4","SS1618435699599","","","null","","","","","","<p><img src= images/blank.png width =""600"" height = ""600"" style=""position:fixed;top:50%; left:50%; transform: translate(-50%, -50%); border:5px solid black"">","","","","","","","",""
"","2733.4100000002654","sequential-stimulus-presentation-old","106","431282","0.0-25.0-1.4","SS1618435699599","trial","","40","500","3233.4100000002654","images/stimuli/spore_stims/complex_16_A_b.gif","images/stimuli/spore_stims/complex_20_A_a.gif","self_paced","","8","complex_dissimilar","images/stimuli/spore_stims/complex_16_A_b.gif","","","","",""
"","3898.215000000142","survey-multi-choice","107","435185","0.0-26.0","SS1618435699599","math_question","","","","","","","","","","","","{""Q0"":""4""}","[0]","4","",""
"","null","html-keyboard-response","108","436105","0.0-27.0-0.0","SS1618435699599","","","null","","","","","","<p><img src= images/blank.png width =""600"" height = ""600"" style=""position:fixed;top:50%; left:50%; transform: translate(-50%, -50%); border:5px solid black"">","","","","","","","",""
"","1461.060000000114","sequential-stimulus-presentation-old","109","438072","0.0-27.0-1.0","SS1618435699599","trial","","40","500","1961.060000000114","images/stimuli/spore_stims/simple_19_A_a.gif","images/stimuli/spore_stims/simple_14_A_b.gif","self_paced","","9","simple_dissimilar","images/stimuli/spore_stims/simple_14_A_b.gif","","","","",""
"","null","html-keyboard-response","110","439229","0.0-27.0-0.1","SS1618435699599","","","null","","","","","","<p><img src= images/blank.png width =""600"" height = ""600"" style=""position:fixed;top:50%; left:50%; transform: translate(-50%, -50%); border:5px solid black"">","","","","","","","",""
"","3265.614999999816","sequential-stimulus-presentation-old","111","443000","0.0-27.0-1.1","SS1618435699599","trial","","40","500","3765.614999999816","images/stimuli/spore_stims/simple_19_A_a.gif","images/stimuli/spore_stims/simple_14_A_b.gif","self_paced","","9","simple_dissimilar","images/stimuli/spore_stims/simple_19_A_a.gif","","","","",""
"","null","html-keyboard-response","112","443853","0.0-27.0-0.2","SS1618435699599","","","null","","","","","","<p><img src= images/blank.png width =""600"" height = ""600"" style=""position:fixed;top:50%; left:50%; transform: translate(-50%, -50%); border:5px solid black"">","","","","","","","",""
"","2428.1149999996996","sequential-stimulus-presentation-old","113","446788","0.0-27.0-1.2","SS1618435699599","trial","","40","500","2928.1149999996996","images/stimuli/spore_stims/simple_19_A_a.gif","images/stimuli/spore_stims/simple_14_A_b.gif","self_paced","","9","simple_dissimilar","images/stimuli/spore_stims/simple_14_A_b.gif","","","","",""
"","null","html-keyboard-response","114","447989","0.0-27.0-0.3","SS1618435699599","","","null","","","","","","<p><img src= images/blank.png width =""600"" height = ""600"" style=""position:fixed;top:50%; left:50%; transform: translate(-50%, -50%); border:5px solid black"">","","","","","","","",""
"","2444.2400000002817","sequential-stimulus-presentation-old","115","450938","0.0-27.0-1.3","SS1618435699599","trial","","40","500","2944.2400000002817","images/stimuli/spore_stims/simple_19_A_a.gif","images/stimuli/spore_stims/simple_14_A_b.gif","self_paced","","9","simple_dissimilar","images/stimuli/spore_stims/simple_14_A_b.gif","","","","",""
"","null","html-keyboard-response","116","451803","0.0-27.0-0.4","SS1618435699599","","","null","","","","","","<p><img src= images/blank.png width =""600"" height = ""600"" style=""position:fixed;top:50%; left:50%; transform: translate(-50%, -50%); border:5px solid black"">","","","","","","","",""
"","3295.5599999999977","sequential-stimulus-presentation-old","117","455603","0.0-27.0-1.4","SS1618435699599","trial","","40","500","3795.5599999999977","images/stimuli/spore_stims/simple_19_A_a.gif","images/stimuli/spore_stims/simple_14_A_b.gif","self_paced","","9","simple_dissimilar","images/stimuli/spore_stims/simple_19_A_a.gif","","","","",""
"","3784.9400000000023","survey-multi-choice","118","459392","0.0-28.0","SS1618435699599","math_question","","","","","","","","","","","","{""Q0"":""14""}","[0]","14","",""
"","null","html-keyboard-response","119","460420","0.0-29.0-0.0","SS1618435699599","","","null","","","","","","<p><img src= images/blank.png width =""600"" height = ""600"" style=""position:fixed;top:50%; left:50%; transform: translate(-50%, -50%); border:5px solid black"">","","","","","","","",""
"","4043.3349999998463","sequential-stimulus-presentation-old","120","469469","0.0-29.0-1.0","SS1618435699599","trial","","40","500","4543.334999999846","images/stimuli/spore_stims/simple_04_A_b.gif","images/stimuli/spore_stims/simple_17_A_a.gif","forced_long","","10","simple_dissimilar","images/stimuli/spore_stims/simple_17_A_a.gif","","","","",""
"","null","html-keyboard-response","121","470410","0.0-29.0-0.1","SS1618435699599","","","null","","","","","","<p><img src= images/blank.png width =""600"" height = ""600"" style=""position:fixed;top:50%; left:50%; transform: translate(-50%, -50%); border:5px solid black"">","","","","","","","",""
"","3426.3149999997113","sequential-stimulus-presentation-old","122","474341","0.0-29.0-1.1","SS1618435699599","trial","","40","500","3926.3149999997113","images/stimuli/spore_stims/simple_04_A_b.gif","images/stimuli/spore_stims/simple_17_A_a.gif","forced_long","","10","simple_dissimilar","images/stimuli/spore_stims/simple_04_A_b.gif","","","","",""
"","null","html-keyboard-response","123","475393","0.0-29.0-0.2","SS1618435699599","","","null","","","","","","<p><img src= images/blank.png width =""600"" height = ""600"" style=""position:fixed;top:50%; left:50%; transform: translate(-50%, -50%); border:5px solid black"">","","","","","","","",""
"","1656.5900000000256","sequential-stimulus-presentation-old","124","477555","0.0-29.0-1.2","SS1618435699599","trial","","40","500","2156.5900000000256","images/stimuli/spore_stims/simple_04_A_b.gif","images/stimuli/spore_stims/simple_17_A_a.gif","forced_long","","10","simple_dissimilar","images/stimuli/spore_stims/simple_17_A_a.gif","","","","",""
"","null","html-keyboard-response","125","478459","0.0-29.0-0.3","SS1618435699599","","","null","","","","","","<p><img src= images/blank.png width =""600"" height = ""600"" style=""position:fixed;top:50%; left:50%; transform: translate(-50%, -50%); border:5px solid black"">","","","","","","","",""
"","596.059999999823","sequential-stimulus-presentation-old","126","479560","0.0-29.0-1.3","SS1618435699599","trial","","40","500","1096.059999999823","images/stimuli/spore_stims/simple_04_A_b.gif","images/stimuli/spore_stims/simple_17_A_a.gif","forced_long","","10","simple_dissimilar","images/stimuli/spore_stims/simple_17_A_a.gif","","","","",""
"","null","html-keyboard-response","127","480588","0.0-29.0-0.4","SS1618435699599","","","null","","","","","","<p><img src= images/blank.png width =""600"" height = ""600"" style=""position:fixed;top:50%; left:50%; transform: translate(-50%, -50%); border:5px solid black"">","","","","","","","",""
"","1039.2799999999697","sequential-stimulus-presentation-old","128","482132","0.0-29.0-1.4","SS1618435699599","trial","","40","500","1539.2799999999697","images/stimuli/spore_stims/simple_04_A_b.gif","images/stimuli/spore_stims/simple_17_A_a.gif","forced_long","","10","simple_dissimilar","images/stimuli/spore_stims/simple_04_A_b.gif","","","","",""
"","3418.560000000056","survey-multi-choice","129","485555","0.0-30.0","SS1618435699599","math_question","","","","","","","","","","","","{""Q0"":""9""}","[0]","9","",""
"","null","html-keyboard-response","130","486502","0.0-31.0-0.0","SS1618435699599","","","null","","","","","","<p><img src= images/blank.png width =""600"" height = ""600"" style=""position:fixed;top:50%; left:50%; transform: translate(-50%, -50%); border:5px solid black"">","","","","","","","",""
"","1608.2849999997416","sequential-stimulus-presentation-old","131","493117","0.0-31.0-1.0","SS1618435699599","trial","","40","500","2108.2849999997416","images/stimuli/spore_stims/simple_03_A_a.gif","images/stimuli/spore_stims/simple_11_A_b.gif","forced_long","","11","simple_dissimilar","images/stimuli/spore_stims/simple_11_A_b.gif","","","","",""
"","null","html-keyboard-response","132","494293","0.0-31.0-0.1","SS1618435699599","","","null","","","","","","<p><img src= images/blank.png width =""600"" height = ""600"" style=""position:fixed;top:50%; left:50%; transform: translate(-50%, -50%); border:5px solid black"">","","","","","","","",""
"","2956.860000000219","sequential-stimulus-presentation-old","133","497758","0.0-31.0-1.1","SS1618435699599","trial","","40","500","3456.860000000219","images/stimuli/spore_stims/simple_03_A_a.gif","images/stimuli/spore_stims/simple_11_A_b.gif","forced_long","","11","simple_dissimilar","images/stimuli/spore_stims/simple_11_A_b.gif","","","","",""
"","null","html-keyboard-response","134","498986","0.0-31.0-0.2","SS1618435699599","","","null","","","","","","<p><img src= images/blank.png width =""600"" height = ""600"" style=""position:fixed;top:50%; left:50%; transform: translate(-50%, -50%); border:5px solid black"">","","","","","","","",""
"","1394.9800000000396","sequential-stimulus-presentation-old","135","500887","0.0-31.0-1.2","SS1618435699599","trial","","40","500","1894.9800000000396","images/stimuli/spore_stims/simple_03_A_a.gif","images/stimuli/spore_stims/simple_11_A_b.gif","forced_long","","11","simple_dissimilar","images/stimuli/spore_stims/simple_11_A_b.gif","","","","",""
"","null","html-keyboard-response","136","501966","0.0-31.0-0.3","SS1618435699599","","","null","","","","","","<p><img src= images/blank.png width =""600"" height = ""600"" style=""position:fixed;top:50%; left:50%; transform: translate(-50%, -50%); border:5px solid black"">","","","","","","","",""
"","1820.3050000001676","sequential-stimulus-presentation-old","137","504293","0.0-31.0-1.3","SS1618435699599","trial","","40","500","2320.3050000001676","images/stimuli/spore_stims/simple_03_A_a.gif","images/stimuli/spore_stims/simple_11_A_b.gif","forced_long","","11","simple_dissimilar","images/stimuli/spore_stims/simple_03_A_a.gif","","","","",""
"","null","html-keyboard-response","138","505220","0.0-31.0-0.4","SS1618435699599","","","null","","","","","","<p><img src= images/blank.png width =""600"" height = ""600"" style=""position:fixed;top:50%; left:50%; transform: translate(-50%, -50%); border:5px solid black"">","","","","","","","",""
"","2802.8049999998184","sequential-stimulus-presentation-old","139","508529","0.0-31.0-1.4","SS1618435699599","trial","","40","500","3302.8049999998184","images/stimuli/spore_stims/simple_03_A_a.gif","images/stimuli/spore_stims/simple_11_A_b.gif","forced_long","","11","simple_dissimilar","images/stimuli/spore_stims/simple_03_A_a.gif","","","","",""
"[{""page_index"":0,""viewing_time"":6089.304999999935}]","6089.62000000017","instructions","140","514622","0.0-32.0","SS1618435699599","instructions","","","","","","","","","","","","","","","",""
"","9588.725000000093","survey-likert","141","524217","0.0-33.0","SS1618435699599","similarity_question","","","","","","","","","","","","{""Q0"":3}","[0]","","images/stimuli/spore_stims/simple_11_A_a.gif","images/stimuli/spore_stims/simple_02_A_b.gif"
"","6494.974999999511","survey-likert","142","530718","0.0-34.0","SS1618435699599","similarity_question","","","","","","","","","","","","{""Q0"":1}","[0]","","images/stimuli/spore_stims/complex_03_A_a.gif","images/stimuli/spore_stims/complex_13_A_b.gif"
"","7941.499999999884","survey-likert","143","538665","0.0-35.0","SS1618435699599","similarity_question","","","","","","","","","","","","{""Q0"":1}","[0]","","images/stimuli/spore_stims/complex_16_A_b.gif","images/stimuli/spore_stims/complex_20_A_a.gif"
"","5779.864999999991","survey-likert","144","544451","0.0-36.0","SS1618435699599","similarity_question","","","","","","","","","","","","{""Q0"":0}","[0]","","images/stimuli/spore_stims/simple_07_A_a.gif","images/stimuli/spore_stims/simple_09_A_b.gif"
"","13270.39000000013","survey-likert","145","557729","0.0-37.0","SS1618435699599","similarity_question","","","","","","","","","","","","{""Q0"":1}","[0]","","images/stimuli/spore_stims/complex_06_A_b.gif","images/stimuli/spore_stims/complex_07_A_a.gif"
"","7037.2700000002515","survey-likert","146","564773","0.0-38.0","SS1618435699599","similarity_question","","","","","","","","","","","","{""Q0"":1}","[0]","","images/stimuli/spore_stims/complex_19_A_a.gif","images/stimuli/spore_stims/complex_03_A_b.gif"
"","5783.594999999856","survey-likert","147","570562","0.0-39.0","SS1618435699599","similarity_question","","","","","","","","","","","","{""Q0"":2}","[0]","","images/stimuli/spore_stims/complex_12_A_a.gif","images/stimuli/spore_stims/complex_15_A_b.gif"
"","6681.589999999735","survey-likert","148","577249","0.0-40.0","SS1618435699599","similarity_question","","","","","","","","","","","","{""Q0"":1}","[0]","","images/stimuli/spore_stims/complex_12_A_b.gif","images/stimuli/spore_stims/complex_14_A_a.gif"
"","7281.220000000321","survey-likert","149","584536","0.0-41.0","SS1618435699599","similarity_question","","","","","","","","","","","","{""Q0"":4}","[0]","","images/stimuli/spore_stims/simple_14_A_b.gif","images/stimuli/spore_stims/simple_19_A_a.gif"
"","7382.180000000051","survey-likert","150","591925","0.0-42.0","SS1618435699599","similarity_question","","","","","","","","","","","","{""Q0"":4}","[0]","","images/stimuli/spore_stims/simple_17_A_a.gif","images/stimuli/spore_stims/simple_04_A_b.gif"
"","6839.565000000293","survey-likert","151","598773","0.0-43.0","SS1618435699599","similarity_question","","","","","","","","","","","","{""Q0"":5}","[0]","","images/stimuli/spore_stims/simple_09_A_a.gif","images/stimuli/spore_stims/simple_13_A_b.gif"
"","6478.770000000135","survey-likert","152","605259","0.0-44.0","SS1618435699599","similarity_question","","","","","","","","","","","","{""Q0"":2}","[0]","","images/stimuli/spore_stims/simple_03_A_a.gif","images/stimuli/spore_stims/simple_11_A_b.gif"
"[{""page_index"":0,""viewing_time"":7455.10999999987}]","7455.520000000019","instructions","153","612720","0.0-45.0","SS1618435699599","instructions","","","","","","","","","","","","","","","",""
"","7841.780000000144","survey-likert","154","620567","0.0-46.0","SS1618435699599","","","","","","","","","images/stimuli/spore_stims/complex_12_A_a.gif","","","","{""Q0"":5}","[0]","","",""
"","5073.605000000098","survey-likert","155","625647","0.0-47.0","SS1618435699599","","","","","","","","","images/stimuli/spore_stims/complex_14_A_a.gif","","","","{""Q0"":4}","[0]","","",""
"","4912.710000000079","survey-likert","156","630566","0.0-48.0","SS1618435699599","","","","","","","","","images/stimuli/spore_stims/simple_13_A_b.gif","","","","{""Q0"":0}","[0]","","",""
"","4944.784999999683","survey-likert","157","635517","0.0-49.0","SS1618435699599","","","","","","","","","images/stimuli/spore_stims/simple_09_A_b.gif","","","","{""Q0"":0}","[0]","","",""
"","8790.715000000084","survey-likert","158","644315","0.0-50.0","SS1618435699599","","","","","","","","","images/stimuli/spore_stims/complex_19_A_a.gif","","","","{""Q0"":4}","[0]","","",""
"","6725.770000000019","survey-likert","159","651047","0.0-51.0","SS1618435699599","","","","","","","","","images/stimuli/spore_stims/complex_16_A_b.gif","","","","{""Q0"":5}","[0]","","",""
"","4645.880000000005","survey-likert","160","655698","0.0-52.0","SS1618435699599","","","","","","","","","images/stimuli/spore_stims/complex_06_A_b.gif","","","","{""Q0"":5}","[0]","","",""
"","3674.2099999996135","survey-likert","161","659379","0.0-53.0","SS1618435699599","","","","","","","","","images/stimuli/spore_stims/simple_17_A_a.gif","","","","{""Q0"":0}","[0]","","",""
"","5607.980000000214","survey-likert","162","664997","0.0-54.0","SS1618435699599","","","","","","","","","images/stimuli/spore_stims/simple_11_A_b.gif","","","","{""Q0"":0}","[0]","","",""
"","3785.8300000003073","survey-likert","163","668788","0.0-55.0","SS1618435699599","","","","","","","","","images/stimuli/spore_stims/simple_11_A_a.gif","","","","{""Q0"":0}","[0]","","",""
"","6969.644999999669","survey-likert","164","675764","0.0-56.0","SS1618435699599","","","","","","","","","images/stimuli/spore_stims/complex_13_A_b.gif","","","","{""Q0"":5}","[0]","","",""
"","4538.425000000163","survey-likert","165","680310","0.0-57.0","SS1618435699599","","","","","","","","","images/stimuli/spore_stims/simple_19_A_a.gif","","","","{""Q0"":1}","[0]","","",""
"[{""page_index"":0,""viewing_time"":4008.515000000014}]","4009.0000000001164","instructions","166","684323","0.0-58.0","SS1618435699599","instructions","","","","","","","","","","","","","","","",""
"","4379.069999999949","demog-age","167","688711","0.0-59.0","SS1618435699599","","","","","","","","","","","","","{""age"":""39""}","","","",""
"","4008.405000000028","demog-ethnic-US","168","692731","0.0-60.0","SS1618435699599","","","","","","","","","","","","","{""ethnicity"":[""White""]}","[0]","","",""
"","7664.844999999856","demog-gender-and-education","169","700403","0.0-61.0","SS1618435699599","","","","","","","","","","","","","{""gender"":""Male"",""education"":""High school diploma""}","[0,1]","","",""
"","6586.714999999967","survey-text","170","707000","0.0-62.0","SS1618435699599","feedback","","","","","","","","","","","","{""Q0"":""none""}","","","",""
"[{""page_index"":0,""viewing_time"":2499.240000000107}]","2499.5600000001723","instructions","171","709504","0.0-63.0","SS1618435699599","instructions","","","","","","","","","","","","","","","",""
