"view_history","rt","trial_type","trial_index","time_elapsed","internal_node_id","subject","stimulus_type","trial_stimulus","key_press","minimum_viewing_duration","trial_looking_time","block_deviant","block_background","exposure_type","stimulus","block_number","block_type","stimulus_displayed","responses","question_order","math_correct_answer","stimulus_left","stimulus_right"
"[{""page_index"":0,""viewing_time"":3033.4849995560944}]","3034.1749996878207","instructions","0","3036","0.0-0.0","SS1618366094486","","","","","","","","","","","","","","","","",""
"[{""page_index"":0,""viewing_time"":1771.2650001049042},{""page_index"":1,""viewing_time"":1858.569999691099}]","3630.4250000976026","instructions","1","8687","0.0-1.0","SS1618366094486","instructions","","","","","","","","","","","","","","","",""
"","1426.7349997535348","sequential-stimulus-presentation-old","2","10622","0.0-2.0","SS1618366094486","","","40","500","1926.7349997535348","null","null","self_paced","","","","","","","","",""
"","3175.1549998298287","sequential-stimulus-presentation-old","3","14307","0.0-3.0","SS1618366094486","","","40","500","3675.1549998298287","null","null","self_paced","","","","","","","","",""
"[{""page_index"":0,""viewing_time"":7809.855000115931}]","7810.199999716133","instructions","4","22118","0.0-4.0","SS1618366094486","instructions","","","","","","","","","","","","","","","",""
"","508.47999984398484","sequential-stimulus-presentation-old","5","27630","0.0-5.0","SS1618366094486","","","40","500","1008.4799998439848","null","null","forced_long","","","","","","","","",""
"","4876.630000304431","sequential-stimulus-presentation-old","6","32563","0.0-6.0","SS1618366094486","","","40","50","4926.630000304431","null","null","forced_long","","","","","","","","",""
"[{""page_index"":0,""viewing_time"":1914.3449999392033}]","1914.5949999801815","instructions","7","34479","0.0-7.0","SS1618366094486","instructions","","","","","","","","","","","","","","","",""
"[{""page_index"":0,""viewing_time"":4626.690000295639},{""page_index"":1,""viewing_time"":8610.330000054091},{""page_index"":2,""viewing_time"":5347.949999850243},{""page_index"":3,""viewing_time"":579.0200000628829},{""page_index"":4,""viewing_time"":452.07499992102385}]","19616.415000054985","instructions","8","54102","0.0-8.0","SS1618366094486","instructions","","","","","","","","","","","","","","","",""
"","null","html-keyboard-response","9","54948","0.0-9.0-0.0","SS1618366094486","","","null","","","","","","<p><img src= images/blank.png width =""600"" height = ""600"" style=""position:fixed;top:50%; left:50%; transform: translate(-50%, -50%); border:5px solid black"">","","","","","","","",""
"","2212.019999977201","sequential-stimulus-presentation-old","10","57217","0.0-9.0-1.0","SS1618366094486","trial","","40","500","2712.019999977201","images/stimuli/spore_stims/complex_05_A_b.gif","images/stimuli/spore_stims/complex_12_A_a.gif","forced_short","","0","complex_dissimilar","images/stimuli/spore_stims/complex_12_A_a.gif","","","","",""
"","null","html-keyboard-response","11","58438","0.0-9.0-0.1","SS1618366094486","","","null","","","","","","<p><img src= images/blank.png width =""600"" height = ""600"" style=""position:fixed;top:50%; left:50%; transform: translate(-50%, -50%); border:5px solid black"">","","","","","","","",""
"","6985.820000059903","sequential-stimulus-presentation-old","12","65935","0.0-9.0-1.1","SS1618366094486","trial","","40","500","7485.820000059903","images/stimuli/spore_stims/complex_05_A_b.gif","images/stimuli/spore_stims/complex_12_A_a.gif","forced_short","","0","complex_dissimilar","images/stimuli/spore_stims/complex_05_A_b.gif","","","","",""
"","null","html-keyboard-response","13","66867","0.0-9.0-0.2","SS1618366094486","","","null","","","","","","<p><img src= images/blank.png width =""600"" height = ""600"" style=""position:fixed;top:50%; left:50%; transform: translate(-50%, -50%); border:5px solid black"">","","","","","","","",""
"","2910.289999563247","sequential-stimulus-presentation-old","14","70288","0.0-9.0-1.2","SS1618366094486","trial","","40","500","3410.289999563247","images/stimuli/spore_stims/complex_05_A_b.gif","images/stimuli/spore_stims/complex_12_A_a.gif","forced_short","","0","complex_dissimilar","images/stimuli/spore_stims/complex_12_A_a.gif","","","","",""
"","null","html-keyboard-response","15","71341","0.0-9.0-0.3","SS1618366094486","","","null","","","","","","<p><img src= images/blank.png width =""600"" height = ""600"" style=""position:fixed;top:50%; left:50%; transform: translate(-50%, -50%); border:5px solid black"">","","","","","","","",""
"","3449.1900000721216","sequential-stimulus-presentation-old","16","75301","0.0-9.0-1.3","SS1618366094486","trial","","40","500","3949.1900000721216","images/stimuli/spore_stims/complex_05_A_b.gif","images/stimuli/spore_stims/complex_12_A_a.gif","forced_short","","0","complex_dissimilar","images/stimuli/spore_stims/complex_12_A_a.gif","","","","",""
"","null","html-keyboard-response","17","76218","0.0-9.0-0.4","SS1618366094486","","","null","","","","","","<p><img src= images/blank.png width =""600"" height = ""600"" style=""position:fixed;top:50%; left:50%; transform: translate(-50%, -50%); border:5px solid black"">","","","","","","","",""
"","3596.3650001212955","sequential-stimulus-presentation-old","18","80324","0.0-9.0-1.4","SS1618366094486","trial","","40","500","4096.365000121295","images/stimuli/spore_stims/complex_05_A_b.gif","images/stimuli/spore_stims/complex_12_A_a.gif","forced_short","","0","complex_dissimilar","images/stimuli/spore_stims/complex_12_A_a.gif","","","","",""
"","null","html-keyboard-response","19","81215","0.0-9.0-0.5","SS1618366094486","","","null","","","","","","<p><img src= images/blank.png width =""600"" height = ""600"" style=""position:fixed;top:50%; left:50%; transform: translate(-50%, -50%); border:5px solid black"">","","","","","","","",""
"","427.2349998354912","sequential-stimulus-presentation-old","20","82151","0.0-9.0-1.5","SS1618366094486","trial","","40","500","927.2349998354912","images/stimuli/spore_stims/complex_05_A_b.gif","images/stimuli/spore_stims/complex_12_A_a.gif","forced_short","","0","complex_dissimilar","images/stimuli/spore_stims/complex_12_A_a.gif","","","","",""
"","5083.695000037551","survey-multi-choice","21","87242","0.0-10.0","SS1618366094486","math_question","","","","","","","","","","","","{""Q0"":""11""}","[0]","11","",""
"","null","html-keyboard-response","22","88197","0.0-11.0-0.0","SS1618366094486","","","null","","","","","","<p><img src= images/blank.png width =""600"" height = ""600"" style=""position:fixed;top:50%; left:50%; transform: translate(-50%, -50%); border:5px solid black"">","","","","","","","",""
"","1937.6050001010299","sequential-stimulus-presentation-old","23","90194","0.0-11.0-1.0","SS1618366094486","trial","","40","500","2437.60500010103","images/stimuli/spore_stims/simple_04_A_a.gif","images/stimuli/spore_stims/simple_11_A_b.gif","forced_short","","1","simple_dissimilar","images/stimuli/spore_stims/simple_11_A_b.gif","","","","",""
"","null","html-keyboard-response","24","91044","0.0-11.0-0.1","SS1618366094486","","","null","","","","","","<p><img src= images/blank.png width =""600"" height = ""600"" style=""position:fixed;top:50%; left:50%; transform: translate(-50%, -50%); border:5px solid black"">","","","","","","","",""
"","3004.00000018999","sequential-stimulus-presentation-old","25","94559","0.0-11.0-1.1","SS1618366094486","trial","","40","500","3504.00000018999","images/stimuli/spore_stims/simple_04_A_a.gif","images/stimuli/spore_stims/simple_11_A_b.gif","forced_short","","1","simple_dissimilar","images/stimuli/spore_stims/simple_11_A_b.gif","","","","",""
"","null","html-keyboard-response","26","95385","0.0-11.0-0.2","SS1618366094486","","","null","","","","","","<p><img src= images/blank.png width =""600"" height = ""600"" style=""position:fixed;top:50%; left:50%; transform: translate(-50%, -50%); border:5px solid black"">","","","","","","","",""
"","3362.470000050962","sequential-stimulus-presentation-old","27","99256","0.0-11.0-1.2","SS1618366094486","trial","","40","500","3862.470000050962","images/stimuli/spore_stims/simple_04_A_a.gif","images/stimuli/spore_stims/simple_11_A_b.gif","forced_short","","1","simple_dissimilar","images/stimuli/spore_stims/simple_11_A_b.gif","","","","",""
"","null","html-keyboard-response","28","100462","0.0-11.0-0.3","SS1618366094486","","","null","","","","","","<p><img src= images/blank.png width =""600"" height = ""600"" style=""position:fixed;top:50%; left:50%; transform: translate(-50%, -50%); border:5px solid black"">","","","","","","","",""
"","1311.429999768734","sequential-stimulus-presentation-old","29","102285","0.0-11.0-1.3","SS1618366094486","trial","","40","500","1811.429999768734","images/stimuli/spore_stims/simple_04_A_a.gif","images/stimuli/spore_stims/simple_11_A_b.gif","forced_short","","1","simple_dissimilar","images/stimuli/spore_stims/simple_11_A_b.gif","","","","",""
"","null","html-keyboard-response","30","103600","0.0-11.0-0.4","SS1618366094486","","","null","","","","","","<p><img src= images/blank.png width =""600"" height = ""600"" style=""position:fixed;top:50%; left:50%; transform: translate(-50%, -50%); border:5px solid black"">","","","","","","","",""
"","230.50499986857176","sequential-stimulus-presentation-old","31","104339","0.0-11.0-1.4","SS1618366094486","trial","","40","500","730.5049998685718","images/stimuli/spore_stims/simple_04_A_a.gif","images/stimuli/spore_stims/simple_11_A_b.gif","forced_short","","1","simple_dissimilar","images/stimuli/spore_stims/simple_11_A_b.gif","","","","",""
"","3335.990000050515","survey-multi-choice","32","107681","0.0-12.0","SS1618366094486","math_question","","","","","","","","","","","","{""Q0"":""9""}","[0]","9","",""
"","null","html-keyboard-response","33","108696","0.0-13.0-0.0","SS1618366094486","","","null","","","","","","<p><img src= images/blank.png width =""600"" height = ""600"" style=""position:fixed;top:50%; left:50%; transform: translate(-50%, -50%); border:5px solid black"">","","","","","","","",""
"","7236.599999945611","sequential-stimulus-presentation-old","34","115998","0.0-13.0-1.0","SS1618366094486","trial","","40","500","7736.599999945611","images/stimuli/spore_stims/simple_13_A_a.gif","images/stimuli/spore_stims/simple_17_A_b.gif","forced_short","","2","simple_dissimilar","images/stimuli/spore_stims/simple_17_A_b.gif","","","","",""
"","null","html-keyboard-response","35","117050","0.0-13.0-0.1","SS1618366094486","","","null","","","","","","<p><img src= images/blank.png width =""600"" height = ""600"" style=""position:fixed;top:50%; left:50%; transform: translate(-50%, -50%); border:5px solid black"">","","","","","","","",""
"","3313.6849999427795","sequential-stimulus-presentation-old","36","120873","0.0-13.0-1.1","SS1618366094486","trial","","40","500","3813.6849999427795","images/stimuli/spore_stims/simple_13_A_a.gif","images/stimuli/spore_stims/simple_17_A_b.gif","forced_short","","2","simple_dissimilar","images/stimuli/spore_stims/simple_17_A_b.gif","","","","",""
"","null","html-keyboard-response","37","122173","0.0-13.0-0.2","SS1618366094486","","","null","","","","","","<p><img src= images/blank.png width =""600"" height = ""600"" style=""position:fixed;top:50%; left:50%; transform: translate(-50%, -50%); border:5px solid black"">","","","","","","","",""
"","660.9850004315376","sequential-stimulus-presentation-old","38","123350","0.0-13.0-1.2","SS1618366094486","trial","","40","500","1160.9850004315376","images/stimuli/spore_stims/simple_13_A_a.gif","images/stimuli/spore_stims/simple_17_A_b.gif","forced_short","","2","simple_dissimilar","images/stimuli/spore_stims/simple_17_A_b.gif","","","","",""
"","null","html-keyboard-response","39","124469","0.0-13.0-0.3","SS1618366094486","","","null","","","","","","<p><img src= images/blank.png width =""600"" height = ""600"" style=""position:fixed;top:50%; left:50%; transform: translate(-50%, -50%); border:5px solid black"">","","","","","","","",""
"","870.0400004163384","sequential-stimulus-presentation-old","40","125847","0.0-13.0-1.3","SS1618366094486","trial","","40","500","1370.0400004163384","images/stimuli/spore_stims/simple_13_A_a.gif","images/stimuli/spore_stims/simple_17_A_b.gif","forced_short","","2","simple_dissimilar","images/stimuli/spore_stims/simple_17_A_b.gif","","","","",""
"","null","html-keyboard-response","41","126673","0.0-13.0-0.4","SS1618366094486","","","null","","","","","","<p><img src= images/blank.png width =""600"" height = ""600"" style=""position:fixed;top:50%; left:50%; transform: translate(-50%, -50%); border:5px solid black"">","","","","","","","",""
"","3255.7200002484024","sequential-stimulus-presentation-old","42","130436","0.0-13.0-1.4","SS1618366094486","trial","","40","500","3755.7200002484024","images/stimuli/spore_stims/simple_13_A_a.gif","images/stimuli/spore_stims/simple_17_A_b.gif","forced_short","","2","simple_dissimilar","images/stimuli/spore_stims/simple_13_A_a.gif","","","","",""
"","null","html-keyboard-response","43","131473","0.0-13.0-0.5","SS1618366094486","","","null","","","","","","<p><img src= images/blank.png width =""600"" height = ""600"" style=""position:fixed;top:50%; left:50%; transform: translate(-50%, -50%); border:5px solid black"">","","","","","","","",""
"","3215.4949996620417","sequential-stimulus-presentation-old","44","135205","0.0-13.0-1.5","SS1618366094486","trial","","40","500","3715.4949996620417","images/stimuli/spore_stims/simple_13_A_a.gif","images/stimuli/spore_stims/simple_17_A_b.gif","forced_short","","2","simple_dissimilar","images/stimuli/spore_stims/simple_13_A_a.gif","","","","",""
"","3507.2200000286102","survey-multi-choice","45","138717","0.0-14.0","SS1618366094486","math_question","","","","","","","","","","","","{""Q0"":""3""}","[0]","3","",""
"","null","html-keyboard-response","46","139995","0.0-15.0-0.0","SS1618366094486","","","null","","","","","","<p><img src= images/blank.png width =""600"" height = ""600"" style=""position:fixed;top:50%; left:50%; transform: translate(-50%, -50%); border:5px solid black"">","","","","","","","",""
"","693.8550001941621","sequential-stimulus-presentation-old","47","141202","0.0-15.0-1.0","SS1618366094486","trial","","40","500","1193.8550001941621","images/stimuli/spore_stims/simple_02_A_a.gif","images/stimuli/spore_stims/simple_19_A_b.gif","self_paced","","3","simple_dissimilar","images/stimuli/spore_stims/simple_19_A_b.gif","","","","",""
"","null","html-keyboard-response","48","142352","0.0-15.0-0.1","SS1618366094486","","","null","","","","","","<p><img src= images/blank.png width =""600"" height = ""600"" style=""position:fixed;top:50%; left:50%; transform: translate(-50%, -50%); border:5px solid black"">","","","","","","","",""
"","734.5350002869964","sequential-stimulus-presentation-old","49","143601","0.0-15.0-1.1","SS1618366094486","trial","","40","500","1234.5350002869964","images/stimuli/spore_stims/simple_02_A_a.gif","images/stimuli/spore_stims/simple_19_A_b.gif","self_paced","","3","simple_dissimilar","images/stimuli/spore_stims/simple_19_A_b.gif","","","","",""
"","null","html-keyboard-response","50","144882","0.0-15.0-0.2","SS1618366094486","","","null","","","","","","<p><img src= images/blank.png width =""600"" height = ""600"" style=""position:fixed;top:50%; left:50%; transform: translate(-50%, -50%); border:5px solid black"">","","","","","","","",""
"","1867.5150000490248","sequential-stimulus-presentation-old","51","147266","0.0-15.0-1.2","SS1618366094486","trial","","40","500","2367.515000049025","images/stimuli/spore_stims/simple_02_A_a.gif","images/stimuli/spore_stims/simple_19_A_b.gif","self_paced","","3","simple_dissimilar","images/stimuli/spore_stims/simple_02_A_a.gif","","","","",""
"","null","html-keyboard-response","52","148446","0.0-15.0-0.3","SS1618366094486","","","null","","","","","","<p><img src= images/blank.png width =""600"" height = ""600"" style=""position:fixed;top:50%; left:50%; transform: translate(-50%, -50%); border:5px solid black"">","","","","","","","",""
"","1648.3999998308718","sequential-stimulus-presentation-old","53","150608","0.0-15.0-1.3","SS1618366094486","trial","","40","500","2148.399999830872","images/stimuli/spore_stims/simple_02_A_a.gif","images/stimuli/spore_stims/simple_19_A_b.gif","self_paced","","3","simple_dissimilar","images/stimuli/spore_stims/simple_02_A_a.gif","","","","",""
"","3297.660000156611","survey-multi-choice","54","153910","0.0-16.0","SS1618366094486","math_question","","","","","","","","","","","","{""Q0"":""3""}","[0]","3","",""
"","null","html-keyboard-response","55","155056","0.0-17.0-0.0","SS1618366094486","","","null","","","","","","<p><img src= images/blank.png width =""600"" height = ""600"" style=""position:fixed;top:50%; left:50%; transform: translate(-50%, -50%); border:5px solid black"">","","","","","","","",""
"","952.4950003251433","sequential-stimulus-presentation-old","56","156517","0.0-17.0-1.0","SS1618366094486","trial","","40","500","1452.4950003251433","images/stimuli/spore_stims/simple_08_A_b.gif","images/stimuli/spore_stims/simple_07_A_a.gif","self_paced","","4","simple_dissimilar","images/stimuli/spore_stims/simple_07_A_a.gif","","","","",""
"","null","html-keyboard-response","57","157817","0.0-17.0-0.1","SS1618366094486","","","null","","","","","","<p><img src= images/blank.png width =""600"" height = ""600"" style=""position:fixed;top:50%; left:50%; transform: translate(-50%, -50%); border:5px solid black"">","","","","","","","",""
"","1738.3250002749264","sequential-stimulus-presentation-old","58","160067","0.0-17.0-1.1","SS1618366094486","trial","","40","500","2238.3250002749264","images/stimuli/spore_stims/simple_08_A_b.gif","images/stimuli/spore_stims/simple_07_A_a.gif","self_paced","","4","simple_dissimilar","images/stimuli/spore_stims/simple_08_A_b.gif","","","","",""
"","null","html-keyboard-response","59","161205","0.0-17.0-0.2","SS1618366094486","","","null","","","","","","<p><img src= images/blank.png width =""600"" height = ""600"" style=""position:fixed;top:50%; left:50%; transform: translate(-50%, -50%); border:5px solid black"">","","","","","","","",""
"","1675.2700000070035","sequential-stimulus-presentation-old","60","163397","0.0-17.0-1.2","SS1618366094486","trial","","40","500","2175.2700000070035","images/stimuli/spore_stims/simple_08_A_b.gif","images/stimuli/spore_stims/simple_07_A_a.gif","self_paced","","4","simple_dissimilar","images/stimuli/spore_stims/simple_07_A_a.gif","","","","",""
"","null","html-keyboard-response","61","164372","0.0-17.0-0.3","SS1618366094486","","","null","","","","","","<p><img src= images/blank.png width =""600"" height = ""600"" style=""position:fixed;top:50%; left:50%; transform: translate(-50%, -50%); border:5px solid black"">","","","","","","","",""
"","1597.4900000728667","sequential-stimulus-presentation-old","62","166485","0.0-17.0-1.3","SS1618366094486","trial","","40","500","2097.4900000728667","images/stimuli/spore_stims/simple_08_A_b.gif","images/stimuli/spore_stims/simple_07_A_a.gif","self_paced","","4","simple_dissimilar","images/stimuli/spore_stims/simple_08_A_b.gif","","","","",""
"","null","html-keyboard-response","63","167732","0.0-17.0-0.4","SS1618366094486","","","null","","","","","","<p><img src= images/blank.png width =""600"" height = ""600"" style=""position:fixed;top:50%; left:50%; transform: translate(-50%, -50%); border:5px solid black"">","","","","","","","",""
"","2145.330000203103","sequential-stimulus-presentation-old","64","170388","0.0-17.0-1.4","SS1618366094486","trial","","40","500","2645.330000203103","images/stimuli/spore_stims/simple_08_A_b.gif","images/stimuli/spore_stims/simple_07_A_a.gif","self_paced","","4","simple_dissimilar","images/stimuli/spore_stims/simple_07_A_a.gif","","","","",""
"","4464.96000001207","survey-multi-choice","65","174859","0.0-18.0","SS1618366094486","math_question","","","","","","","","","","","","{""Q0"":""8""}","[0]","8","",""
"","null","html-keyboard-response","66","175864","0.0-19.0-0.0","SS1618366094486","","","null","","","","","","<p><img src= images/blank.png width =""600"" height = ""600"" style=""position:fixed;top:50%; left:50%; transform: translate(-50%, -50%); border:5px solid black"">","","","","","","","",""
"","5581.729999743402","sequential-stimulus-presentation-old","67","186453","0.0-19.0-1.0","SS1618366094486","trial","","40","500","6081.729999743402","images/stimuli/spore_stims/simple_02_A_b.gif","images/stimuli/spore_stims/simple_18_A_a.gif","forced_long","","5","simple_dissimilar","images/stimuli/spore_stims/simple_18_A_a.gif","","","","",""
"","null","html-keyboard-response","68","187584","0.0-19.0-0.1","SS1618366094486","","","null","","","","","","<p><img src= images/blank.png width =""600"" height = ""600"" style=""position:fixed;top:50%; left:50%; transform: translate(-50%, -50%); border:5px solid black"">","","","","","","","",""
"","3227.0200001075864","sequential-stimulus-presentation-old","69","191328","0.0-19.0-1.1","SS1618366094486","trial","","40","500","3727.0200001075864","images/stimuli/spore_stims/simple_02_A_b.gif","images/stimuli/spore_stims/simple_18_A_a.gif","forced_long","","5","simple_dissimilar","images/stimuli/spore_stims/simple_02_A_b.gif","","","","",""
"","null","html-keyboard-response","70","192481","0.0-19.0-0.2","SS1618366094486","","","null","","","","","","<p><img src= images/blank.png width =""600"" height = ""600"" style=""position:fixed;top:50%; left:50%; transform: translate(-50%, -50%); border:5px solid black"">","","","","","","","",""
"","1136.230000294745","sequential-stimulus-presentation-old","71","194129","0.0-19.0-1.2","SS1618366094486","trial","","40","500","1636.230000294745","images/stimuli/spore_stims/simple_02_A_b.gif","images/stimuli/spore_stims/simple_18_A_a.gif","forced_long","","5","simple_dissimilar","images/stimuli/spore_stims/simple_02_A_b.gif","","","","",""
"","null","html-keyboard-response","72","195353","0.0-19.0-0.3","SS1618366094486","","","null","","","","","","<p><img src= images/blank.png width =""600"" height = ""600"" style=""position:fixed;top:50%; left:50%; transform: translate(-50%, -50%); border:5px solid black"">","","","","","","","",""
"","1674.715000204742","sequential-stimulus-presentation-old","73","197540","0.0-19.0-1.3","SS1618366094486","trial","","40","500","2174.715000204742","images/stimuli/spore_stims/simple_02_A_b.gif","images/stimuli/spore_stims/simple_18_A_a.gif","forced_long","","5","simple_dissimilar","images/stimuli/spore_stims/simple_18_A_a.gif","","","","",""
"","null","html-keyboard-response","74","198716","0.0-19.0-0.4","SS1618366094486","","","null","","","","","","<p><img src= images/blank.png width =""600"" height = ""600"" style=""position:fixed;top:50%; left:50%; transform: translate(-50%, -50%); border:5px solid black"">","","","","","","","",""
"","2384.3049998395145","sequential-stimulus-presentation-old","75","201610","0.0-19.0-1.4","SS1618366094486","trial","","40","500","2884.3049998395145","images/stimuli/spore_stims/simple_02_A_b.gif","images/stimuli/spore_stims/simple_18_A_a.gif","forced_long","","5","simple_dissimilar","images/stimuli/spore_stims/simple_18_A_a.gif","","","","",""
"","3148.8850000314415","survey-multi-choice","76","204766","0.0-20.0","SS1618366094486","math_question","","","","","","","","","","","","{""Q0"":""11""}","[0]","11","",""
"","null","html-keyboard-response","77","205596","0.0-21.0-0.0","SS1618366094486","","","null","","","","","","<p><img src= images/blank.png width =""600"" height = ""600"" style=""position:fixed;top:50%; left:50%; transform: translate(-50%, -50%); border:5px solid black"">","","","","","","","",""
"","433.6749999783933","sequential-stimulus-presentation-old","78","211038","0.0-21.0-1.0","SS1618366094486","trial","","40","500","933.6749999783933","images/stimuli/spore_stims/complex_08_A_a.gif","images/stimuli/spore_stims/complex_14_A_b.gif","forced_long","","6","complex_dissimilar","images/stimuli/spore_stims/complex_14_A_b.gif","","","","",""
"","null","html-keyboard-response","79","212152","0.0-21.0-0.1","SS1618366094486","","","null","","","","","","<p><img src= images/blank.png width =""600"" height = ""600"" style=""position:fixed;top:50%; left:50%; transform: translate(-50%, -50%); border:5px solid black"">","","","","","","","",""
"","6539.170000236481","sequential-stimulus-presentation-old","80","219204","0.0-21.0-1.1","SS1618366094486","trial","","40","500","7039.170000236481","images/stimuli/spore_stims/complex_08_A_a.gif","images/stimuli/spore_stims/complex_14_A_b.gif","forced_long","","6","complex_dissimilar","images/stimuli/spore_stims/complex_08_A_a.gif","","","","",""
"","null","html-keyboard-response","81","220413","0.0-21.0-0.2","SS1618366094486","","","null","","","","","","<p><img src= images/blank.png width =""600"" height = ""600"" style=""position:fixed;top:50%; left:50%; transform: translate(-50%, -50%); border:5px solid black"">","","","","","","","",""
"","816.385000012815","sequential-stimulus-presentation-old","82","221741","0.0-21.0-1.2","SS1618366094486","trial","","40","500","1316.385000012815","images/stimuli/spore_stims/complex_08_A_a.gif","images/stimuli/spore_stims/complex_14_A_b.gif","forced_long","","6","complex_dissimilar","images/stimuli/spore_stims/complex_14_A_b.gif","","","","",""
"","null","html-keyboard-response","83","222773","0.0-21.0-0.3","SS1618366094486","","","null","","","","","","<p><img src= images/blank.png width =""600"" height = ""600"" style=""position:fixed;top:50%; left:50%; transform: translate(-50%, -50%); border:5px solid black"">","","","","","","","",""
"","299.91000005975366","sequential-stimulus-presentation-old","84","223589","0.0-21.0-1.3","SS1618366094486","trial","","40","500","799.9100000597537","images/stimuli/spore_stims/complex_08_A_a.gif","images/stimuli/spore_stims/complex_14_A_b.gif","forced_long","","6","complex_dissimilar","images/stimuli/spore_stims/complex_14_A_b.gif","","","","",""
"","3613.2100000977516","survey-multi-choice","85","227209","0.0-22.0","SS1618366094486","math_question","","","","","","","","","","","","{""Q0"":""6""}","[0]","6","",""
"","null","html-keyboard-response","86","228298","0.0-23.0-0.0","SS1618366094486","","","null","","","","","","<p><img src= images/blank.png width =""600"" height = ""600"" style=""position:fixed;top:50%; left:50%; transform: translate(-50%, -50%); border:5px solid black"">","","","","","","","",""
"","837.3600002378225","sequential-stimulus-presentation-old","87","229646","0.0-23.0-1.0","SS1618366094486","trial","","40","500","1337.3600002378225","images/stimuli/spore_stims/complex_05_A_a.gif","images/stimuli/spore_stims/complex_12_A_b.gif","self_paced","","7","complex_dissimilar","images/stimuli/spore_stims/complex_12_A_b.gif","","","","",""
"","null","html-keyboard-response","88","230732","0.0-23.0-0.1","SS1618366094486","","","null","","","","","","<p><img src= images/blank.png width =""600"" height = ""600"" style=""position:fixed;top:50%; left:50%; transform: translate(-50%, -50%); border:5px solid black"">","","","","","","","",""
"","2026.9849998876452","sequential-stimulus-presentation-old","89","233273","0.0-23.0-1.1","SS1618366094486","trial","","40","500","2526.9849998876452","images/stimuli/spore_stims/complex_05_A_a.gif","images/stimuli/spore_stims/complex_12_A_b.gif","self_paced","","7","complex_dissimilar","images/stimuli/spore_stims/complex_05_A_a.gif","","","","",""
"","null","html-keyboard-response","90","234113","0.0-23.0-0.2","SS1618366094486","","","null","","","","","","<p><img src= images/blank.png width =""600"" height = ""600"" style=""position:fixed;top:50%; left:50%; transform: translate(-50%, -50%); border:5px solid black"">","","","","","","","",""
"","3096.4549998752773","sequential-stimulus-presentation-old","91","237726","0.0-23.0-1.2","SS1618366094486","trial","","40","500","3596.4549998752773","images/stimuli/spore_stims/complex_05_A_a.gif","images/stimuli/spore_stims/complex_12_A_b.gif","self_paced","","7","complex_dissimilar","images/stimuli/spore_stims/complex_05_A_a.gif","","","","",""
"","null","html-keyboard-response","92","238921","0.0-23.0-0.3","SS1618366094486","","","null","","","","","","<p><img src= images/blank.png width =""600"" height = ""600"" style=""position:fixed;top:50%; left:50%; transform: translate(-50%, -50%); border:5px solid black"">","","","","","","","",""
"","3089.064999949187","sequential-stimulus-presentation-old","93","242524","0.0-23.0-1.3","SS1618366094486","trial","","40","500","3589.064999949187","images/stimuli/spore_stims/complex_05_A_a.gif","images/stimuli/spore_stims/complex_12_A_b.gif","self_paced","","7","complex_dissimilar","images/stimuli/spore_stims/complex_12_A_b.gif","","","","",""
"","null","html-keyboard-response","94","243389","0.0-23.0-0.4","SS1618366094486","","","null","","","","","","<p><img src= images/blank.png width =""600"" height = ""600"" style=""position:fixed;top:50%; left:50%; transform: translate(-50%, -50%); border:5px solid black"">","","","","","","","",""
"","2268.90500029549","sequential-stimulus-presentation-old","95","246174","0.0-23.0-1.4","SS1618366094486","trial","","40","500","2768.90500029549","images/stimuli/spore_stims/complex_05_A_a.gif","images/stimuli/spore_stims/complex_12_A_b.gif","self_paced","","7","complex_dissimilar","images/stimuli/spore_stims/complex_12_A_b.gif","","","","",""
"","4282.705000136048","survey-multi-choice","96","250464","0.0-24.0","SS1618366094486","math_question","","","","","","","","","","","","{""Q0"":""9""}","[0]","9","",""
"","null","html-keyboard-response","97","251663","0.0-25.0-0.0","SS1618366094486","","","null","","","","","","<p><img src= images/blank.png width =""600"" height = ""600"" style=""position:fixed;top:50%; left:50%; transform: translate(-50%, -50%); border:5px solid black"">","","","","","","","",""
"","379.9149999395013","sequential-stimulus-presentation-old","98","257055","0.0-25.0-1.0","SS1618366094486","trial","","40","500","879.9149999395013","images/stimuli/spore_stims/simple_05_A_a.gif","images/stimuli/spore_stims/simple_09_A_b.gif","forced_long","","8","simple_dissimilar","images/stimuli/spore_stims/simple_09_A_b.gif","","","","",""
"","null","html-keyboard-response","99","258184","0.0-25.0-0.1","SS1618366094486","","","null","","","","","","<p><img src= images/blank.png width =""600"" height = ""600"" style=""position:fixed;top:50%; left:50%; transform: translate(-50%, -50%); border:5px solid black"">","","","","","","","",""
"","1591.5999999269843","sequential-stimulus-presentation-old","100","260289","0.0-25.0-1.1","SS1618366094486","trial","","40","500","2091.5999999269843","images/stimuli/spore_stims/simple_05_A_a.gif","images/stimuli/spore_stims/simple_09_A_b.gif","forced_long","","8","simple_dissimilar","images/stimuli/spore_stims/simple_09_A_b.gif","","","","",""
"","null","html-keyboard-response","101","261193","0.0-25.0-0.2","SS1618366094486","","","null","","","","","","<p><img src= images/blank.png width =""600"" height = ""600"" style=""position:fixed;top:50%; left:50%; transform: translate(-50%, -50%); border:5px solid black"">","","","","","","","",""
"","394.3099998869002","sequential-stimulus-presentation-old","102","262098","0.0-25.0-1.2","SS1618366094486","trial","","40","500","894.3099998869002","images/stimuli/spore_stims/simple_05_A_a.gif","images/stimuli/spore_stims/simple_09_A_b.gif","forced_long","","8","simple_dissimilar","images/stimuli/spore_stims/simple_09_A_b.gif","","","","",""
"","null","html-keyboard-response","103","262955","0.0-25.0-0.3","SS1618366094486","","","null","","","","","","<p><img src= images/blank.png width =""600"" height = ""600"" style=""position:fixed;top:50%; left:50%; transform: translate(-50%, -50%); border:5px solid black"">","","","","","","","",""
"","1176.5250000171363","sequential-stimulus-presentation-old","104","264646","0.0-25.0-1.3","SS1618366094486","trial","","40","500","1676.5250000171363","images/stimuli/spore_stims/simple_05_A_a.gif","images/stimuli/spore_stims/simple_09_A_b.gif","forced_long","","8","simple_dissimilar","images/stimuli/spore_stims/simple_09_A_b.gif","","","","",""
"","null","html-keyboard-response","105","265534","0.0-25.0-0.4","SS1618366094486","","","null","","","","","","<p><img src= images/blank.png width =""600"" height = ""600"" style=""position:fixed;top:50%; left:50%; transform: translate(-50%, -50%); border:5px solid black"">","","","","","","","",""
"","445.9950001910329","sequential-stimulus-presentation-old","106","266492","0.0-25.0-1.4","SS1618366094486","trial","","40","500","945.9950001910329","images/stimuli/spore_stims/simple_05_A_a.gif","images/stimuli/spore_stims/simple_09_A_b.gif","forced_long","","8","simple_dissimilar","images/stimuli/spore_stims/simple_09_A_b.gif","","","","",""
"","3214.8150000721216","survey-multi-choice","107","269714","0.0-26.0","SS1618366094486","math_question","","","","","","","","","","","","{""Q0"":""10""}","[0]","10","",""
"","null","html-keyboard-response","108","270803","0.0-27.0-0.0","SS1618366094486","","","null","","","","","","<p><img src= images/blank.png width =""600"" height = ""600"" style=""position:fixed;top:50%; left:50%; transform: translate(-50%, -50%); border:5px solid black"">","","","","","","","",""
"","1216.8450001627207","sequential-stimulus-presentation-old","109","272076","0.0-27.0-1.0","SS1618366094486","trial","","40","500","1716.8450001627207","images/stimuli/spore_stims/complex_16_A_a.gif","images/stimuli/spore_stims/complex_19_A_b.gif","forced_short","","9","complex_dissimilar","images/stimuli/spore_stims/complex_19_A_b.gif","","","","",""
"","null","html-keyboard-response","110","273290","0.0-27.0-0.1","SS1618366094486","","","null","","","","","","<p><img src= images/blank.png width =""600"" height = ""600"" style=""position:fixed;top:50%; left:50%; transform: translate(-50%, -50%); border:5px solid black"">","","","","","","","",""
"","314.8500001989305","sequential-stimulus-presentation-old","111","274122","0.0-27.0-1.1","SS1618366094486","trial","","40","500","814.8500001989305","images/stimuli/spore_stims/complex_16_A_a.gif","images/stimuli/spore_stims/complex_19_A_b.gif","forced_short","","9","complex_dissimilar","images/stimuli/spore_stims/complex_19_A_b.gif","","","","",""
"","null","html-keyboard-response","112","275424","0.0-27.0-0.2","SS1618366094486","","","null","","","","","","<p><img src= images/blank.png width =""600"" height = ""600"" style=""position:fixed;top:50%; left:50%; transform: translate(-50%, -50%); border:5px solid black"">","","","","","","","",""
"","302.78499983251095","sequential-stimulus-presentation-old","113","276245","0.0-27.0-1.2","SS1618366094486","trial","","40","500","802.784999832511","images/stimuli/spore_stims/complex_16_A_a.gif","images/stimuli/spore_stims/complex_19_A_b.gif","forced_short","","9","complex_dissimilar","images/stimuli/spore_stims/complex_19_A_b.gif","","","","",""
"","null","html-keyboard-response","114","277555","0.0-27.0-0.3","SS1618366094486","","","null","","","","","","<p><img src= images/blank.png width =""600"" height = ""600"" style=""position:fixed;top:50%; left:50%; transform: translate(-50%, -50%); border:5px solid black"">","","","","","","","",""
"","216.28500008955598","sequential-stimulus-presentation-old","115","278290","0.0-27.0-1.3","SS1618366094486","trial","","40","500","716.285000089556","images/stimuli/spore_stims/complex_16_A_a.gif","images/stimuli/spore_stims/complex_19_A_b.gif","forced_short","","9","complex_dissimilar","images/stimuli/spore_stims/complex_19_A_b.gif","","","","",""
"","null","html-keyboard-response","116","279151","0.0-27.0-0.4","SS1618366094486","","","null","","","","","","<p><img src= images/blank.png width =""600"" height = ""600"" style=""position:fixed;top:50%; left:50%; transform: translate(-50%, -50%); border:5px solid black"">","","","","","","","",""
"","165.2750000357628","sequential-stimulus-presentation-old","117","279835","0.0-27.0-1.4","SS1618366094486","trial","","40","500","665.2750000357628","images/stimuli/spore_stims/complex_16_A_a.gif","images/stimuli/spore_stims/complex_19_A_b.gif","forced_short","","9","complex_dissimilar","images/stimuli/spore_stims/complex_19_A_b.gif","","","","",""
"","null","html-keyboard-response","118","280940","0.0-27.0-0.5","SS1618366094486","","","null","","","","","","<p><img src= images/blank.png width =""600"" height = ""600"" style=""position:fixed;top:50%; left:50%; transform: translate(-50%, -50%); border:5px solid black"">","","","","","","","",""
"","801.1600002646446","sequential-stimulus-presentation-old","119","282253","0.0-27.0-1.5","SS1618366094486","trial","","40","500","1301.1600002646446","images/stimuli/spore_stims/complex_16_A_a.gif","images/stimuli/spore_stims/complex_19_A_b.gif","forced_short","","9","complex_dissimilar","images/stimuli/spore_stims/complex_19_A_b.gif","","","","",""
"","3074.6200000867248","survey-multi-choice","120","285335","0.0-28.0","SS1618366094486","math_question","","","","","","","","","","","","{""Q0"":""4""}","[0]","4","",""
"","null","html-keyboard-response","121","286148","0.0-29.0-0.0","SS1618366094486","","","null","","","","","","<p><img src= images/blank.png width =""600"" height = ""600"" style=""position:fixed;top:50%; left:50%; transform: translate(-50%, -50%); border:5px solid black"">","","","","","","","",""
"","2292.729999870062","sequential-stimulus-presentation-old","122","288959","0.0-29.0-1.0","SS1618366094486","trial","","40","500","2792.729999870062","images/stimuli/spore_stims/complex_14_A_a.gif","images/stimuli/spore_stims/complex_11_A_b.gif","self_paced","","10","complex_dissimilar","images/stimuli/spore_stims/complex_11_A_b.gif","","","","",""
"","null","html-keyboard-response","123","290148","0.0-29.0-0.1","SS1618366094486","","","null","","","","","","<p><img src= images/blank.png width =""600"" height = ""600"" style=""position:fixed;top:50%; left:50%; transform: translate(-50%, -50%); border:5px solid black"">","","","","","","","",""
"","515.8299999311566","sequential-stimulus-presentation-old","124","291181","0.0-29.0-1.1","SS1618366094486","trial","","40","500","1015.8299999311566","images/stimuli/spore_stims/complex_14_A_a.gif","images/stimuli/spore_stims/complex_11_A_b.gif","self_paced","","10","complex_dissimilar","images/stimuli/spore_stims/complex_11_A_b.gif","","","","",""
"","null","html-keyboard-response","125","292472","0.0-29.0-0.2","SS1618366094486","","","null","","","","","","<p><img src= images/blank.png width =""600"" height = ""600"" style=""position:fixed;top:50%; left:50%; transform: translate(-50%, -50%); border:5px solid black"">","","","","","","","",""
"","336.11000003293157","sequential-stimulus-presentation-old","126","293324","0.0-29.0-1.2","SS1618366094486","trial","","40","500","836.1100000329316","images/stimuli/spore_stims/complex_14_A_a.gif","images/stimuli/spore_stims/complex_11_A_b.gif","self_paced","","10","complex_dissimilar","images/stimuli/spore_stims/complex_11_A_b.gif","","","","",""
"","null","html-keyboard-response","127","294296","0.0-29.0-0.3","SS1618366094486","","","null","","","","","","<p><img src= images/blank.png width =""600"" height = ""600"" style=""position:fixed;top:50%; left:50%; transform: translate(-50%, -50%); border:5px solid black"">","","","","","","","",""
"","735.0699999369681","sequential-stimulus-presentation-old","128","295545","0.0-29.0-1.3","SS1618366094486","trial","","40","500","1235.069999936968","images/stimuli/spore_stims/complex_14_A_a.gif","images/stimuli/spore_stims/complex_11_A_b.gif","self_paced","","10","complex_dissimilar","images/stimuli/spore_stims/complex_11_A_b.gif","","","","",""
"","2953.9549998007715","survey-multi-choice","129","298506","0.0-30.0","SS1618366094486","math_question","","","","","","","","","","","","{""Q0"":""6""}","[0]","6","",""
"","null","html-keyboard-response","130","299801","0.0-31.0-0.0","SS1618366094486","","","null","","","","","","<p><img src= images/blank.png width =""600"" height = ""600"" style=""position:fixed;top:50%; left:50%; transform: translate(-50%, -50%); border:5px solid black"">","","","","","","","",""
"","416.83000000193715","sequential-stimulus-presentation-old","131","305231","0.0-31.0-1.0","SS1618366094486","trial","","40","500","916.8300000019372","images/stimuli/spore_stims/complex_06_A_a.gif","images/stimuli/spore_stims/complex_01_A_b.gif","forced_long","","11","complex_dissimilar","images/stimuli/spore_stims/complex_01_A_b.gif","","","","",""
"","null","html-keyboard-response","132","306517","0.0-31.0-0.1","SS1618366094486","","","null","","","","","","<p><img src= images/blank.png width =""600"" height = ""600"" style=""position:fixed;top:50%; left:50%; transform: translate(-50%, -50%); border:5px solid black"">","","","","","","","",""
"","862.0600001886487","sequential-stimulus-presentation-old","133","307894","0.0-31.0-1.1","SS1618366094486","trial","","40","500","1362.0600001886487","images/stimuli/spore_stims/complex_06_A_a.gif","images/stimuli/spore_stims/complex_01_A_b.gif","forced_long","","11","complex_dissimilar","images/stimuli/spore_stims/complex_01_A_b.gif","","","","",""
"","null","html-keyboard-response","134","309045","0.0-31.0-0.2","SS1618366094486","","","null","","","","","","<p><img src= images/blank.png width =""600"" height = ""600"" style=""position:fixed;top:50%; left:50%; transform: translate(-50%, -50%); border:5px solid black"">","","","","","","","",""
"","396.9400003552437","sequential-stimulus-presentation-old","135","309959","0.0-31.0-1.2","SS1618366094486","trial","","40","500","896.9400003552437","images/stimuli/spore_stims/complex_06_A_a.gif","images/stimuli/spore_stims/complex_01_A_b.gif","forced_long","","11","complex_dissimilar","images/stimuli/spore_stims/complex_01_A_b.gif","","","","",""
"","null","html-keyboard-response","136","310918","0.0-31.0-0.3","SS1618366094486","","","null","","","","","","<p><img src= images/blank.png width =""600"" height = ""600"" style=""position:fixed;top:50%; left:50%; transform: translate(-50%, -50%); border:5px solid black"">","","","","","","","",""
"","3189.9899998679757","sequential-stimulus-presentation-old","137","314618","0.0-31.0-1.3","SS1618366094486","trial","","40","500","3689.9899998679757","images/stimuli/spore_stims/complex_06_A_a.gif","images/stimuli/spore_stims/complex_01_A_b.gif","forced_long","","11","complex_dissimilar","images/stimuli/spore_stims/complex_06_A_a.gif","","","","",""
"[{""page_index"":0,""viewing_time"":3273.1550000607967}]","3273.67000002414","instructions","138","317898","0.0-32.0","SS1618366094486","instructions","","","","","","","","","","","","","","","",""
"","8438.83499968797","survey-likert","139","326350","0.0-33.0","SS1618366094486","similarity_question","","","","","","","","","","","","{""Q0"":2}","[0]","","images/stimuli/spore_stims/complex_19_A_b.gif","images/stimuli/spore_stims/complex_16_A_a.gif"
"","4996.530000120401","survey-likert","140","331353","0.0-34.0","SS1618366094486","similarity_question","","","","","","","","","","","","{""Q0"":0}","[0]","","images/stimuli/spore_stims/complex_11_A_b.gif","images/stimuli/spore_stims/complex_14_A_a.gif"
"","5892.300000414252","survey-likert","141","337251","0.0-35.0","SS1618366094486","similarity_question","","","","","","","","","","","","{""Q0"":4}","[0]","","images/stimuli/spore_stims/simple_04_A_a.gif","images/stimuli/spore_stims/simple_11_A_b.gif"
"","4151.575000025332","survey-likert","142","341409","0.0-36.0","SS1618366094486","similarity_question","","","","","","","","","","","","{""Q0"":5}","[0]","","images/stimuli/spore_stims/simple_05_A_a.gif","images/stimuli/spore_stims/simple_09_A_b.gif"
"","5617.9649997502565","survey-likert","143","347033","0.0-37.0","SS1618366094486","similarity_question","","","","","","","","","","","","{""Q0"":1}","[0]","","images/stimuli/spore_stims/complex_12_A_b.gif","images/stimuli/spore_stims/complex_05_A_a.gif"
"","4285.150000359863","survey-likert","144","351325","0.0-38.0","SS1618366094486","similarity_question","","","","","","","","","","","","{""Q0"":2}","[0]","","images/stimuli/spore_stims/simple_18_A_a.gif","images/stimuli/spore_stims/simple_02_A_b.gif"
"","8700.209999922663","survey-likert","145","360031","0.0-39.0","SS1618366094486","similarity_question","","","","","","","","","","","","{""Q0"":1}","[0]","","images/stimuli/spore_stims/complex_05_A_b.gif","images/stimuli/spore_stims/complex_12_A_a.gif"
"","8325.650000013411","survey-likert","146","368362","0.0-40.0","SS1618366094486","similarity_question","","","","","","","","","","","","{""Q0"":0}","[0]","","images/stimuli/spore_stims/complex_01_A_b.gif","images/stimuli/spore_stims/complex_06_A_a.gif"
"","5692.189999856055","survey-likert","147","374060","0.0-41.0","SS1618366094486","similarity_question","","","","","","","","","","","","{""Q0"":6}","[0]","","images/stimuli/spore_stims/simple_13_A_a.gif","images/stimuli/spore_stims/simple_17_A_b.gif"
"","6705.344999674708","survey-likert","148","380771","0.0-42.0","SS1618366094486","similarity_question","","","","","","","","","","","","{""Q0"":1}","[0]","","images/stimuli/spore_stims/complex_08_A_a.gif","images/stimuli/spore_stims/complex_14_A_b.gif"
"","4397.925000172108","survey-likert","149","385176","0.0-43.0","SS1618366094486","similarity_question","","","","","","","","","","","","{""Q0"":2}","[0]","","images/stimuli/spore_stims/simple_02_A_a.gif","images/stimuli/spore_stims/simple_19_A_b.gif"
"","5587.774999905378","survey-likert","150","390770","0.0-44.0","SS1618366094486","similarity_question","","","","","","","","","","","","{""Q0"":2}","[0]","","images/stimuli/spore_stims/simple_08_A_b.gif","images/stimuli/spore_stims/simple_07_A_a.gif"
"[{""page_index"":0,""viewing_time"":2942.9450002498925}]","2943.360000383109","instructions","151","393717","0.0-45.0","SS1618366094486","instructions","","","","","","","","","","","","","","","",""
"","4409.285000059754","survey-likert","152","398132","0.0-46.0","SS1618366094486","","","","","","","","","images/stimuli/spore_stims/simple_11_A_b.gif","","","","{""Q0"":1}","[0]","","",""
"","4782.889999914914","survey-likert","153","402923","0.0-47.0","SS1618366094486","","","","","","","","","images/stimuli/spore_stims/simple_17_A_b.gif","","","","{""Q0"":1}","[0]","","",""
"","4875.410000327975","survey-likert","154","407805","0.0-48.0","SS1618366094486","","","","","","","","","images/stimuli/spore_stims/complex_05_A_b.gif","","","","{""Q0"":4}","[0]","","",""
"","3553.4549998119473","survey-likert","155","411365","0.0-49.0","SS1618366094486","","","","","","","","","images/stimuli/spore_stims/simple_02_A_b.gif","","","","{""Q0"":1}","[0]","","",""
"","3023.984999861568","survey-likert","156","414395","0.0-50.0","SS1618366094486","","","","","","","","","images/stimuli/spore_stims/simple_02_A_a.gif","","","","{""Q0"":1}","[0]","","",""
"","5669.340000022203","survey-likert","157","420071","0.0-51.0","SS1618366094486","","","","","","","","","images/stimuli/spore_stims/complex_06_A_a.gif","","","","{""Q0"":5}","[0]","","",""
"","12524.439999833703","survey-likert","158","432601","0.0-52.0","SS1618366094486","","","","","","","","","images/stimuli/spore_stims/complex_14_A_b.gif","","","","{""Q0"":5}","[0]","","",""
"","4040.9349999390543","survey-likert","159","436648","0.0-53.0","SS1618366094486","","","","","","","","","images/stimuli/spore_stims/complex_16_A_a.gif","","","","{""Q0"":6}","[0]","","",""
"","3409.4549999572337","survey-likert","160","440065","0.0-54.0","SS1618366094486","","","","","","","","","images/stimuli/spore_stims/simple_05_A_a.gif","","","","{""Q0"":1}","[0]","","",""
"","6827.520000282675","survey-likert","161","446898","0.0-55.0","SS1618366094486","","","","","","","","","images/stimuli/spore_stims/complex_11_A_b.gif","","","","{""Q0"":6}","[0]","","",""
"","2932.850000448525","survey-likert","162","449837","0.0-56.0","SS1618366094486","","","","","","","","","images/stimuli/spore_stims/simple_08_A_b.gif","","","","{""Q0"":1}","[0]","","",""
"","5709.269999992102","survey-likert","163","455553","0.0-57.0","SS1618366094486","","","","","","","","","images/stimuli/spore_stims/complex_12_A_b.gif","","","","{""Q0"":5}","[0]","","",""
"[{""page_index"":0,""viewing_time"":2229.9350001849234}]","2230.3750002756715","instructions","164","457788","0.0-58.0","SS1618366094486","instructions","","","","","","","","","","","","","","","",""
"","2363.7299998663366","demog-age","165","460156","0.0-59.0","SS1618366094486","","","","","","","","","","","","","{""age"":""24""}","","","",""
"","3654.405000153929","demog-ethnic-US","166","463825","0.0-60.0","SS1618366094486","","","","","","","","","","","","","{""ethnicity"":[""White""]}","[0]","","",""
"","6102.625000290573","demog-gender-and-education","167","469935","0.0-61.0","SS1618366094486","","","","","","","","","","","","","{""gender"":""Female"",""education"":""Associate Degree/Technical certification""}","[0,1]","","",""
"","5126.614999957383","survey-text","168","475071","0.0-62.0","SS1618366094486","feedback","","","","","","","","","","","","{""Q0"":""No""}","","","",""
"[{""page_index"":0,""viewing_time"":1924.614999908954}]","1924.970000050962","instructions","169","477001","0.0-63.0","SS1618366094486","instructions","","","","","","","","","","","","","","","",""
