"view_history","rt","trial_type","trial_index","time_elapsed","internal_node_id","subject","stimulus_type","trial_stimulus","key_press","minimum_viewing_duration","trial_looking_time","block_deviant","block_background","exposure_type","stimulus","block_number","block_type","stimulus_displayed","responses","question_order","math_correct_answer","stimulus_left","stimulus_right"
"[{""page_index"":0,""viewing_time"":15613.079999999172}]","15613.86499999935","instructions","0","15615","0.0-0.0","SS1618435643560","","","","","","","","","","","","","","","","",""
"[{""page_index"":0,""viewing_time"":19754.949999998644},{""page_index"":1,""viewing_time"":17671.955000001617}]","37427.145000001474","instructions","1","55046","0.0-1.0","SS1618435643560","instructions","","","","","","","","","","","","","","","",""
"","7310.079999999289","sequential-stimulus-presentation-old","2","62859","0.0-2.0","SS1618435643560","","","40","500","7810.079999999289","null","null","self_paced","","","","","","","","",""
"","9273.734999998851","sequential-stimulus-presentation-old","3","72635","0.0-3.0","SS1618435643560","","","40","500","9773.734999998851","null","null","self_paced","","","","","","","","",""
"[{""page_index"":0,""viewing_time"":27154.05499999906}]","27154.27500000078","instructions","4","99790","0.0-4.0","SS1618435643560","instructions","","","","","","","","","","","","","","","",""
"","9586.005000001023","sequential-stimulus-presentation-old","5","114379","0.0-5.0","SS1618435643560","","","40","500","10086.005000001023","null","null","forced_long","","","","","","","","",""
"","4322.505000000092","sequential-stimulus-presentation-old","6","118755","0.0-6.0","SS1618435643560","","","40","50","4372.505000000092","null","null","forced_long","","","","","","","","",""
"[{""page_index"":0,""viewing_time"":8241.924999998446}]","8242.209999996703","instructions","7","126998","0.0-7.0","SS1618435643560","instructions","","","","","","","","","","","","","","","",""
"[{""page_index"":0,""viewing_time"":14534.769999998389},{""page_index"":1,""viewing_time"":26967.805000000226},{""page_index"":2,""viewing_time"":10343.980000001466},{""page_index"":3,""viewing_time"":3063.9400000000023},{""page_index"":4,""viewing_time"":2760.1549999999406}]","57670.884999999544","instructions","8","184669","0.0-8.0","SS1618435643560","instructions","","","","","","","","","","","","","","","",""
"","null","html-keyboard-response","9","185921","0.0-9.0-0.0","SS1618435643560","","","null","","","","","","<p><img src= images/blank.png width =""600"" height = ""600"" style=""position:fixed;top:50%; left:50%; transform: translate(-50%, -50%); border:5px solid black"">","","","","","","","",""
"","501.6799999975774","sequential-stimulus-presentation-old","10","191427","0.0-9.0-1.0","SS1618435643560","trial","","40","500","1001.6799999975774","images/stimuli/spore_stims/complex_18_A_a.gif","images/stimuli/spore_stims/complex_08_A_b.gif","forced_long","","0","complex_dissimilar","images/stimuli/spore_stims/complex_08_A_b.gif","","","","",""
"","null","html-keyboard-response","11","192561","0.0-9.0-0.1","SS1618435643560","","","null","","","","","","<p><img src= images/blank.png width =""600"" height = ""600"" style=""position:fixed;top:50%; left:50%; transform: translate(-50%, -50%); border:5px solid black"">","","","","","","","",""
"","18858.839999997144","sequential-stimulus-presentation-old","12","211923","0.0-9.0-1.1","SS1618435643560","trial","","40","500","19358.839999997144","images/stimuli/spore_stims/complex_18_A_a.gif","images/stimuli/spore_stims/complex_08_A_b.gif","forced_long","","0","complex_dissimilar","images/stimuli/spore_stims/complex_08_A_b.gif","","","","",""
"","null","html-keyboard-response","13","212742","0.0-9.0-0.2","SS1618435643560","","","null","","","","","","<p><img src= images/blank.png width =""600"" height = ""600"" style=""position:fixed;top:50%; left:50%; transform: translate(-50%, -50%); border:5px solid black"">","","","","","","","",""
"","13445.379999997385","sequential-stimulus-presentation-old","14","226691","0.0-9.0-1.2","SS1618435643560","trial","","40","500","13945.379999997385","images/stimuli/spore_stims/complex_18_A_a.gif","images/stimuli/spore_stims/complex_08_A_b.gif","forced_long","","0","complex_dissimilar","images/stimuli/spore_stims/complex_08_A_b.gif","","","","",""
"","null","html-keyboard-response","15","227913","0.0-9.0-0.3","SS1618435643560","","","null","","","","","","<p><img src= images/blank.png width =""600"" height = ""600"" style=""position:fixed;top:50%; left:50%; transform: translate(-50%, -50%); border:5px solid black"">","","","","","","","",""
"","26362.075000000914","sequential-stimulus-presentation-old","16","254780","0.0-9.0-1.3","SS1618435643560","trial","","40","500","26862.075000000914","images/stimuli/spore_stims/complex_18_A_a.gif","images/stimuli/spore_stims/complex_08_A_b.gif","forced_long","","0","complex_dissimilar","images/stimuli/spore_stims/complex_08_A_b.gif","","","","",""
"","null","html-keyboard-response","17","255943","0.0-9.0-0.4","SS1618435643560","","","null","","","","","","<p><img src= images/blank.png width =""600"" height = ""600"" style=""position:fixed;top:50%; left:50%; transform: translate(-50%, -50%); border:5px solid black"">","","","","","","","",""
"","15943.989999999758","sequential-stimulus-presentation-old","18","272389","0.0-9.0-1.4","SS1618435643560","trial","","40","500","16443.989999999758","images/stimuli/spore_stims/complex_18_A_a.gif","images/stimuli/spore_stims/complex_08_A_b.gif","forced_long","","0","complex_dissimilar","images/stimuli/spore_stims/complex_08_A_b.gif","","","","",""
"","null","html-keyboard-response","19","273333","0.0-9.0-0.5","SS1618435643560","","","null","","","","","","<p><img src= images/blank.png width =""600"" height = ""600"" style=""position:fixed;top:50%; left:50%; transform: translate(-50%, -50%); border:5px solid black"">","","","","","","","",""
"","11151.055000002088","sequential-stimulus-presentation-old","20","284987","0.0-9.0-1.5","SS1618435643560","trial","","40","500","11651.055000002088","images/stimuli/spore_stims/complex_18_A_a.gif","images/stimuli/spore_stims/complex_08_A_b.gif","forced_long","","0","complex_dissimilar","images/stimuli/spore_stims/complex_18_A_a.gif","","","","",""
"","5505.385000000359","survey-multi-choice","21","290495","0.0-10.0","SS1618435643560","math_question","","","","","","","","","","","","{""Q0"":""4""}","[0]","4","",""
"","null","html-keyboard-response","22","291507","0.0-11.0-0.0","SS1618435643560","","","null","","","","","","<p><img src= images/blank.png width =""600"" height = ""600"" style=""position:fixed;top:50%; left:50%; transform: translate(-50%, -50%); border:5px solid black"">","","","","","","","",""
"","930.6699999979464","sequential-stimulus-presentation-old","23","292491","0.0-11.0-1.0","SS1618435643560","trial","","40","500","1430.6699999979464","images/stimuli/spore_stims/simple_06_A_a.gif","images/stimuli/spore_stims/simple_11_A_b.gif","forced_short","","1","simple_dissimilar","images/stimuli/spore_stims/simple_11_A_b.gif","","","","",""
"","null","html-keyboard-response","24","293782","0.0-11.0-0.1","SS1618435643560","","","null","","","","","","<p><img src= images/blank.png width =""600"" height = ""600"" style=""position:fixed;top:50%; left:50%; transform: translate(-50%, -50%); border:5px solid black"">","","","","","","","",""
"","9398.659999998927","sequential-stimulus-presentation-old","25","303683","0.0-11.0-1.1","SS1618435643560","trial","","40","500","9898.659999998927","images/stimuli/spore_stims/simple_06_A_a.gif","images/stimuli/spore_stims/simple_11_A_b.gif","forced_short","","1","simple_dissimilar","images/stimuli/spore_stims/simple_11_A_b.gif","","","","",""
"","null","html-keyboard-response","26","304656","0.0-11.0-0.2","SS1618435643560","","","null","","","","","","<p><img src= images/blank.png width =""600"" height = ""600"" style=""position:fixed;top:50%; left:50%; transform: translate(-50%, -50%); border:5px solid black"">","","","","","","","",""
"","9691.06499999913","sequential-stimulus-presentation-old","27","314851","0.0-11.0-1.2","SS1618435643560","trial","","40","500","10191.06499999913","images/stimuli/spore_stims/simple_06_A_a.gif","images/stimuli/spore_stims/simple_11_A_b.gif","forced_short","","1","simple_dissimilar","images/stimuli/spore_stims/simple_11_A_b.gif","","","","",""
"","null","html-keyboard-response","28","315942","0.0-11.0-0.3","SS1618435643560","","","null","","","","","","<p><img src= images/blank.png width =""600"" height = ""600"" style=""position:fixed;top:50%; left:50%; transform: translate(-50%, -50%); border:5px solid black"">","","","","","","","",""
"","7732.534999999218","sequential-stimulus-presentation-old","29","324179","0.0-11.0-1.3","SS1618435643560","trial","","40","500","8232.534999999218","images/stimuli/spore_stims/simple_06_A_a.gif","images/stimuli/spore_stims/simple_11_A_b.gif","forced_short","","1","simple_dissimilar","images/stimuli/spore_stims/simple_11_A_b.gif","","","","",""
"","null","html-keyboard-response","30","325285","0.0-11.0-0.4","SS1618435643560","","","null","","","","","","<p><img src= images/blank.png width =""600"" height = ""600"" style=""position:fixed;top:50%; left:50%; transform: translate(-50%, -50%); border:5px solid black"">","","","","","","","",""
"","5343.514999996871","sequential-stimulus-presentation-old","31","331132","0.0-11.0-1.4","SS1618435643560","trial","","40","500","5843.514999996871","images/stimuli/spore_stims/simple_06_A_a.gif","images/stimuli/spore_stims/simple_11_A_b.gif","forced_short","","1","simple_dissimilar","images/stimuli/spore_stims/simple_11_A_b.gif","","","","",""
"","null","html-keyboard-response","32","332202","0.0-11.0-0.5","SS1618435643560","","","null","","","","","","<p><img src= images/blank.png width =""600"" height = ""600"" style=""position:fixed;top:50%; left:50%; transform: translate(-50%, -50%); border:5px solid black"">","","","","","","","",""
"","5410.144999997981","sequential-stimulus-presentation-old","33","338115","0.0-11.0-1.5","SS1618435643560","trial","","40","500","5910.144999997981","images/stimuli/spore_stims/simple_06_A_a.gif","images/stimuli/spore_stims/simple_11_A_b.gif","forced_short","","1","simple_dissimilar","images/stimuli/spore_stims/simple_11_A_b.gif","","","","",""
"","4881.890000000538","survey-multi-choice","34","342998","0.0-12.0","SS1618435643560","math_question","","","","","","","","","","","","{""Q0"":""5""}","[0]","5","",""
"","null","html-keyboard-response","35","344235","0.0-13.0-0.0","SS1618435643560","","","null","","","","","","<p><img src= images/blank.png width =""600"" height = ""600"" style=""position:fixed;top:50%; left:50%; transform: translate(-50%, -50%); border:5px solid black"">","","","","","","","",""
"","10240.689999998722","sequential-stimulus-presentation-old","36","354979","0.0-13.0-1.0","SS1618435643560","trial","","40","500","10740.689999998722","images/stimuli/spore_stims/simple_10_A_b.gif","images/stimuli/spore_stims/simple_09_A_a.gif","self_paced","","2","simple_dissimilar","images/stimuli/spore_stims/simple_09_A_a.gif","","","","",""
"","null","html-keyboard-response","37","355902","0.0-13.0-0.1","SS1618435643560","","","null","","","","","","<p><img src= images/blank.png width =""600"" height = ""600"" style=""position:fixed;top:50%; left:50%; transform: translate(-50%, -50%); border:5px solid black"">","","","","","","","",""
"","2820.724999997765","sequential-stimulus-presentation-old","38","359227","0.0-13.0-1.1","SS1618435643560","trial","","40","500","3320.724999997765","images/stimuli/spore_stims/simple_10_A_b.gif","images/stimuli/spore_stims/simple_09_A_a.gif","self_paced","","2","simple_dissimilar","images/stimuli/spore_stims/simple_09_A_a.gif","","","","",""
"","null","html-keyboard-response","39","360260","0.0-13.0-0.2","SS1618435643560","","","null","","","","","","<p><img src= images/blank.png width =""600"" height = ""600"" style=""position:fixed;top:50%; left:50%; transform: translate(-50%, -50%); border:5px solid black"">","","","","","","","",""
"","2183.710000001127","sequential-stimulus-presentation-old","40","362947","0.0-13.0-1.2","SS1618435643560","trial","","40","500","2683.710000001127","images/stimuli/spore_stims/simple_10_A_b.gif","images/stimuli/spore_stims/simple_09_A_a.gif","self_paced","","2","simple_dissimilar","images/stimuli/spore_stims/simple_09_A_a.gif","","","","",""
"","null","html-keyboard-response","41","364180","0.0-13.0-0.3","SS1618435643560","","","null","","","","","","<p><img src= images/blank.png width =""600"" height = ""600"" style=""position:fixed;top:50%; left:50%; transform: translate(-50%, -50%); border:5px solid black"">","","","","","","","",""
"","3319.144999997632","sequential-stimulus-presentation-old","42","368003","0.0-13.0-1.3","SS1618435643560","trial","","40","500","3819.144999997632","images/stimuli/spore_stims/simple_10_A_b.gif","images/stimuli/spore_stims/simple_09_A_a.gif","self_paced","","2","simple_dissimilar","images/stimuli/spore_stims/simple_09_A_a.gif","","","","",""
"","null","html-keyboard-response","43","368815","0.0-13.0-0.4","SS1618435643560","","","null","","","","","","<p><img src= images/blank.png width =""600"" height = ""600"" style=""position:fixed;top:50%; left:50%; transform: translate(-50%, -50%); border:5px solid black"">","","","","","","","",""
"","7029.429999998712","sequential-stimulus-presentation-old","44","376347","0.0-13.0-1.4","SS1618435643560","trial","","40","500","7529.429999998712","images/stimuli/spore_stims/simple_10_A_b.gif","images/stimuli/spore_stims/simple_09_A_a.gif","self_paced","","2","simple_dissimilar","images/stimuli/spore_stims/simple_09_A_a.gif","","","","",""
"","3881.5749999994878","survey-multi-choice","45","380230","0.0-14.0","SS1618435643560","math_question","","","","","","","","","","","","{""Q0"":""9""}","[0]","9","",""
"","null","html-keyboard-response","46","381460","0.0-15.0-0.0","SS1618435643560","","","null","","","","","","<p><img src= images/blank.png width =""600"" height = ""600"" style=""position:fixed;top:50%; left:50%; transform: translate(-50%, -50%); border:5px solid black"">","","","","","","","",""
"","436.16499999910593","sequential-stimulus-presentation-old","47","386899","0.0-15.0-1.0","SS1618435643560","trial","","40","500","936.1649999991059","images/stimuli/spore_stims/simple_02_A_a.gif","images/stimuli/spore_stims/simple_20_A_b.gif","forced_long","","3","simple_dissimilar","images/stimuli/spore_stims/simple_20_A_b.gif","","","","",""
"","null","html-keyboard-response","48","387797","0.0-15.0-0.1","SS1618435643560","","","null","","","","","","<p><img src= images/blank.png width =""600"" height = ""600"" style=""position:fixed;top:50%; left:50%; transform: translate(-50%, -50%); border:5px solid black"">","","","","","","","",""
"","7749.909999998636","sequential-stimulus-presentation-old","49","396051","0.0-15.0-1.1","SS1618435643560","trial","","40","500","8249.909999998636","images/stimuli/spore_stims/simple_02_A_a.gif","images/stimuli/spore_stims/simple_20_A_b.gif","forced_long","","3","simple_dissimilar","images/stimuli/spore_stims/simple_20_A_b.gif","","","","",""
"","null","html-keyboard-response","50","396939","0.0-15.0-0.2","SS1618435643560","","","null","","","","","","<p><img src= images/blank.png width =""600"" height = ""600"" style=""position:fixed;top:50%; left:50%; transform: translate(-50%, -50%); border:5px solid black"">","","","","","","","",""
"","1232.9499999977415","sequential-stimulus-presentation-old","51","398675","0.0-15.0-1.2","SS1618435643560","trial","","40","500","1732.9499999977415","images/stimuli/spore_stims/simple_02_A_a.gif","images/stimuli/spore_stims/simple_20_A_b.gif","forced_long","","3","simple_dissimilar","images/stimuli/spore_stims/simple_20_A_b.gif","","","","",""
"","null","html-keyboard-response","52","399822","0.0-15.0-0.3","SS1618435643560","","","null","","","","","","<p><img src= images/blank.png width =""600"" height = ""600"" style=""position:fixed;top:50%; left:50%; transform: translate(-50%, -50%); border:5px solid black"">","","","","","","","",""
"","5317.489999997662","sequential-stimulus-presentation-old","53","405643","0.0-15.0-1.3","SS1618435643560","trial","","40","500","5817.489999997662","images/stimuli/spore_stims/simple_02_A_a.gif","images/stimuli/spore_stims/simple_20_A_b.gif","forced_long","","3","simple_dissimilar","images/stimuli/spore_stims/simple_20_A_b.gif","","","","",""
"","null","html-keyboard-response","54","406706","0.0-15.0-0.4","SS1618435643560","","","null","","","","","","<p><img src= images/blank.png width =""600"" height = ""600"" style=""position:fixed;top:50%; left:50%; transform: translate(-50%, -50%); border:5px solid black"">","","","","","","","",""
"","2953.5350000006147","sequential-stimulus-presentation-old","55","410163","0.0-15.0-1.4","SS1618435643560","trial","","40","500","3453.5350000006147","images/stimuli/spore_stims/simple_02_A_a.gif","images/stimuli/spore_stims/simple_20_A_b.gif","forced_long","","3","simple_dissimilar","images/stimuli/spore_stims/simple_02_A_a.gif","","","","",""
"","null","html-keyboard-response","56","411099","0.0-15.0-0.5","SS1618435643560","","","null","","","","","","<p><img src= images/blank.png width =""600"" height = ""600"" style=""position:fixed;top:50%; left:50%; transform: translate(-50%, -50%); border:5px solid black"">","","","","","","","",""
"","4575.714999999036","sequential-stimulus-presentation-old","57","416179","0.0-15.0-1.5","SS1618435643560","trial","","40","500","5075.714999999036","images/stimuli/spore_stims/simple_02_A_a.gif","images/stimuli/spore_stims/simple_20_A_b.gif","forced_long","","3","simple_dissimilar","images/stimuli/spore_stims/simple_02_A_a.gif","","","","",""
"","13809.545000000042","survey-multi-choice","58","429990","0.0-16.0","SS1618435643560","math_question","","","","","","","","","","","","{""Q0"":""14""}","[0]","14","",""
"","null","html-keyboard-response","59","430978","0.0-17.0-0.0","SS1618435643560","","","null","","","","","","<p><img src= images/blank.png width =""600"" height = ""600"" style=""position:fixed;top:50%; left:50%; transform: translate(-50%, -50%); border:5px solid black"">","","","","","","","",""
"","3593.025000001944","sequential-stimulus-presentation-old","60","435075","0.0-17.0-1.0","SS1618435643560","trial","","40","500","4093.025000001944","images/stimuli/spore_stims/simple_01_A_a.gif","images/stimuli/spore_stims/simple_04_A_b.gif","self_paced","","4","simple_dissimilar","images/stimuli/spore_stims/simple_04_A_b.gif","","","","",""
"","null","html-keyboard-response","61","436202","0.0-17.0-0.1","SS1618435643560","","","null","","","","","","<p><img src= images/blank.png width =""600"" height = ""600"" style=""position:fixed;top:50%; left:50%; transform: translate(-50%, -50%); border:5px solid black"">","","","","","","","",""
"","5392.809999997553","sequential-stimulus-presentation-old","62","442099","0.0-17.0-1.1","SS1618435643560","trial","","40","500","5892.809999997553","images/stimuli/spore_stims/simple_01_A_a.gif","images/stimuli/spore_stims/simple_04_A_b.gif","self_paced","","4","simple_dissimilar","images/stimuli/spore_stims/simple_04_A_b.gif","","","","",""
"","null","html-keyboard-response","63","442911","0.0-17.0-0.2","SS1618435643560","","","null","","","","","","<p><img src= images/blank.png width =""600"" height = ""600"" style=""position:fixed;top:50%; left:50%; transform: translate(-50%, -50%); border:5px solid black"">","","","","","","","",""
"","3475.9649999978137","sequential-stimulus-presentation-old","64","446891","0.0-17.0-1.2","SS1618435643560","trial","","40","500","3975.9649999978137","images/stimuli/spore_stims/simple_01_A_a.gif","images/stimuli/spore_stims/simple_04_A_b.gif","self_paced","","4","simple_dissimilar","images/stimuli/spore_stims/simple_04_A_b.gif","","","","",""
"","null","html-keyboard-response","65","447878","0.0-17.0-0.3","SS1618435643560","","","null","","","","","","<p><img src= images/blank.png width =""600"" height = ""600"" style=""position:fixed;top:50%; left:50%; transform: translate(-50%, -50%); border:5px solid black"">","","","","","","","",""
"","2317.1849999998813","sequential-stimulus-presentation-old","66","450698","0.0-17.0-1.3","SS1618435643560","trial","","40","500","2817.1849999998813","images/stimuli/spore_stims/simple_01_A_a.gif","images/stimuli/spore_stims/simple_04_A_b.gif","self_paced","","4","simple_dissimilar","images/stimuli/spore_stims/simple_01_A_a.gif","","","","",""
"","null","html-keyboard-response","67","451906","0.0-17.0-0.4","SS1618435643560","","","null","","","","","","<p><img src= images/blank.png width =""600"" height = ""600"" style=""position:fixed;top:50%; left:50%; transform: translate(-50%, -50%); border:5px solid black"">","","","","","","","",""
"","4890.000000003027","sequential-stimulus-presentation-old","68","457299","0.0-17.0-1.4","SS1618435643560","trial","","40","500","5390.000000003027","images/stimuli/spore_stims/simple_01_A_a.gif","images/stimuli/spore_stims/simple_04_A_b.gif","self_paced","","4","simple_dissimilar","images/stimuli/spore_stims/simple_04_A_b.gif","","","","",""
"","7393.824999999197","survey-multi-choice","69","464694","0.0-18.0","SS1618435643560","math_question","","","","","","","","","","","","{""Q0"":""11""}","[0]","11","",""
"","null","html-keyboard-response","70","465500","0.0-19.0-0.0","SS1618435643560","","","null","","","","","","<p><img src= images/blank.png width =""600"" height = ""600"" style=""position:fixed;top:50%; left:50%; transform: translate(-50%, -50%); border:5px solid black"">","","","","","","","",""
"","1160.0450000005076","sequential-stimulus-presentation-old","71","466714","0.0-19.0-1.0","SS1618435643560","trial","","40","500","1660.0450000005076","images/stimuli/spore_stims/simple_17_A_b.gif","images/stimuli/spore_stims/simple_12_A_a.gif","forced_short","","5","simple_dissimilar","images/stimuli/spore_stims/simple_12_A_a.gif","","","","",""
"","null","html-keyboard-response","72","467681","0.0-19.0-0.1","SS1618435643560","","","null","","","","","","<p><img src= images/blank.png width =""600"" height = ""600"" style=""position:fixed;top:50%; left:50%; transform: translate(-50%, -50%); border:5px solid black"">","","","","","","","",""
"","6298.860000002547","sequential-stimulus-presentation-old","73","474483","0.0-19.0-1.1","SS1618435643560","trial","","40","500","6798.860000002547","images/stimuli/spore_stims/simple_17_A_b.gif","images/stimuli/spore_stims/simple_12_A_a.gif","forced_short","","5","simple_dissimilar","images/stimuli/spore_stims/simple_17_A_b.gif","","","","",""
"","null","html-keyboard-response","74","475397","0.0-19.0-0.2","SS1618435643560","","","null","","","","","","<p><img src= images/blank.png width =""600"" height = ""600"" style=""position:fixed;top:50%; left:50%; transform: translate(-50%, -50%); border:5px solid black"">","","","","","","","",""
"","453.76500000205124","sequential-stimulus-presentation-old","75","476355","0.0-19.0-1.2","SS1618435643560","trial","","40","500","953.7650000020512","images/stimuli/spore_stims/simple_17_A_b.gif","images/stimuli/spore_stims/simple_12_A_a.gif","forced_short","","5","simple_dissimilar","images/stimuli/spore_stims/simple_12_A_a.gif","","","","",""
"","null","html-keyboard-response","76","477653","0.0-19.0-0.3","SS1618435643560","","","null","","","","","","<p><img src= images/blank.png width =""600"" height = ""600"" style=""position:fixed;top:50%; left:50%; transform: translate(-50%, -50%); border:5px solid black"">","","","","","","","",""
"","5791.304999998887","sequential-stimulus-presentation-old","77","483947","0.0-19.0-1.3","SS1618435643560","trial","","40","500","6291.304999998887","images/stimuli/spore_stims/simple_17_A_b.gif","images/stimuli/spore_stims/simple_12_A_a.gif","forced_short","","5","simple_dissimilar","images/stimuli/spore_stims/simple_12_A_a.gif","","","","",""
"","null","html-keyboard-response","78","485052","0.0-19.0-0.4","SS1618435643560","","","null","","","","","","<p><img src= images/blank.png width =""600"" height = ""600"" style=""position:fixed;top:50%; left:50%; transform: translate(-50%, -50%); border:5px solid black"">","","","","","","","",""
"","3069.61500000034","sequential-stimulus-presentation-old","79","488627","0.0-19.0-1.4","SS1618435643560","trial","","40","500","3569.61500000034","images/stimuli/spore_stims/simple_17_A_b.gif","images/stimuli/spore_stims/simple_12_A_a.gif","forced_short","","5","simple_dissimilar","images/stimuli/spore_stims/simple_12_A_a.gif","","","","",""
"","null","html-keyboard-response","80","489738","0.0-19.0-0.5","SS1618435643560","","","null","","","","","","<p><img src= images/blank.png width =""600"" height = ""600"" style=""position:fixed;top:50%; left:50%; transform: translate(-50%, -50%); border:5px solid black"">","","","","","","","",""
"","2040.16000000044","sequential-stimulus-presentation-old","81","492282","0.0-19.0-1.5","SS1618435643560","trial","","40","500","2540.16000000044","images/stimuli/spore_stims/simple_17_A_b.gif","images/stimuli/spore_stims/simple_12_A_a.gif","forced_short","","5","simple_dissimilar","images/stimuli/spore_stims/simple_12_A_a.gif","","","","",""
"","6345.515000000829","survey-multi-choice","82","498629","0.0-20.0","SS1618435643560","math_question","","","","","","","","","","","","{""Q0"":""9""}","[0]","9","",""
"","null","html-keyboard-response","83","499758","0.0-21.0-0.0","SS1618435643560","","","null","","","","","","<p><img src= images/blank.png width =""600"" height = ""600"" style=""position:fixed;top:50%; left:50%; transform: translate(-50%, -50%); border:5px solid black"">","","","","","","","",""
"","360.3000000002794","sequential-stimulus-presentation-old","84","505122","0.0-21.0-1.0","SS1618435643560","trial","","40","500","860.3000000002794","images/stimuli/spore_stims/simple_08_A_a.gif","images/stimuli/spore_stims/simple_18_A_b.gif","forced_long","","6","simple_dissimilar","images/stimuli/spore_stims/simple_18_A_b.gif","","","","",""
"","null","html-keyboard-response","85","506149","0.0-21.0-0.1","SS1618435643560","","","null","","","","","","<p><img src= images/blank.png width =""600"" height = ""600"" style=""position:fixed;top:50%; left:50%; transform: translate(-50%, -50%); border:5px solid black"">","","","","","","","",""
"","2838.850000000093","sequential-stimulus-presentation-old","86","509490","0.0-21.0-1.1","SS1618435643560","trial","","40","500","3338.850000000093","images/stimuli/spore_stims/simple_08_A_a.gif","images/stimuli/spore_stims/simple_18_A_b.gif","forced_long","","6","simple_dissimilar","images/stimuli/spore_stims/simple_18_A_b.gif","","","","",""
"","null","html-keyboard-response","87","510592","0.0-21.0-0.2","SS1618435643560","","","null","","","","","","<p><img src= images/blank.png width =""600"" height = ""600"" style=""position:fixed;top:50%; left:50%; transform: translate(-50%, -50%); border:5px solid black"">","","","","","","","",""
"","3264.454999996815","sequential-stimulus-presentation-old","88","514362","0.0-21.0-1.2","SS1618435643560","trial","","40","500","3764.454999996815","images/stimuli/spore_stims/simple_08_A_a.gif","images/stimuli/spore_stims/simple_18_A_b.gif","forced_long","","6","simple_dissimilar","images/stimuli/spore_stims/simple_18_A_b.gif","","","","",""
"","null","html-keyboard-response","89","515644","0.0-21.0-0.3","SS1618435643560","","","null","","","","","","<p><img src= images/blank.png width =""600"" height = ""600"" style=""position:fixed;top:50%; left:50%; transform: translate(-50%, -50%); border:5px solid black"">","","","","","","","",""
"","1277.9949999967357","sequential-stimulus-presentation-old","90","517427","0.0-21.0-1.3","SS1618435643560","trial","","40","500","1777.9949999967357","images/stimuli/spore_stims/simple_08_A_a.gif","images/stimuli/spore_stims/simple_18_A_b.gif","forced_long","","6","simple_dissimilar","images/stimuli/spore_stims/simple_18_A_b.gif","","","","",""
"","4704.925000001793","survey-multi-choice","91","522133","0.0-22.0","SS1618435643560","math_question","","","","","","","","","","","","{""Q0"":""16""}","[0]","16","",""
"","null","html-keyboard-response","92","523320","0.0-23.0-0.0","SS1618435643560","","","null","","","","","","<p><img src= images/blank.png width =""600"" height = ""600"" style=""position:fixed;top:50%; left:50%; transform: translate(-50%, -50%); border:5px solid black"">","","","","","","","",""
"","748.6600000011967","sequential-stimulus-presentation-old","93","524122","0.0-23.0-1.0","SS1618435643560","trial","","40","500","1248.6600000011967","images/stimuli/spore_stims/complex_08_A_a.gif","images/stimuli/spore_stims/complex_11_A_b.gif","forced_short","","7","complex_dissimilar","images/stimuli/spore_stims/complex_11_A_b.gif","","","","",""
"","null","html-keyboard-response","94","525288","0.0-23.0-0.1","SS1618435643560","","","null","","","","","","<p><img src= images/blank.png width =""600"" height = ""600"" style=""position:fixed;top:50%; left:50%; transform: translate(-50%, -50%); border:5px solid black"">","","","","","","","",""
"","2131.249999998603","sequential-stimulus-presentation-old","95","527922","0.0-23.0-1.1","SS1618435643560","trial","","40","500","2631.249999998603","images/stimuli/spore_stims/complex_08_A_a.gif","images/stimuli/spore_stims/complex_11_A_b.gif","forced_short","","7","complex_dissimilar","images/stimuli/spore_stims/complex_11_A_b.gif","","","","",""
"","null","html-keyboard-response","96","529068","0.0-23.0-0.2","SS1618435643560","","","null","","","","","","<p><img src= images/blank.png width =""600"" height = ""600"" style=""position:fixed;top:50%; left:50%; transform: translate(-50%, -50%); border:5px solid black"">","","","","","","","",""
"","3852.245000001858","sequential-stimulus-presentation-old","97","533426","0.0-23.0-1.2","SS1618435643560","trial","","40","500","4352.245000001858","images/stimuli/spore_stims/complex_08_A_a.gif","images/stimuli/spore_stims/complex_11_A_b.gif","forced_short","","7","complex_dissimilar","images/stimuli/spore_stims/complex_08_A_a.gif","","","","",""
"","null","html-keyboard-response","98","534526","0.0-23.0-0.3","SS1618435643560","","","null","","","","","","<p><img src= images/blank.png width =""600"" height = ""600"" style=""position:fixed;top:50%; left:50%; transform: translate(-50%, -50%); border:5px solid black"">","","","","","","","",""
"","3108.66999999783","sequential-stimulus-presentation-old","99","538138","0.0-23.0-1.3","SS1618435643560","trial","","40","500","3608.66999999783","images/stimuli/spore_stims/complex_08_A_a.gif","images/stimuli/spore_stims/complex_11_A_b.gif","forced_short","","7","complex_dissimilar","images/stimuli/spore_stims/complex_08_A_a.gif","","","","",""
"","null","html-keyboard-response","100","539087","0.0-23.0-0.4","SS1618435643560","","","null","","","","","","<p><img src= images/blank.png width =""600"" height = ""600"" style=""position:fixed;top:50%; left:50%; transform: translate(-50%, -50%); border:5px solid black"">","","","","","","","",""
"","1051.6800000005169","sequential-stimulus-presentation-old","101","540642","0.0-23.0-1.4","SS1618435643560","trial","","40","500","1551.6800000005169","images/stimuli/spore_stims/complex_08_A_a.gif","images/stimuli/spore_stims/complex_11_A_b.gif","forced_short","","7","complex_dissimilar","images/stimuli/spore_stims/complex_11_A_b.gif","","","","",""
"","4016.910000002128","survey-multi-choice","102","544661","0.0-24.0","SS1618435643560","math_question","","","","","","","","","","","","{""Q0"":""8""}","[0]","8","",""
"","null","html-keyboard-response","103","545533","0.0-25.0-0.0","SS1618435643560","","","null","","","","","","<p><img src= images/blank.png width =""600"" height = ""600"" style=""position:fixed;top:50%; left:50%; transform: translate(-50%, -50%); border:5px solid black"">","","","","","","","",""
"","7279.644999998622","sequential-stimulus-presentation-old","104","552866","0.0-25.0-1.0","SS1618435643560","trial","","40","500","7779.644999998622","images/stimuli/spore_stims/complex_14_A_b.gif","images/stimuli/spore_stims/complex_13_A_a.gif","forced_short","","8","complex_dissimilar","images/stimuli/spore_stims/complex_13_A_a.gif","","","","",""
"","null","html-keyboard-response","105","553690","0.0-25.0-0.1","SS1618435643560","","","null","","","","","","<p><img src= images/blank.png width =""600"" height = ""600"" style=""position:fixed;top:50%; left:50%; transform: translate(-50%, -50%); border:5px solid black"">","","","","","","","",""
"","1305.0849999999627","sequential-stimulus-presentation-old","106","555498","0.0-25.0-1.1","SS1618435643560","trial","","40","500","1805.0849999999627","images/stimuli/spore_stims/complex_14_A_b.gif","images/stimuli/spore_stims/complex_13_A_a.gif","forced_short","","8","complex_dissimilar","images/stimuli/spore_stims/complex_13_A_a.gif","","","","",""
"","null","html-keyboard-response","107","556640","0.0-25.0-0.2","SS1618435643560","","","null","","","","","","<p><img src= images/blank.png width =""600"" height = ""600"" style=""position:fixed;top:50%; left:50%; transform: translate(-50%, -50%); border:5px solid black"">","","","","","","","",""
"","1586.2300000007963","sequential-stimulus-presentation-old","108","558731","0.0-25.0-1.2","SS1618435643560","trial","","40","500","2086.2300000007963","images/stimuli/spore_stims/complex_14_A_b.gif","images/stimuli/spore_stims/complex_13_A_a.gif","forced_short","","8","complex_dissimilar","images/stimuli/spore_stims/complex_13_A_a.gif","","","","",""
"","null","html-keyboard-response","109","559929","0.0-25.0-0.3","SS1618435643560","","","null","","","","","","<p><img src= images/blank.png width =""600"" height = ""600"" style=""position:fixed;top:50%; left:50%; transform: translate(-50%, -50%); border:5px solid black"">","","","","","","","",""
"","531.4650000000838","sequential-stimulus-presentation-old","110","560963","0.0-25.0-1.3","SS1618435643560","trial","","40","500","1031.4650000000838","images/stimuli/spore_stims/complex_14_A_b.gif","images/stimuli/spore_stims/complex_13_A_a.gif","forced_short","","8","complex_dissimilar","images/stimuli/spore_stims/complex_13_A_a.gif","","","","",""
"","null","html-keyboard-response","111","562230","0.0-25.0-0.4","SS1618435643560","","","null","","","","","","<p><img src= images/blank.png width =""600"" height = ""600"" style=""position:fixed;top:50%; left:50%; transform: translate(-50%, -50%); border:5px solid black"">","","","","","","","",""
"","853.5249999986263","sequential-stimulus-presentation-old","112","563587","0.0-25.0-1.4","SS1618435643560","trial","","40","500","1353.5249999986263","images/stimuli/spore_stims/complex_14_A_b.gif","images/stimuli/spore_stims/complex_13_A_a.gif","forced_short","","8","complex_dissimilar","images/stimuli/spore_stims/complex_14_A_b.gif","","","","",""
"","6840.7699999988545","survey-multi-choice","113","570430","0.0-26.0","SS1618435643560","math_question","","","","","","","","","","","","{""Q0"":""13""}","[0]","13","",""
"","null","html-keyboard-response","114","571343","0.0-27.0-0.0","SS1618435643560","","","null","","","","","","<p><img src= images/blank.png width =""600"" height = ""600"" style=""position:fixed;top:50%; left:50%; transform: translate(-50%, -50%); border:5px solid black"">","","","","","","","",""
"","3475.779999997001","sequential-stimulus-presentation-old","115","575322","0.0-27.0-1.0","SS1618435643560","trial","","40","500","3975.779999997001","images/stimuli/spore_stims/complex_16_A_b.gif","images/stimuli/spore_stims/complex_19_A_a.gif","self_paced","","9","complex_dissimilar","images/stimuli/spore_stims/complex_19_A_a.gif","","","","",""
"","null","html-keyboard-response","116","576332","0.0-27.0-0.1","SS1618435643560","","","null","","","","","","<p><img src= images/blank.png width =""600"" height = ""600"" style=""position:fixed;top:50%; left:50%; transform: translate(-50%, -50%); border:5px solid black"">","","","","","","","",""
"","3886.684999997611","sequential-stimulus-presentation-old","117","580723","0.0-27.0-1.1","SS1618435643560","trial","","40","500","4386.684999997611","images/stimuli/spore_stims/complex_16_A_b.gif","images/stimuli/spore_stims/complex_19_A_a.gif","self_paced","","9","complex_dissimilar","images/stimuli/spore_stims/complex_19_A_a.gif","","","","",""
"","null","html-keyboard-response","118","581742","0.0-27.0-0.2","SS1618435643560","","","null","","","","","","<p><img src= images/blank.png width =""600"" height = ""600"" style=""position:fixed;top:50%; left:50%; transform: translate(-50%, -50%); border:5px solid black"">","","","","","","","",""
"","1884.415000000503","sequential-stimulus-presentation-old","119","584130","0.0-27.0-1.2","SS1618435643560","trial","","40","500","2384.415000000503","images/stimuli/spore_stims/complex_16_A_b.gif","images/stimuli/spore_stims/complex_19_A_a.gif","self_paced","","9","complex_dissimilar","images/stimuli/spore_stims/complex_19_A_a.gif","","","","",""
"","null","html-keyboard-response","120","585115","0.0-27.0-0.3","SS1618435643560","","","null","","","","","","<p><img src= images/blank.png width =""600"" height = ""600"" style=""position:fixed;top:50%; left:50%; transform: translate(-50%, -50%); border:5px solid black"">","","","","","","","",""
"","1351.4899999973131","sequential-stimulus-presentation-old","121","586971","0.0-27.0-1.3","SS1618435643560","trial","","40","500","1851.4899999973131","images/stimuli/spore_stims/complex_16_A_b.gif","images/stimuli/spore_stims/complex_19_A_a.gif","self_paced","","9","complex_dissimilar","images/stimuli/spore_stims/complex_19_A_a.gif","","","","",""
"","null","html-keyboard-response","122","587997","0.0-27.0-0.4","SS1618435643560","","","null","","","","","","<p><img src= images/blank.png width =""600"" height = ""600"" style=""position:fixed;top:50%; left:50%; transform: translate(-50%, -50%); border:5px solid black"">","","","","","","","",""
"","485.97499999951106","sequential-stimulus-presentation-old","123","588986","0.0-27.0-1.4","SS1618435643560","trial","","40","500","985.974999999511","images/stimuli/spore_stims/complex_16_A_b.gif","images/stimuli/spore_stims/complex_19_A_a.gif","self_paced","","9","complex_dissimilar","images/stimuli/spore_stims/complex_19_A_a.gif","","","","",""
"","null","html-keyboard-response","124","589860","0.0-27.0-0.5","SS1618435643560","","","null","","","","","","<p><img src= images/blank.png width =""600"" height = ""600"" style=""position:fixed;top:50%; left:50%; transform: translate(-50%, -50%); border:5px solid black"">","","","","","","","",""
"","462.6449999996694","sequential-stimulus-presentation-old","125","590827","0.0-27.0-1.5","SS1618435643560","trial","","40","500","962.6449999996694","images/stimuli/spore_stims/complex_16_A_b.gif","images/stimuli/spore_stims/complex_19_A_a.gif","self_paced","","9","complex_dissimilar","images/stimuli/spore_stims/complex_19_A_a.gif","","","","",""
"","7544.910000000498","survey-multi-choice","126","598374","0.0-28.0","SS1618435643560","math_question","","","","","","","","","","","","{""Q0"":""12""}","[0]","12","",""
"","null","html-keyboard-response","127","599313","0.0-29.0-0.0","SS1618435643560","","","null","","","","","","<p><img src= images/blank.png width =""600"" height = ""600"" style=""position:fixed;top:50%; left:50%; transform: translate(-50%, -50%); border:5px solid black"">","","","","","","","",""
"","596.9750000004424","sequential-stimulus-presentation-old","128","604914","0.0-29.0-1.0","SS1618435643560","trial","","40","500","1096.9750000004424","images/stimuli/spore_stims/complex_07_A_b.gif","images/stimuli/spore_stims/complex_17_A_a.gif","forced_long","","10","complex_dissimilar","images/stimuli/spore_stims/complex_17_A_a.gif","","","","",""
"","null","html-keyboard-response","129","605809","0.0-29.0-0.1","SS1618435643560","","","null","","","","","","<p><img src= images/blank.png width =""600"" height = ""600"" style=""position:fixed;top:50%; left:50%; transform: translate(-50%, -50%); border:5px solid black"">","","","","","","","",""
"","3273.494999997667","sequential-stimulus-presentation-old","130","609587","0.0-29.0-1.1","SS1618435643560","trial","","40","500","3773.494999997667","images/stimuli/spore_stims/complex_07_A_b.gif","images/stimuli/spore_stims/complex_17_A_a.gif","forced_long","","10","complex_dissimilar","images/stimuli/spore_stims/complex_17_A_a.gif","","","","",""
"","null","html-keyboard-response","131","610643","0.0-29.0-0.2","SS1618435643560","","","null","","","","","","<p><img src= images/blank.png width =""600"" height = ""600"" style=""position:fixed;top:50%; left:50%; transform: translate(-50%, -50%); border:5px solid black"">","","","","","","","",""
"","416.7749999978114","sequential-stimulus-presentation-old","132","611562","0.0-29.0-1.2","SS1618435643560","trial","","40","500","916.7749999978114","images/stimuli/spore_stims/complex_07_A_b.gif","images/stimuli/spore_stims/complex_17_A_a.gif","forced_long","","10","complex_dissimilar","images/stimuli/spore_stims/complex_17_A_a.gif","","","","",""
"","null","html-keyboard-response","133","612839","0.0-29.0-0.3","SS1618435643560","","","null","","","","","","<p><img src= images/blank.png width =""600"" height = ""600"" style=""position:fixed;top:50%; left:50%; transform: translate(-50%, -50%); border:5px solid black"">","","","","","","","",""
"","179.759999999078","sequential-stimulus-presentation-old","134","613523","0.0-29.0-1.3","SS1618435643560","trial","","40","500","679.759999999078","images/stimuli/spore_stims/complex_07_A_b.gif","images/stimuli/spore_stims/complex_17_A_a.gif","forced_long","","10","complex_dissimilar","images/stimuli/spore_stims/complex_17_A_a.gif","","","","",""
"","null","html-keyboard-response","135","614687","0.0-29.0-0.4","SS1618435643560","","","null","","","","","","<p><img src= images/blank.png width =""600"" height = ""600"" style=""position:fixed;top:50%; left:50%; transform: translate(-50%, -50%); border:5px solid black"">","","","","","","","",""
"","323.97000000136904","sequential-stimulus-presentation-old","136","615515","0.0-29.0-1.4","SS1618435643560","trial","","40","500","823.970000001369","images/stimuli/spore_stims/complex_07_A_b.gif","images/stimuli/spore_stims/complex_17_A_a.gif","forced_long","","10","complex_dissimilar","images/stimuli/spore_stims/complex_17_A_a.gif","","","","",""
"","5657.38000000047","survey-multi-choice","137","621173","0.0-30.0","SS1618435643560","math_question","","","","","","","","","","","","{""Q0"":""14""}","[0]","14","",""
"","null","html-keyboard-response","138","622141","0.0-31.0-0.0","SS1618435643560","","","null","","","","","","<p><img src= images/blank.png width =""600"" height = ""600"" style=""position:fixed;top:50%; left:50%; transform: translate(-50%, -50%); border:5px solid black"">","","","","","","","",""
"","6365.289999997942","sequential-stimulus-presentation-old","139","629010","0.0-31.0-1.0","SS1618435643560","trial","","40","500","6865.289999997942","images/stimuli/spore_stims/complex_13_A_b.gif","images/stimuli/spore_stims/complex_11_A_a.gif","self_paced","","11","complex_dissimilar","images/stimuli/spore_stims/complex_11_A_a.gif","","","","",""
"","null","html-keyboard-response","140","630024","0.0-31.0-0.1","SS1618435643560","","","null","","","","","","<p><img src= images/blank.png width =""600"" height = ""600"" style=""position:fixed;top:50%; left:50%; transform: translate(-50%, -50%); border:5px solid black"">","","","","","","","",""
"","1793.0249999989755","sequential-stimulus-presentation-old","141","632322","0.0-31.0-1.1","SS1618435643560","trial","","40","500","2293.0249999989755","images/stimuli/spore_stims/complex_13_A_b.gif","images/stimuli/spore_stims/complex_11_A_a.gif","self_paced","","11","complex_dissimilar","images/stimuli/spore_stims/complex_13_A_b.gif","","","","",""
"","null","html-keyboard-response","142","633553","0.0-31.0-0.2","SS1618435643560","","","null","","","","","","<p><img src= images/blank.png width =""600"" height = ""600"" style=""position:fixed;top:50%; left:50%; transform: translate(-50%, -50%); border:5px solid black"">","","","","","","","",""
"","1865.3949999971082","sequential-stimulus-presentation-old","143","635922","0.0-31.0-1.2","SS1618435643560","trial","","40","500","2365.3949999971082","images/stimuli/spore_stims/complex_13_A_b.gif","images/stimuli/spore_stims/complex_11_A_a.gif","self_paced","","11","complex_dissimilar","images/stimuli/spore_stims/complex_11_A_a.gif","","","","",""
"","null","html-keyboard-response","144","636906","0.0-31.0-0.3","SS1618435643560","","","null","","","","","","<p><img src= images/blank.png width =""600"" height = ""600"" style=""position:fixed;top:50%; left:50%; transform: translate(-50%, -50%); border:5px solid black"">","","","","","","","",""
"","2017.055000000284","sequential-stimulus-presentation-old","145","639426","0.0-31.0-1.3","SS1618435643560","trial","","40","500","2517.055000000284","images/stimuli/spore_stims/complex_13_A_b.gif","images/stimuli/spore_stims/complex_11_A_a.gif","self_paced","","11","complex_dissimilar","images/stimuli/spore_stims/complex_13_A_b.gif","","","","",""
"[{""page_index"":0,""viewing_time"":6664.6900000014575}]","6664.925000000978","instructions","146","646093","0.0-32.0","SS1618435643560","instructions","","","","","","","","","","","","","","","",""
"","19301.555000001797","survey-likert","147","665398","0.0-33.0","SS1618435643560","similarity_question","","","","","","","","","","","","{""Q0"":0}","[0]","","images/stimuli/spore_stims/complex_11_A_a.gif","images/stimuli/spore_stims/complex_13_A_b.gif"
"","5044.995000000228","survey-likert","148","670445","0.0-34.0","SS1618435643560","similarity_question","","","","","","","","","","","","{""Q0"":4}","[0]","","images/stimuli/spore_stims/simple_10_A_b.gif","images/stimuli/spore_stims/simple_09_A_a.gif"
"","4572.400000000955","survey-likert","149","675021","0.0-35.0","SS1618435643560","similarity_question","","","","","","","","","","","","{""Q0"":0}","[0]","","images/stimuli/spore_stims/complex_13_A_a.gif","images/stimuli/spore_stims/complex_14_A_b.gif"
"","4813.030000001192","survey-likert","150","679838","0.0-36.0","SS1618435643560","similarity_question","","","","","","","","","","","","{""Q0"":3}","[0]","","images/stimuli/spore_stims/simple_04_A_b.gif","images/stimuli/spore_stims/simple_01_A_a.gif"
"","7781.074999998906","survey-likert","151","687622","0.0-37.0","SS1618435643560","similarity_question","","","","","","","","","","","","{""Q0"":1}","[0]","","images/stimuli/spore_stims/complex_18_A_a.gif","images/stimuli/spore_stims/complex_08_A_b.gif"
"","3619.4399999986636","survey-likert","152","691246","0.0-38.0","SS1618435643560","similarity_question","","","","","","","","","","","","{""Q0"":0}","[0]","","images/stimuli/spore_stims/complex_11_A_b.gif","images/stimuli/spore_stims/complex_08_A_a.gif"
"","22548.955000001937","survey-likert","153","713798","0.0-39.0","SS1618435643560","similarity_question","","","","","","","","","","","","{""Q0"":1}","[0]","","images/stimuli/spore_stims/complex_16_A_b.gif","images/stimuli/spore_stims/complex_19_A_a.gif"
"","2812.0100000014063","survey-likert","154","716614","0.0-40.0","SS1618435643560","similarity_question","","","","","","","","","","","","{""Q0"":4}","[0]","","images/stimuli/spore_stims/simple_06_A_a.gif","images/stimuli/spore_stims/simple_11_A_b.gif"
"","5429.229999997886","survey-likert","155","722046","0.0-41.0","SS1618435643560","similarity_question","","","","","","","","","","","","{""Q0"":0}","[0]","","images/stimuli/spore_stims/complex_17_A_a.gif","images/stimuli/spore_stims/complex_07_A_b.gif"
"","2484.875000001979","survey-likert","156","724534","0.0-42.0","SS1618435643560","similarity_question","","","","","","","","","","","","{""Q0"":3}","[0]","","images/stimuli/spore_stims/simple_18_A_b.gif","images/stimuli/spore_stims/simple_08_A_a.gif"
"","3299.510000000708","survey-likert","157","727838","0.0-43.0","SS1618435643560","similarity_question","","","","","","","","","","","","{""Q0"":5}","[0]","","images/stimuli/spore_stims/simple_20_A_b.gif","images/stimuli/spore_stims/simple_02_A_a.gif"
"","2157.1399999993155","survey-likert","158","729998","0.0-44.0","SS1618435643560","similarity_question","","","","","","","","","","","","{""Q0"":5}","[0]","","images/stimuli/spore_stims/simple_12_A_a.gif","images/stimuli/spore_stims/simple_17_A_b.gif"
"[{""page_index"":0,""viewing_time"":6101.340000001132}]","6101.569999998901","instructions","159","736102","0.0-45.0","SS1618435643560","instructions","","","","","","","","","","","","","","","",""
"","5701.154999998747","survey-likert","160","741806","0.0-46.0","SS1618435643560","","","","","","","","","images/stimuli/spore_stims/complex_11_A_a.gif","","","","{""Q0"":4}","[0]","","",""
"","2685.1800000004005","survey-likert","161","744494","0.0-47.0","SS1618435643560","","","","","","","","","images/stimuli/spore_stims/complex_14_A_b.gif","","","","{""Q0"":4}","[0]","","",""
"","2852.3599999970756","survey-likert","162","747350","0.0-48.0","SS1618435643560","","","","","","","","","images/stimuli/spore_stims/complex_18_A_a.gif","","","","{""Q0"":6}","[0]","","",""
"","2589.2750000020023","survey-likert","163","749942","0.0-49.0","SS1618435643560","","","","","","","","","images/stimuli/spore_stims/simple_20_A_b.gif","","","","{""Q0"":0}","[0]","","",""
"","1533.5200000008335","survey-likert","164","751478","0.0-50.0","SS1618435643560","","","","","","","","","images/stimuli/spore_stims/simple_12_A_a.gif","","","","{""Q0"":0}","[0]","","",""
"","2069.0350000004983","survey-likert","165","753550","0.0-51.0","SS1618435643560","","","","","","","","","images/stimuli/spore_stims/complex_19_A_a.gif","","","","{""Q0"":5}","[0]","","",""
"","2748.1699999988778","survey-likert","166","756302","0.0-52.0","SS1618435643560","","","","","","","","","images/stimuli/spore_stims/simple_18_A_b.gif","","","","{""Q0"":1}","[0]","","",""
"","3621.114999998128","survey-likert","167","759926","0.0-53.0","SS1618435643560","","","","","","","","","images/stimuli/spore_stims/complex_17_A_a.gif","","","","{""Q0"":4}","[0]","","",""
"","1932.5250000001397","survey-likert","168","761862","0.0-54.0","SS1618435643560","","","","","","","","","images/stimuli/spore_stims/complex_08_A_a.gif","","","","{""Q0"":5}","[0]","","",""
"","2421.024999999674","survey-likert","169","764286","0.0-55.0","SS1618435643560","","","","","","","","","images/stimuli/spore_stims/simple_01_A_a.gif","","","","{""Q0"":0}","[0]","","",""
"","1516.9299999979557","survey-likert","170","765806","0.0-56.0","SS1618435643560","","","","","","","","","images/stimuli/spore_stims/simple_09_A_a.gif","","","","{""Q0"":0}","[0]","","",""
"","1700.3899999982677","survey-likert","171","767510","0.0-57.0","SS1618435643560","","","","","","","","","images/stimuli/spore_stims/simple_11_A_b.gif","","","","{""Q0"":0}","[0]","","",""
"[{""page_index"":0,""viewing_time"":3021.179999999702}]","3021.3949999996694","instructions","172","770533","0.0-58.0","SS1618435643560","instructions","","","","","","","","","","","","","","","",""
"","3034.9700000006706","demog-age","173","773574","0.0-59.0","SS1618435643560","","","","","","","","","","","","","{""age"":""23""}","","","",""
"","11395.360000002198","demog-ethnic-US","174","784974","0.0-60.0","SS1618435643560","","","","","","","","","","","","","{""ethnicity"":[""White""]}","[0]","","",""
"","5443.559999999707","demog-gender-and-education","175","790422","0.0-61.0","SS1618435643560","","","","","","","","","","","","","{""gender"":""Male"",""education"":""Master's Degree""}","[0,1]","","",""
"","19291.22500000079","survey-text","176","809718","0.0-62.0","SS1618435643560","feedback","","","","","","","","","","","","{""Q0"":""No. nothing to add""}","","","",""
"[{""page_index"":0,""viewing_time"":2197.2549999991897}]","2197.4599999993807","instructions","177","811917","0.0-63.0","SS1618435643560","instructions","","","","","","","","","","","","","","","",""
