"view_history","rt","trial_type","trial_index","time_elapsed","internal_node_id","subject","stimulus_type","trial_stimulus","key_press","minimum_viewing_duration","trial_looking_time","block_deviant","block_background","exposure_type","stimulus","block_number","block_type","stimulus_displayed","responses","question_order","math_correct_answer","stimulus_left","stimulus_right"
"[{""page_index"":0,""viewing_time"":40449.15000000037}]","40466.88500000164","instructions","0","40467","0.0-0.0","SS1618365970224","","","","","","","","","","","","","","","","",""
"[{""page_index"":0,""viewing_time"":15255.505000000994},{""page_index"":1,""viewing_time"":4663.7099999934435}]","19919.474999995145","instructions","1","62388","0.0-1.0","SS1618365970224","instructions","","","","","","","","","","","","","","","",""
"","5980.869999999413","sequential-stimulus-presentation-old","2","68874","0.0-2.0","SS1618365970224","","","40","500","6480.869999999413","null","null","self_paced","","","","","","","","",""
"","4523.28000000125","sequential-stimulus-presentation-old","3","73898","0.0-3.0","SS1618365970224","","","40","500","5023.28000000125","null","null","self_paced","","","","","","","","",""
"[{""page_index"":0,""viewing_time"":17283.28500000498}]","17283.495000003313","instructions","4","91182","0.0-4.0","SS1618365970224","instructions","","","","","","","","","","","","","","","",""
"","3439.9800000028335","sequential-stimulus-presentation-old","5","99623","0.0-5.0","SS1618365970224","","","40","500","3939.9800000028335","null","null","forced_long","","","","","","","","",""
"","12487.154999995255","sequential-stimulus-presentation-old","6","112162","0.0-6.0","SS1618365970224","","","40","50","12537.154999995255","null","null","forced_long","","","","","","","","",""
"[{""page_index"":0,""viewing_time"":3274.5649999997113}]","3274.7549999985495","instructions","7","115437","0.0-7.0","SS1618365970224","instructions","","","","","","","","","","","","","","","",""
"[{""page_index"":0,""viewing_time"":7716.9750000030035},{""page_index"":1,""viewing_time"":11366.004999996221},{""page_index"":2,""viewing_time"":9064.075000002049},{""page_index"":3,""viewing_time"":1437.9950000002282},{""page_index"":4,""viewing_time"":1501.9949999987148}]","31087.320000006002","instructions","8","146524","0.0-8.0","SS1618365970224","instructions","","","","","","","","","","","","","","","",""
"","null","html-keyboard-response","9","147764","0.0-9.0-0.0","SS1618365970224","","","null","","","","","","<p><img src= images/blank.png width =""600"" height = ""600"" style=""position:fixed;top:50%; left:50%; transform: translate(-50%, -50%); border:5px solid black"">","","","","","","","",""
"","4869.995000000927","sequential-stimulus-presentation-old","10","153136","0.0-9.0-1.0","SS1618365970224","trial","","40","500","5369.995000000927","images/stimuli/spore_stims/simple_07_A_b.gif","images/stimuli/spore_stims/simple_03_A_a.gif","self_paced","","0","simple_dissimilar","images/stimuli/spore_stims/simple_03_A_a.gif","","","","",""
"","null","html-keyboard-response","11","154219","0.0-9.0-0.1","SS1618365970224","","","null","","","","","","<p><img src= images/blank.png width =""600"" height = ""600"" style=""position:fixed;top:50%; left:50%; transform: translate(-50%, -50%); border:5px solid black"">","","","","","","","",""
"","5866.334999998799","sequential-stimulus-presentation-old","12","160587","0.0-9.0-1.1","SS1618365970224","trial","","40","500","6366.334999998799","images/stimuli/spore_stims/simple_07_A_b.gif","images/stimuli/spore_stims/simple_03_A_a.gif","self_paced","","0","simple_dissimilar","images/stimuli/spore_stims/simple_03_A_a.gif","","","","",""
"","null","html-keyboard-response","13","161626","0.0-9.0-0.2","SS1618365970224","","","null","","","","","","<p><img src= images/blank.png width =""600"" height = ""600"" style=""position:fixed;top:50%; left:50%; transform: translate(-50%, -50%); border:5px solid black"">","","","","","","","",""
"","5683.890000000247","sequential-stimulus-presentation-old","14","167812","0.0-9.0-1.2","SS1618365970224","trial","","40","500","6183.890000000247","images/stimuli/spore_stims/simple_07_A_b.gif","images/stimuli/spore_stims/simple_03_A_a.gif","self_paced","","0","simple_dissimilar","images/stimuli/spore_stims/simple_07_A_b.gif","","","","",""
"","null","html-keyboard-response","15","169059","0.0-9.0-0.3","SS1618365970224","","","null","","","","","","<p><img src= images/blank.png width =""600"" height = ""600"" style=""position:fixed;top:50%; left:50%; transform: translate(-50%, -50%); border:5px solid black"">","","","","","","","",""
"","4148.6299999960465","sequential-stimulus-presentation-old","16","173712","0.0-9.0-1.3","SS1618365970224","trial","","40","500","4648.6299999960465","images/stimuli/spore_stims/simple_07_A_b.gif","images/stimuli/spore_stims/simple_03_A_a.gif","self_paced","","0","simple_dissimilar","images/stimuli/spore_stims/simple_03_A_a.gif","","","","",""
"","null","html-keyboard-response","17","174952","0.0-9.0-0.4","SS1618365970224","","","null","","","","","","<p><img src= images/blank.png width =""600"" height = ""600"" style=""position:fixed;top:50%; left:50%; transform: translate(-50%, -50%); border:5px solid black"">","","","","","","","",""
"","3542.424999999639","sequential-stimulus-presentation-old","18","178999","0.0-9.0-1.4","SS1618365970224","trial","","40","500","4042.424999999639","images/stimuli/spore_stims/simple_07_A_b.gif","images/stimuli/spore_stims/simple_03_A_a.gif","self_paced","","0","simple_dissimilar","images/stimuli/spore_stims/simple_03_A_a.gif","","","","",""
"","null","html-keyboard-response","19","180146","0.0-9.0-0.5","SS1618365970224","","","null","","","","","","<p><img src= images/blank.png width =""600"" height = ""600"" style=""position:fixed;top:50%; left:50%; transform: translate(-50%, -50%); border:5px solid black"">","","","","","","","",""
"","5886.740000001737","sequential-stimulus-presentation-old","20","186537","0.0-9.0-1.5","SS1618365970224","trial","","40","500","6386.740000001737","images/stimuli/spore_stims/simple_07_A_b.gif","images/stimuli/spore_stims/simple_03_A_a.gif","self_paced","","0","simple_dissimilar","images/stimuli/spore_stims/simple_03_A_a.gif","","","","",""
"","4074.2650000029244","survey-multi-choice","21","190614","0.0-10.0","SS1618365970224","math_question","","","","","","","","","","","","{""Q0"":""8""}","[0]","8","",""
"","null","html-keyboard-response","22","191504","0.0-11.0-0.0","SS1618365970224","","","null","","","","","","<p><img src= images/blank.png width =""600"" height = ""600"" style=""position:fixed;top:50%; left:50%; transform: translate(-50%, -50%); border:5px solid black"">","","","","","","","",""
"","244.17499999981374","sequential-stimulus-presentation-old","23","196750","0.0-11.0-1.0","SS1618365970224","trial","","40","500","744.1749999998137","images/stimuli/spore_stims/simple_02_A_b.gif","images/stimuli/spore_stims/simple_18_A_a.gif","forced_long","","1","simple_dissimilar","images/stimuli/spore_stims/simple_18_A_a.gif","","","","",""
"","null","html-keyboard-response","24","197724","0.0-11.0-0.1","SS1618365970224","","","null","","","","","","<p><img src= images/blank.png width =""600"" height = ""600"" style=""position:fixed;top:50%; left:50%; transform: translate(-50%, -50%); border:5px solid black"">","","","","","","","",""
"","4846.84500000003","sequential-stimulus-presentation-old","25","203075","0.0-11.0-1.1","SS1618365970224","trial","","40","500","5346.84500000003","images/stimuli/spore_stims/simple_02_A_b.gif","images/stimuli/spore_stims/simple_18_A_a.gif","forced_long","","1","simple_dissimilar","images/stimuli/spore_stims/simple_18_A_a.gif","","","","",""
"","null","html-keyboard-response","26","204302","0.0-11.0-0.2","SS1618365970224","","","null","","","","","","<p><img src= images/blank.png width =""600"" height = ""600"" style=""position:fixed;top:50%; left:50%; transform: translate(-50%, -50%); border:5px solid black"">","","","","","","","",""
"","5579.314999995404","sequential-stimulus-presentation-old","27","210388","0.0-11.0-1.2","SS1618365970224","trial","","40","500","6079.314999995404","images/stimuli/spore_stims/simple_02_A_b.gif","images/stimuli/spore_stims/simple_18_A_a.gif","forced_long","","1","simple_dissimilar","images/stimuli/spore_stims/simple_18_A_a.gif","","","","",""
"","null","html-keyboard-response","28","211474","0.0-11.0-0.3","SS1618365970224","","","null","","","","","","<p><img src= images/blank.png width =""600"" height = ""600"" style=""position:fixed;top:50%; left:50%; transform: translate(-50%, -50%); border:5px solid black"">","","","","","","","",""
"","1584.870000006049","sequential-stimulus-presentation-old","29","213562","0.0-11.0-1.3","SS1618365970224","trial","","40","500","2084.870000006049","images/stimuli/spore_stims/simple_02_A_b.gif","images/stimuli/spore_stims/simple_18_A_a.gif","forced_long","","1","simple_dissimilar","images/stimuli/spore_stims/simple_18_A_a.gif","","","","",""
"","null","html-keyboard-response","30","214617","0.0-11.0-0.4","SS1618365970224","","","null","","","","","","<p><img src= images/blank.png width =""600"" height = ""600"" style=""position:fixed;top:50%; left:50%; transform: translate(-50%, -50%); border:5px solid black"">","","","","","","","",""
"","5142.195000000356","sequential-stimulus-presentation-old","31","220263","0.0-11.0-1.4","SS1618365970224","trial","","40","500","5642.195000000356","images/stimuli/spore_stims/simple_02_A_b.gif","images/stimuli/spore_stims/simple_18_A_a.gif","forced_long","","1","simple_dissimilar","images/stimuli/spore_stims/simple_02_A_b.gif","","","","",""
"","null","html-keyboard-response","32","221238","0.0-11.0-0.5","SS1618365970224","","","null","","","","","","<p><img src= images/blank.png width =""600"" height = ""600"" style=""position:fixed;top:50%; left:50%; transform: translate(-50%, -50%); border:5px solid black"">","","","","","","","",""
"","4897.010000000591","sequential-stimulus-presentation-old","33","226638","0.0-11.0-1.5","SS1618365970224","trial","","40","500","5397.010000000591","images/stimuli/spore_stims/simple_02_A_b.gif","images/stimuli/spore_stims/simple_18_A_a.gif","forced_long","","1","simple_dissimilar","images/stimuli/spore_stims/simple_18_A_a.gif","","","","",""
"","3336.969999996654","survey-multi-choice","34","229976","0.0-12.0","SS1618365970224","math_question","","","","","","","","","","","","{""Q0"":""9""}","[0]","9","",""
"","null","html-keyboard-response","35","231156","0.0-13.0-0.0","SS1618365970224","","","null","","","","","","<p><img src= images/blank.png width =""600"" height = ""600"" style=""position:fixed;top:50%; left:50%; transform: translate(-50%, -50%); border:5px solid black"">","","","","","","","",""
"","11939.699999995355","sequential-stimulus-presentation-old","36","243601","0.0-13.0-1.0","SS1618365970224","trial","","40","500","12439.699999995355","images/stimuli/spore_stims/complex_20_A_b.gif","images/stimuli/spore_stims/complex_10_A_a.gif","self_paced","","2","complex_dissimilar","images/stimuli/spore_stims/complex_10_A_a.gif","","","","",""
"","null","html-keyboard-response","37","244819","0.0-13.0-0.1","SS1618365970224","","","null","","","","","","<p><img src= images/blank.png width =""600"" height = ""600"" style=""position:fixed;top:50%; left:50%; transform: translate(-50%, -50%); border:5px solid black"">","","","","","","","",""
"","740.5050000015763","sequential-stimulus-presentation-old","38","246063","0.0-13.0-1.1","SS1618365970224","trial","","40","500","1240.5050000015763","images/stimuli/spore_stims/complex_20_A_b.gif","images/stimuli/spore_stims/complex_10_A_a.gif","self_paced","","2","complex_dissimilar","images/stimuli/spore_stims/complex_10_A_a.gif","","","","",""
"","null","html-keyboard-response","39","247047","0.0-13.0-0.2","SS1618365970224","","","null","","","","","","<p><img src= images/blank.png width =""600"" height = ""600"" style=""position:fixed;top:50%; left:50%; transform: translate(-50%, -50%); border:5px solid black"">","","","","","","","",""
"","1912.5899999999092","sequential-stimulus-presentation-old","40","249463","0.0-13.0-1.2","SS1618365970224","trial","","40","500","2412.589999999909","images/stimuli/spore_stims/complex_20_A_b.gif","images/stimuli/spore_stims/complex_10_A_a.gif","self_paced","","2","complex_dissimilar","images/stimuli/spore_stims/complex_10_A_a.gif","","","","",""
"","null","html-keyboard-response","41","250276","0.0-13.0-0.3","SS1618365970224","","","null","","","","","","<p><img src= images/blank.png width =""600"" height = ""600"" style=""position:fixed;top:50%; left:50%; transform: translate(-50%, -50%); border:5px solid black"">","","","","","","","",""
"","1372.0749999993131","sequential-stimulus-presentation-old","42","252150","0.0-13.0-1.3","SS1618365970224","trial","","40","500","1872.0749999993131","images/stimuli/spore_stims/complex_20_A_b.gif","images/stimuli/spore_stims/complex_10_A_a.gif","self_paced","","2","complex_dissimilar","images/stimuli/spore_stims/complex_10_A_a.gif","","","","",""
"","null","html-keyboard-response","43","253336","0.0-13.0-0.4","SS1618365970224","","","null","","","","","","<p><img src= images/blank.png width =""600"" height = ""600"" style=""position:fixed;top:50%; left:50%; transform: translate(-50%, -50%); border:5px solid black"">","","","","","","","",""
"","2223.8500000021304","sequential-stimulus-presentation-old","44","256063","0.0-13.0-1.4","SS1618365970224","trial","","40","500","2723.8500000021304","images/stimuli/spore_stims/complex_20_A_b.gif","images/stimuli/spore_stims/complex_10_A_a.gif","self_paced","","2","complex_dissimilar","images/stimuli/spore_stims/complex_10_A_a.gif","","","","",""
"","2602.6550000024145","survey-multi-choice","45","258667","0.0-14.0","SS1618365970224","math_question","","","","","","","","","","","","{""Q0"":""8""}","[0]","8","",""
"","null","html-keyboard-response","46","259685","0.0-15.0-0.0","SS1618365970224","","","null","","","","","","<p><img src= images/blank.png width =""600"" height = ""600"" style=""position:fixed;top:50%; left:50%; transform: translate(-50%, -50%); border:5px solid black"">","","","","","","","",""
"","2575.0499999994645","sequential-stimulus-presentation-old","47","267263","0.0-15.0-1.0","SS1618365970224","trial","","40","500","3075.0499999994645","images/stimuli/spore_stims/complex_05_A_b.gif","images/stimuli/spore_stims/complex_13_A_a.gif","forced_long","","3","complex_dissimilar","images/stimuli/spore_stims/complex_13_A_a.gif","","","","",""
"","null","html-keyboard-response","48","268487","0.0-15.0-0.1","SS1618365970224","","","null","","","","","","<p><img src= images/blank.png width =""600"" height = ""600"" style=""position:fixed;top:50%; left:50%; transform: translate(-50%, -50%); border:5px solid black"">","","","","","","","",""
"","8583.664999998291","sequential-stimulus-presentation-old","49","277576","0.0-15.0-1.1","SS1618365970224","trial","","40","500","9083.664999998291","images/stimuli/spore_stims/complex_05_A_b.gif","images/stimuli/spore_stims/complex_13_A_a.gif","forced_long","","3","complex_dissimilar","images/stimuli/spore_stims/complex_13_A_a.gif","","","","",""
"","null","html-keyboard-response","50","278818","0.0-15.0-0.2","SS1618365970224","","","null","","","","","","<p><img src= images/blank.png width =""600"" height = ""600"" style=""position:fixed;top:50%; left:50%; transform: translate(-50%, -50%); border:5px solid black"">","","","","","","","",""
"","1465.8799999961047","sequential-stimulus-presentation-old","51","280788","0.0-15.0-1.2","SS1618365970224","trial","","40","500","1965.8799999961047","images/stimuli/spore_stims/complex_05_A_b.gif","images/stimuli/spore_stims/complex_13_A_a.gif","forced_long","","3","complex_dissimilar","images/stimuli/spore_stims/complex_13_A_a.gif","","","","",""
"","null","html-keyboard-response","52","281605","0.0-15.0-0.3","SS1618365970224","","","null","","","","","","<p><img src= images/blank.png width =""600"" height = ""600"" style=""position:fixed;top:50%; left:50%; transform: translate(-50%, -50%); border:5px solid black"">","","","","","","","",""
"","2403.875000003609","sequential-stimulus-presentation-old","53","284513","0.0-15.0-1.3","SS1618365970224","trial","","40","500","2903.875000003609","images/stimuli/spore_stims/complex_05_A_b.gif","images/stimuli/spore_stims/complex_13_A_a.gif","forced_long","","3","complex_dissimilar","images/stimuli/spore_stims/complex_13_A_a.gif","","","","",""
"","null","html-keyboard-response","54","285725","0.0-15.0-0.4","SS1618365970224","","","null","","","","","","<p><img src= images/blank.png width =""600"" height = ""600"" style=""position:fixed;top:50%; left:50%; transform: translate(-50%, -50%); border:5px solid black"">","","","","","","","",""
"","4848.245000001043","sequential-stimulus-presentation-old","55","291076","0.0-15.0-1.4","SS1618365970224","trial","","40","500","5348.245000001043","images/stimuli/spore_stims/complex_05_A_b.gif","images/stimuli/spore_stims/complex_13_A_a.gif","forced_long","","3","complex_dissimilar","images/stimuli/spore_stims/complex_13_A_a.gif","","","","",""
"","null","html-keyboard-response","56","292007","0.0-15.0-0.5","SS1618365970224","","","null","","","","","","<p><img src= images/blank.png width =""600"" height = ""600"" style=""position:fixed;top:50%; left:50%; transform: translate(-50%, -50%); border:5px solid black"">","","","","","","","",""
"","9351.67000000365","sequential-stimulus-presentation-old","57","301864","0.0-15.0-1.5","SS1618365970224","trial","","40","500","9851.67000000365","images/stimuli/spore_stims/complex_05_A_b.gif","images/stimuli/spore_stims/complex_13_A_a.gif","forced_long","","3","complex_dissimilar","images/stimuli/spore_stims/complex_05_A_b.gif","","","","",""
"","3636.385000005248","survey-multi-choice","58","305502","0.0-16.0","SS1618365970224","math_question","","","","","","","","","","","","{""Q0"":""17""}","[0]","17","",""
"","null","html-keyboard-response","59","306723","0.0-17.0-0.0","SS1618365970224","","","null","","","","","","<p><img src= images/blank.png width =""600"" height = ""600"" style=""position:fixed;top:50%; left:50%; transform: translate(-50%, -50%); border:5px solid black"">","","","","","","","",""
"","2558.2999999969616","sequential-stimulus-presentation-old","60","309338","0.0-17.0-1.0","SS1618365970224","trial","","40","500","3058.2999999969616","images/stimuli/spore_stims/simple_08_A_a.gif","images/stimuli/spore_stims/simple_03_A_b.gif","forced_short","","4","simple_dissimilar","images/stimuli/spore_stims/simple_03_A_b.gif","","","","",""
"","null","html-keyboard-response","61","310558","0.0-17.0-0.1","SS1618365970224","","","null","","","","","","<p><img src= images/blank.png width =""600"" height = ""600"" style=""position:fixed;top:50%; left:50%; transform: translate(-50%, -50%); border:5px solid black"">","","","","","","","",""
"","3478.484999999637","sequential-stimulus-presentation-old","62","314539","0.0-17.0-1.1","SS1618365970224","trial","","40","500","3978.484999999637","images/stimuli/spore_stims/simple_08_A_a.gif","images/stimuli/spore_stims/simple_03_A_b.gif","forced_short","","4","simple_dissimilar","images/stimuli/spore_stims/simple_03_A_b.gif","","","","",""
"","null","html-keyboard-response","63","315587","0.0-17.0-0.2","SS1618365970224","","","null","","","","","","<p><img src= images/blank.png width =""600"" height = ""600"" style=""position:fixed;top:50%; left:50%; transform: translate(-50%, -50%); border:5px solid black"">","","","","","","","",""
"","6045.004999999946","sequential-stimulus-presentation-old","64","322139","0.0-17.0-1.2","SS1618365970224","trial","","40","500","6545.004999999946","images/stimuli/spore_stims/simple_08_A_a.gif","images/stimuli/spore_stims/simple_03_A_b.gif","forced_short","","4","simple_dissimilar","images/stimuli/spore_stims/simple_03_A_b.gif","","","","",""
"","null","html-keyboard-response","65","323173","0.0-17.0-0.3","SS1618365970224","","","null","","","","","","<p><img src= images/blank.png width =""600"" height = ""600"" style=""position:fixed;top:50%; left:50%; transform: translate(-50%, -50%); border:5px solid black"">","","","","","","","",""
"","4813.525000005029","sequential-stimulus-presentation-old","66","328489","0.0-17.0-1.3","SS1618365970224","trial","","40","500","5313.525000005029","images/stimuli/spore_stims/simple_08_A_a.gif","images/stimuli/spore_stims/simple_03_A_b.gif","forced_short","","4","simple_dissimilar","images/stimuli/spore_stims/simple_08_A_a.gif","","","","",""
"","null","html-keyboard-response","67","329596","0.0-17.0-0.4","SS1618365970224","","","null","","","","","","<p><img src= images/blank.png width =""600"" height = ""600"" style=""position:fixed;top:50%; left:50%; transform: translate(-50%, -50%); border:5px solid black"">","","","","","","","",""
"","1003.0899999983376","sequential-stimulus-presentation-old","68","331101","0.0-17.0-1.4","SS1618365970224","trial","","40","500","1503.0899999983376","images/stimuli/spore_stims/simple_08_A_a.gif","images/stimuli/spore_stims/simple_03_A_b.gif","forced_short","","4","simple_dissimilar","images/stimuli/spore_stims/simple_08_A_a.gif","","","","",""
"","2843.7449999983073","survey-multi-choice","69","333947","0.0-18.0","SS1618365970224","math_question","","","","","","","","","","","","{""Q0"":""5""}","[0]","5","",""
"","null","html-keyboard-response","70","334836","0.0-19.0-0.0","SS1618365970224","","","null","","","","","","<p><img src= images/blank.png width =""600"" height = ""600"" style=""position:fixed;top:50%; left:50%; transform: translate(-50%, -50%); border:5px solid black"">","","","","","","","",""
"","1207.8099999998813","sequential-stimulus-presentation-old","71","336101","0.0-19.0-1.0","SS1618365970224","trial","","40","500","1707.8099999998813","images/stimuli/spore_stims/complex_13_A_b.gif","images/stimuli/spore_stims/complex_08_A_a.gif","forced_short","","5","complex_dissimilar","images/stimuli/spore_stims/complex_08_A_a.gif","","","","",""
"","null","html-keyboard-response","72","337325","0.0-19.0-0.1","SS1618365970224","","","null","","","","","","<p><img src= images/blank.png width =""600"" height = ""600"" style=""position:fixed;top:50%; left:50%; transform: translate(-50%, -50%); border:5px solid black"">","","","","","","","",""
"","2771.489999999176","sequential-stimulus-presentation-old","73","340602","0.0-19.0-1.1","SS1618365970224","trial","","40","500","3271.489999999176","images/stimuli/spore_stims/complex_13_A_b.gif","images/stimuli/spore_stims/complex_08_A_a.gif","forced_short","","5","complex_dissimilar","images/stimuli/spore_stims/complex_08_A_a.gif","","","","",""
"","null","html-keyboard-response","74","341849","0.0-19.0-0.2","SS1618365970224","","","null","","","","","","<p><img src= images/blank.png width =""600"" height = ""600"" style=""position:fixed;top:50%; left:50%; transform: translate(-50%, -50%); border:5px solid black"">","","","","","","","",""
"","2973.7499999973807","sequential-stimulus-presentation-old","75","345326","0.0-19.0-1.2","SS1618365970224","trial","","40","500","3473.7499999973807","images/stimuli/spore_stims/complex_13_A_b.gif","images/stimuli/spore_stims/complex_08_A_a.gif","forced_short","","5","complex_dissimilar","images/stimuli/spore_stims/complex_08_A_a.gif","","","","",""
"","null","html-keyboard-response","76","346435","0.0-19.0-0.3","SS1618365970224","","","null","","","","","","<p><img src= images/blank.png width =""600"" height = ""600"" style=""position:fixed;top:50%; left:50%; transform: translate(-50%, -50%); border:5px solid black"">","","","","","","","",""
"","7076.529999998456","sequential-stimulus-presentation-old","77","354014","0.0-19.0-1.3","SS1618365970224","trial","","40","500","7576.529999998456","images/stimuli/spore_stims/complex_13_A_b.gif","images/stimuli/spore_stims/complex_08_A_a.gif","forced_short","","5","complex_dissimilar","images/stimuli/spore_stims/complex_13_A_b.gif","","","","",""
"","2560.649999999441","survey-multi-choice","78","356576","0.0-20.0","SS1618365970224","math_question","","","","","","","","","","","","{""Q0"":""18""}","[0]","18","",""
"","null","html-keyboard-response","79","357689","0.0-21.0-0.0","SS1618365970224","","","null","","","","","","<p><img src= images/blank.png width =""600"" height = ""600"" style=""position:fixed;top:50%; left:50%; transform: translate(-50%, -50%); border:5px solid black"">","","","","","","","",""
"","3147.799999998824","sequential-stimulus-presentation-old","80","361339","0.0-21.0-1.0","SS1618365970224","trial","","40","500","3647.799999998824","images/stimuli/spore_stims/simple_20_A_a.gif","images/stimuli/spore_stims/simple_09_A_b.gif","self_paced","","6","simple_dissimilar","images/stimuli/spore_stims/simple_09_A_b.gif","","","","",""
"","null","html-keyboard-response","81","362583","0.0-21.0-0.1","SS1618365970224","","","null","","","","","","<p><img src= images/blank.png width =""600"" height = ""600"" style=""position:fixed;top:50%; left:50%; transform: translate(-50%, -50%); border:5px solid black"">","","","","","","","",""
"","5766.81500000268","sequential-stimulus-presentation-old","82","368852","0.0-21.0-1.1","SS1618365970224","trial","","40","500","6266.81500000268","images/stimuli/spore_stims/simple_20_A_a.gif","images/stimuli/spore_stims/simple_09_A_b.gif","self_paced","","6","simple_dissimilar","images/stimuli/spore_stims/simple_20_A_a.gif","","","","",""
"","null","html-keyboard-response","83","370064","0.0-21.0-0.2","SS1618365970224","","","null","","","","","","<p><img src= images/blank.png width =""600"" height = ""600"" style=""position:fixed;top:50%; left:50%; transform: translate(-50%, -50%); border:5px solid black"">","","","","","","","",""
"","2509.8849999994854","sequential-stimulus-presentation-old","84","373076","0.0-21.0-1.2","SS1618365970224","trial","","40","500","3009.8849999994854","images/stimuli/spore_stims/simple_20_A_a.gif","images/stimuli/spore_stims/simple_09_A_b.gif","self_paced","","6","simple_dissimilar","images/stimuli/spore_stims/simple_20_A_a.gif","","","","",""
"","null","html-keyboard-response","85","374346","0.0-21.0-0.3","SS1618365970224","","","null","","","","","","<p><img src= images/blank.png width =""600"" height = ""600"" style=""position:fixed;top:50%; left:50%; transform: translate(-50%, -50%); border:5px solid black"">","","","","","","","",""
"","2665.0899999949615","sequential-stimulus-presentation-old","86","377514","0.0-21.0-1.3","SS1618365970224","trial","","40","500","3165.0899999949615","images/stimuli/spore_stims/simple_20_A_a.gif","images/stimuli/spore_stims/simple_09_A_b.gif","self_paced","","6","simple_dissimilar","images/stimuli/spore_stims/simple_09_A_b.gif","","","","",""
"","null","html-keyboard-response","87","378512","0.0-21.0-0.4","SS1618365970224","","","null","","","","","","<p><img src= images/blank.png width =""600"" height = ""600"" style=""position:fixed;top:50%; left:50%; transform: translate(-50%, -50%); border:5px solid black"">","","","","","","","",""
"","3596.140000001469","sequential-stimulus-presentation-old","88","382615","0.0-21.0-1.4","SS1618365970224","trial","","40","500","4096.140000001469","images/stimuli/spore_stims/simple_20_A_a.gif","images/stimuli/spore_stims/simple_09_A_b.gif","self_paced","","6","simple_dissimilar","images/stimuli/spore_stims/simple_09_A_b.gif","","","","",""
"","null","html-keyboard-response","89","383454","0.0-21.0-0.5","SS1618365970224","","","null","","","","","","<p><img src= images/blank.png width =""600"" height = ""600"" style=""position:fixed;top:50%; left:50%; transform: translate(-50%, -50%); border:5px solid black"">","","","","","","","",""
"","540.3200000000652","sequential-stimulus-presentation-old","90","384502","0.0-21.0-1.5","SS1618365970224","trial","","40","500","1040.3200000000652","images/stimuli/spore_stims/simple_20_A_a.gif","images/stimuli/spore_stims/simple_09_A_b.gif","self_paced","","6","simple_dissimilar","images/stimuli/spore_stims/simple_09_A_b.gif","","","","",""
"","2608.0050000018673","survey-multi-choice","91","387112","0.0-22.0","SS1618365970224","math_question","","","","","","","","","","","","{""Q0"":""7""}","[0]","7","",""
"","null","html-keyboard-response","92","388197","0.0-23.0-0.0","SS1618365970224","","","null","","","","","","<p><img src= images/blank.png width =""600"" height = ""600"" style=""position:fixed;top:50%; left:50%; transform: translate(-50%, -50%); border:5px solid black"">","","","","","","","",""
"","1049.7299999988172","sequential-stimulus-presentation-old","93","394252","0.0-23.0-1.0","SS1618365970224","trial","","40","500","1549.7299999988172","images/stimuli/spore_stims/complex_11_A_b.gif","images/stimuli/spore_stims/complex_14_A_a.gif","forced_long","","7","complex_dissimilar","images/stimuli/spore_stims/complex_14_A_a.gif","","","","",""
"","null","html-keyboard-response","94","395060","0.0-23.0-0.1","SS1618365970224","","","null","","","","","","<p><img src= images/blank.png width =""600"" height = ""600"" style=""position:fixed;top:50%; left:50%; transform: translate(-50%, -50%); border:5px solid black"">","","","","","","","",""
"","5384.720000001835","sequential-stimulus-presentation-old","95","400952","0.0-23.0-1.1","SS1618365970224","trial","","40","500","5884.720000001835","images/stimuli/spore_stims/complex_11_A_b.gif","images/stimuli/spore_stims/complex_14_A_a.gif","forced_long","","7","complex_dissimilar","images/stimuli/spore_stims/complex_14_A_a.gif","","","","",""
"","null","html-keyboard-response","96","402212","0.0-23.0-0.2","SS1618365970224","","","null","","","","","","<p><img src= images/blank.png width =""600"" height = ""600"" style=""position:fixed;top:50%; left:50%; transform: translate(-50%, -50%); border:5px solid black"">","","","","","","","",""
"","4235.4750000013155","sequential-stimulus-presentation-old","97","406953","0.0-23.0-1.2","SS1618365970224","trial","","40","500","4735.4750000013155","images/stimuli/spore_stims/complex_11_A_b.gif","images/stimuli/spore_stims/complex_14_A_a.gif","forced_long","","7","complex_dissimilar","images/stimuli/spore_stims/complex_11_A_b.gif","","","","",""
"","null","html-keyboard-response","98","408207","0.0-23.0-0.3","SS1618365970224","","","null","","","","","","<p><img src= images/blank.png width =""600"" height = ""600"" style=""position:fixed;top:50%; left:50%; transform: translate(-50%, -50%); border:5px solid black"">","","","","","","","",""
"","1681.0049999985495","sequential-stimulus-presentation-old","99","410390","0.0-23.0-1.3","SS1618365970224","trial","","40","500","2181.0049999985495","images/stimuli/spore_stims/complex_11_A_b.gif","images/stimuli/spore_stims/complex_14_A_a.gif","forced_long","","7","complex_dissimilar","images/stimuli/spore_stims/complex_14_A_a.gif","","","","",""
"","3286.260000000766","survey-multi-choice","100","413679","0.0-24.0","SS1618365970224","math_question","","","","","","","","","","","","{""Q0"":""15""}","[0]","15","",""
"","null","html-keyboard-response","101","414777","0.0-25.0-0.0","SS1618365970224","","","null","","","","","","<p><img src= images/blank.png width =""600"" height = ""600"" style=""position:fixed;top:50%; left:50%; transform: translate(-50%, -50%); border:5px solid black"">","","","","","","","",""
"","879.8099999985425","sequential-stimulus-presentation-old","102","415715","0.0-25.0-1.0","SS1618365970224","trial","","40","500","1379.8099999985425","images/stimuli/spore_stims/complex_01_A_a.gif","images/stimuli/spore_stims/complex_04_A_b.gif","forced_short","","8","complex_dissimilar","images/stimuli/spore_stims/complex_04_A_b.gif","","","","",""
"","null","html-keyboard-response","103","416835","0.0-25.0-0.1","SS1618365970224","","","null","","","","","","<p><img src= images/blank.png width =""600"" height = ""600"" style=""position:fixed;top:50%; left:50%; transform: translate(-50%, -50%); border:5px solid black"">","","","","","","","",""
"","10903.16499999608","sequential-stimulus-presentation-old","104","428241","0.0-25.0-1.1","SS1618365970224","trial","","40","500","11403.16499999608","images/stimuli/spore_stims/complex_01_A_a.gif","images/stimuli/spore_stims/complex_04_A_b.gif","forced_short","","8","complex_dissimilar","images/stimuli/spore_stims/complex_04_A_b.gif","","","","",""
"","null","html-keyboard-response","105","429155","0.0-25.0-0.2","SS1618365970224","","","null","","","","","","<p><img src= images/blank.png width =""600"" height = ""600"" style=""position:fixed;top:50%; left:50%; transform: translate(-50%, -50%); border:5px solid black"">","","","","","","","",""
"","9942.4050000016","sequential-stimulus-presentation-old","106","439603","0.0-25.0-1.2","SS1618365970224","trial","","40","500","10442.4050000016","images/stimuli/spore_stims/complex_01_A_a.gif","images/stimuli/spore_stims/complex_04_A_b.gif","forced_short","","8","complex_dissimilar","images/stimuli/spore_stims/complex_04_A_b.gif","","","","",""
"","null","html-keyboard-response","107","440876","0.0-25.0-0.3","SS1618365970224","","","null","","","","","","<p><img src= images/blank.png width =""600"" height = ""600"" style=""position:fixed;top:50%; left:50%; transform: translate(-50%, -50%); border:5px solid black"">","","","","","","","",""
"","4548.315000000002","sequential-stimulus-presentation-old","108","445928","0.0-25.0-1.3","SS1618365970224","trial","","40","500","5048.315000000002","images/stimuli/spore_stims/complex_01_A_a.gif","images/stimuli/spore_stims/complex_04_A_b.gif","forced_short","","8","complex_dissimilar","images/stimuli/spore_stims/complex_04_A_b.gif","","","","",""
"","3226.3250000032713","survey-multi-choice","109","449156","0.0-26.0","SS1618365970224","math_question","","","","","","","","","","","","{""Q0"":""12""}","[0]","12","",""
"","null","html-keyboard-response","110","450121","0.0-27.0-0.0","SS1618365970224","","","null","","","","","","<p><img src= images/blank.png width =""600"" height = ""600"" style=""position:fixed;top:50%; left:50%; transform: translate(-50%, -50%); border:5px solid black"">","","","","","","","",""
"","2779.5699999987846","sequential-stimulus-presentation-old","111","453403","0.0-27.0-1.0","SS1618365970224","trial","","40","500","3279.5699999987846","images/stimuli/spore_stims/complex_08_A_b.gif","images/stimuli/spore_stims/complex_03_A_a.gif","self_paced","","9","complex_dissimilar","images/stimuli/spore_stims/complex_03_A_a.gif","","","","",""
"","null","html-keyboard-response","112","454234","0.0-27.0-0.1","SS1618365970224","","","null","","","","","","<p><img src= images/blank.png width =""600"" height = ""600"" style=""position:fixed;top:50%; left:50%; transform: translate(-50%, -50%); border:5px solid black"">","","","","","","","",""
"","236.89000000013039","sequential-stimulus-presentation-old","113","454978","0.0-27.0-1.1","SS1618365970224","trial","","40","500","736.8900000001304","images/stimuli/spore_stims/complex_08_A_b.gif","images/stimuli/spore_stims/complex_03_A_a.gif","self_paced","","9","complex_dissimilar","images/stimuli/spore_stims/complex_03_A_a.gif","","","","",""
"","null","html-keyboard-response","114","455999","0.0-27.0-0.2","SS1618365970224","","","null","","","","","","<p><img src= images/blank.png width =""600"" height = ""600"" style=""position:fixed;top:50%; left:50%; transform: translate(-50%, -50%); border:5px solid black"">","","","","","","","",""
"","3049.479999994219","sequential-stimulus-presentation-old","115","459553","0.0-27.0-1.2","SS1618365970224","trial","","40","500","3549.479999994219","images/stimuli/spore_stims/complex_08_A_b.gif","images/stimuli/spore_stims/complex_03_A_a.gif","self_paced","","9","complex_dissimilar","images/stimuli/spore_stims/complex_03_A_a.gif","","","","",""
"","null","html-keyboard-response","116","460749","0.0-27.0-0.3","SS1618365970224","","","null","","","","","","<p><img src= images/blank.png width =""600"" height = ""600"" style=""position:fixed;top:50%; left:50%; transform: translate(-50%, -50%); border:5px solid black"">","","","","","","","",""
"","920.9849999970174","sequential-stimulus-presentation-old","117","462178","0.0-27.0-1.3","SS1618365970224","trial","","40","500","1420.9849999970174","images/stimuli/spore_stims/complex_08_A_b.gif","images/stimuli/spore_stims/complex_03_A_a.gif","self_paced","","9","complex_dissimilar","images/stimuli/spore_stims/complex_03_A_a.gif","","","","",""
"","2917.6300000035553","survey-multi-choice","118","465098","0.0-28.0","SS1618365970224","math_question","","","","","","","","","","","","{""Q0"":""5""}","[0]","5","",""
"","null","html-keyboard-response","119","466403","0.0-29.0-0.0","SS1618365970224","","","null","","","","","","<p><img src= images/blank.png width =""600"" height = ""600"" style=""position:fixed;top:50%; left:50%; transform: translate(-50%, -50%); border:5px solid black"">","","","","","","","",""
"","817.3449999958393","sequential-stimulus-presentation-old","120","467278","0.0-29.0-1.0","SS1618365970224","trial","","40","500","1317.3449999958393","images/stimuli/spore_stims/simple_06_A_a.gif","images/stimuli/spore_stims/simple_19_A_b.gif","forced_short","","10","simple_dissimilar","images/stimuli/spore_stims/simple_19_A_b.gif","","","","",""
"","null","html-keyboard-response","121","468134","0.0-29.0-0.1","SS1618365970224","","","null","","","","","","<p><img src= images/blank.png width =""600"" height = ""600"" style=""position:fixed;top:50%; left:50%; transform: translate(-50%, -50%); border:5px solid black"">","","","","","","","",""
"","4099.204999998619","sequential-stimulus-presentation-old","122","472740","0.0-29.0-1.1","SS1618365970224","trial","","40","500","4599.204999998619","images/stimuli/spore_stims/simple_06_A_a.gif","images/stimuli/spore_stims/simple_19_A_b.gif","forced_short","","10","simple_dissimilar","images/stimuli/spore_stims/simple_19_A_b.gif","","","","",""
"","null","html-keyboard-response","123","473976","0.0-29.0-0.2","SS1618365970224","","","null","","","","","","<p><img src= images/blank.png width =""600"" height = ""600"" style=""position:fixed;top:50%; left:50%; transform: translate(-50%, -50%); border:5px solid black"">","","","","","","","",""
"","1685.6100000004517","sequential-stimulus-presentation-old","124","476166","0.0-29.0-1.2","SS1618365970224","trial","","40","500","2185.6100000004517","images/stimuli/spore_stims/simple_06_A_a.gif","images/stimuli/spore_stims/simple_19_A_b.gif","forced_short","","10","simple_dissimilar","images/stimuli/spore_stims/simple_19_A_b.gif","","","","",""
"","null","html-keyboard-response","125","477280","0.0-29.0-0.3","SS1618365970224","","","null","","","","","","<p><img src= images/blank.png width =""600"" height = ""600"" style=""position:fixed;top:50%; left:50%; transform: translate(-50%, -50%); border:5px solid black"">","","","","","","","",""
"","3906.9799999997485","sequential-stimulus-presentation-old","126","481691","0.0-29.0-1.3","SS1618365970224","trial","","40","500","4406.9799999997485","images/stimuli/spore_stims/simple_06_A_a.gif","images/stimuli/spore_stims/simple_19_A_b.gif","forced_short","","10","simple_dissimilar","images/stimuli/spore_stims/simple_06_A_a.gif","","","","",""
"","2868.660000000091","survey-multi-choice","127","484561","0.0-30.0","SS1618365970224","math_question","","","","","","","","","","","","{""Q0"":""10""}","[0]","10","",""
"","null","html-keyboard-response","128","485734","0.0-31.0-0.0","SS1618365970224","","","null","","","","","","<p><img src= images/blank.png width =""600"" height = ""600"" style=""position:fixed;top:50%; left:50%; transform: translate(-50%, -50%); border:5px solid black"">","","","","","","","",""
"","5949.585000002116","sequential-stimulus-presentation-old","129","496691","0.0-31.0-1.0","SS1618365970224","trial","","40","500","6449.585000002116","images/stimuli/spore_stims/simple_05_A_b.gif","images/stimuli/spore_stims/simple_07_A_a.gif","forced_long","","11","simple_dissimilar","images/stimuli/spore_stims/simple_07_A_a.gif","","","","",""
"","null","html-keyboard-response","130","497627","0.0-31.0-0.1","SS1618365970224","","","null","","","","","","<p><img src= images/blank.png width =""600"" height = ""600"" style=""position:fixed;top:50%; left:50%; transform: translate(-50%, -50%); border:5px solid black"">","","","","","","","",""
"","2398.5850000026403","sequential-stimulus-presentation-old","131","500529","0.0-31.0-1.1","SS1618365970224","trial","","40","500","2898.5850000026403","images/stimuli/spore_stims/simple_05_A_b.gif","images/stimuli/spore_stims/simple_07_A_a.gif","forced_long","","11","simple_dissimilar","images/stimuli/spore_stims/simple_05_A_b.gif","","","","",""
"","null","html-keyboard-response","132","501652","0.0-31.0-0.2","SS1618365970224","","","null","","","","","","<p><img src= images/blank.png width =""600"" height = ""600"" style=""position:fixed;top:50%; left:50%; transform: translate(-50%, -50%); border:5px solid black"">","","","","","","","",""
"","3672.145000004035","sequential-stimulus-presentation-old","133","505828","0.0-31.0-1.2","SS1618365970224","trial","","40","500","4172.145000004035","images/stimuli/spore_stims/simple_05_A_b.gif","images/stimuli/spore_stims/simple_07_A_a.gif","forced_long","","11","simple_dissimilar","images/stimuli/spore_stims/simple_07_A_a.gif","","","","",""
"","null","html-keyboard-response","134","506819","0.0-31.0-0.3","SS1618365970224","","","null","","","","","","<p><img src= images/blank.png width =""600"" height = ""600"" style=""position:fixed;top:50%; left:50%; transform: translate(-50%, -50%); border:5px solid black"">","","","","","","","",""
"","1001.5800000036834","sequential-stimulus-presentation-old","135","508328","0.0-31.0-1.3","SS1618365970224","trial","","40","500","1501.5800000036834","images/stimuli/spore_stims/simple_05_A_b.gif","images/stimuli/spore_stims/simple_07_A_a.gif","forced_long","","11","simple_dissimilar","images/stimuli/spore_stims/simple_07_A_a.gif","","","","",""
"","null","html-keyboard-response","136","509508","0.0-31.0-0.4","SS1618365970224","","","null","","","","","","<p><img src= images/blank.png width =""600"" height = ""600"" style=""position:fixed;top:50%; left:50%; transform: translate(-50%, -50%); border:5px solid black"">","","","","","","","",""
"","337.9599999971688","sequential-stimulus-presentation-old","137","510353","0.0-31.0-1.4","SS1618365970224","trial","","40","500","837.9599999971688","images/stimuli/spore_stims/simple_05_A_b.gif","images/stimuli/spore_stims/simple_07_A_a.gif","forced_long","","11","simple_dissimilar","images/stimuli/spore_stims/simple_05_A_b.gif","","","","",""
"[{""page_index"":0,""viewing_time"":4576.755000001984}]","4577.030000000494","instructions","138","514932","0.0-32.0","SS1618365970224","instructions","","","","","","","","","","","","","","","",""
"","11549.11500000162","survey-likert","139","526484","0.0-33.0","SS1618365970224","similarity_question","","","","","","","","","","","","{""Q0"":1}","[0]","","images/stimuli/spore_stims/complex_08_A_a.gif","images/stimuli/spore_stims/complex_13_A_b.gif"
"","4372.860000003129","survey-likert","140","530864","0.0-34.0","SS1618365970224","similarity_question","","","","","","","","","","","","{""Q0"":5}","[0]","","images/stimuli/spore_stims/simple_09_A_b.gif","images/stimuli/spore_stims/simple_20_A_a.gif"
"","10060.060000003548","survey-likert","141","540931","0.0-35.0","SS1618365970224","similarity_question","","","","","","","","","","","","{""Q0"":2}","[0]","","images/stimuli/spore_stims/complex_04_A_b.gif","images/stimuli/spore_stims/complex_01_A_a.gif"
"","3536.9250000002794","survey-likert","142","544475","0.0-36.0","SS1618365970224","similarity_question","","","","","","","","","","","","{""Q0"":5}","[0]","","images/stimuli/spore_stims/simple_07_A_a.gif","images/stimuli/spore_stims/simple_05_A_b.gif"
"","2976.1100000031292","survey-likert","143","547459","0.0-37.0","SS1618365970224","similarity_question","","","","","","","","","","","","{""Q0"":5}","[0]","","images/stimuli/spore_stims/simple_06_A_a.gif","images/stimuli/spore_stims/simple_19_A_b.gif"
"","2874.81000000122","survey-likert","144","550341","0.0-38.0","SS1618365970224","similarity_question","","","","","","","","","","","","{""Q0"":4}","[0]","","images/stimuli/spore_stims/simple_02_A_b.gif","images/stimuli/spore_stims/simple_18_A_a.gif"
"","3589.6700000013225","survey-likert","145","553939","0.0-39.0","SS1618365970224","similarity_question","","","","","","","","","","","","{""Q0"":5}","[0]","","images/stimuli/spore_stims/simple_08_A_a.gif","images/stimuli/spore_stims/simple_03_A_b.gif"
"","6086.845000005211","survey-likert","146","560033","0.0-40.0","SS1618365970224","similarity_question","","","","","","","","","","","","{""Q0"":1}","[0]","","images/stimuli/spore_stims/complex_10_A_a.gif","images/stimuli/spore_stims/complex_20_A_b.gif"
"","3326.4300000009825","survey-likert","147","563367","0.0-41.0","SS1618365970224","similarity_question","","","","","","","","","","","","{""Q0"":1}","[0]","","images/stimuli/spore_stims/complex_08_A_b.gif","images/stimuli/spore_stims/complex_03_A_a.gif"
"","2800.3000000026077","survey-likert","148","566175","0.0-42.0","SS1618365970224","similarity_question","","","","","","","","","","","","{""Q0"":1}","[0]","","images/stimuli/spore_stims/complex_13_A_a.gif","images/stimuli/spore_stims/complex_05_A_b.gif"
"","3114.675000004354","survey-likert","149","569297","0.0-43.0","SS1618365970224","similarity_question","","","","","","","","","","","","{""Q0"":5}","[0]","","images/stimuli/spore_stims/simple_03_A_a.gif","images/stimuli/spore_stims/simple_07_A_b.gif"
"","5802.045000004116","survey-likert","150","575106","0.0-44.0","SS1618365970224","similarity_question","","","","","","","","","","","","{""Q0"":0}","[0]","","images/stimuli/spore_stims/complex_14_A_a.gif","images/stimuli/spore_stims/complex_11_A_b.gif"
"[{""page_index"":0,""viewing_time"":5076.939999999013}]","5077.209999995888","instructions","151","580190","0.0-45.0","SS1618365970224","instructions","","","","","","","","","","","","","","","",""
"","6015.879999999073","survey-likert","152","586208","0.0-46.0","SS1618365970224","","","","","","","","","images/stimuli/spore_stims/complex_11_A_b.gif","","","","{""Q0"":6}","[0]","","",""
"","4432.740000003949","survey-likert","153","590648","0.0-47.0","SS1618365970224","","","","","","","","","images/stimuli/spore_stims/simple_07_A_a.gif","","","","{""Q0"":0}","[0]","","",""
"","3784.7550000005867","survey-likert","154","594440","0.0-48.0","SS1618365970224","","","","","","","","","images/stimuli/spore_stims/complex_20_A_b.gif","","","","{""Q0"":6}","[0]","","",""
"","3176.6500000011874","survey-likert","155","597624","0.0-49.0","SS1618365970224","","","","","","","","","images/stimuli/spore_stims/simple_20_A_a.gif","","","","{""Q0"":1}","[0]","","",""
"","3606.9199999982957","survey-likert","156","601238","0.0-50.0","SS1618365970224","","","","","","","","","images/stimuli/spore_stims/simple_03_A_b.gif","","","","{""Q0"":1}","[0]","","",""
"","1900.7850000052713","survey-likert","157","603146","0.0-51.0","SS1618365970224","","","","","","","","","images/stimuli/spore_stims/simple_19_A_b.gif","","","","{""Q0"":1}","[0]","","",""
"","2824.840000001015","survey-likert","158","605978","0.0-52.0","SS1618365970224","","","","","","","","","images/stimuli/spore_stims/simple_02_A_b.gif","","","","{""Q0"":0}","[0]","","",""
"","4078.414999996312","survey-likert","159","610064","0.0-53.0","SS1618365970224","","","","","","","","","images/stimuli/spore_stims/complex_03_A_a.gif","","","","{""Q0"":5}","[0]","","",""
"","2830.0450000024866","survey-likert","160","612901","0.0-54.0","SS1618365970224","","","","","","","","","images/stimuli/spore_stims/complex_01_A_a.gif","","","","{""Q0"":6}","[0]","","",""
"","2296.2849999966566","survey-likert","161","615205","0.0-55.0","SS1618365970224","","","","","","","","","images/stimuli/spore_stims/simple_07_A_b.gif","","","","{""Q0"":0}","[0]","","",""
"","7150.574999999721","survey-likert","162","622363","0.0-56.0","SS1618365970224","","","","","","","","","images/stimuli/spore_stims/complex_05_A_b.gif","","","","{""Q0"":6}","[0]","","",""
"","2260.4799999971874","survey-likert","163","624631","0.0-57.0","SS1618365970224","","","","","","","","","images/stimuli/spore_stims/complex_08_A_a.gif","","","","{""Q0"":6}","[0]","","",""
"[{""page_index"":0,""viewing_time"":2324.4950000008103}]","2324.7000000047265","instructions","164","626963","0.0-58.0","SS1618365970224","instructions","","","","","","","","","","","","","","","",""
"","2143.804999999702","demog-age","165","629111","0.0-59.0","SS1618365970224","","","","","","","","","","","","","{""age"":""31""}","","","",""
"","4214.225000003353","demog-ethnic-US","166","633329","0.0-60.0","SS1618365970224","","","","","","","","","","","","","{""ethnicity"":[""Hispanic or Latino""]}","[0]","","",""
"","4437.665000004927","demog-gender-and-education","167","637775","0.0-61.0","SS1618365970224","","","","","","","","","","","","","{""gender"":""Male"",""education"":""Master's Degree""}","[0,1]","","",""
"","83328.81500000076","survey-text","168","721110","0.0-62.0","SS1618365970224","feedback","","","","","","","","","","","","{""Q0"":""I don't like these animations for babies""}","","","",""
"[{""page_index"":0,""viewing_time"":4799.385000005714}]","4799.650000000838","instructions","169","725912","0.0-63.0","SS1618365970224","instructions","","","","","","","","","","","","","","","",""
