"view_history","rt","trial_type","trial_index","time_elapsed","internal_node_id","subject","stimulus_type","trial_stimulus","key_press","minimum_viewing_duration","trial_looking_time","block_deviant","block_background","exposure_type","stimulus","block_number","block_type","stimulus_displayed","responses","question_order","math_correct_answer","stimulus_left","stimulus_right"
"[{""page_index"":0,""viewing_time"":34095}]","34096","instructions","0","34099","0.0-0.0","SS1618365716411","","","","","","","","","","","","","","","","",""
"[{""page_index"":0,""viewing_time"":15936},{""page_index"":1,""viewing_time"":6150}]","22086","instructions","1","58195","0.0-1.0","SS1618365716411","instructions","","","","","","","","","","","","","","","",""
"","6303","sequential-stimulus-presentation-old","2","65003","0.0-2.0","SS1618365716411","","","40","500","6803","null","null","self_paced","","","","","","","","",""
"","8104","sequential-stimulus-presentation-old","3","73611","0.0-3.0","SS1618365716411","","","40","500","8604","null","null","self_paced","","","","","","","","",""
"[{""page_index"":0,""viewing_time"":27414}]","27414","instructions","4","101028","0.0-4.0","SS1618365716411","instructions","","","","","","","","","","","","","","","",""
"","3052","sequential-stimulus-presentation-old","5","109084","0.0-5.0","SS1618365716411","","","40","500","3552","null","null","forced_long","","","","","","","","",""
"","10627","sequential-stimulus-presentation-old","6","119766","0.0-6.0","SS1618365716411","","","40","50","10677","null","null","forced_long","","","","","","","","",""
"[{""page_index"":0,""viewing_time"":6383}]","6383","instructions","7","126150","0.0-7.0","SS1618365716411","instructions","","","","","","","","","","","","","","","",""
"[{""page_index"":0,""viewing_time"":16646},{""page_index"":1,""viewing_time"":12402},{""page_index"":2,""viewing_time"":7264},{""page_index"":3,""viewing_time"":1878},{""page_index"":4,""viewing_time"":1709}]","39899","instructions","8","166051","0.0-8.0","SS1618365716411","instructions","","","","","","","","","","","","","","","",""
"","null","html-keyboard-response","9","166871","0.0-9.0-0.0","SS1618365716411","","","null","","","","","","<p><img src= images/blank.png width =""600"" height = ""600"" style=""position:fixed;top:50%; left:50%; transform: translate(-50%, -50%); border:5px solid black"">","","","","","","","",""
"","1988","sequential-stimulus-presentation-old","10","168913","0.0-9.0-1.0","SS1618365716411","trial","","40","500","2488","images/stimuli/spore_stims/complex_06_A_a.gif","images/stimuli/spore_stims/complex_17_A_b.gif","forced_short","","0","complex_dissimilar","images/stimuli/spore_stims/complex_17_A_b.gif","","","","",""
"","null","html-keyboard-response","11","169888","0.0-9.0-0.1","SS1618365716411","","","null","","","","","","<p><img src= images/blank.png width =""600"" height = ""600"" style=""position:fixed;top:50%; left:50%; transform: translate(-50%, -50%); border:5px solid black"">","","","","","","","",""
"","14015","sequential-stimulus-presentation-old","12","184410","0.0-9.0-1.1","SS1618365716411","trial","","40","500","14515","images/stimuli/spore_stims/complex_06_A_a.gif","images/stimuli/spore_stims/complex_17_A_b.gif","forced_short","","0","complex_dissimilar","images/stimuli/spore_stims/complex_17_A_b.gif","","","","",""
"","null","html-keyboard-response","13","185440","0.0-9.0-0.2","SS1618365716411","","","null","","","","","","<p><img src= images/blank.png width =""600"" height = ""600"" style=""position:fixed;top:50%; left:50%; transform: translate(-50%, -50%); border:5px solid black"">","","","","","","","",""
"","6080","sequential-stimulus-presentation-old","14","192027","0.0-9.0-1.2","SS1618365716411","trial","","40","500","6580","images/stimuli/spore_stims/complex_06_A_a.gif","images/stimuli/spore_stims/complex_17_A_b.gif","forced_short","","0","complex_dissimilar","images/stimuli/spore_stims/complex_17_A_b.gif","","","","",""
"","null","html-keyboard-response","15","193311","0.0-9.0-0.3","SS1618365716411","","","null","","","","","","<p><img src= images/blank.png width =""600"" height = ""600"" style=""position:fixed;top:50%; left:50%; transform: translate(-50%, -50%); border:5px solid black"">","","","","","","","",""
"","9655","sequential-stimulus-presentation-old","16","203469","0.0-9.0-1.3","SS1618365716411","trial","","40","500","10155","images/stimuli/spore_stims/complex_06_A_a.gif","images/stimuli/spore_stims/complex_17_A_b.gif","forced_short","","0","complex_dissimilar","images/stimuli/spore_stims/complex_17_A_b.gif","","","","",""
"","null","html-keyboard-response","17","204378","0.0-9.0-0.4","SS1618365716411","","","null","","","","","","<p><img src= images/blank.png width =""600"" height = ""600"" style=""position:fixed;top:50%; left:50%; transform: translate(-50%, -50%); border:5px solid black"">","","","","","","","",""
"","7036","sequential-stimulus-presentation-old","18","211916","0.0-9.0-1.4","SS1618365716411","trial","","40","500","7536","images/stimuli/spore_stims/complex_06_A_a.gif","images/stimuli/spore_stims/complex_17_A_b.gif","forced_short","","0","complex_dissimilar","images/stimuli/spore_stims/complex_17_A_b.gif","","","","",""
"","null","html-keyboard-response","19","212966","0.0-9.0-0.5","SS1618365716411","","","null","","","","","","<p><img src= images/blank.png width =""600"" height = ""600"" style=""position:fixed;top:50%; left:50%; transform: translate(-50%, -50%); border:5px solid black"">","","","","","","","",""
"","7395","sequential-stimulus-presentation-old","20","220864","0.0-9.0-1.5","SS1618365716411","trial","","40","500","7895","images/stimuli/spore_stims/complex_06_A_a.gif","images/stimuli/spore_stims/complex_17_A_b.gif","forced_short","","0","complex_dissimilar","images/stimuli/spore_stims/complex_17_A_b.gif","","","","",""
"","4007","survey-multi-choice","21","224874","0.0-10.0","SS1618365716411","math_question","","","","","","","","","","","","{""Q0"":""3""}","[0]","3","",""
"","null","html-keyboard-response","22","225717","0.0-11.0-0.0","SS1618365716411","","","null","","","","","","<p><img src= images/blank.png width =""600"" height = ""600"" style=""position:fixed;top:50%; left:50%; transform: translate(-50%, -50%); border:5px solid black"">","","","","","","","",""
"","3481","sequential-stimulus-presentation-old","23","234203","0.0-11.0-1.0","SS1618365716411","trial","","40","500","3981","images/stimuli/spore_stims/simple_09_A_a.gif","images/stimuli/spore_stims/simple_04_A_b.gif","forced_long","","1","simple_dissimilar","images/stimuli/spore_stims/simple_04_A_b.gif","","","","",""
"","null","html-keyboard-response","24","235372","0.0-11.0-0.1","SS1618365716411","","","null","","","","","","<p><img src= images/blank.png width =""600"" height = ""600"" style=""position:fixed;top:50%; left:50%; transform: translate(-50%, -50%); border:5px solid black"">","","","","","","","",""
"","11811","sequential-stimulus-presentation-old","25","247688","0.0-11.0-1.1","SS1618365716411","trial","","40","500","12311","images/stimuli/spore_stims/simple_09_A_a.gif","images/stimuli/spore_stims/simple_04_A_b.gif","forced_long","","1","simple_dissimilar","images/stimuli/spore_stims/simple_04_A_b.gif","","","","",""
"","null","html-keyboard-response","26","248683","0.0-11.0-0.2","SS1618365716411","","","null","","","","","","<p><img src= images/blank.png width =""600"" height = ""600"" style=""position:fixed;top:50%; left:50%; transform: translate(-50%, -50%); border:5px solid black"">","","","","","","","",""
"","5247","sequential-stimulus-presentation-old","27","254433","0.0-11.0-1.2","SS1618365716411","trial","","40","500","5747","images/stimuli/spore_stims/simple_09_A_a.gif","images/stimuli/spore_stims/simple_04_A_b.gif","forced_long","","1","simple_dissimilar","images/stimuli/spore_stims/simple_04_A_b.gif","","","","",""
"","null","html-keyboard-response","28","255455","0.0-11.0-0.3","SS1618365716411","","","null","","","","","","<p><img src= images/blank.png width =""600"" height = ""600"" style=""position:fixed;top:50%; left:50%; transform: translate(-50%, -50%); border:5px solid black"">","","","","","","","",""
"","8139","sequential-stimulus-presentation-old","29","264096","0.0-11.0-1.3","SS1618365716411","trial","","40","500","8639","images/stimuli/spore_stims/simple_09_A_a.gif","images/stimuli/spore_stims/simple_04_A_b.gif","forced_long","","1","simple_dissimilar","images/stimuli/spore_stims/simple_09_A_a.gif","","","","",""
"","null","html-keyboard-response","30","265006","0.0-11.0-0.4","SS1618365716411","","","null","","","","","","<p><img src= images/blank.png width =""600"" height = ""600"" style=""position:fixed;top:50%; left:50%; transform: translate(-50%, -50%); border:5px solid black"">","","","","","","","",""
"","6173","sequential-stimulus-presentation-old","31","271686","0.0-11.0-1.4","SS1618365716411","trial","","40","500","6673","images/stimuli/spore_stims/simple_09_A_a.gif","images/stimuli/spore_stims/simple_04_A_b.gif","forced_long","","1","simple_dissimilar","images/stimuli/spore_stims/simple_09_A_a.gif","","","","",""
"","4035","survey-multi-choice","32","275724","0.0-12.0","SS1618365716411","math_question","","","","","","","","","","","","{""Q0"":""13""}","[0]","13","",""
"","null","html-keyboard-response","33","276977","0.0-13.0-0.0","SS1618365716411","","","null","","","","","","<p><img src= images/blank.png width =""600"" height = ""600"" style=""position:fixed;top:50%; left:50%; transform: translate(-50%, -50%); border:5px solid black"">","","","","","","","",""
"","2501","sequential-stimulus-presentation-old","34","279533","0.0-13.0-1.0","SS1618365716411","trial","","40","500","3001","images/stimuli/spore_stims/complex_03_A_a.gif","images/stimuli/spore_stims/complex_14_A_b.gif","forced_short","","2","complex_dissimilar","images/stimuli/spore_stims/complex_14_A_b.gif","","","","",""
"","null","html-keyboard-response","35","280634","0.0-13.0-0.1","SS1618365716411","","","null","","","","","","<p><img src= images/blank.png width =""600"" height = ""600"" style=""position:fixed;top:50%; left:50%; transform: translate(-50%, -50%); border:5px solid black"">","","","","","","","",""
"","8437","sequential-stimulus-presentation-old","36","289578","0.0-13.0-1.1","SS1618365716411","trial","","40","500","8937","images/stimuli/spore_stims/complex_03_A_a.gif","images/stimuli/spore_stims/complex_14_A_b.gif","forced_short","","2","complex_dissimilar","images/stimuli/spore_stims/complex_14_A_b.gif","","","","",""
"","null","html-keyboard-response","37","290765","0.0-13.0-0.2","SS1618365716411","","","null","","","","","","<p><img src= images/blank.png width =""600"" height = ""600"" style=""position:fixed;top:50%; left:50%; transform: translate(-50%, -50%); border:5px solid black"">","","","","","","","",""
"","6475","sequential-stimulus-presentation-old","38","297746","0.0-13.0-1.2","SS1618365716411","trial","","40","500","6975","images/stimuli/spore_stims/complex_03_A_a.gif","images/stimuli/spore_stims/complex_14_A_b.gif","forced_short","","2","complex_dissimilar","images/stimuli/spore_stims/complex_14_A_b.gif","","","","",""
"","null","html-keyboard-response","39","299043","0.0-13.0-0.3","SS1618365716411","","","null","","","","","","<p><img src= images/blank.png width =""600"" height = ""600"" style=""position:fixed;top:50%; left:50%; transform: translate(-50%, -50%); border:5px solid black"">","","","","","","","",""
"","5669","sequential-stimulus-presentation-old","40","305221","0.0-13.0-1.3","SS1618365716411","trial","","40","500","6169","images/stimuli/spore_stims/complex_03_A_a.gif","images/stimuli/spore_stims/complex_14_A_b.gif","forced_short","","2","complex_dissimilar","images/stimuli/spore_stims/complex_14_A_b.gif","","","","",""
"","null","html-keyboard-response","41","306293","0.0-13.0-0.4","SS1618365716411","","","null","","","","","","<p><img src= images/blank.png width =""600"" height = ""600"" style=""position:fixed;top:50%; left:50%; transform: translate(-50%, -50%); border:5px solid black"">","","","","","","","",""
"","8714","sequential-stimulus-presentation-old","42","315514","0.0-13.0-1.4","SS1618365716411","trial","","40","500","9214","images/stimuli/spore_stims/complex_03_A_a.gif","images/stimuli/spore_stims/complex_14_A_b.gif","forced_short","","2","complex_dissimilar","images/stimuli/spore_stims/complex_03_A_a.gif","","","","",""
"","3609","survey-multi-choice","43","319126","0.0-14.0","SS1618365716411","math_question","","","","","","","","","","","","{""Q0"":""11""}","[0]","11","",""
"","null","html-keyboard-response","44","320044","0.0-15.0-0.0","SS1618365716411","","","null","","","","","","<p><img src= images/blank.png width =""600"" height = ""600"" style=""position:fixed;top:50%; left:50%; transform: translate(-50%, -50%); border:5px solid black"">","","","","","","","",""
"","3601","sequential-stimulus-presentation-old","45","328653","0.0-15.0-1.0","SS1618365716411","trial","","40","500","4101","images/stimuli/spore_stims/complex_04_A_b.gif","images/stimuli/spore_stims/complex_19_A_a.gif","forced_long","","3","complex_dissimilar","images/stimuli/spore_stims/complex_19_A_a.gif","","","","",""
"","null","html-keyboard-response","46","329649","0.0-15.0-0.1","SS1618365716411","","","null","","","","","","<p><img src= images/blank.png width =""600"" height = ""600"" style=""position:fixed;top:50%; left:50%; transform: translate(-50%, -50%); border:5px solid black"">","","","","","","","",""
"","5215","sequential-stimulus-presentation-old","47","335369","0.0-15.0-1.1","SS1618365716411","trial","","40","500","5715","images/stimuli/spore_stims/complex_04_A_b.gif","images/stimuli/spore_stims/complex_19_A_a.gif","forced_long","","3","complex_dissimilar","images/stimuli/spore_stims/complex_19_A_a.gif","","","","",""
"","null","html-keyboard-response","48","336294","0.0-15.0-0.2","SS1618365716411","","","null","","","","","","<p><img src= images/blank.png width =""600"" height = ""600"" style=""position:fixed;top:50%; left:50%; transform: translate(-50%, -50%); border:5px solid black"">","","","","","","","",""
"","4126","sequential-stimulus-presentation-old","49","340926","0.0-15.0-1.2","SS1618365716411","trial","","40","500","4626","images/stimuli/spore_stims/complex_04_A_b.gif","images/stimuli/spore_stims/complex_19_A_a.gif","forced_long","","3","complex_dissimilar","images/stimuli/spore_stims/complex_04_A_b.gif","","","","",""
"","null","html-keyboard-response","50","342157","0.0-15.0-0.3","SS1618365716411","","","null","","","","","","<p><img src= images/blank.png width =""600"" height = ""600"" style=""position:fixed;top:50%; left:50%; transform: translate(-50%, -50%); border:5px solid black"">","","","","","","","",""
"","9008","sequential-stimulus-presentation-old","51","351671","0.0-15.0-1.3","SS1618365716411","trial","","40","500","9508","images/stimuli/spore_stims/complex_04_A_b.gif","images/stimuli/spore_stims/complex_19_A_a.gif","forced_long","","3","complex_dissimilar","images/stimuli/spore_stims/complex_19_A_a.gif","","","","",""
"","null","html-keyboard-response","52","352916","0.0-15.0-0.4","SS1618365716411","","","null","","","","","","<p><img src= images/blank.png width =""600"" height = ""600"" style=""position:fixed;top:50%; left:50%; transform: translate(-50%, -50%); border:5px solid black"">","","","","","","","",""
"","8473","sequential-stimulus-presentation-old","53","361896","0.0-15.0-1.4","SS1618365716411","trial","","40","500","8973","images/stimuli/spore_stims/complex_04_A_b.gif","images/stimuli/spore_stims/complex_19_A_a.gif","forced_long","","3","complex_dissimilar","images/stimuli/spore_stims/complex_19_A_a.gif","","","","",""
"","4845","survey-multi-choice","54","366744","0.0-16.0","SS1618365716411","math_question","","","","","","","","","","","","{""Q0"":""9""}","[0]","9","",""
"","null","html-keyboard-response","55","367897","0.0-17.0-0.0","SS1618365716411","","","null","","","","","","<p><img src= images/blank.png width =""600"" height = ""600"" style=""position:fixed;top:50%; left:50%; transform: translate(-50%, -50%); border:5px solid black"">","","","","","","","",""
"","2717","sequential-stimulus-presentation-old","56","371116","0.0-17.0-1.0","SS1618365716411","trial","","40","500","3217","images/stimuli/spore_stims/simple_01_A_a.gif","images/stimuli/spore_stims/simple_07_A_b.gif","self_paced","","4","simple_dissimilar","images/stimuli/spore_stims/simple_07_A_b.gif","","","","",""
"","null","html-keyboard-response","57","372112","0.0-17.0-0.1","SS1618365716411","","","null","","","","","","<p><img src= images/blank.png width =""600"" height = ""600"" style=""position:fixed;top:50%; left:50%; transform: translate(-50%, -50%); border:5px solid black"">","","","","","","","",""
"","997","sequential-stimulus-presentation-old","58","373612","0.0-17.0-1.1","SS1618365716411","trial","","40","500","1497","images/stimuli/spore_stims/simple_01_A_a.gif","images/stimuli/spore_stims/simple_07_A_b.gif","self_paced","","4","simple_dissimilar","images/stimuli/spore_stims/simple_01_A_a.gif","","","","",""
"","null","html-keyboard-response","59","374515","0.0-17.0-0.2","SS1618365716411","","","null","","","","","","<p><img src= images/blank.png width =""600"" height = ""600"" style=""position:fixed;top:50%; left:50%; transform: translate(-50%, -50%); border:5px solid black"">","","","","","","","",""
"","2748","sequential-stimulus-presentation-old","60","377770","0.0-17.0-1.2","SS1618365716411","trial","","40","500","3248","images/stimuli/spore_stims/simple_01_A_a.gif","images/stimuli/spore_stims/simple_07_A_b.gif","self_paced","","4","simple_dissimilar","images/stimuli/spore_stims/simple_07_A_b.gif","","","","",""
"","null","html-keyboard-response","61","378753","0.0-17.0-0.3","SS1618365716411","","","null","","","","","","<p><img src= images/blank.png width =""600"" height = ""600"" style=""position:fixed;top:50%; left:50%; transform: translate(-50%, -50%); border:5px solid black"">","","","","","","","",""
"","1919","sequential-stimulus-presentation-old","62","381178","0.0-17.0-1.3","SS1618365716411","trial","","40","500","2419","images/stimuli/spore_stims/simple_01_A_a.gif","images/stimuli/spore_stims/simple_07_A_b.gif","self_paced","","4","simple_dissimilar","images/stimuli/spore_stims/simple_01_A_a.gif","","","","",""
"","null","html-keyboard-response","63","382426","0.0-17.0-0.4","SS1618365716411","","","null","","","","","","<p><img src= images/blank.png width =""600"" height = ""600"" style=""position:fixed;top:50%; left:50%; transform: translate(-50%, -50%); border:5px solid black"">","","","","","","","",""
"","1311","sequential-stimulus-presentation-old","64","384243","0.0-17.0-1.4","SS1618365716411","trial","","40","500","1811","images/stimuli/spore_stims/simple_01_A_a.gif","images/stimuli/spore_stims/simple_07_A_b.gif","self_paced","","4","simple_dissimilar","images/stimuli/spore_stims/simple_07_A_b.gif","","","","",""
"","null","html-keyboard-response","65","385066","0.0-17.0-0.5","SS1618365716411","","","null","","","","","","<p><img src= images/blank.png width =""600"" height = ""600"" style=""position:fixed;top:50%; left:50%; transform: translate(-50%, -50%); border:5px solid black"">","","","","","","","",""
"","1793","sequential-stimulus-presentation-old","66","387363","0.0-17.0-1.5","SS1618365716411","trial","","40","500","2293","images/stimuli/spore_stims/simple_01_A_a.gif","images/stimuli/spore_stims/simple_07_A_b.gif","self_paced","","4","simple_dissimilar","images/stimuli/spore_stims/simple_07_A_b.gif","","","","",""
"","3579","survey-multi-choice","67","390944","0.0-18.0","SS1618365716411","math_question","","","","","","","","","","","","{""Q0"":""7""}","[0]","7","",""
"","null","html-keyboard-response","68","392168","0.0-19.0-0.0","SS1618365716411","","","null","","","","","","<p><img src= images/blank.png width =""600"" height = ""600"" style=""position:fixed;top:50%; left:50%; transform: translate(-50%, -50%); border:5px solid black"">","","","","","","","",""
"","5522","sequential-stimulus-presentation-old","69","398198","0.0-19.0-1.0","SS1618365716411","trial","","40","500","6022","images/stimuli/spore_stims/complex_11_A_b.gif","images/stimuli/spore_stims/complex_18_A_a.gif","self_paced","","5","complex_dissimilar","images/stimuli/spore_stims/complex_18_A_a.gif","","","","",""
"","null","html-keyboard-response","70","399315","0.0-19.0-0.1","SS1618365716411","","","null","","","","","","<p><img src= images/blank.png width =""600"" height = ""600"" style=""position:fixed;top:50%; left:50%; transform: translate(-50%, -50%); border:5px solid black"">","","","","","","","",""
"","4647","sequential-stimulus-presentation-old","71","404465","0.0-19.0-1.1","SS1618365716411","trial","","40","500","5147","images/stimuli/spore_stims/complex_11_A_b.gif","images/stimuli/spore_stims/complex_18_A_a.gif","self_paced","","5","complex_dissimilar","images/stimuli/spore_stims/complex_18_A_a.gif","","","","",""
"","null","html-keyboard-response","72","405341","0.0-19.0-0.2","SS1618365716411","","","null","","","","","","<p><img src= images/blank.png width =""600"" height = ""600"" style=""position:fixed;top:50%; left:50%; transform: translate(-50%, -50%); border:5px solid black"">","","","","","","","",""
"","2546","sequential-stimulus-presentation-old","73","408391","0.0-19.0-1.2","SS1618365716411","trial","","40","500","3046","images/stimuli/spore_stims/complex_11_A_b.gif","images/stimuli/spore_stims/complex_18_A_a.gif","self_paced","","5","complex_dissimilar","images/stimuli/spore_stims/complex_18_A_a.gif","","","","",""
"","null","html-keyboard-response","74","409335","0.0-19.0-0.3","SS1618365716411","","","null","","","","","","<p><img src= images/blank.png width =""600"" height = ""600"" style=""position:fixed;top:50%; left:50%; transform: translate(-50%, -50%); border:5px solid black"">","","","","","","","",""
"","3619","sequential-stimulus-presentation-old","75","413457","0.0-19.0-1.3","SS1618365716411","trial","","40","500","4119","images/stimuli/spore_stims/complex_11_A_b.gif","images/stimuli/spore_stims/complex_18_A_a.gif","self_paced","","5","complex_dissimilar","images/stimuli/spore_stims/complex_18_A_a.gif","","","","",""
"","null","html-keyboard-response","76","414722","0.0-19.0-0.4","SS1618365716411","","","null","","","","","","<p><img src= images/blank.png width =""600"" height = ""600"" style=""position:fixed;top:50%; left:50%; transform: translate(-50%, -50%); border:5px solid black"">","","","","","","","",""
"","1596","sequential-stimulus-presentation-old","77","416825","0.0-19.0-1.4","SS1618365716411","trial","","40","500","2096","images/stimuli/spore_stims/complex_11_A_b.gif","images/stimuli/spore_stims/complex_18_A_a.gif","self_paced","","5","complex_dissimilar","images/stimuli/spore_stims/complex_18_A_a.gif","","","","",""
"","3179","survey-multi-choice","78","420006","0.0-20.0","SS1618365716411","math_question","","","","","","","","","","","","{""Q0"":""11""}","[0]","11","",""
"","null","html-keyboard-response","79","421030","0.0-21.0-0.0","SS1618365716411","","","null","","","","","","<p><img src= images/blank.png width =""600"" height = ""600"" style=""position:fixed;top:50%; left:50%; transform: translate(-50%, -50%); border:5px solid black"">","","","","","","","",""
"","1895","sequential-stimulus-presentation-old","80","422979","0.0-21.0-1.0","SS1618365716411","trial","","40","500","2395","images/stimuli/spore_stims/simple_04_A_a.gif","images/stimuli/spore_stims/simple_19_A_b.gif","forced_short","","6","simple_dissimilar","images/stimuli/spore_stims/simple_19_A_b.gif","","","","",""
"","null","html-keyboard-response","81","424226","0.0-21.0-0.1","SS1618365716411","","","null","","","","","","<p><img src= images/blank.png width =""600"" height = ""600"" style=""position:fixed;top:50%; left:50%; transform: translate(-50%, -50%); border:5px solid black"">","","","","","","","",""
"","1422","sequential-stimulus-presentation-old","82","426152","0.0-21.0-1.1","SS1618365716411","trial","","40","500","1922","images/stimuli/spore_stims/simple_04_A_a.gif","images/stimuli/spore_stims/simple_19_A_b.gif","forced_short","","6","simple_dissimilar","images/stimuli/spore_stims/simple_19_A_b.gif","","","","",""
"","null","html-keyboard-response","83","427080","0.0-21.0-0.2","SS1618365716411","","","null","","","","","","<p><img src= images/blank.png width =""600"" height = ""600"" style=""position:fixed;top:50%; left:50%; transform: translate(-50%, -50%); border:5px solid black"">","","","","","","","",""
"","1884","sequential-stimulus-presentation-old","84","429470","0.0-21.0-1.2","SS1618365716411","trial","","40","500","2384","images/stimuli/spore_stims/simple_04_A_a.gif","images/stimuli/spore_stims/simple_19_A_b.gif","forced_short","","6","simple_dissimilar","images/stimuli/spore_stims/simple_04_A_a.gif","","","","",""
"","null","html-keyboard-response","85","430581","0.0-21.0-0.3","SS1618365716411","","","null","","","","","","<p><img src= images/blank.png width =""600"" height = ""600"" style=""position:fixed;top:50%; left:50%; transform: translate(-50%, -50%); border:5px solid black"">","","","","","","","",""
"","2838","sequential-stimulus-presentation-old","86","433927","0.0-21.0-1.3","SS1618365716411","trial","","40","500","3338","images/stimuli/spore_stims/simple_04_A_a.gif","images/stimuli/spore_stims/simple_19_A_b.gif","forced_short","","6","simple_dissimilar","images/stimuli/spore_stims/simple_19_A_b.gif","","","","",""
"","null","html-keyboard-response","87","435156","0.0-21.0-0.4","SS1618365716411","","","null","","","","","","<p><img src= images/blank.png width =""600"" height = ""600"" style=""position:fixed;top:50%; left:50%; transform: translate(-50%, -50%); border:5px solid black"">","","","","","","","",""
"","1217","sequential-stimulus-presentation-old","88","436878","0.0-21.0-1.4","SS1618365716411","trial","","40","500","1717","images/stimuli/spore_stims/simple_04_A_a.gif","images/stimuli/spore_stims/simple_19_A_b.gif","forced_short","","6","simple_dissimilar","images/stimuli/spore_stims/simple_19_A_b.gif","","","","",""
"","null","html-keyboard-response","89","438012","0.0-21.0-0.5","SS1618365716411","","","null","","","","","","<p><img src= images/blank.png width =""600"" height = ""600"" style=""position:fixed;top:50%; left:50%; transform: translate(-50%, -50%); border:5px solid black"">","","","","","","","",""
"","2321","sequential-stimulus-presentation-old","90","440835","0.0-21.0-1.5","SS1618365716411","trial","","40","500","2821","images/stimuli/spore_stims/simple_04_A_a.gif","images/stimuli/spore_stims/simple_19_A_b.gif","forced_short","","6","simple_dissimilar","images/stimuli/spore_stims/simple_04_A_a.gif","","","","",""
"","4099","survey-multi-choice","91","444937","0.0-22.0","SS1618365716411","math_question","","","","","","","","","","","","{""Q0"":""11""}","[0]","11","",""
"","null","html-keyboard-response","92","446197","0.0-23.0-0.0","SS1618365716411","","","null","","","","","","<p><img src= images/blank.png width =""600"" height = ""600"" style=""position:fixed;top:50%; left:50%; transform: translate(-50%, -50%); border:5px solid black"">","","","","","","","",""
"","1302","sequential-stimulus-presentation-old","93","447553","0.0-23.0-1.0","SS1618365716411","trial","","40","500","1802","images/stimuli/spore_stims/simple_17_A_a.gif","images/stimuli/spore_stims/simple_08_A_b.gif","forced_short","","7","simple_dissimilar","images/stimuli/spore_stims/simple_08_A_b.gif","","","","",""
"","null","html-keyboard-response","94","448403","0.0-23.0-0.1","SS1618365716411","","","null","","","","","","<p><img src= images/blank.png width =""600"" height = ""600"" style=""position:fixed;top:50%; left:50%; transform: translate(-50%, -50%); border:5px solid black"">","","","","","","","",""
"","1681","sequential-stimulus-presentation-old","95","450588","0.0-23.0-1.1","SS1618365716411","trial","","40","500","2181","images/stimuli/spore_stims/simple_17_A_a.gif","images/stimuli/spore_stims/simple_08_A_b.gif","forced_short","","7","simple_dissimilar","images/stimuli/spore_stims/simple_08_A_b.gif","","","","",""
"","null","html-keyboard-response","96","451766","0.0-23.0-0.2","SS1618365716411","","","null","","","","","","<p><img src= images/blank.png width =""600"" height = ""600"" style=""position:fixed;top:50%; left:50%; transform: translate(-50%, -50%); border:5px solid black"">","","","","","","","",""
"","1585","sequential-stimulus-presentation-old","97","453859","0.0-23.0-1.2","SS1618365716411","trial","","40","500","2085","images/stimuli/spore_stims/simple_17_A_a.gif","images/stimuli/spore_stims/simple_08_A_b.gif","forced_short","","7","simple_dissimilar","images/stimuli/spore_stims/simple_17_A_a.gif","","","","",""
"","null","html-keyboard-response","98","454859","0.0-23.0-0.3","SS1618365716411","","","null","","","","","","<p><img src= images/blank.png width =""600"" height = ""600"" style=""position:fixed;top:50%; left:50%; transform: translate(-50%, -50%); border:5px solid black"">","","","","","","","",""
"","1426","sequential-stimulus-presentation-old","99","456793","0.0-23.0-1.3","SS1618365716411","trial","","40","500","1926","images/stimuli/spore_stims/simple_17_A_a.gif","images/stimuli/spore_stims/simple_08_A_b.gif","forced_short","","7","simple_dissimilar","images/stimuli/spore_stims/simple_08_A_b.gif","","","","",""
"","null","html-keyboard-response","100","458040","0.0-23.0-0.4","SS1618365716411","","","null","","","","","","<p><img src= images/blank.png width =""600"" height = ""600"" style=""position:fixed;top:50%; left:50%; transform: translate(-50%, -50%); border:5px solid black"">","","","","","","","",""
"","899","sequential-stimulus-presentation-old","101","459446","0.0-23.0-1.4","SS1618365716411","trial","","40","500","1399","images/stimuli/spore_stims/simple_17_A_a.gif","images/stimuli/spore_stims/simple_08_A_b.gif","forced_short","","7","simple_dissimilar","images/stimuli/spore_stims/simple_08_A_b.gif","","","","",""
"","null","html-keyboard-response","102","460730","0.0-23.0-0.5","SS1618365716411","","","null","","","","","","<p><img src= images/blank.png width =""600"" height = ""600"" style=""position:fixed;top:50%; left:50%; transform: translate(-50%, -50%); border:5px solid black"">","","","","","","","",""
"","3732","sequential-stimulus-presentation-old","103","464972","0.0-23.0-1.5","SS1618365716411","trial","","40","500","4232","images/stimuli/spore_stims/simple_17_A_a.gif","images/stimuli/spore_stims/simple_08_A_b.gif","forced_short","","7","simple_dissimilar","images/stimuli/spore_stims/simple_17_A_a.gif","","","","",""
"","3388","survey-multi-choice","104","468362","0.0-24.0","SS1618365716411","math_question","","","","","","","","","","","","{""Q0"":""9""}","[0]","9","",""
"","null","html-keyboard-response","105","469195","0.0-25.0-0.0","SS1618365716411","","","null","","","","","","<p><img src= images/blank.png width =""600"" height = ""600"" style=""position:fixed;top:50%; left:50%; transform: translate(-50%, -50%); border:5px solid black"">","","","","","","","",""
"","4380","sequential-stimulus-presentation-old","106","474081","0.0-25.0-1.0","SS1618365716411","trial","","40","500","4880","images/stimuli/spore_stims/complex_12_A_b.gif","images/stimuli/spore_stims/complex_09_A_a.gif","self_paced","","8","complex_dissimilar","images/stimuli/spore_stims/complex_09_A_a.gif","","","","",""
"","null","html-keyboard-response","107","475335","0.0-25.0-0.1","SS1618365716411","","","null","","","","","","<p><img src= images/blank.png width =""600"" height = ""600"" style=""position:fixed;top:50%; left:50%; transform: translate(-50%, -50%); border:5px solid black"">","","","","","","","",""
"","3839","sequential-stimulus-presentation-old","108","479679","0.0-25.0-1.1","SS1618365716411","trial","","40","500","4339","images/stimuli/spore_stims/complex_12_A_b.gif","images/stimuli/spore_stims/complex_09_A_a.gif","self_paced","","8","complex_dissimilar","images/stimuli/spore_stims/complex_12_A_b.gif","","","","",""
"","null","html-keyboard-response","109","480535","0.0-25.0-0.2","SS1618365716411","","","null","","","","","","<p><img src= images/blank.png width =""600"" height = ""600"" style=""position:fixed;top:50%; left:50%; transform: translate(-50%, -50%); border:5px solid black"">","","","","","","","",""
"","3097","sequential-stimulus-presentation-old","110","484138","0.0-25.0-1.2","SS1618365716411","trial","","40","500","3597","images/stimuli/spore_stims/complex_12_A_b.gif","images/stimuli/spore_stims/complex_09_A_a.gif","self_paced","","8","complex_dissimilar","images/stimuli/spore_stims/complex_09_A_a.gif","","","","",""
"","null","html-keyboard-response","111","485345","0.0-25.0-0.3","SS1618365716411","","","null","","","","","","<p><img src= images/blank.png width =""600"" height = ""600"" style=""position:fixed;top:50%; left:50%; transform: translate(-50%, -50%); border:5px solid black"">","","","","","","","",""
"","3943","sequential-stimulus-presentation-old","112","489796","0.0-25.0-1.3","SS1618365716411","trial","","40","500","4443","images/stimuli/spore_stims/complex_12_A_b.gif","images/stimuli/spore_stims/complex_09_A_a.gif","self_paced","","8","complex_dissimilar","images/stimuli/spore_stims/complex_12_A_b.gif","","","","",""
"","3706","survey-multi-choice","113","493506","0.0-26.0","SS1618365716411","math_question","","","","","","","","","","","","{""Q0"":""11""}","[0]","11","",""
"","null","html-keyboard-response","114","494594","0.0-27.0-0.0","SS1618365716411","","","null","","","","","","<p><img src= images/blank.png width =""600"" height = ""600"" style=""position:fixed;top:50%; left:50%; transform: translate(-50%, -50%); border:5px solid black"">","","","","","","","",""
"","3030","sequential-stimulus-presentation-old","115","498134","0.0-27.0-1.0","SS1618365716411","trial","","40","500","3530","images/stimuli/spore_stims/simple_16_A_a.gif","images/stimuli/spore_stims/simple_13_A_b.gif","self_paced","","9","simple_dissimilar","images/stimuli/spore_stims/simple_13_A_b.gif","","","","",""
"","null","html-keyboard-response","116","498978","0.0-27.0-0.1","SS1618365716411","","","null","","","","","","<p><img src= images/blank.png width =""600"" height = ""600"" style=""position:fixed;top:50%; left:50%; transform: translate(-50%, -50%); border:5px solid black"">","","","","","","","",""
"","2280","sequential-stimulus-presentation-old","117","501767","0.0-27.0-1.1","SS1618365716411","trial","","40","500","2780","images/stimuli/spore_stims/simple_16_A_a.gif","images/stimuli/spore_stims/simple_13_A_b.gif","self_paced","","9","simple_dissimilar","images/stimuli/spore_stims/simple_13_A_b.gif","","","","",""
"","null","html-keyboard-response","118","502749","0.0-27.0-0.2","SS1618365716411","","","null","","","","","","<p><img src= images/blank.png width =""600"" height = ""600"" style=""position:fixed;top:50%; left:50%; transform: translate(-50%, -50%); border:5px solid black"">","","","","","","","",""
"","3147","sequential-stimulus-presentation-old","119","506401","0.0-27.0-1.2","SS1618365716411","trial","","40","500","3647","images/stimuli/spore_stims/simple_16_A_a.gif","images/stimuli/spore_stims/simple_13_A_b.gif","self_paced","","9","simple_dissimilar","images/stimuli/spore_stims/simple_13_A_b.gif","","","","",""
"","null","html-keyboard-response","120","507588","0.0-27.0-0.3","SS1618365716411","","","null","","","","","","<p><img src= images/blank.png width =""600"" height = ""600"" style=""position:fixed;top:50%; left:50%; transform: translate(-50%, -50%); border:5px solid black"">","","","","","","","",""
"","3054","sequential-stimulus-presentation-old","121","511147","0.0-27.0-1.3","SS1618365716411","trial","","40","500","3554","images/stimuli/spore_stims/simple_16_A_a.gif","images/stimuli/spore_stims/simple_13_A_b.gif","self_paced","","9","simple_dissimilar","images/stimuli/spore_stims/simple_13_A_b.gif","","","","",""
"","3443","survey-multi-choice","122","514594","0.0-28.0","SS1618365716411","math_question","","","","","","","","","","","","{""Q0"":""16""}","[0]","16","",""
"","null","html-keyboard-response","123","515510","0.0-29.0-0.0","SS1618365716411","","","null","","","","","","<p><img src= images/blank.png width =""600"" height = ""600"" style=""position:fixed;top:50%; left:50%; transform: translate(-50%, -50%); border:5px solid black"">","","","","","","","",""
"","4822","sequential-stimulus-presentation-old","124","525337","0.0-29.0-1.0","SS1618365716411","trial","","40","500","5322","images/stimuli/spore_stims/simple_02_A_a.gif","images/stimuli/spore_stims/simple_06_A_b.gif","forced_long","","10","simple_dissimilar","images/stimuli/spore_stims/simple_06_A_b.gif","","","","",""
"","null","html-keyboard-response","125","526634","0.0-29.0-0.1","SS1618365716411","","","null","","","","","","<p><img src= images/blank.png width =""600"" height = ""600"" style=""position:fixed;top:50%; left:50%; transform: translate(-50%, -50%); border:5px solid black"">","","","","","","","",""
"","2920","sequential-stimulus-presentation-old","126","530061","0.0-29.0-1.1","SS1618365716411","trial","","40","500","3420","images/stimuli/spore_stims/simple_02_A_a.gif","images/stimuli/spore_stims/simple_06_A_b.gif","forced_long","","10","simple_dissimilar","images/stimuli/spore_stims/simple_06_A_b.gif","","","","",""
"","null","html-keyboard-response","127","530903","0.0-29.0-0.2","SS1618365716411","","","null","","","","","","<p><img src= images/blank.png width =""600"" height = ""600"" style=""position:fixed;top:50%; left:50%; transform: translate(-50%, -50%); border:5px solid black"">","","","","","","","",""
"","951","sequential-stimulus-presentation-old","128","532358","0.0-29.0-1.2","SS1618365716411","trial","","40","500","1451","images/stimuli/spore_stims/simple_02_A_a.gif","images/stimuli/spore_stims/simple_06_A_b.gif","forced_long","","10","simple_dissimilar","images/stimuli/spore_stims/simple_06_A_b.gif","","","","",""
"","null","html-keyboard-response","129","533400","0.0-29.0-0.3","SS1618365716411","","","null","","","","","","<p><img src= images/blank.png width =""600"" height = ""600"" style=""position:fixed;top:50%; left:50%; transform: translate(-50%, -50%); border:5px solid black"">","","","","","","","",""
"","868","sequential-stimulus-presentation-old","130","534776","0.0-29.0-1.3","SS1618365716411","trial","","40","500","1368","images/stimuli/spore_stims/simple_02_A_a.gif","images/stimuli/spore_stims/simple_06_A_b.gif","forced_long","","10","simple_dissimilar","images/stimuli/spore_stims/simple_06_A_b.gif","","","","",""
"","null","html-keyboard-response","131","535850","0.0-29.0-0.4","SS1618365716411","","","null","","","","","","<p><img src= images/blank.png width =""600"" height = ""600"" style=""position:fixed;top:50%; left:50%; transform: translate(-50%, -50%); border:5px solid black"">","","","","","","","",""
"","1701","sequential-stimulus-presentation-old","132","538059","0.0-29.0-1.4","SS1618365716411","trial","","40","500","2201","images/stimuli/spore_stims/simple_02_A_a.gif","images/stimuli/spore_stims/simple_06_A_b.gif","forced_long","","10","simple_dissimilar","images/stimuli/spore_stims/simple_06_A_b.gif","","","","",""
"","3450","survey-multi-choice","133","541513","0.0-30.0","SS1618365716411","math_question","","","","","","","","","","","","{""Q0"":""12""}","[0]","12","",""
"","null","html-keyboard-response","134","542651","0.0-31.0-0.0","SS1618365716411","","","null","","","","","","<p><img src= images/blank.png width =""600"" height = ""600"" style=""position:fixed;top:50%; left:50%; transform: translate(-50%, -50%); border:5px solid black"">","","","","","","","",""
"","5186","sequential-stimulus-presentation-old","135","552847","0.0-31.0-1.0","SS1618365716411","trial","","40","500","5686","images/stimuli/spore_stims/complex_20_A_b.gif","images/stimuli/spore_stims/complex_07_A_a.gif","forced_long","","11","complex_dissimilar","images/stimuli/spore_stims/complex_07_A_a.gif","","","","",""
"","null","html-keyboard-response","136","553707","0.0-31.0-0.1","SS1618365716411","","","null","","","","","","<p><img src= images/blank.png width =""600"" height = ""600"" style=""position:fixed;top:50%; left:50%; transform: translate(-50%, -50%); border:5px solid black"">","","","","","","","",""
"","3789","sequential-stimulus-presentation-old","137","558006","0.0-31.0-1.1","SS1618365716411","trial","","40","500","4289","images/stimuli/spore_stims/complex_20_A_b.gif","images/stimuli/spore_stims/complex_07_A_a.gif","forced_long","","11","complex_dissimilar","images/stimuli/spore_stims/complex_07_A_a.gif","","","","",""
"","null","html-keyboard-response","138","558954","0.0-31.0-0.2","SS1618365716411","","","null","","","","","","<p><img src= images/blank.png width =""600"" height = ""600"" style=""position:fixed;top:50%; left:50%; transform: translate(-50%, -50%); border:5px solid black"">","","","","","","","",""
"","4600","sequential-stimulus-presentation-old","139","564061","0.0-31.0-1.2","SS1618365716411","trial","","40","500","5100","images/stimuli/spore_stims/complex_20_A_b.gif","images/stimuli/spore_stims/complex_07_A_a.gif","forced_long","","11","complex_dissimilar","images/stimuli/spore_stims/complex_07_A_a.gif","","","","",""
"","null","html-keyboard-response","140","565168","0.0-31.0-0.3","SS1618365716411","","","null","","","","","","<p><img src= images/blank.png width =""600"" height = ""600"" style=""position:fixed;top:50%; left:50%; transform: translate(-50%, -50%); border:5px solid black"">","","","","","","","",""
"","2319","sequential-stimulus-presentation-old","141","567996","0.0-31.0-1.3","SS1618365716411","trial","","40","500","2819","images/stimuli/spore_stims/complex_20_A_b.gif","images/stimuli/spore_stims/complex_07_A_a.gif","forced_long","","11","complex_dissimilar","images/stimuli/spore_stims/complex_07_A_a.gif","","","","",""
"","null","html-keyboard-response","142","569232","0.0-31.0-0.4","SS1618365716411","","","null","","","","","","<p><img src= images/blank.png width =""600"" height = ""600"" style=""position:fixed;top:50%; left:50%; transform: translate(-50%, -50%); border:5px solid black"">","","","","","","","",""
"","1222","sequential-stimulus-presentation-old","143","570960","0.0-31.0-1.4","SS1618365716411","trial","","40","500","1722","images/stimuli/spore_stims/complex_20_A_b.gif","images/stimuli/spore_stims/complex_07_A_a.gif","forced_long","","11","complex_dissimilar","images/stimuli/spore_stims/complex_07_A_a.gif","","","","",""
"[{""page_index"":0,""viewing_time"":5662}]","5663","instructions","144","576625","0.0-32.0","SS1618365716411","instructions","","","","","","","","","","","","","","","",""
"","19508","survey-likert","145","596139","0.0-33.0","SS1618365716411","similarity_question","","","","","","","","","","","","{""Q0"":4}","[0]","","images/stimuli/spore_stims/complex_17_A_b.gif","images/stimuli/spore_stims/complex_06_A_a.gif"
"","5451","survey-likert","146","601594","0.0-34.0","SS1618365716411","similarity_question","","","","","","","","","","","","{""Q0"":5}","[0]","","images/stimuli/spore_stims/simple_17_A_a.gif","images/stimuli/spore_stims/simple_08_A_b.gif"
"","10664","survey-likert","147","612262","0.0-35.0","SS1618365716411","similarity_question","","","","","","","","","","","","{""Q0"":2}","[0]","","images/stimuli/spore_stims/complex_09_A_a.gif","images/stimuli/spore_stims/complex_12_A_b.gif"
"","6958","survey-likert","148","619223","0.0-36.0","SS1618365716411","similarity_question","","","","","","","","","","","","{""Q0"":5}","[0]","","images/stimuli/spore_stims/simple_16_A_a.gif","images/stimuli/spore_stims/simple_13_A_b.gif"
"","2718","survey-likert","149","621945","0.0-37.0","SS1618365716411","similarity_question","","","","","","","","","","","","{""Q0"":4}","[0]","","images/stimuli/spore_stims/simple_04_A_a.gif","images/stimuli/spore_stims/simple_19_A_b.gif"
"","9212","survey-likert","150","631162","0.0-38.0","SS1618365716411","similarity_question","","","","","","","","","","","","{""Q0"":1}","[0]","","images/stimuli/spore_stims/complex_18_A_a.gif","images/stimuli/spore_stims/complex_11_A_b.gif"
"","7450","survey-likert","151","638617","0.0-39.0","SS1618365716411","similarity_question","","","","","","","","","","","","{""Q0"":4}","[0]","","images/stimuli/spore_stims/complex_07_A_a.gif","images/stimuli/spore_stims/complex_20_A_b.gif"
"","8449","survey-likert","152","647070","0.0-40.0","SS1618365716411","similarity_question","","","","","","","","","","","","{""Q0"":3}","[0]","","images/stimuli/spore_stims/complex_03_A_a.gif","images/stimuli/spore_stims/complex_14_A_b.gif"
"","5235","survey-likert","153","652309","0.0-41.0","SS1618365716411","similarity_question","","","","","","","","","","","","{""Q0"":5}","[0]","","images/stimuli/spore_stims/simple_06_A_b.gif","images/stimuli/spore_stims/simple_02_A_a.gif"
"","3073","survey-likert","154","655386","0.0-42.0","SS1618365716411","similarity_question","","","","","","","","","","","","{""Q0"":4}","[0]","","images/stimuli/spore_stims/simple_01_A_a.gif","images/stimuli/spore_stims/simple_07_A_b.gif"
"","4594","survey-likert","155","659984","0.0-43.0","SS1618365716411","similarity_question","","","","","","","","","","","","{""Q0"":4}","[0]","","images/stimuli/spore_stims/simple_04_A_b.gif","images/stimuli/spore_stims/simple_09_A_a.gif"
"","9400","survey-likert","156","669391","0.0-44.0","SS1618365716411","similarity_question","","","","","","","","","","","","{""Q0"":4}","[0]","","images/stimuli/spore_stims/complex_19_A_a.gif","images/stimuli/spore_stims/complex_04_A_b.gif"
"[{""page_index"":0,""viewing_time"":5350}]","5350","instructions","157","674745","0.0-45.0","SS1618365716411","instructions","","","","","","","","","","","","","","","",""
"","4823","survey-likert","158","679573","0.0-46.0","SS1618365716411","","","","","","","","","images/stimuli/spore_stims/complex_07_A_a.gif","","","","{""Q0"":5}","[0]","","",""
"","5940","survey-likert","159","685519","0.0-47.0","SS1618365716411","","","","","","","","","images/stimuli/spore_stims/simple_17_A_a.gif","","","","{""Q0"":0}","[0]","","",""
"","6794","survey-likert","160","692319","0.0-48.0","SS1618365716411","","","","","","","","","images/stimuli/spore_stims/complex_04_A_b.gif","","","","{""Q0"":6}","[0]","","",""
"","2952","survey-likert","161","695274","0.0-49.0","SS1618365716411","","","","","","","","","images/stimuli/spore_stims/simple_16_A_a.gif","","","","{""Q0"":1}","[0]","","",""
"","2526","survey-likert","162","697804","0.0-50.0","SS1618365716411","","","","","","","","","images/stimuli/spore_stims/simple_01_A_a.gif","","","","{""Q0"":0}","[0]","","",""
"","3353","survey-likert","163","701163","0.0-51.0","SS1618365716411","","","","","","","","","images/stimuli/spore_stims/simple_04_A_b.gif","","","","{""Q0"":1}","[0]","","",""
"","2882","survey-likert","164","704049","0.0-52.0","SS1618365716411","","","","","","","","","images/stimuli/spore_stims/complex_11_A_b.gif","","","","{""Q0"":4}","[0]","","",""
"","4459","survey-likert","165","708515","0.0-53.0","SS1618365716411","","","","","","","","","images/stimuli/spore_stims/complex_06_A_a.gif","","","","{""Q0"":4}","[0]","","",""
"","7766","survey-likert","166","716286","0.0-54.0","SS1618365716411","","","","","","","","","images/stimuli/spore_stims/complex_03_A_a.gif","","","","{""Q0"":5}","[0]","","",""
"","3254","survey-likert","167","719543","0.0-55.0","SS1618365716411","","","","","","","","","images/stimuli/spore_stims/complex_09_A_a.gif","","","","{""Q0"":4}","[0]","","",""
"","3046","survey-likert","168","722594","0.0-56.0","SS1618365716411","","","","","","","","","images/stimuli/spore_stims/simple_06_A_b.gif","","","","{""Q0"":0}","[0]","","",""
"","4862","survey-likert","169","727460","0.0-57.0","SS1618365716411","","","","","","","","","images/stimuli/spore_stims/simple_04_A_a.gif","","","","{""Q0"":1}","[0]","","",""
"[{""page_index"":0,""viewing_time"":2056}]","2056","instructions","170","729520","0.0-58.0","SS1618365716411","instructions","","","","","","","","","","","","","","","",""
"","3291","demog-age","171","732820","0.0-59.0","SS1618365716411","","","","","","","","","","","","","{""age"":""27""}","","","",""
"","4557","demog-ethnic-US","172","737382","0.0-60.0","SS1618365716411","","","","","","","","","","","","","{""ethnicity"":[""Hispanic or Latino""]}","[0]","","",""
"","15257","demog-gender-and-education","173","752645","0.0-61.0","SS1618365716411","","","","","","","","","","","","","{""gender"":""Male"",""education"":""Master's Degree""}","[0,1]","","",""
"","56135","survey-text","174","808788","0.0-62.0","SS1618365716411","feedback","","","","","","","","","","","","{""Q0"":""It wasn't laggy at all, just pixeled.""}","","","",""
"[{""page_index"":0,""viewing_time"":2594}]","2594","instructions","175","811386","0.0-63.0","SS1618365716411","instructions","","","","","","","","","","","","","","","",""
