"view_history","rt","trial_type","trial_index","time_elapsed","internal_node_id","subject","stimulus_type","trial_stimulus","key_press","minimum_viewing_duration","trial_looking_time","block_deviant","block_background","exposure_type","stimulus","block_number","block_type","stimulus_displayed","responses","question_order","math_correct_answer","stimulus_left","stimulus_right"
"[{""page_index"":0,""viewing_time"":2204.5200001448393}]","2204.915000125766","instructions","0","2206","0.0-0.0","SS1618365966184","","","","","","","","","","","","","","","","",""
"[{""page_index"":0,""viewing_time"":10357.350000180304},{""page_index"":1,""viewing_time"":7188.83499968797}]","17546.49499990046","instructions","1","21761","0.0-1.0","SS1618365966184","instructions","","","","","","","","","","","","","","","",""
"","7272.980000823736","sequential-stimulus-presentation-old","2","29546","0.0-2.0","SS1618365966184","","","40","500","7772.980000823736","null","null","self_paced","","","","","","","","",""
"","2613.384999334812","sequential-stimulus-presentation-old","3","32664","0.0-3.0","SS1618365966184","","","40","500","3113.384999334812","null","null","self_paced","","","","","","","","",""
"[{""page_index"":0,""viewing_time"":1583.2599997520447}]","1583.440000191331","instructions","4","34248","0.0-4.0","SS1618365966184","instructions","","","","","","","","","","","","","","","",""
"","6906.369999982417","sequential-stimulus-presentation-old","5","46158","0.0-5.0","SS1618365966184","","","40","500","7406.369999982417","null","null","forced_long","","","","","","","","",""
"","3193.455000407994","sequential-stimulus-presentation-old","6","49404","0.0-6.0","SS1618365966184","","","40","50","3243.455000407994","null","null","forced_long","","","","","","","","",""
"[{""page_index"":0,""viewing_time"":3560.3949995711446}]","3560.509999282658","instructions","7","52965","0.0-7.0","SS1618365966184","instructions","","","","","","","","","","","","","","","",""
"[{""page_index"":0,""viewing_time"":8917.100000195205},{""page_index"":1,""viewing_time"":13175.789999775589},{""page_index"":2,""viewing_time"":5142.810000106692},{""page_index"":3,""viewing_time"":1004.4300006702542},{""page_index"":4,""viewing_time"":841.2049999460578}]","29081.48500043899","instructions","8","82048","0.0-8.0","SS1618365966184","instructions","","","","","","","","","","","","","","","",""
"","null","html-keyboard-response","9","83145","0.0-9.0-0.0","SS1618365966184","","","null","","","","","","<p><img src= images/blank.png width =""600"" height = ""600"" style=""position:fixed;top:50%; left:50%; transform: translate(-50%, -50%); border:5px solid black"">","","","","","","","",""
"","3523.2949992641807","sequential-stimulus-presentation-old","10","87183","0.0-9.0-1.0","SS1618365966184","trial","","40","500","4023.2949992641807","images/stimuli/spore_stims/simple_15_A_a.gif","images/stimuli/spore_stims/simple_11_A_b.gif","self_paced","","0","simple_dissimilar","images/stimuli/spore_stims/simple_11_A_b.gif","","","","",""
"","null","html-keyboard-response","11","88110","0.0-9.0-0.1","SS1618365966184","","","null","","","","","","<p><img src= images/blank.png width =""600"" height = ""600"" style=""position:fixed;top:50%; left:50%; transform: translate(-50%, -50%); border:5px solid black"">","","","","","","","",""
"","1646.4700000360608","sequential-stimulus-presentation-old","12","90259","0.0-9.0-1.1","SS1618365966184","trial","","40","500","2146.470000036061","images/stimuli/spore_stims/simple_15_A_a.gif","images/stimuli/spore_stims/simple_11_A_b.gif","self_paced","","0","simple_dissimilar","images/stimuli/spore_stims/simple_11_A_b.gif","","","","",""
"","null","html-keyboard-response","13","91420","0.0-9.0-0.2","SS1618365966184","","","null","","","","","","<p><img src= images/blank.png width =""600"" height = ""600"" style=""position:fixed;top:50%; left:50%; transform: translate(-50%, -50%); border:5px solid black"">","","","","","","","",""
"","1116.334999911487","sequential-stimulus-presentation-old","14","93038","0.0-9.0-1.2","SS1618365966184","trial","","40","500","1616.334999911487","images/stimuli/spore_stims/simple_15_A_a.gif","images/stimuli/spore_stims/simple_11_A_b.gif","self_paced","","0","simple_dissimilar","images/stimuli/spore_stims/simple_11_A_b.gif","","","","",""
"","null","html-keyboard-response","15","94097","0.0-9.0-0.3","SS1618365966184","","","null","","","","","","<p><img src= images/blank.png width =""600"" height = ""600"" style=""position:fixed;top:50%; left:50%; transform: translate(-50%, -50%); border:5px solid black"">","","","","","","","",""
"","2522.684999741614","sequential-stimulus-presentation-old","16","97124","0.0-9.0-1.3","SS1618365966184","trial","","40","500","3022.684999741614","images/stimuli/spore_stims/simple_15_A_a.gif","images/stimuli/spore_stims/simple_11_A_b.gif","self_paced","","0","simple_dissimilar","images/stimuli/spore_stims/simple_15_A_a.gif","","","","",""
"","null","html-keyboard-response","17","98059","0.0-9.0-0.4","SS1618365966184","","","null","","","","","","<p><img src= images/blank.png width =""600"" height = ""600"" style=""position:fixed;top:50%; left:50%; transform: translate(-50%, -50%); border:5px solid black"">","","","","","","","",""
"","939.3650004640222","sequential-stimulus-presentation-old","18","99501","0.0-9.0-1.4","SS1618365966184","trial","","40","500","1439.3650004640222","images/stimuli/spore_stims/simple_15_A_a.gif","images/stimuli/spore_stims/simple_11_A_b.gif","self_paced","","0","simple_dissimilar","images/stimuli/spore_stims/simple_11_A_b.gif","","","","",""
"","null","html-keyboard-response","19","100432","0.0-9.0-0.5","SS1618365966184","","","null","","","","","","<p><img src= images/blank.png width =""600"" height = ""600"" style=""position:fixed;top:50%; left:50%; transform: translate(-50%, -50%); border:5px solid black"">","","","","","","","",""
"","1877.3400001227856","sequential-stimulus-presentation-old","20","102814","0.0-9.0-1.5","SS1618365966184","trial","","40","500","2377.3400001227856","images/stimuli/spore_stims/simple_15_A_a.gif","images/stimuli/spore_stims/simple_11_A_b.gif","self_paced","","0","simple_dissimilar","images/stimuli/spore_stims/simple_15_A_a.gif","","","","",""
"","3649.1099996492267","survey-multi-choice","21","106466","0.0-10.0","SS1618365966184","math_question","","","","","","","","","","","","{""Q0"":""5""}","[0]","5","",""
"","null","html-keyboard-response","22","107643","0.0-11.0-0.0","SS1618365966184","","","null","","","","","","<p><img src= images/blank.png width =""600"" height = ""600"" style=""position:fixed;top:50%; left:50%; transform: translate(-50%, -50%); border:5px solid black"">","","","","","","","",""
"","613.6850006878376","sequential-stimulus-presentation-old","23","113260","0.0-11.0-1.0","SS1618365966184","trial","","40","500","1113.6850006878376","images/stimuli/spore_stims/complex_13_A_a.gif","images/stimuli/spore_stims/complex_10_A_b.gif","forced_long","","1","complex_dissimilar","images/stimuli/spore_stims/complex_10_A_b.gif","","","","",""
"","null","html-keyboard-response","24","114475","0.0-11.0-0.1","SS1618365966184","","","null","","","","","","<p><img src= images/blank.png width =""600"" height = ""600"" style=""position:fixed;top:50%; left:50%; transform: translate(-50%, -50%); border:5px solid black"">","","","","","","","",""
"","1674.5449993759394","sequential-stimulus-presentation-old","25","116653","0.0-11.0-1.1","SS1618365966184","trial","","40","500","2174.5449993759394","images/stimuli/spore_stims/complex_13_A_a.gif","images/stimuli/spore_stims/complex_10_A_b.gif","forced_long","","1","complex_dissimilar","images/stimuli/spore_stims/complex_10_A_b.gif","","","","",""
"","null","html-keyboard-response","26","117709","0.0-11.0-0.2","SS1618365966184","","","null","","","","","","<p><img src= images/blank.png width =""600"" height = ""600"" style=""position:fixed;top:50%; left:50%; transform: translate(-50%, -50%); border:5px solid black"">","","","","","","","",""
"","794.7049997746944","sequential-stimulus-presentation-old","27","119007","0.0-11.0-1.2","SS1618365966184","trial","","40","500","1294.7049997746944","images/stimuli/spore_stims/complex_13_A_a.gif","images/stimuli/spore_stims/complex_10_A_b.gif","forced_long","","1","complex_dissimilar","images/stimuli/spore_stims/complex_10_A_b.gif","","","","",""
"","null","html-keyboard-response","28","120187","0.0-11.0-0.3","SS1618365966184","","","null","","","","","","<p><img src= images/blank.png width =""600"" height = ""600"" style=""position:fixed;top:50%; left:50%; transform: translate(-50%, -50%); border:5px solid black"">","","","","","","","",""
"","161.90499998629093","sequential-stimulus-presentation-old","29","120852","0.0-11.0-1.3","SS1618365966184","trial","","40","500","661.9049999862909","images/stimuli/spore_stims/complex_13_A_a.gif","images/stimuli/spore_stims/complex_10_A_b.gif","forced_long","","1","complex_dissimilar","images/stimuli/spore_stims/complex_10_A_b.gif","","","","",""
"","null","html-keyboard-response","30","122126","0.0-11.0-0.4","SS1618365966184","","","null","","","","","","<p><img src= images/blank.png width =""600"" height = ""600"" style=""position:fixed;top:50%; left:50%; transform: translate(-50%, -50%); border:5px solid black"">","","","","","","","",""
"","1122.655000537634","sequential-stimulus-presentation-old","31","123764","0.0-11.0-1.4","SS1618365966184","trial","","40","500","1622.655000537634","images/stimuli/spore_stims/complex_13_A_a.gif","images/stimuli/spore_stims/complex_10_A_b.gif","forced_long","","1","complex_dissimilar","images/stimuli/spore_stims/complex_10_A_b.gif","","","","",""
"","4268.955000676215","survey-multi-choice","32","128035","0.0-12.0","SS1618365966184","math_question","","","","","","","","","","","","{""Q0"":""13""}","[0]","13","",""
"","null","html-keyboard-response","33","129090","0.0-13.0-0.0","SS1618365966184","","","null","","","","","","<p><img src= images/blank.png width =""600"" height = ""600"" style=""position:fixed;top:50%; left:50%; transform: translate(-50%, -50%); border:5px solid black"">","","","","","","","",""
"","1176.6400001943111","sequential-stimulus-presentation-old","34","130771","0.0-13.0-1.0","SS1618365966184","trial","","40","500","1676.6400001943111","images/stimuli/spore_stims/complex_02_A_b.gif","images/stimuli/spore_stims/complex_01_A_a.gif","self_paced","","2","complex_dissimilar","images/stimuli/spore_stims/complex_01_A_a.gif","","","","",""
"","null","html-keyboard-response","35","131922","0.0-13.0-0.1","SS1618365966184","","","null","","","","","","<p><img src= images/blank.png width =""600"" height = ""600"" style=""position:fixed;top:50%; left:50%; transform: translate(-50%, -50%); border:5px solid black"">","","","","","","","",""
"","50.125000067055225","sequential-stimulus-presentation-old","36","132475","0.0-13.0-1.1","SS1618365966184","trial","","40","500","550.1250000670552","images/stimuli/spore_stims/complex_02_A_b.gif","images/stimuli/spore_stims/complex_01_A_a.gif","self_paced","","2","complex_dissimilar","images/stimuli/spore_stims/complex_01_A_a.gif","","","","",""
"","null","html-keyboard-response","37","133393","0.0-13.0-0.2","SS1618365966184","","","null","","","","","","<p><img src= images/blank.png width =""600"" height = ""600"" style=""position:fixed;top:50%; left:50%; transform: translate(-50%, -50%); border:5px solid black"">","","","","","","","",""
"","28.795000165700912","sequential-stimulus-presentation-old","38","133925","0.0-13.0-1.2","SS1618365966184","trial","","40","500","528.7950001657009","images/stimuli/spore_stims/complex_02_A_b.gif","images/stimuli/spore_stims/complex_01_A_a.gif","self_paced","","2","complex_dissimilar","images/stimuli/spore_stims/complex_01_A_a.gif","","","","",""
"","null","html-keyboard-response","39","134835","0.0-13.0-0.3","SS1618365966184","","","null","","","","","","<p><img src= images/blank.png width =""600"" height = ""600"" style=""position:fixed;top:50%; left:50%; transform: translate(-50%, -50%); border:5px solid black"">","","","","","","","",""
"","65.11500012129545","sequential-stimulus-presentation-old","40","135403","0.0-13.0-1.3","SS1618365966184","trial","","40","500","565.1150001212955","images/stimuli/spore_stims/complex_02_A_b.gif","images/stimuli/spore_stims/complex_01_A_a.gif","self_paced","","2","complex_dissimilar","images/stimuli/spore_stims/complex_01_A_a.gif","","","","",""
"","null","html-keyboard-response","41","136706","0.0-13.0-0.4","SS1618365966184","","","null","","","","","","<p><img src= images/blank.png width =""600"" height = ""600"" style=""position:fixed;top:50%; left:50%; transform: translate(-50%, -50%); border:5px solid black"">","","","","","","","",""
"","177.64999996870756","sequential-stimulus-presentation-old","42","137387","0.0-13.0-1.4","SS1618365966184","trial","","40","500","677.6499999687076","images/stimuli/spore_stims/complex_02_A_b.gif","images/stimuli/spore_stims/complex_01_A_a.gif","self_paced","","2","complex_dissimilar","images/stimuli/spore_stims/complex_01_A_a.gif","","","","",""
"","null","html-keyboard-response","43","138578","0.0-13.0-0.5","SS1618365966184","","","null","","","","","","<p><img src= images/blank.png width =""600"" height = ""600"" style=""position:fixed;top:50%; left:50%; transform: translate(-50%, -50%); border:5px solid black"">","","","","","","","",""
"","2150.6700003519654","sequential-stimulus-presentation-old","44","141247","0.0-13.0-1.5","SS1618365966184","trial","","40","500","2650.6700003519654","images/stimuli/spore_stims/complex_02_A_b.gif","images/stimuli/spore_stims/complex_01_A_a.gif","self_paced","","2","complex_dissimilar","images/stimuli/spore_stims/complex_01_A_a.gif","","","","",""
"","2694.989999756217","survey-multi-choice","45","143944","0.0-14.0","SS1618365966184","math_question","","","","","","","","","","","","{""Q0"":""8""}","[0]","8","",""
"","null","html-keyboard-response","46","144883","0.0-15.0-0.0","SS1618365966184","","","null","","","","","","<p><img src= images/blank.png width =""600"" height = ""600"" style=""position:fixed;top:50%; left:50%; transform: translate(-50%, -50%); border:5px solid black"">","","","","","","","",""
"","4656.82000014931","sequential-stimulus-presentation-old","47","154544","0.0-15.0-1.0","SS1618365966184","trial","","40","500","5156.82000014931","images/stimuli/spore_stims/simple_18_A_b.gif","images/stimuli/spore_stims/simple_08_A_a.gif","forced_long","","3","simple_dissimilar","images/stimuli/spore_stims/simple_08_A_a.gif","","","","",""
"","null","html-keyboard-response","48","155420","0.0-15.0-0.1","SS1618365966184","","","null","","","","","","<p><img src= images/blank.png width =""600"" height = ""600"" style=""position:fixed;top:50%; left:50%; transform: translate(-50%, -50%); border:5px solid black"">","","","","","","","",""
"","1935.5750000104308","sequential-stimulus-presentation-old","49","157859","0.0-15.0-1.1","SS1618365966184","trial","","40","500","2435.575000010431","images/stimuli/spore_stims/simple_18_A_b.gif","images/stimuli/spore_stims/simple_08_A_a.gif","forced_long","","3","simple_dissimilar","images/stimuli/spore_stims/simple_18_A_b.gif","","","","",""
"","null","html-keyboard-response","50","159011","0.0-15.0-0.2","SS1618365966184","","","null","","","","","","<p><img src= images/blank.png width =""600"" height = ""600"" style=""position:fixed;top:50%; left:50%; transform: translate(-50%, -50%); border:5px solid black"">","","","","","","","",""
"","1158.444999717176","sequential-stimulus-presentation-old","51","160673","0.0-15.0-1.2","SS1618365966184","trial","","40","500","1658.444999717176","images/stimuli/spore_stims/simple_18_A_b.gif","images/stimuli/spore_stims/simple_08_A_a.gif","forced_long","","3","simple_dissimilar","images/stimuli/spore_stims/simple_18_A_b.gif","","","","",""
"","null","html-keyboard-response","52","161529","0.0-15.0-0.3","SS1618365966184","","","null","","","","","","<p><img src= images/blank.png width =""600"" height = ""600"" style=""position:fixed;top:50%; left:50%; transform: translate(-50%, -50%); border:5px solid black"">","","","","","","","",""
"","1470.3700002282858","sequential-stimulus-presentation-old","53","163503","0.0-15.0-1.3","SS1618365966184","trial","","40","500","1970.3700002282858","images/stimuli/spore_stims/simple_18_A_b.gif","images/stimuli/spore_stims/simple_08_A_a.gif","forced_long","","3","simple_dissimilar","images/stimuli/spore_stims/simple_08_A_a.gif","","","","",""
"","null","html-keyboard-response","54","164708","0.0-15.0-0.4","SS1618365966184","","","null","","","","","","<p><img src= images/blank.png width =""600"" height = ""600"" style=""position:fixed;top:50%; left:50%; transform: translate(-50%, -50%); border:5px solid black"">","","","","","","","",""
"","926.8749998882413","sequential-stimulus-presentation-old","55","166139","0.0-15.0-1.4","SS1618365966184","trial","","40","500","1426.8749998882413","images/stimuli/spore_stims/simple_18_A_b.gif","images/stimuli/spore_stims/simple_08_A_a.gif","forced_long","","3","simple_dissimilar","images/stimuli/spore_stims/simple_08_A_a.gif","","","","",""
"","2425.8850002661347","survey-multi-choice","56","168567","0.0-16.0","SS1618365966184","math_question","","","","","","","","","","","","{""Q0"":""5""}","[0]","5","",""
"","null","html-keyboard-response","57","169621","0.0-17.0-0.0","SS1618365966184","","","null","","","","","","<p><img src= images/blank.png width =""600"" height = ""600"" style=""position:fixed;top:50%; left:50%; transform: translate(-50%, -50%); border:5px solid black"">","","","","","","","",""
"","730.3100004792213","sequential-stimulus-presentation-old","58","170854","0.0-17.0-1.0","SS1618365966184","trial","","40","500","1230.3100004792213","images/stimuli/spore_stims/simple_01_A_b.gif","images/stimuli/spore_stims/simple_03_A_a.gif","self_paced","","4","simple_dissimilar","images/stimuli/spore_stims/simple_03_A_a.gif","","","","",""
"","null","html-keyboard-response","59","171961","0.0-17.0-0.1","SS1618365966184","","","null","","","","","","<p><img src= images/blank.png width =""600"" height = ""600"" style=""position:fixed;top:50%; left:50%; transform: translate(-50%, -50%); border:5px solid black"">","","","","","","","",""
"","571.1500002071261","sequential-stimulus-presentation-old","60","173050","0.0-17.0-1.1","SS1618365966184","trial","","40","500","1071.1500002071261","images/stimuli/spore_stims/simple_01_A_b.gif","images/stimuli/spore_stims/simple_03_A_a.gif","self_paced","","4","simple_dissimilar","images/stimuli/spore_stims/simple_03_A_a.gif","","","","",""
"","null","html-keyboard-response","61","174062","0.0-17.0-0.2","SS1618365966184","","","null","","","","","","<p><img src= images/blank.png width =""600"" height = ""600"" style=""position:fixed;top:50%; left:50%; transform: translate(-50%, -50%); border:5px solid black"">","","","","","","","",""
"","1083.9400002732873","sequential-stimulus-presentation-old","62","175649","0.0-17.0-1.2","SS1618365966184","trial","","40","500","1583.9400002732873","images/stimuli/spore_stims/simple_01_A_b.gif","images/stimuli/spore_stims/simple_03_A_a.gif","self_paced","","4","simple_dissimilar","images/stimuli/spore_stims/simple_03_A_a.gif","","","","",""
"","null","html-keyboard-response","63","176942","0.0-17.0-0.3","SS1618365966184","","","null","","","","","","<p><img src= images/blank.png width =""600"" height = ""600"" style=""position:fixed;top:50%; left:50%; transform: translate(-50%, -50%); border:5px solid black"">","","","","","","","",""
"","700.9299993515015","sequential-stimulus-presentation-old","64","178147","0.0-17.0-1.3","SS1618365966184","trial","","40","500","1200.9299993515015","images/stimuli/spore_stims/simple_01_A_b.gif","images/stimuli/spore_stims/simple_03_A_a.gif","self_paced","","4","simple_dissimilar","images/stimuli/spore_stims/simple_03_A_a.gif","","","","",""
"","null","html-keyboard-response","65","179025","0.0-17.0-0.4","SS1618365966184","","","null","","","","","","<p><img src= images/blank.png width =""600"" height = ""600"" style=""position:fixed;top:50%; left:50%; transform: translate(-50%, -50%); border:5px solid black"">","","","","","","","",""
"","921.2849996984005","sequential-stimulus-presentation-old","66","180451","0.0-17.0-1.4","SS1618365966184","trial","","40","500","1421.2849996984005","images/stimuli/spore_stims/simple_01_A_b.gif","images/stimuli/spore_stims/simple_03_A_a.gif","self_paced","","4","simple_dissimilar","images/stimuli/spore_stims/simple_03_A_a.gif","","","","",""
"","null","html-keyboard-response","67","181292","0.0-17.0-0.5","SS1618365966184","","","null","","","","","","<p><img src= images/blank.png width =""600"" height = ""600"" style=""position:fixed;top:50%; left:50%; transform: translate(-50%, -50%); border:5px solid black"">","","","","","","","",""
"","432.02999979257584","sequential-stimulus-presentation-old","68","182228","0.0-17.0-1.5","SS1618365966184","trial","","40","500","932.0299997925758","images/stimuli/spore_stims/simple_01_A_b.gif","images/stimuli/spore_stims/simple_03_A_a.gif","self_paced","","4","simple_dissimilar","images/stimuli/spore_stims/simple_01_A_b.gif","","","","",""
"","3137.170000001788","survey-multi-choice","69","185369","0.0-18.0","SS1618365966184","math_question","","","","","","","","","","","","{""Q0"":""13""}","[0]","13","",""
"","null","html-keyboard-response","70","186608","0.0-19.0-0.0","SS1618365966184","","","null","","","","","","<p><img src= images/blank.png width =""600"" height = ""600"" style=""position:fixed;top:50%; left:50%; transform: translate(-50%, -50%); border:5px solid black"">","","","","","","","",""
"","619.3699995055795","sequential-stimulus-presentation-old","71","187289","0.0-19.0-1.0","SS1618365966184","trial","","40","500","1119.3699995055795","images/stimuli/spore_stims/simple_13_A_a.gif","images/stimuli/spore_stims/simple_04_A_b.gif","forced_short","","5","simple_dissimilar","images/stimuli/spore_stims/simple_04_A_b.gif","","","","",""
"","null","html-keyboard-response","72","188581","0.0-19.0-0.1","SS1618365966184","","","null","","","","","","<p><img src= images/blank.png width =""600"" height = ""600"" style=""position:fixed;top:50%; left:50%; transform: translate(-50%, -50%); border:5px solid black"">","","","","","","","",""
"","1238.8649992644787","sequential-stimulus-presentation-old","73","190323","0.0-19.0-1.1","SS1618365966184","trial","","40","500","1738.8649992644787","images/stimuli/spore_stims/simple_13_A_a.gif","images/stimuli/spore_stims/simple_04_A_b.gif","forced_short","","5","simple_dissimilar","images/stimuli/spore_stims/simple_04_A_b.gif","","","","",""
"","null","html-keyboard-response","74","191205","0.0-19.0-0.2","SS1618365966184","","","null","","","","","","<p><img src= images/blank.png width =""600"" height = ""600"" style=""position:fixed;top:50%; left:50%; transform: translate(-50%, -50%); border:5px solid black"">","","","","","","","",""
"","970.9099996834993","sequential-stimulus-presentation-old","75","192680","0.0-19.0-1.2","SS1618365966184","trial","","40","500","1470.9099996834993","images/stimuli/spore_stims/simple_13_A_a.gif","images/stimuli/spore_stims/simple_04_A_b.gif","forced_short","","5","simple_dissimilar","images/stimuli/spore_stims/simple_04_A_b.gif","","","","",""
"","null","html-keyboard-response","76","193961","0.0-19.0-0.3","SS1618365966184","","","null","","","","","","<p><img src= images/blank.png width =""600"" height = ""600"" style=""position:fixed;top:50%; left:50%; transform: translate(-50%, -50%); border:5px solid black"">","","","","","","","",""
"","782.8449998050928","sequential-stimulus-presentation-old","77","195247","0.0-19.0-1.3","SS1618365966184","trial","","40","500","1282.8449998050928","images/stimuli/spore_stims/simple_13_A_a.gif","images/stimuli/spore_stims/simple_04_A_b.gif","forced_short","","5","simple_dissimilar","images/stimuli/spore_stims/simple_04_A_b.gif","","","","",""
"","null","html-keyboard-response","78","196320","0.0-19.0-0.4","SS1618365966184","","","null","","","","","","<p><img src= images/blank.png width =""600"" height = ""600"" style=""position:fixed;top:50%; left:50%; transform: translate(-50%, -50%); border:5px solid black"">","","","","","","","",""
"","562.440000474453","sequential-stimulus-presentation-old","79","197386","0.0-19.0-1.4","SS1618365966184","trial","","40","500","1062.440000474453","images/stimuli/spore_stims/simple_13_A_a.gif","images/stimuli/spore_stims/simple_04_A_b.gif","forced_short","","5","simple_dissimilar","images/stimuli/spore_stims/simple_13_A_a.gif","","","","",""
"","3345.2300000935793","survey-multi-choice","80","200733","0.0-20.0","SS1618365966184","math_question","","","","","","","","","","","","{""Q0"":""6""}","[0]","6","",""
"","null","html-keyboard-response","81","201983","0.0-21.0-0.0","SS1618365966184","","","null","","","","","","<p><img src= images/blank.png width =""600"" height = ""600"" style=""position:fixed;top:50%; left:50%; transform: translate(-50%, -50%); border:5px solid black"">","","","","","","","",""
"","505.0499998033047","sequential-stimulus-presentation-old","82","202544","0.0-21.0-1.0","SS1618365966184","trial","","40","500","1005.0499998033047","images/stimuli/spore_stims/simple_15_A_b.gif","images/stimuli/spore_stims/simple_04_A_a.gif","forced_short","","6","simple_dissimilar","images/stimuli/spore_stims/simple_04_A_a.gif","","","","",""
"","null","html-keyboard-response","83","203742","0.0-21.0-0.1","SS1618365966184","","","null","","","","","","<p><img src= images/blank.png width =""600"" height = ""600"" style=""position:fixed;top:50%; left:50%; transform: translate(-50%, -50%); border:5px solid black"">","","","","","","","",""
"","489.17500022798777","sequential-stimulus-presentation-old","84","204737","0.0-21.0-1.1","SS1618365966184","trial","","40","500","989.1750002279878","images/stimuli/spore_stims/simple_15_A_b.gif","images/stimuli/spore_stims/simple_04_A_a.gif","forced_short","","6","simple_dissimilar","images/stimuli/spore_stims/simple_15_A_b.gif","","","","",""
"","null","html-keyboard-response","85","206049","0.0-21.0-0.2","SS1618365966184","","","null","","","","","","<p><img src= images/blank.png width =""600"" height = ""600"" style=""position:fixed;top:50%; left:50%; transform: translate(-50%, -50%); border:5px solid black"">","","","","","","","",""
"","473.35500083863735","sequential-stimulus-presentation-old","86","207026","0.0-21.0-1.2","SS1618365966184","trial","","40","500","973.3550008386374","images/stimuli/spore_stims/simple_15_A_b.gif","images/stimuli/spore_stims/simple_04_A_a.gif","forced_short","","6","simple_dissimilar","images/stimuli/spore_stims/simple_04_A_a.gif","","","","",""
"","null","html-keyboard-response","87","208282","0.0-21.0-0.3","SS1618365966184","","","null","","","","","","<p><img src= images/blank.png width =""600"" height = ""600"" style=""position:fixed;top:50%; left:50%; transform: translate(-50%, -50%); border:5px solid black"">","","","","","","","",""
"","216.72499924898148","sequential-stimulus-presentation-old","88","209004","0.0-21.0-1.3","SS1618365966184","trial","","40","500","716.7249992489815","images/stimuli/spore_stims/simple_15_A_b.gif","images/stimuli/spore_stims/simple_04_A_a.gif","forced_short","","6","simple_dissimilar","images/stimuli/spore_stims/simple_04_A_a.gif","","","","",""
"","null","html-keyboard-response","89","209891","0.0-21.0-0.4","SS1618365966184","","","null","","","","","","<p><img src= images/blank.png width =""600"" height = ""600"" style=""position:fixed;top:50%; left:50%; transform: translate(-50%, -50%); border:5px solid black"">","","","","","","","",""
"","1714.7500002756715","sequential-stimulus-presentation-old","90","212110","0.0-21.0-1.4","SS1618365966184","trial","","40","500","2214.7500002756715","images/stimuli/spore_stims/simple_15_A_b.gif","images/stimuli/spore_stims/simple_04_A_a.gif","forced_short","","6","simple_dissimilar","images/stimuli/spore_stims/simple_04_A_a.gif","","","","",""
"","3176.454999484122","survey-multi-choice","91","215289","0.0-22.0","SS1618365966184","math_question","","","","","","","","","","","","{""Q0"":""18""}","[0]","18","",""
"","null","html-keyboard-response","92","216560","0.0-23.0-0.0","SS1618365966184","","","null","","","","","","<p><img src= images/blank.png width =""600"" height = ""600"" style=""position:fixed;top:50%; left:50%; transform: translate(-50%, -50%); border:5px solid black"">","","","","","","","",""
"","526.2049995362759","sequential-stimulus-presentation-old","93","217150","0.0-23.0-1.0","SS1618365966184","trial","","40","500","1026.2049995362759","images/stimuli/spore_stims/complex_19_A_b.gif","images/stimuli/spore_stims/complex_07_A_a.gif","forced_short","","7","complex_dissimilar","images/stimuli/spore_stims/complex_07_A_a.gif","","","","",""
"","null","html-keyboard-response","94","217975","0.0-23.0-0.1","SS1618365966184","","","null","","","","","","<p><img src= images/blank.png width =""600"" height = ""600"" style=""position:fixed;top:50%; left:50%; transform: translate(-50%, -50%); border:5px solid black"">","","","","","","","",""
"","342.24999975413084","sequential-stimulus-presentation-old","95","218822","0.0-23.0-1.1","SS1618365966184","trial","","40","500","842.2499997541308","images/stimuli/spore_stims/complex_19_A_b.gif","images/stimuli/spore_stims/complex_07_A_a.gif","forced_short","","7","complex_dissimilar","images/stimuli/spore_stims/complex_07_A_a.gif","","","","",""
"","null","html-keyboard-response","96","220096","0.0-23.0-0.2","SS1618365966184","","","null","","","","","","<p><img src= images/blank.png width =""600"" height = ""600"" style=""position:fixed;top:50%; left:50%; transform: translate(-50%, -50%); border:5px solid black"">","","","","","","","",""
"","1815.1650000363588","sequential-stimulus-presentation-old","97","222415","0.0-23.0-1.2","SS1618365966184","trial","","40","500","2315.165000036359","images/stimuli/spore_stims/complex_19_A_b.gif","images/stimuli/spore_stims/complex_07_A_a.gif","forced_short","","7","complex_dissimilar","images/stimuli/spore_stims/complex_07_A_a.gif","","","","",""
"","null","html-keyboard-response","98","223586","0.0-23.0-0.3","SS1618365966184","","","null","","","","","","<p><img src= images/blank.png width =""600"" height = ""600"" style=""position:fixed;top:50%; left:50%; transform: translate(-50%, -50%); border:5px solid black"">","","","","","","","",""
"","674.9149998649955","sequential-stimulus-presentation-old","99","224765","0.0-23.0-1.3","SS1618365966184","trial","","40","500","1174.9149998649955","images/stimuli/spore_stims/complex_19_A_b.gif","images/stimuli/spore_stims/complex_07_A_a.gif","forced_short","","7","complex_dissimilar","images/stimuli/spore_stims/complex_07_A_a.gif","","","","",""
"","null","html-keyboard-response","100","226057","0.0-23.0-0.4","SS1618365966184","","","null","","","","","","<p><img src= images/blank.png width =""600"" height = ""600"" style=""position:fixed;top:50%; left:50%; transform: translate(-50%, -50%); border:5px solid black"">","","","","","","","",""
"","688.4400006383657","sequential-stimulus-presentation-old","101","227249","0.0-23.0-1.4","SS1618365966184","trial","","40","500","1188.4400006383657","images/stimuli/spore_stims/complex_19_A_b.gif","images/stimuli/spore_stims/complex_07_A_a.gif","forced_short","","7","complex_dissimilar","images/stimuli/spore_stims/complex_07_A_a.gif","","","","",""
"","null","html-keyboard-response","102","228316","0.0-23.0-0.5","SS1618365966184","","","null","","","","","","<p><img src= images/blank.png width =""600"" height = ""600"" style=""position:fixed;top:50%; left:50%; transform: translate(-50%, -50%); border:5px solid black"">","","","","","","","",""
"","645.274999551475","sequential-stimulus-presentation-old","103","229465","0.0-23.0-1.5","SS1618365966184","trial","","40","500","1145.274999551475","images/stimuli/spore_stims/complex_19_A_b.gif","images/stimuli/spore_stims/complex_07_A_a.gif","forced_short","","7","complex_dissimilar","images/stimuli/spore_stims/complex_07_A_a.gif","","","","",""
"","2703.4149998798966","survey-multi-choice","104","232171","0.0-24.0","SS1618365966184","math_question","","","","","","","","","","","","{""Q0"":""13""}","[0]","13","",""
"","null","html-keyboard-response","105","233103","0.0-25.0-0.0","SS1618365966184","","","null","","","","","","<p><img src= images/blank.png width =""600"" height = ""600"" style=""position:fixed;top:50%; left:50%; transform: translate(-50%, -50%); border:5px solid black"">","","","","","","","",""
"","795.4900003969669","sequential-stimulus-presentation-old","106","238904","0.0-25.0-1.0","SS1618365966184","trial","","40","500","1295.490000396967","images/stimuli/spore_stims/complex_02_A_a.gif","images/stimuli/spore_stims/complex_16_A_b.gif","forced_long","","8","complex_dissimilar","images/stimuli/spore_stims/complex_16_A_b.gif","","","","",""
"","null","html-keyboard-response","107","240115","0.0-25.0-0.1","SS1618365966184","","","null","","","","","","<p><img src= images/blank.png width =""600"" height = ""600"" style=""position:fixed;top:50%; left:50%; transform: translate(-50%, -50%); border:5px solid black"">","","","","","","","",""
"","304.96499966830015","sequential-stimulus-presentation-old","108","240925","0.0-25.0-1.1","SS1618365966184","trial","","40","500","804.9649996683002","images/stimuli/spore_stims/complex_02_A_a.gif","images/stimuli/spore_stims/complex_16_A_b.gif","forced_long","","8","complex_dissimilar","images/stimuli/spore_stims/complex_16_A_b.gif","","","","",""
"","null","html-keyboard-response","109","242149","0.0-25.0-0.2","SS1618365966184","","","null","","","","","","<p><img src= images/blank.png width =""600"" height = ""600"" style=""position:fixed;top:50%; left:50%; transform: translate(-50%, -50%); border:5px solid black"">","","","","","","","",""
"","374.7300002723932","sequential-stimulus-presentation-old","110","243029","0.0-25.0-1.2","SS1618365966184","trial","","40","500","874.7300002723932","images/stimuli/spore_stims/complex_02_A_a.gif","images/stimuli/spore_stims/complex_16_A_b.gif","forced_long","","8","complex_dissimilar","images/stimuli/spore_stims/complex_02_A_a.gif","","","","",""
"","null","html-keyboard-response","111","244215","0.0-25.0-0.3","SS1618365966184","","","null","","","","","","<p><img src= images/blank.png width =""600"" height = ""600"" style=""position:fixed;top:50%; left:50%; transform: translate(-50%, -50%); border:5px solid black"">","","","","","","","",""
"","789.2599999904633","sequential-stimulus-presentation-old","112","245519","0.0-25.0-1.3","SS1618365966184","trial","","40","500","1289.2599999904633","images/stimuli/spore_stims/complex_02_A_a.gif","images/stimuli/spore_stims/complex_16_A_b.gif","forced_long","","8","complex_dissimilar","images/stimuli/spore_stims/complex_16_A_b.gif","","","","",""
"","null","html-keyboard-response","113","246783","0.0-25.0-0.4","SS1618365966184","","","null","","","","","","<p><img src= images/blank.png width =""600"" height = ""600"" style=""position:fixed;top:50%; left:50%; transform: translate(-50%, -50%); border:5px solid black"">","","","","","","","",""
"","654.4000003486872","sequential-stimulus-presentation-old","114","247944","0.0-25.0-1.4","SS1618365966184","trial","","40","500","1154.4000003486872","images/stimuli/spore_stims/complex_02_A_a.gif","images/stimuli/spore_stims/complex_16_A_b.gif","forced_long","","8","complex_dissimilar","images/stimuli/spore_stims/complex_16_A_b.gif","","","","",""
"","null","html-keyboard-response","115","249133","0.0-25.0-0.5","SS1618365966184","","","null","","","","","","<p><img src= images/blank.png width =""600"" height = ""600"" style=""position:fixed;top:50%; left:50%; transform: translate(-50%, -50%); border:5px solid black"">","","","","","","","",""
"","797.1400003880262","sequential-stimulus-presentation-old","116","250434","0.0-25.0-1.5","SS1618365966184","trial","","40","500","1297.1400003880262","images/stimuli/spore_stims/complex_02_A_a.gif","images/stimuli/spore_stims/complex_16_A_b.gif","forced_long","","8","complex_dissimilar","images/stimuli/spore_stims/complex_16_A_b.gif","","","","",""
"","3036.840000189841","survey-multi-choice","117","253473","0.0-26.0","SS1618365966184","math_question","","","","","","","","","","","","{""Q0"":""6""}","[0]","6","",""
"","null","html-keyboard-response","118","254619","0.0-27.0-0.0","SS1618365966184","","","null","","","","","","<p><img src= images/blank.png width =""600"" height = ""600"" style=""position:fixed;top:50%; left:50%; transform: translate(-50%, -50%); border:5px solid black"">","","","","","","","",""
"","539.8899996653199","sequential-stimulus-presentation-old","119","255214","0.0-27.0-1.0","SS1618365966184","trial","","40","500","1039.88999966532","images/stimuli/spore_stims/complex_08_A_a.gif","images/stimuli/spore_stims/complex_20_A_b.gif","forced_short","","9","complex_dissimilar","images/stimuli/spore_stims/complex_20_A_b.gif","","","","",""
"","null","html-keyboard-response","120","256414","0.0-27.0-0.1","SS1618365966184","","","null","","","","","","<p><img src= images/blank.png width =""600"" height = ""600"" style=""position:fixed;top:50%; left:50%; transform: translate(-50%, -50%); border:5px solid black"">","","","","","","","",""
"","124.66499954462051","sequential-stimulus-presentation-old","121","257047","0.0-27.0-1.1","SS1618365966184","trial","","40","500","624.6649995446205","images/stimuli/spore_stims/complex_08_A_a.gif","images/stimuli/spore_stims/complex_20_A_b.gif","forced_short","","9","complex_dissimilar","images/stimuli/spore_stims/complex_08_A_a.gif","","","","",""
"","null","html-keyboard-response","122","258087","0.0-27.0-0.2","SS1618365966184","","","null","","","","","","<p><img src= images/blank.png width =""600"" height = ""600"" style=""position:fixed;top:50%; left:50%; transform: translate(-50%, -50%); border:5px solid black"">","","","","","","","",""
"","1005.1850005984306","sequential-stimulus-presentation-old","123","259609","0.0-27.0-1.2","SS1618365966184","trial","","40","500","1505.1850005984306","images/stimuli/spore_stims/complex_08_A_a.gif","images/stimuli/spore_stims/complex_20_A_b.gif","forced_short","","9","complex_dissimilar","images/stimuli/spore_stims/complex_08_A_a.gif","","","","",""
"","null","html-keyboard-response","124","260731","0.0-27.0-0.3","SS1618365966184","","","null","","","","","","<p><img src= images/blank.png width =""600"" height = ""600"" style=""position:fixed;top:50%; left:50%; transform: translate(-50%, -50%); border:5px solid black"">","","","","","","","",""
"","181.64500035345554","sequential-stimulus-presentation-old","125","261417","0.0-27.0-1.3","SS1618365966184","trial","","40","500","681.6450003534555","images/stimuli/spore_stims/complex_08_A_a.gif","images/stimuli/spore_stims/complex_20_A_b.gif","forced_short","","9","complex_dissimilar","images/stimuli/spore_stims/complex_20_A_b.gif","","","","",""
"","null","html-keyboard-response","126","262390","0.0-27.0-0.4","SS1618365966184","","","null","","","","","","<p><img src= images/blank.png width =""600"" height = ""600"" style=""position:fixed;top:50%; left:50%; transform: translate(-50%, -50%); border:5px solid black"">","","","","","","","",""
"","1112.385000102222","sequential-stimulus-presentation-old","127","264005","0.0-27.0-1.4","SS1618365966184","trial","","40","500","1612.385000102222","images/stimuli/spore_stims/complex_08_A_a.gif","images/stimuli/spore_stims/complex_20_A_b.gif","forced_short","","9","complex_dissimilar","images/stimuli/spore_stims/complex_20_A_b.gif","","","","",""
"","null","html-keyboard-response","128","265245","0.0-27.0-0.5","SS1618365966184","","","null","","","","","","<p><img src= images/blank.png width =""600"" height = ""600"" style=""position:fixed;top:50%; left:50%; transform: translate(-50%, -50%); border:5px solid black"">","","","","","","","",""
"","52.52999998629093","sequential-stimulus-presentation-old","129","265802","0.0-27.0-1.5","SS1618365966184","trial","","40","500","552.5299999862909","images/stimuli/spore_stims/complex_08_A_a.gif","images/stimuli/spore_stims/complex_20_A_b.gif","forced_short","","9","complex_dissimilar","images/stimuli/spore_stims/complex_20_A_b.gif","","","","",""
"","3392.1550000086427","survey-multi-choice","130","269198","0.0-28.0","SS1618365966184","math_question","","","","","","","","","","","","{""Q0"":""13""}","[0]","13","",""
"","null","html-keyboard-response","131","270035","0.0-29.0-0.0","SS1618365966184","","","null","","","","","","<p><img src= images/blank.png width =""600"" height = ""600"" style=""position:fixed;top:50%; left:50%; transform: translate(-50%, -50%); border:5px solid black"">","","","","","","","",""
"","365.80000072717667","sequential-stimulus-presentation-old","132","270906","0.0-29.0-1.0","SS1618365966184","trial","","40","500","865.8000007271767","images/stimuli/spore_stims/complex_17_A_b.gif","images/stimuli/spore_stims/complex_14_A_a.gif","self_paced","","10","complex_dissimilar","images/stimuli/spore_stims/complex_14_A_a.gif","","","","",""
"","null","html-keyboard-response","133","271834","0.0-29.0-0.1","SS1618365966184","","","null","","","","","","<p><img src= images/blank.png width =""600"" height = ""600"" style=""position:fixed;top:50%; left:50%; transform: translate(-50%, -50%); border:5px solid black"">","","","","","","","",""
"","154.98000010848045","sequential-stimulus-presentation-old","134","272491","0.0-29.0-1.1","SS1618365966184","trial","","40","500","654.9800001084805","images/stimuli/spore_stims/complex_17_A_b.gif","images/stimuli/spore_stims/complex_14_A_a.gif","self_paced","","10","complex_dissimilar","images/stimuli/spore_stims/complex_14_A_a.gif","","","","",""
"","null","html-keyboard-response","135","273487","0.0-29.0-0.2","SS1618365966184","","","null","","","","","","<p><img src= images/blank.png width =""600"" height = ""600"" style=""position:fixed;top:50%; left:50%; transform: translate(-50%, -50%); border:5px solid black"">","","","","","","","",""
"","251.94499921053648","sequential-stimulus-presentation-old","136","274244","0.0-29.0-1.2","SS1618365966184","trial","","40","500","751.9449992105365","images/stimuli/spore_stims/complex_17_A_b.gif","images/stimuli/spore_stims/complex_14_A_a.gif","self_paced","","10","complex_dissimilar","images/stimuli/spore_stims/complex_17_A_b.gif","","","","",""
"","null","html-keyboard-response","137","275194","0.0-29.0-0.3","SS1618365966184","","","null","","","","","","<p><img src= images/blank.png width =""600"" height = ""600"" style=""position:fixed;top:50%; left:50%; transform: translate(-50%, -50%); border:5px solid black"">","","","","","","","",""
"","88.29000033438206","sequential-stimulus-presentation-old","138","275787","0.0-29.0-1.3","SS1618365966184","trial","","40","500","588.2900003343821","images/stimuli/spore_stims/complex_17_A_b.gif","images/stimuli/spore_stims/complex_14_A_a.gif","self_paced","","10","complex_dissimilar","images/stimuli/spore_stims/complex_17_A_b.gif","","","","",""
"","null","html-keyboard-response","139","276784","0.0-29.0-0.4","SS1618365966184","","","null","","","","","","<p><img src= images/blank.png width =""600"" height = ""600"" style=""position:fixed;top:50%; left:50%; transform: translate(-50%, -50%); border:5px solid black"">","","","","","","","",""
"","292.78500005602837","sequential-stimulus-presentation-old","140","277589","0.0-29.0-1.4","SS1618365966184","trial","","40","500","792.7850000560284","images/stimuli/spore_stims/complex_17_A_b.gif","images/stimuli/spore_stims/complex_14_A_a.gif","self_paced","","10","complex_dissimilar","images/stimuli/spore_stims/complex_14_A_a.gif","","","","",""
"","null","html-keyboard-response","141","278799","0.0-29.0-0.5","SS1618365966184","","","null","","","","","","<p><img src= images/blank.png width =""600"" height = ""600"" style=""position:fixed;top:50%; left:50%; transform: translate(-50%, -50%); border:5px solid black"">","","","","","","","",""
"","297.36500047147274","sequential-stimulus-presentation-old","142","279601","0.0-29.0-1.5","SS1618365966184","trial","","40","500","797.3650004714727","images/stimuli/spore_stims/complex_17_A_b.gif","images/stimuli/spore_stims/complex_14_A_a.gif","self_paced","","10","complex_dissimilar","images/stimuli/spore_stims/complex_14_A_a.gif","","","","",""
"","2362.130000256002","survey-multi-choice","143","281966","0.0-30.0","SS1618365966184","math_question","","","","","","","","","","","","{""Q0"":""9""}","[0]","9","",""
"","null","html-keyboard-response","144","283154","0.0-31.0-0.0","SS1618365966184","","","null","","","","","","<p><img src= images/blank.png width =""600"" height = ""600"" style=""position:fixed;top:50%; left:50%; transform: translate(-50%, -50%); border:5px solid black"">","","","","","","","",""
"","7220.265000127256","sequential-stimulus-presentation-old","145","295379","0.0-31.0-1.0","SS1618365966184","trial","","40","500","7720.265000127256","images/stimuli/spore_stims/simple_14_A_a.gif","images/stimuli/spore_stims/simple_03_A_b.gif","forced_long","","11","simple_dissimilar","images/stimuli/spore_stims/simple_03_A_b.gif","","","","",""
"","null","html-keyboard-response","146","296584","0.0-31.0-0.1","SS1618365966184","","","null","","","","","","<p><img src= images/blank.png width =""600"" height = ""600"" style=""position:fixed;top:50%; left:50%; transform: translate(-50%, -50%); border:5px solid black"">","","","","","","","",""
"","4628.680000081658","sequential-stimulus-presentation-old","147","301719","0.0-31.0-1.1","SS1618365966184","trial","","40","500","5128.680000081658","images/stimuli/spore_stims/simple_14_A_a.gif","images/stimuli/spore_stims/simple_03_A_b.gif","forced_long","","11","simple_dissimilar","images/stimuli/spore_stims/simple_03_A_b.gif","","","","",""
"","null","html-keyboard-response","148","302549","0.0-31.0-0.2","SS1618365966184","","","null","","","","","","<p><img src= images/blank.png width =""600"" height = ""600"" style=""position:fixed;top:50%; left:50%; transform: translate(-50%, -50%); border:5px solid black"">","","","","","","","",""
"","237.46499978005886","sequential-stimulus-presentation-old","149","303291","0.0-31.0-1.2","SS1618365966184","trial","","40","500","737.4649997800589","images/stimuli/spore_stims/simple_14_A_a.gif","images/stimuli/spore_stims/simple_03_A_b.gif","forced_long","","11","simple_dissimilar","images/stimuli/spore_stims/simple_03_A_b.gif","","","","",""
"","null","html-keyboard-response","150","304335","0.0-31.0-0.3","SS1618365966184","","","null","","","","","","<p><img src= images/blank.png width =""600"" height = ""600"" style=""position:fixed;top:50%; left:50%; transform: translate(-50%, -50%); border:5px solid black"">","","","","","","","",""
"","520.9750002250075","sequential-stimulus-presentation-old","151","305360","0.0-31.0-1.3","SS1618365966184","trial","","40","500","1020.9750002250075","images/stimuli/spore_stims/simple_14_A_a.gif","images/stimuli/spore_stims/simple_03_A_b.gif","forced_long","","11","simple_dissimilar","images/stimuli/spore_stims/simple_03_A_b.gif","","","","",""
"","null","html-keyboard-response","152","306174","0.0-31.0-0.4","SS1618365966184","","","null","","","","","","<p><img src= images/blank.png width =""600"" height = ""600"" style=""position:fixed;top:50%; left:50%; transform: translate(-50%, -50%); border:5px solid black"">","","","","","","","",""
"","653.5649998113513","sequential-stimulus-presentation-old","153","307333","0.0-31.0-1.4","SS1618365966184","trial","","40","500","1153.5649998113513","images/stimuli/spore_stims/simple_14_A_a.gif","images/stimuli/spore_stims/simple_03_A_b.gif","forced_long","","11","simple_dissimilar","images/stimuli/spore_stims/simple_14_A_a.gif","","","","",""
"[{""page_index"":0,""viewing_time"":3480.0249999389052}]","3480.2950005978346","instructions","154","310815","0.0-32.0","SS1618365966184","instructions","","","","","","","","","","","","","","","",""
"","10840.135000646114","survey-likert","155","321660","0.0-33.0","SS1618365966184","similarity_question","","","","","","","","","","","","{""Q0"":2}","[0]","","images/stimuli/spore_stims/complex_07_A_a.gif","images/stimuli/spore_stims/complex_19_A_b.gif"
"","5196.840000338852","survey-likert","156","326864","0.0-34.0","SS1618365966184","similarity_question","","","","","","","","","","","","{""Q0"":3}","[0]","","images/stimuli/spore_stims/simple_13_A_a.gif","images/stimuli/spore_stims/simple_04_A_b.gif"
"","2563.3349996060133","survey-likert","157","329434","0.0-35.0","SS1618365966184","similarity_question","","","","","","","","","","","","{""Q0"":4}","[0]","","images/stimuli/spore_stims/simple_03_A_b.gif","images/stimuli/spore_stims/simple_14_A_a.gif"
"","5570.910000242293","survey-likert","158","335014","0.0-36.0","SS1618365966184","similarity_question","","","","","","","","","","","","{""Q0"":2}","[0]","","images/stimuli/spore_stims/complex_10_A_b.gif","images/stimuli/spore_stims/complex_13_A_a.gif"
"","5643.740000203252","survey-likert","159","340665","0.0-37.0","SS1618365966184","similarity_question","","","","","","","","","","","","{""Q0"":3}","[0]","","images/stimuli/spore_stims/complex_20_A_b.gif","images/stimuli/spore_stims/complex_08_A_a.gif"
"","5445.05999982357","survey-likert","160","346117","0.0-38.0","SS1618365966184","similarity_question","","","","","","","","","","","","{""Q0"":1}","[0]","","images/stimuli/spore_stims/complex_17_A_b.gif","images/stimuli/spore_stims/complex_14_A_a.gif"
"","4773.359999991953","survey-likert","161","350897","0.0-39.0","SS1618365966184","similarity_question","","","","","","","","","","","","{""Q0"":2}","[0]","","images/stimuli/spore_stims/simple_11_A_b.gif","images/stimuli/spore_stims/simple_15_A_a.gif"
"","2280.774999409914","survey-likert","162","353185","0.0-40.0","SS1618365966184","similarity_question","","","","","","","","","","","","{""Q0"":3}","[0]","","images/stimuli/spore_stims/simple_15_A_b.gif","images/stimuli/spore_stims/simple_04_A_a.gif"
"","6274.674999527633","survey-likert","163","359466","0.0-41.0","SS1618365966184","similarity_question","","","","","","","","","","","","{""Q0"":1}","[0]","","images/stimuli/spore_stims/complex_02_A_a.gif","images/stimuli/spore_stims/complex_16_A_b.gif"
"","2813.0050003528595","survey-likert","164","362285","0.0-42.0","SS1618365966184","similarity_question","","","","","","","","","","","","{""Q0"":1}","[0]","","images/stimuli/spore_stims/complex_02_A_b.gif","images/stimuli/spore_stims/complex_01_A_a.gif"
"","3059.7999999299645","survey-likert","165","365352","0.0-43.0","SS1618365966184","similarity_question","","","","","","","","","","","","{""Q0"":1}","[0]","","images/stimuli/spore_stims/simple_08_A_a.gif","images/stimuli/spore_stims/simple_18_A_b.gif"
"","4744.125000201166","survey-likert","166","370104","0.0-44.0","SS1618365966184","similarity_question","","","","","","","","","","","","{""Q0"":2}","[0]","","images/stimuli/spore_stims/simple_03_A_a.gif","images/stimuli/spore_stims/simple_01_A_b.gif"
"[{""page_index"":0,""viewing_time"":3152.9700001701713}]","3153.245000168681","instructions","167","373263","0.0-45.0","SS1618365966184","instructions","","","","","","","","","","","","","","","",""
"","3360.399999655783","survey-likert","168","376628","0.0-46.0","SS1618365966184","","","","","","","","","images/stimuli/spore_stims/complex_01_A_a.gif","","","","{""Q0"":5}","[0]","","",""
"","2718.9800003543496","survey-likert","169","379354","0.0-47.0","SS1618365966184","","","","","","","","","images/stimuli/spore_stims/complex_14_A_a.gif","","","","{""Q0"":5}","[0]","","",""
"","4053.705000318587","survey-likert","170","383414","0.0-48.0","SS1618365966184","","","","","","","","","images/stimuli/spore_stims/simple_04_A_a.gif","","","","{""Q0"":1}","[0]","","",""
"","3015.254999510944","survey-likert","171","386437","0.0-49.0","SS1618365966184","","","","","","","","","images/stimuli/spore_stims/complex_10_A_b.gif","","","","{""Q0"":5}","[0]","","",""
"","2563.9599999412894","survey-likert","172","389008","0.0-50.0","SS1618365966184","","","","","","","","","images/stimuli/spore_stims/simple_14_A_a.gif","","","","{""Q0"":1}","[0]","","",""
"","2394.0699994564056","survey-likert","173","391410","0.0-51.0","SS1618365966184","","","","","","","","","images/stimuli/spore_stims/complex_20_A_b.gif","","","","{""Q0"":5}","[0]","","",""
"","3442.3150001093745","survey-likert","174","394859","0.0-52.0","SS1618365966184","","","","","","","","","images/stimuli/spore_stims/simple_01_A_b.gif","","","","{""Q0"":0}","[0]","","",""
"","4037.569999694824","survey-likert","175","398905","0.0-53.0","SS1618365966184","","","","","","","","","images/stimuli/spore_stims/complex_02_A_a.gif","","","","{""Q0"":5}","[0]","","",""
"","3484.6649998798966","survey-likert","176","402397","0.0-54.0","SS1618365966184","","","","","","","","","images/stimuli/spore_stims/simple_11_A_b.gif","","","","{""Q0"":1}","[0]","","",""
"","2691.7949998751283","survey-likert","177","405095","0.0-55.0","SS1618365966184","","","","","","","","","images/stimuli/spore_stims/simple_18_A_b.gif","","","","{""Q0"":2}","[0]","","",""
"","5043.994999490678","survey-likert","178","410147","0.0-56.0","SS1618365966184","","","","","","","","","images/stimuli/spore_stims/complex_19_A_b.gif","","","","{""Q0"":5}","[0]","","",""
"","3286.644999869168","survey-likert","179","413441","0.0-57.0","SS1618365966184","","","","","","","","","images/stimuli/spore_stims/simple_04_A_b.gif","","","","{""Q0"":1}","[0]","","",""
"[{""page_index"":0,""viewing_time"":1912.890000268817}]","1913.1800001487136","instructions","180","415359","0.0-58.0","SS1618365966184","instructions","","","","","","","","","","","","","","","",""
"","2764.580000191927","demog-age","181","418130","0.0-59.0","SS1618365966184","","","","","","","","","","","","","{""age"":""27""}","","","",""
"","2989.795000292361","demog-ethnic-US","182","421127","0.0-60.0","SS1618365966184","","","","","","","","","","","","","{""ethnicity"":[""White""]}","[0]","","",""
"","5106.564999558032","demog-gender-and-education","183","426240","0.0-61.0","SS1618365966184","","","","","","","","","","","","","{""gender"":""Female"",""education"":""Bachelor's Degree""}","[0,1]","","",""
"","9066.339999437332","survey-text","184","435316","0.0-62.0","SS1618365966184","feedback","","","","","","","","","","","","{""Q0"":""no issues""}","","","",""
"[{""page_index"":0,""viewing_time"":1494.3300001323223}]","1494.6499997749925","instructions","185","436817","0.0-63.0","SS1618365966184","instructions","","","","","","","","","","","","","","","",""
