"view_history","rt","trial_type","trial_index","time_elapsed","internal_node_id","subject","stimulus_type","trial_stimulus","key_press","minimum_viewing_duration","trial_looking_time","block_deviant","block_background","exposure_type","stimulus","block_number","block_type","stimulus_displayed","responses","question_order","math_correct_answer","stimulus_left","stimulus_right"
"[{""page_index"":0,""viewing_time"":8899.290000000066}]","8899.985000000015","instructions","0","8901","0.0-0.0","SS1618435638496","","","","","","","","","","","","","","","","",""
"[{""page_index"":0,""viewing_time"":12737.520000000135},{""page_index"":1,""viewing_time"":8311.789999999972}]","21049.51500000016","instructions","1","31964","0.0-1.0","SS1618435638496","instructions","","","","","","","","","","","","","","","",""
"","10033.490000000027","sequential-stimulus-presentation-old","2","42501","0.0-2.0","SS1618435638496","","","40","500","10533.490000000027","null","null","self_paced","","","","","","","","",""
"","4969.404999999817","sequential-stimulus-presentation-old","3","47979","0.0-3.0","SS1618435638496","","","40","500","5469.404999999817","null","null","self_paced","","","","","","","","",""
"[{""page_index"":0,""viewing_time"":17712.62999999999}]","17712.820000000196","instructions","4","65693","0.0-4.0","SS1618435638496","instructions","","","","","","","","","","","","","","","",""
"","4928.475000000166","sequential-stimulus-presentation-old","5","75631","0.0-5.0","SS1618435638496","","","40","500","5428.475000000166","null","null","forced_long","","","","","","","","",""
"","5856.4899999996705","sequential-stimulus-presentation-old","6","81540","0.0-6.0","SS1618435638496","","","40","50","5906.4899999996705","null","null","forced_long","","","","","","","","",""
"[{""page_index"":0,""viewing_time"":3647.925000000221}]","3648.110000000088","instructions","7","85189","0.0-7.0","SS1618435638496","instructions","","","","","","","","","","","","","","","",""
"[{""page_index"":0,""viewing_time"":7319.135000000184},{""page_index"":1,""viewing_time"":19967.940000000002},{""page_index"":2,""viewing_time"":4312.034999999916},{""page_index"":3,""viewing_time"":1327.9400000001187},{""page_index"":4,""viewing_time"":976.0199999996112}]","33903.28499999986","instructions","8","119093","0.0-8.0","SS1618435638496","instructions","","","","","","","","","","","","","","","",""
"","null","html-keyboard-response","9","119920","0.0-9.0-0.0","SS1618435638496","","","null","","","","","","<p><img src= images/blank.png width =""600"" height = ""600"" style=""position:fixed;top:50%; left:50%; transform: translate(-50%, -50%); border:5px solid black"">","","","","","","","",""
"","2450.164999999746","sequential-stimulus-presentation-old","10","122437","0.0-9.0-1.0","SS1618435638496","trial","","40","500","2950.164999999746","images/stimuli/spore_stims/complex_16_A_a.gif","images/stimuli/spore_stims/complex_10_A_b.gif","forced_short","","0","complex_dissimilar","images/stimuli/spore_stims/complex_10_A_b.gif","","","","",""
"","null","html-keyboard-response","11","123705","0.0-9.0-0.1","SS1618435638496","","","null","","","","","","<p><img src= images/blank.png width =""600"" height = ""600"" style=""position:fixed;top:50%; left:50%; transform: translate(-50%, -50%); border:5px solid black"">","","","","","","","",""
"","6317.319999999658","sequential-stimulus-presentation-old","12","130535","0.0-9.0-1.1","SS1618435638496","trial","","40","500","6817.319999999658","images/stimuli/spore_stims/complex_16_A_a.gif","images/stimuli/spore_stims/complex_10_A_b.gif","forced_short","","0","complex_dissimilar","images/stimuli/spore_stims/complex_10_A_b.gif","","","","",""
"","null","html-keyboard-response","13","131398","0.0-9.0-0.2","SS1618435638496","","","null","","","","","","<p><img src= images/blank.png width =""600"" height = ""600"" style=""position:fixed;top:50%; left:50%; transform: translate(-50%, -50%); border:5px solid black"">","","","","","","","",""
"","9785.309999999765","sequential-stimulus-presentation-old","14","141686","0.0-9.0-1.2","SS1618435638496","trial","","40","500","10285.309999999765","images/stimuli/spore_stims/complex_16_A_a.gif","images/stimuli/spore_stims/complex_10_A_b.gif","forced_short","","0","complex_dissimilar","images/stimuli/spore_stims/complex_10_A_b.gif","","","","",""
"","null","html-keyboard-response","15","142891","0.0-9.0-0.3","SS1618435638496","","","null","","","","","","<p><img src= images/blank.png width =""600"" height = ""600"" style=""position:fixed;top:50%; left:50%; transform: translate(-50%, -50%); border:5px solid black"">","","","","","","","",""
"","14224.034999999712","sequential-stimulus-presentation-old","16","157618","0.0-9.0-1.3","SS1618435638496","trial","","40","500","14724.034999999712","images/stimuli/spore_stims/complex_16_A_a.gif","images/stimuli/spore_stims/complex_10_A_b.gif","forced_short","","0","complex_dissimilar","images/stimuli/spore_stims/complex_10_A_b.gif","","","","",""
"","null","html-keyboard-response","17","158821","0.0-9.0-0.4","SS1618435638496","","","null","","","","","","<p><img src= images/blank.png width =""600"" height = ""600"" style=""position:fixed;top:50%; left:50%; transform: translate(-50%, -50%); border:5px solid black"">","","","","","","","",""
"","10562.414999999863","sequential-stimulus-presentation-old","18","169899","0.0-9.0-1.4","SS1618435638496","trial","","40","500","11062.414999999863","images/stimuli/spore_stims/complex_16_A_a.gif","images/stimuli/spore_stims/complex_10_A_b.gif","forced_short","","0","complex_dissimilar","images/stimuli/spore_stims/complex_10_A_b.gif","","","","",""
"","5075.179999999818","survey-multi-choice","19","174978","0.0-10.0","SS1618435638496","math_question","","","","","","","","","","","","{""Q0"":""12""}","[0]","12","",""
"","null","html-keyboard-response","20","175895","0.0-11.0-0.0","SS1618435638496","","","null","","","","","","<p><img src= images/blank.png width =""600"" height = ""600"" style=""position:fixed;top:50%; left:50%; transform: translate(-50%, -50%); border:5px solid black"">","","","","","","","",""
"","5650.94999999975","sequential-stimulus-presentation-old","21","186564","0.0-11.0-1.0","SS1618435638496","trial","","40","500","6150.94999999975","images/stimuli/spore_stims/simple_05_A_a.gif","images/stimuli/spore_stims/simple_19_A_b.gif","forced_long","","1","simple_dissimilar","images/stimuli/spore_stims/simple_19_A_b.gif","","","","",""
"","null","html-keyboard-response","22","187674","0.0-11.0-0.1","SS1618435638496","","","null","","","","","","<p><img src= images/blank.png width =""600"" height = ""600"" style=""position:fixed;top:50%; left:50%; transform: translate(-50%, -50%); border:5px solid black"">","","","","","","","",""
"","5013.460000000108","sequential-stimulus-presentation-old","23","193191","0.0-11.0-1.1","SS1618435638496","trial","","40","500","5513.460000000108","images/stimuli/spore_stims/simple_05_A_a.gif","images/stimuli/spore_stims/simple_19_A_b.gif","forced_long","","1","simple_dissimilar","images/stimuli/spore_stims/simple_05_A_a.gif","","","","",""
"","null","html-keyboard-response","24","194120","0.0-11.0-0.2","SS1618435638496","","","null","","","","","","<p><img src= images/blank.png width =""600"" height = ""600"" style=""position:fixed;top:50%; left:50%; transform: translate(-50%, -50%); border:5px solid black"">","","","","","","","",""
"","463.8549999999814","sequential-stimulus-presentation-old","25","195087","0.0-11.0-1.2","SS1618435638496","trial","","40","500","963.8549999999814","images/stimuli/spore_stims/simple_05_A_a.gif","images/stimuli/spore_stims/simple_19_A_b.gif","forced_long","","1","simple_dissimilar","images/stimuli/spore_stims/simple_05_A_a.gif","","","","",""
"","null","html-keyboard-response","26","196162","0.0-11.0-0.3","SS1618435638496","","","null","","","","","","<p><img src= images/blank.png width =""600"" height = ""600"" style=""position:fixed;top:50%; left:50%; transform: translate(-50%, -50%); border:5px solid black"">","","","","","","","",""
"","546.460000000021","sequential-stimulus-presentation-old","27","197220","0.0-11.0-1.3","SS1618435638496","trial","","40","500","1046.460000000021","images/stimuli/spore_stims/simple_05_A_a.gif","images/stimuli/spore_stims/simple_19_A_b.gif","forced_long","","1","simple_dissimilar","images/stimuli/spore_stims/simple_19_A_b.gif","","","","",""
"","3603.9049999999406","survey-multi-choice","28","200826","0.0-12.0","SS1618435638496","math_question","","","","","","","","","","","","{""Q0"":""10""}","[0]","10","",""
"","null","html-keyboard-response","29","201812","0.0-13.0-0.0","SS1618435638496","","","null","","","","","","<p><img src= images/blank.png width =""600"" height = ""600"" style=""position:fixed;top:50%; left:50%; transform: translate(-50%, -50%); border:5px solid black"">","","","","","","","",""
"","3493.1600000000035","sequential-stimulus-presentation-old","30","205813","0.0-13.0-1.0","SS1618435638496","trial","","40","500","3993.1600000000035","images/stimuli/spore_stims/simple_07_A_b.gif","images/stimuli/spore_stims/simple_10_A_a.gif","self_paced","","2","simple_dissimilar","images/stimuli/spore_stims/simple_10_A_a.gif","","","","",""
"","null","html-keyboard-response","31","206872","0.0-13.0-0.1","SS1618435638496","","","null","","","","","","<p><img src= images/blank.png width =""600"" height = ""600"" style=""position:fixed;top:50%; left:50%; transform: translate(-50%, -50%); border:5px solid black"">","","","","","","","",""
"","730.5949999999721","sequential-stimulus-presentation-old","32","208106","0.0-13.0-1.1","SS1618435638496","trial","","40","500","1230.594999999972","images/stimuli/spore_stims/simple_07_A_b.gif","images/stimuli/spore_stims/simple_10_A_a.gif","self_paced","","2","simple_dissimilar","images/stimuli/spore_stims/simple_10_A_a.gif","","","","",""
"","null","html-keyboard-response","33","209139","0.0-13.0-0.2","SS1618435638496","","","null","","","","","","<p><img src= images/blank.png width =""600"" height = ""600"" style=""position:fixed;top:50%; left:50%; transform: translate(-50%, -50%); border:5px solid black"">","","","","","","","",""
"","223.8200000001816","sequential-stimulus-presentation-old","34","209877","0.0-13.0-1.2","SS1618435638496","trial","","40","500","723.8200000001816","images/stimuli/spore_stims/simple_07_A_b.gif","images/stimuli/spore_stims/simple_10_A_a.gif","self_paced","","2","simple_dissimilar","images/stimuli/spore_stims/simple_10_A_a.gif","","","","",""
"","null","html-keyboard-response","35","211100","0.0-13.0-0.3","SS1618435638496","","","null","","","","","","<p><img src= images/blank.png width =""600"" height = ""600"" style=""position:fixed;top:50%; left:50%; transform: translate(-50%, -50%); border:5px solid black"">","","","","","","","",""
"","1303.91499999995","sequential-stimulus-presentation-old","36","212922","0.0-13.0-1.3","SS1618435638496","trial","","40","500","1803.91499999995","images/stimuli/spore_stims/simple_07_A_b.gif","images/stimuli/spore_stims/simple_10_A_a.gif","self_paced","","2","simple_dissimilar","images/stimuli/spore_stims/simple_10_A_a.gif","","","","",""
"","null","html-keyboard-response","37","213983","0.0-13.0-0.4","SS1618435638496","","","null","","","","","","<p><img src= images/blank.png width =""600"" height = ""600"" style=""position:fixed;top:50%; left:50%; transform: translate(-50%, -50%); border:5px solid black"">","","","","","","","",""
"","3409.2000000000407","sequential-stimulus-presentation-old","38","217910","0.0-13.0-1.4","SS1618435638496","trial","","40","500","3909.2000000000407","images/stimuli/spore_stims/simple_07_A_b.gif","images/stimuli/spore_stims/simple_10_A_a.gif","self_paced","","2","simple_dissimilar","images/stimuli/spore_stims/simple_10_A_a.gif","","","","",""
"","4602.1149999996705","survey-multi-choice","39","222506","0.0-14.0","SS1618435638496","math_question","","","","","","","","","","","","{""Q0"":""12""}","[0]","12","",""
"","null","html-keyboard-response","40","223514","0.0-15.0-0.0","SS1618435638496","","","null","","","","","","<p><img src= images/blank.png width =""600"" height = ""600"" style=""position:fixed;top:50%; left:50%; transform: translate(-50%, -50%); border:5px solid black"">","","","","","","","",""
"","2133.0199999997567","sequential-stimulus-presentation-old","41","230653","0.0-15.0-1.0","SS1618435638496","trial","","40","500","2633.0199999997567","images/stimuli/spore_stims/complex_20_A_b.gif","images/stimuli/spore_stims/complex_18_A_a.gif","forced_long","","3","complex_dissimilar","images/stimuli/spore_stims/complex_18_A_a.gif","","","","",""
"","null","html-keyboard-response","42","231784","0.0-15.0-0.1","SS1618435638496","","","null","","","","","","<p><img src= images/blank.png width =""600"" height = ""600"" style=""position:fixed;top:50%; left:50%; transform: translate(-50%, -50%); border:5px solid black"">","","","","","","","",""
"","1034.3050000001385","sequential-stimulus-presentation-old","43","233322","0.0-15.0-1.1","SS1618435638496","trial","","40","500","1534.3050000001385","images/stimuli/spore_stims/complex_20_A_b.gif","images/stimuli/spore_stims/complex_18_A_a.gif","forced_long","","3","complex_dissimilar","images/stimuli/spore_stims/complex_18_A_a.gif","","","","",""
"","null","html-keyboard-response","44","234155","0.0-15.0-0.2","SS1618435638496","","","null","","","","","","<p><img src= images/blank.png width =""600"" height = ""600"" style=""position:fixed;top:50%; left:50%; transform: translate(-50%, -50%); border:5px solid black"">","","","","","","","",""
"","1932.5499999999884","sequential-stimulus-presentation-old","45","236600","0.0-15.0-1.2","SS1618435638496","trial","","40","500","2432.5499999999884","images/stimuli/spore_stims/complex_20_A_b.gif","images/stimuli/spore_stims/complex_18_A_a.gif","forced_long","","3","complex_dissimilar","images/stimuli/spore_stims/complex_20_A_b.gif","","","","",""
"","null","html-keyboard-response","46","237799","0.0-15.0-0.3","SS1618435638496","","","null","","","","","","<p><img src= images/blank.png width =""600"" height = ""600"" style=""position:fixed;top:50%; left:50%; transform: translate(-50%, -50%); border:5px solid black"">","","","","","","","",""
"","4352.429999999906","sequential-stimulus-presentation-old","47","242655","0.0-15.0-1.3","SS1618435638496","trial","","40","500","4852.429999999906","images/stimuli/spore_stims/complex_20_A_b.gif","images/stimuli/spore_stims/complex_18_A_a.gif","forced_long","","3","complex_dissimilar","images/stimuli/spore_stims/complex_18_A_a.gif","","","","",""
"","3769.5599999997066","survey-multi-choice","48","246426","0.0-16.0","SS1618435638496","math_question","","","","","","","","","","","","{""Q0"":""15""}","[0]","15","",""
"","null","html-keyboard-response","49","247251","0.0-17.0-0.0","SS1618435638496","","","null","","","","","","<p><img src= images/blank.png width =""600"" height = ""600"" style=""position:fixed;top:50%; left:50%; transform: translate(-50%, -50%); border:5px solid black"">","","","","","","","",""
"","5594.5999999999185","sequential-stimulus-presentation-old","50","257849","0.0-17.0-1.0","SS1618435638496","trial","","40","500","6094.5999999999185","images/stimuli/spore_stims/simple_04_A_b.gif","images/stimuli/spore_stims/simple_07_A_a.gif","forced_long","","4","simple_dissimilar","images/stimuli/spore_stims/simple_07_A_a.gif","","","","",""
"","null","html-keyboard-response","51","258703","0.0-17.0-0.1","SS1618435638496","","","null","","","","","","<p><img src= images/blank.png width =""600"" height = ""600"" style=""position:fixed;top:50%; left:50%; transform: translate(-50%, -50%); border:5px solid black"">","","","","","","","",""
"","5202.885000000126","sequential-stimulus-presentation-old","52","264408","0.0-17.0-1.1","SS1618435638496","trial","","40","500","5702.885000000126","images/stimuli/spore_stims/simple_04_A_b.gif","images/stimuli/spore_stims/simple_07_A_a.gif","forced_long","","4","simple_dissimilar","images/stimuli/spore_stims/simple_07_A_a.gif","","","","",""
"","null","html-keyboard-response","53","265702","0.0-17.0-0.2","SS1618435638496","","","null","","","","","","<p><img src= images/blank.png width =""600"" height = ""600"" style=""position:fixed;top:50%; left:50%; transform: translate(-50%, -50%); border:5px solid black"">","","","","","","","",""
"","857.1649999998626","sequential-stimulus-presentation-old","54","267062","0.0-17.0-1.2","SS1618435638496","trial","","40","500","1357.1649999998626","images/stimuli/spore_stims/simple_04_A_b.gif","images/stimuli/spore_stims/simple_07_A_a.gif","forced_long","","4","simple_dissimilar","images/stimuli/spore_stims/simple_04_A_b.gif","","","","",""
"","null","html-keyboard-response","55","268283","0.0-17.0-0.3","SS1618435638496","","","null","","","","","","<p><img src= images/blank.png width =""600"" height = ""600"" style=""position:fixed;top:50%; left:50%; transform: translate(-50%, -50%); border:5px solid black"">","","","","","","","",""
"","12.895000000309665","sequential-stimulus-presentation-old","56","268801","0.0-17.0-1.3","SS1618435638496","trial","","40","500","512.8950000003097","images/stimuli/spore_stims/simple_04_A_b.gif","images/stimuli/spore_stims/simple_07_A_a.gif","forced_long","","4","simple_dissimilar","images/stimuli/spore_stims/simple_07_A_a.gif","","","","",""
"","2878.985000000277","survey-multi-choice","57","271682","0.0-18.0","SS1618435638496","math_question","","","","","","","","","","","","{""Q0"":""11""}","[0]","11","",""
"","null","html-keyboard-response","58","272854","0.0-19.0-0.0","SS1618435638496","","","null","","","","","","<p><img src= images/blank.png width =""600"" height = ""600"" style=""position:fixed;top:50%; left:50%; transform: translate(-50%, -50%); border:5px solid black"">","","","","","","","",""
"","2949.4349999999977","sequential-stimulus-presentation-old","59","276307","0.0-19.0-1.0","SS1618435638496","trial","","40","500","3449.4349999999977","images/stimuli/spore_stims/simple_05_A_b.gif","images/stimuli/spore_stims/simple_02_A_a.gif","self_paced","","5","simple_dissimilar","images/stimuli/spore_stims/simple_02_A_a.gif","","","","",""
"","null","html-keyboard-response","60","277155","0.0-19.0-0.1","SS1618435638496","","","null","","","","","","<p><img src= images/blank.png width =""600"" height = ""600"" style=""position:fixed;top:50%; left:50%; transform: translate(-50%, -50%); border:5px solid black"">","","","","","","","",""
"","236.70499999978347","sequential-stimulus-presentation-old","61","277909","0.0-19.0-1.1","SS1618435638496","trial","","40","500","736.7049999997835","images/stimuli/spore_stims/simple_05_A_b.gif","images/stimuli/spore_stims/simple_02_A_a.gif","self_paced","","5","simple_dissimilar","images/stimuli/spore_stims/simple_02_A_a.gif","","","","",""
"","null","html-keyboard-response","62","279136","0.0-19.0-0.2","SS1618435638496","","","null","","","","","","<p><img src= images/blank.png width =""600"" height = ""600"" style=""position:fixed;top:50%; left:50%; transform: translate(-50%, -50%); border:5px solid black"">","","","","","","","",""
"","34.49999999970896","sequential-stimulus-presentation-old","63","279684","0.0-19.0-1.2","SS1618435638496","trial","","40","500","534.499999999709","images/stimuli/spore_stims/simple_05_A_b.gif","images/stimuli/spore_stims/simple_02_A_a.gif","self_paced","","5","simple_dissimilar","images/stimuli/spore_stims/simple_02_A_a.gif","","","","",""
"","null","html-keyboard-response","64","280500","0.0-19.0-0.3","SS1618435638496","","","null","","","","","","<p><img src= images/blank.png width =""600"" height = ""600"" style=""position:fixed;top:50%; left:50%; transform: translate(-50%, -50%); border:5px solid black"">","","","","","","","",""
"","893.4500000000698","sequential-stimulus-presentation-old","65","281896","0.0-19.0-1.3","SS1618435638496","trial","","40","500","1393.4500000000698","images/stimuli/spore_stims/simple_05_A_b.gif","images/stimuli/spore_stims/simple_02_A_a.gif","self_paced","","5","simple_dissimilar","images/stimuli/spore_stims/simple_05_A_b.gif","","","","",""
"","2778.715000000375","survey-multi-choice","66","284677","0.0-20.0","SS1618435638496","math_question","","","","","","","","","","","","{""Q0"":""7""}","[0]","7","",""
"","null","html-keyboard-response","67","285769","0.0-21.0-0.0","SS1618435638496","","","null","","","","","","<p><img src= images/blank.png width =""600"" height = ""600"" style=""position:fixed;top:50%; left:50%; transform: translate(-50%, -50%); border:5px solid black"">","","","","","","","",""
"","3597.3649999996414","sequential-stimulus-presentation-old","68","289868","0.0-21.0-1.0","SS1618435638496","trial","","40","500","4097.364999999641","images/stimuli/spore_stims/complex_02_A_a.gif","images/stimuli/spore_stims/complex_12_A_b.gif","self_paced","","6","complex_dissimilar","images/stimuli/spore_stims/complex_12_A_b.gif","","","","",""
"","null","html-keyboard-response","69","290715","0.0-21.0-0.1","SS1618435638496","","","null","","","","","","<p><img src= images/blank.png width =""600"" height = ""600"" style=""position:fixed;top:50%; left:50%; transform: translate(-50%, -50%); border:5px solid black"">","","","","","","","",""
"","154.42000000027474","sequential-stimulus-presentation-old","70","291383","0.0-21.0-1.1","SS1618435638496","trial","","40","500","654.4200000002747","images/stimuli/spore_stims/complex_02_A_a.gif","images/stimuli/spore_stims/complex_12_A_b.gif","self_paced","","6","complex_dissimilar","images/stimuli/spore_stims/complex_12_A_b.gif","","","","",""
"","null","html-keyboard-response","71","292324","0.0-21.0-0.2","SS1618435638496","","","null","","","","","","<p><img src= images/blank.png width =""600"" height = ""600"" style=""position:fixed;top:50%; left:50%; transform: translate(-50%, -50%); border:5px solid black"">","","","","","","","",""
"","1873.0350000000908","sequential-stimulus-presentation-old","72","294700","0.0-21.0-1.2","SS1618435638496","trial","","40","500","2373.035000000091","images/stimuli/spore_stims/complex_02_A_a.gif","images/stimuli/spore_stims/complex_12_A_b.gif","self_paced","","6","complex_dissimilar","images/stimuli/spore_stims/complex_02_A_a.gif","","","","",""
"","null","html-keyboard-response","73","295844","0.0-21.0-0.3","SS1618435638496","","","null","","","","","","<p><img src= images/blank.png width =""600"" height = ""600"" style=""position:fixed;top:50%; left:50%; transform: translate(-50%, -50%); border:5px solid black"">","","","","","","","",""
"","514.0200000000768","sequential-stimulus-presentation-old","74","296874","0.0-21.0-1.3","SS1618435638496","trial","","40","500","1014.0200000000768","images/stimuli/spore_stims/complex_02_A_a.gif","images/stimuli/spore_stims/complex_12_A_b.gif","self_paced","","6","complex_dissimilar","images/stimuli/spore_stims/complex_12_A_b.gif","","","","",""
"","null","html-keyboard-response","75","298106","0.0-21.0-0.4","SS1618435638496","","","null","","","","","","<p><img src= images/blank.png width =""600"" height = ""600"" style=""position:fixed;top:50%; left:50%; transform: translate(-50%, -50%); border:5px solid black"">","","","","","","","",""
"","3274.080000000191","sequential-stimulus-presentation-old","76","301897","0.0-21.0-1.4","SS1618435638496","trial","","40","500","3774.080000000191","images/stimuli/spore_stims/complex_02_A_a.gif","images/stimuli/spore_stims/complex_12_A_b.gif","self_paced","","6","complex_dissimilar","images/stimuli/spore_stims/complex_02_A_a.gif","","","","",""
"","4025.899999999616","survey-multi-choice","77","305925","0.0-22.0","SS1618435638496","math_question","","","","","","","","","","","","{""Q0"":""8""}","[0]","8","",""
"","null","html-keyboard-response","78","307134","0.0-23.0-0.0","SS1618435638496","","","null","","","","","","<p><img src= images/blank.png width =""600"" height = ""600"" style=""position:fixed;top:50%; left:50%; transform: translate(-50%, -50%); border:5px solid black"">","","","","","","","",""
"","1064.280000000028","sequential-stimulus-presentation-old","79","313219","0.0-23.0-1.0","SS1618435638496","trial","","40","500","1564.280000000028","images/stimuli/spore_stims/complex_20_A_a.gif","images/stimuli/spore_stims/complex_06_A_b.gif","forced_long","","7","complex_dissimilar","images/stimuli/spore_stims/complex_06_A_b.gif","","","","",""
"","null","html-keyboard-response","80","314444","0.0-23.0-0.1","SS1618435638496","","","null","","","","","","<p><img src= images/blank.png width =""600"" height = ""600"" style=""position:fixed;top:50%; left:50%; transform: translate(-50%, -50%); border:5px solid black"">","","","","","","","",""
"","99.29000000009546","sequential-stimulus-presentation-old","81","315050","0.0-23.0-1.1","SS1618435638496","trial","","40","500","599.2900000000955","images/stimuli/spore_stims/complex_20_A_a.gif","images/stimuli/spore_stims/complex_06_A_b.gif","forced_long","","7","complex_dissimilar","images/stimuli/spore_stims/complex_06_A_b.gif","","","","",""
"","null","html-keyboard-response","82","315941","0.0-23.0-0.2","SS1618435638496","","","null","","","","","","<p><img src= images/blank.png width =""600"" height = ""600"" style=""position:fixed;top:50%; left:50%; transform: translate(-50%, -50%); border:5px solid black"">","","","","","","","",""
"","347.2400000001071","sequential-stimulus-presentation-old","83","316791","0.0-23.0-1.2","SS1618435638496","trial","","40","500","847.2400000001071","images/stimuli/spore_stims/complex_20_A_a.gif","images/stimuli/spore_stims/complex_06_A_b.gif","forced_long","","7","complex_dissimilar","images/stimuli/spore_stims/complex_06_A_b.gif","","","","",""
"","null","html-keyboard-response","84","317731","0.0-23.0-0.3","SS1618435638496","","","null","","","","","","<p><img src= images/blank.png width =""600"" height = ""600"" style=""position:fixed;top:50%; left:50%; transform: translate(-50%, -50%); border:5px solid black"">","","","","","","","",""
"","149.04499999963446","sequential-stimulus-presentation-old","85","318402","0.0-23.0-1.3","SS1618435638496","trial","","40","500","649.0449999996345","images/stimuli/spore_stims/complex_20_A_a.gif","images/stimuli/spore_stims/complex_06_A_b.gif","forced_long","","7","complex_dissimilar","images/stimuli/spore_stims/complex_06_A_b.gif","","","","",""
"","null","html-keyboard-response","86","319508","0.0-23.0-0.4","SS1618435638496","","","null","","","","","","<p><img src= images/blank.png width =""600"" height = ""600"" style=""position:fixed;top:50%; left:50%; transform: translate(-50%, -50%); border:5px solid black"">","","","","","","","",""
"","738.3049999998766","sequential-stimulus-presentation-old","87","320758","0.0-23.0-1.4","SS1618435638496","trial","","40","500","1238.3049999998766","images/stimuli/spore_stims/complex_20_A_a.gif","images/stimuli/spore_stims/complex_06_A_b.gif","forced_long","","7","complex_dissimilar","images/stimuli/spore_stims/complex_06_A_b.gif","","","","",""
"","null","html-keyboard-response","88","321856","0.0-23.0-0.5","SS1618435638496","","","null","","","","","","<p><img src= images/blank.png width =""600"" height = ""600"" style=""position:fixed;top:50%; left:50%; transform: translate(-50%, -50%); border:5px solid black"">","","","","","","","",""
"","503.49499999993714","sequential-stimulus-presentation-old","89","322871","0.0-23.0-1.5","SS1618435638496","trial","","40","500","1003.4949999999371","images/stimuli/spore_stims/complex_20_A_a.gif","images/stimuli/spore_stims/complex_06_A_b.gif","forced_long","","7","complex_dissimilar","images/stimuli/spore_stims/complex_06_A_b.gif","","","","",""
"","3635.640000000014","survey-multi-choice","90","326509","0.0-24.0","SS1618435638496","math_question","","","","","","","","","","","","{""Q0"":""7""}","[0]","7","",""
"","null","html-keyboard-response","91","327426","0.0-25.0-0.0","SS1618435638496","","","null","","","","","","<p><img src= images/blank.png width =""600"" height = ""600"" style=""position:fixed;top:50%; left:50%; transform: translate(-50%, -50%); border:5px solid black"">","","","","","","","",""
"","2942.1899999997113","sequential-stimulus-presentation-old","92","330442","0.0-25.0-1.0","SS1618435638496","trial","","40","500","3442.1899999997113","images/stimuli/spore_stims/simple_17_A_b.gif","images/stimuli/spore_stims/simple_12_A_a.gif","forced_short","","8","simple_dissimilar","images/stimuli/spore_stims/simple_12_A_a.gif","","","","",""
"","null","html-keyboard-response","93","331514","0.0-25.0-0.1","SS1618435638496","","","null","","","","","","<p><img src= images/blank.png width =""600"" height = ""600"" style=""position:fixed;top:50%; left:50%; transform: translate(-50%, -50%); border:5px solid black"">","","","","","","","",""
"","6286.689999999886","sequential-stimulus-presentation-old","94","338304","0.0-25.0-1.1","SS1618435638496","trial","","40","500","6786.689999999886","images/stimuli/spore_stims/simple_17_A_b.gif","images/stimuli/spore_stims/simple_12_A_a.gif","forced_short","","8","simple_dissimilar","images/stimuli/spore_stims/simple_12_A_a.gif","","","","",""
"","null","html-keyboard-response","95","339213","0.0-25.0-0.2","SS1618435638496","","","null","","","","","","<p><img src= images/blank.png width =""600"" height = ""600"" style=""position:fixed;top:50%; left:50%; transform: translate(-50%, -50%); border:5px solid black"">","","","","","","","",""
"","148.3649999999907","sequential-stimulus-presentation-old","96","339874","0.0-25.0-1.2","SS1618435638496","trial","","40","500","648.3649999999907","images/stimuli/spore_stims/simple_17_A_b.gif","images/stimuli/spore_stims/simple_12_A_a.gif","forced_short","","8","simple_dissimilar","images/stimuli/spore_stims/simple_12_A_a.gif","","","","",""
"","null","html-keyboard-response","97","340976","0.0-25.0-0.3","SS1618435638496","","","null","","","","","","<p><img src= images/blank.png width =""600"" height = ""600"" style=""position:fixed;top:50%; left:50%; transform: translate(-50%, -50%); border:5px solid black"">","","","","","","","",""
"","28.819999999948777","sequential-stimulus-presentation-old","98","341508","0.0-25.0-1.3","SS1618435638496","trial","","40","500","528.8199999999488","images/stimuli/spore_stims/simple_17_A_b.gif","images/stimuli/spore_stims/simple_12_A_a.gif","forced_short","","8","simple_dissimilar","images/stimuli/spore_stims/simple_12_A_a.gif","","","","",""
"","null","html-keyboard-response","99","342645","0.0-25.0-0.4","SS1618435638496","","","null","","","","","","<p><img src= images/blank.png width =""600"" height = ""600"" style=""position:fixed;top:50%; left:50%; transform: translate(-50%, -50%); border:5px solid black"">","","","","","","","",""
"","1156.0399999998626","sequential-stimulus-presentation-old","100","344317","0.0-25.0-1.4","SS1618435638496","trial","","40","500","1656.0399999998626","images/stimuli/spore_stims/simple_17_A_b.gif","images/stimuli/spore_stims/simple_12_A_a.gif","forced_short","","8","simple_dissimilar","images/stimuli/spore_stims/simple_17_A_b.gif","","","","",""
"","null","html-keyboard-response","101","345587","0.0-25.0-0.5","SS1618435638496","","","null","","","","","","<p><img src= images/blank.png width =""600"" height = ""600"" style=""position:fixed;top:50%; left:50%; transform: translate(-50%, -50%); border:5px solid black"">","","","","","","","",""
"","77.66500000027008","sequential-stimulus-presentation-old","102","346171","0.0-25.0-1.5","SS1618435638496","trial","","40","500","577.6650000002701","images/stimuli/spore_stims/simple_17_A_b.gif","images/stimuli/spore_stims/simple_12_A_a.gif","forced_short","","8","simple_dissimilar","images/stimuli/spore_stims/simple_12_A_a.gif","","","","",""
"","3048.3850000000675","survey-multi-choice","103","349221","0.0-26.0","SS1618435638496","math_question","","","","","","","","","","","","{""Q0"":""8""}","[0]","8","",""
"","null","html-keyboard-response","104","350247","0.0-27.0-0.0","SS1618435638496","","","null","","","","","","<p><img src= images/blank.png width =""600"" height = ""600"" style=""position:fixed;top:50%; left:50%; transform: translate(-50%, -50%); border:5px solid black"">","","","","","","","",""
"","1624.2099999999627","sequential-stimulus-presentation-old","105","351933","0.0-27.0-1.0","SS1618435638496","trial","","40","500","2124.2099999999627","images/stimuli/spore_stims/simple_08_A_b.gif","images/stimuli/spore_stims/simple_14_A_a.gif","forced_short","","9","simple_dissimilar","images/stimuli/spore_stims/simple_14_A_a.gif","","","","",""
"","null","html-keyboard-response","106","352932","0.0-27.0-0.1","SS1618435638496","","","null","","","","","","<p><img src= images/blank.png width =""600"" height = ""600"" style=""position:fixed;top:50%; left:50%; transform: translate(-50%, -50%); border:5px solid black"">","","","","","","","",""
"","450.8849999997765","sequential-stimulus-presentation-old","107","353888","0.0-27.0-1.1","SS1618435638496","trial","","40","500","950.8849999997765","images/stimuli/spore_stims/simple_08_A_b.gif","images/stimuli/spore_stims/simple_14_A_a.gif","forced_short","","9","simple_dissimilar","images/stimuli/spore_stims/simple_14_A_a.gif","","","","",""
"","null","html-keyboard-response","108","355067","0.0-27.0-0.2","SS1618435638496","","","null","","","","","","<p><img src= images/blank.png width =""600"" height = ""600"" style=""position:fixed;top:50%; left:50%; transform: translate(-50%, -50%); border:5px solid black"">","","","","","","","",""
"","965.7600000000675","sequential-stimulus-presentation-old","109","356537","0.0-27.0-1.2","SS1618435638496","trial","","40","500","1465.7600000000675","images/stimuli/spore_stims/simple_08_A_b.gif","images/stimuli/spore_stims/simple_14_A_a.gif","forced_short","","9","simple_dissimilar","images/stimuli/spore_stims/simple_14_A_a.gif","","","","",""
"","null","html-keyboard-response","110","357665","0.0-27.0-0.3","SS1618435638496","","","null","","","","","","<p><img src= images/blank.png width =""600"" height = ""600"" style=""position:fixed;top:50%; left:50%; transform: translate(-50%, -50%); border:5px solid black"">","","","","","","","",""
"","473.95000000006985","sequential-stimulus-presentation-old","111","358647","0.0-27.0-1.3","SS1618435638496","trial","","40","500","973.9500000000698","images/stimuli/spore_stims/simple_08_A_b.gif","images/stimuli/spore_stims/simple_14_A_a.gif","forced_short","","9","simple_dissimilar","images/stimuli/spore_stims/simple_14_A_a.gif","","","","",""
"","2620.3449999998556","survey-multi-choice","112","361269","0.0-28.0","SS1618435638496","math_question","","","","","","","","","","","","{""Q0"":""11""}","[0]","11","",""
"","null","html-keyboard-response","113","362571","0.0-29.0-0.0","SS1618435638496","","","null","","","","","","<p><img src= images/blank.png width =""600"" height = ""600"" style=""position:fixed;top:50%; left:50%; transform: translate(-50%, -50%); border:5px solid black"">","","","","","","","",""
"","1352.5850000000792","sequential-stimulus-presentation-old","114","363977","0.0-29.0-1.0","SS1618435638496","trial","","40","500","1852.5850000000792","images/stimuli/spore_stims/complex_01_A_a.gif","images/stimuli/spore_stims/complex_05_A_b.gif","forced_short","","10","complex_dissimilar","images/stimuli/spore_stims/complex_05_A_b.gif","","","","",""
"","null","html-keyboard-response","115","365267","0.0-29.0-0.1","SS1618435638496","","","null","","","","","","<p><img src= images/blank.png width =""600"" height = ""600"" style=""position:fixed;top:50%; left:50%; transform: translate(-50%, -50%); border:5px solid black"">","","","","","","","",""
"","1450.1450000002515","sequential-stimulus-presentation-old","116","367221","0.0-29.0-1.1","SS1618435638496","trial","","40","500","1950.1450000002515","images/stimuli/spore_stims/complex_01_A_a.gif","images/stimuli/spore_stims/complex_05_A_b.gif","forced_short","","10","complex_dissimilar","images/stimuli/spore_stims/complex_05_A_b.gif","","","","",""
"","null","html-keyboard-response","117","368117","0.0-29.0-0.2","SS1618435638496","","","null","","","","","","<p><img src= images/blank.png width =""600"" height = ""600"" style=""position:fixed;top:50%; left:50%; transform: translate(-50%, -50%); border:5px solid black"">","","","","","","","",""
"","4511.2350000003935","sequential-stimulus-presentation-old","118","373147","0.0-29.0-1.2","SS1618435638496","trial","","40","500","5011.2350000003935","images/stimuli/spore_stims/complex_01_A_a.gif","images/stimuli/spore_stims/complex_05_A_b.gif","forced_short","","10","complex_dissimilar","images/stimuli/spore_stims/complex_05_A_b.gif","","","","",""
"","null","html-keyboard-response","119","374104","0.0-29.0-0.3","SS1618435638496","","","null","","","","","","<p><img src= images/blank.png width =""600"" height = ""600"" style=""position:fixed;top:50%; left:50%; transform: translate(-50%, -50%); border:5px solid black"">","","","","","","","",""
"","9513.044999999693","sequential-stimulus-presentation-old","120","384120","0.0-29.0-1.3","SS1618435638496","trial","","40","500","10013.044999999693","images/stimuli/spore_stims/complex_01_A_a.gif","images/stimuli/spore_stims/complex_05_A_b.gif","forced_short","","10","complex_dissimilar","images/stimuli/spore_stims/complex_01_A_a.gif","","","","",""
"","null","html-keyboard-response","121","385131","0.0-29.0-0.4","SS1618435638496","","","null","","","","","","<p><img src= images/blank.png width =""600"" height = ""600"" style=""position:fixed;top:50%; left:50%; transform: translate(-50%, -50%); border:5px solid black"">","","","","","","","",""
"","1064.4999999999418","sequential-stimulus-presentation-old","122","386710","0.0-29.0-1.4","SS1618435638496","trial","","40","500","1564.4999999999418","images/stimuli/spore_stims/complex_01_A_a.gif","images/stimuli/spore_stims/complex_05_A_b.gif","forced_short","","10","complex_dissimilar","images/stimuli/spore_stims/complex_05_A_b.gif","","","","",""
"","3564.129999999772","survey-multi-choice","123","390277","0.0-30.0","SS1618435638496","math_question","","","","","","","","","","","","{""Q0"":""15""}","[0]","15","",""
"","null","html-keyboard-response","124","391564","0.0-31.0-0.0","SS1618435638496","","","null","","","","","","<p><img src= images/blank.png width =""600"" height = ""600"" style=""position:fixed;top:50%; left:50%; transform: translate(-50%, -50%); border:5px solid black"">","","","","","","","",""
"","2441.125000000291","sequential-stimulus-presentation-old","125","394509","0.0-31.0-1.0","SS1618435638496","trial","","40","500","2941.125000000291","images/stimuli/spore_stims/complex_11_A_a.gif","images/stimuli/spore_stims/complex_19_A_b.gif","self_paced","","11","complex_dissimilar","images/stimuli/spore_stims/complex_19_A_b.gif","","","","",""
"","null","html-keyboard-response","126","395753","0.0-31.0-0.1","SS1618435638496","","","null","","","","","","<p><img src= images/blank.png width =""600"" height = ""600"" style=""position:fixed;top:50%; left:50%; transform: translate(-50%, -50%); border:5px solid black"">","","","","","","","",""
"","2543.2949999999255","sequential-stimulus-presentation-old","127","398803","0.0-31.0-1.1","SS1618435638496","trial","","40","500","3043.2949999999255","images/stimuli/spore_stims/complex_11_A_a.gif","images/stimuli/spore_stims/complex_19_A_b.gif","self_paced","","11","complex_dissimilar","images/stimuli/spore_stims/complex_19_A_b.gif","","","","",""
"","null","html-keyboard-response","128","399729","0.0-31.0-0.2","SS1618435638496","","","null","","","","","","<p><img src= images/blank.png width =""600"" height = ""600"" style=""position:fixed;top:50%; left:50%; transform: translate(-50%, -50%); border:5px solid black"">","","","","","","","",""
"","404.6499999999651","sequential-stimulus-presentation-old","129","400647","0.0-31.0-1.2","SS1618435638496","trial","","40","500","904.6499999999651","images/stimuli/spore_stims/complex_11_A_a.gif","images/stimuli/spore_stims/complex_19_A_b.gif","self_paced","","11","complex_dissimilar","images/stimuli/spore_stims/complex_19_A_b.gif","","","","",""
"","null","html-keyboard-response","130","401615","0.0-31.0-0.3","SS1618435638496","","","null","","","","","","<p><img src= images/blank.png width =""600"" height = ""600"" style=""position:fixed;top:50%; left:50%; transform: translate(-50%, -50%); border:5px solid black"">","","","","","","","",""
"","769.9550000002491","sequential-stimulus-presentation-old","131","402889","0.0-31.0-1.3","SS1618435638496","trial","","40","500","1269.9550000002491","images/stimuli/spore_stims/complex_11_A_a.gif","images/stimuli/spore_stims/complex_19_A_b.gif","self_paced","","11","complex_dissimilar","images/stimuli/spore_stims/complex_19_A_b.gif","","","","",""
"","null","html-keyboard-response","132","403804","0.0-31.0-0.4","SS1618435638496","","","null","","","","","","<p><img src= images/blank.png width =""600"" height = ""600"" style=""position:fixed;top:50%; left:50%; transform: translate(-50%, -50%); border:5px solid black"">","","","","","","","",""
"","511.71999999997206","sequential-stimulus-presentation-old","133","404819","0.0-31.0-1.4","SS1618435638496","trial","","40","500","1011.7199999999721","images/stimuli/spore_stims/complex_11_A_a.gif","images/stimuli/spore_stims/complex_19_A_b.gif","self_paced","","11","complex_dissimilar","images/stimuli/spore_stims/complex_11_A_a.gif","","","","",""
"[{""page_index"":0,""viewing_time"":5007.550000000279}]","5007.730000000272","instructions","134","409829","0.0-32.0","SS1618435638496","instructions","","","","","","","","","","","","","","","",""
"","3668.8300000000745","survey-likert","135","413501","0.0-33.0","SS1618435638496","similarity_question","","","","","","","","","","","","{""Q0"":4}","[0]","","images/stimuli/spore_stims/simple_14_A_a.gif","images/stimuli/spore_stims/simple_08_A_b.gif"
"","3956.6699999999837","survey-likert","136","417461","0.0-34.0","SS1618435638496","similarity_question","","","","","","","","","","","","{""Q0"":5}","[0]","","images/stimuli/spore_stims/complex_06_A_b.gif","images/stimuli/spore_stims/complex_20_A_a.gif"
"","4036.4700000000303","survey-likert","137","421501","0.0-35.0","SS1618435638496","similarity_question","","","","","","","","","","","","{""Q0"":1}","[0]","","images/stimuli/spore_stims/complex_11_A_a.gif","images/stimuli/spore_stims/complex_19_A_b.gif"
"","2397.25","survey-likert","138","423901","0.0-36.0","SS1618435638496","similarity_question","","","","","","","","","","","","{""Q0"":4}","[0]","","images/stimuli/spore_stims/complex_01_A_a.gif","images/stimuli/spore_stims/complex_05_A_b.gif"
"","3700.960000000079","survey-likert","139","427605","0.0-37.0","SS1618435638496","similarity_question","","","","","","","","","","","","{""Q0"":1}","[0]","","images/stimuli/spore_stims/simple_04_A_b.gif","images/stimuli/spore_stims/simple_07_A_a.gif"
"","2156.289999999921","survey-likert","140","429765","0.0-38.0","SS1618435638496","similarity_question","","","","","","","","","","","","{""Q0"":1}","[0]","","images/stimuli/spore_stims/simple_19_A_b.gif","images/stimuli/spore_stims/simple_05_A_a.gif"
"","2964.539999999921","survey-likert","141","432733","0.0-39.0","SS1618435638496","similarity_question","","","","","","","","","","","","{""Q0"":5}","[0]","","images/stimuli/spore_stims/complex_18_A_a.gif","images/stimuli/spore_stims/complex_20_A_b.gif"
"","4876.589999999851","survey-likert","142","437613","0.0-40.0","SS1618435638496","similarity_question","","","","","","","","","","","","{""Q0"":2}","[0]","","images/stimuli/spore_stims/complex_16_A_a.gif","images/stimuli/spore_stims/complex_10_A_b.gif"
"","2644.7500000004075","survey-likert","143","440261","0.0-41.0","SS1618435638496","similarity_question","","","","","","","","","","","","{""Q0"":1}","[0]","","images/stimuli/spore_stims/complex_02_A_a.gif","images/stimuli/spore_stims/complex_12_A_b.gif"
"","3844.579999999958","survey-likert","144","444109","0.0-42.0","SS1618435638496","similarity_question","","","","","","","","","","","","{""Q0"":5}","[0]","","images/stimuli/spore_stims/simple_17_A_b.gif","images/stimuli/spore_stims/simple_12_A_a.gif"
"","2044.815000000177","survey-likert","145","446157","0.0-43.0","SS1618435638496","similarity_question","","","","","","","","","","","","{""Q0"":5}","[0]","","images/stimuli/spore_stims/simple_02_A_a.gif","images/stimuli/spore_stims/simple_05_A_b.gif"
"","2476.5299999999115","survey-likert","146","448637","0.0-44.0","SS1618435638496","similarity_question","","","","","","","","","","","","{""Q0"":2}","[0]","","images/stimuli/spore_stims/simple_07_A_b.gif","images/stimuli/spore_stims/simple_10_A_a.gif"
"[{""page_index"":0,""viewing_time"":3828.9850000001024}]","3829.200000000128","instructions","147","452469","0.0-45.0","SS1618435638496","instructions","","","","","","","","","","","","","","","",""
"","5493.610000000452","survey-likert","148","457965","0.0-46.0","SS1618435638496","","","","","","","","","images/stimuli/spore_stims/simple_08_A_b.gif","","","","{""Q0"":1}","[0]","","",""
"","3964.654999999737","survey-likert","149","461933","0.0-47.0","SS1618435638496","","","","","","","","","images/stimuli/spore_stims/simple_12_A_a.gif","","","","{""Q0"":2}","[0]","","",""
"","2701.1000000002095","survey-likert","150","464637","0.0-48.0","SS1618435638496","","","","","","","","","images/stimuli/spore_stims/complex_11_A_a.gif","","","","{""Q0"":4}","[0]","","",""
"","3140.4900000002235","survey-likert","151","467781","0.0-49.0","SS1618435638496","","","","","","","","","images/stimuli/spore_stims/complex_18_A_a.gif","","","","{""Q0"":5}","[0]","","",""
"","2156.670000000333","survey-likert","152","469941","0.0-50.0","SS1618435638496","","","","","","","","","images/stimuli/spore_stims/complex_05_A_b.gif","","","","{""Q0"":5}","[0]","","",""
"","2804.9400000000023","survey-likert","153","472749","0.0-51.0","SS1618435638496","","","","","","","","","images/stimuli/spore_stims/complex_02_A_a.gif","","","","{""Q0"":3}","[0]","","",""
"","2308.8700000002864","survey-likert","154","475061","0.0-52.0","SS1618435638496","","","","","","","","","images/stimuli/spore_stims/simple_05_A_a.gif","","","","{""Q0"":1}","[0]","","",""
"","1668.7300000003306","survey-likert","155","476733","0.0-53.0","SS1618435638496","","","","","","","","","images/stimuli/spore_stims/simple_07_A_a.gif","","","","{""Q0"":1}","[0]","","",""
"","2325.100000000035","survey-likert","156","479061","0.0-54.0","SS1618435638496","","","","","","","","","images/stimuli/spore_stims/simple_02_A_a.gif","","","","{""Q0"":1}","[0]","","",""
"","1972.5100000000675","survey-likert","157","481037","0.0-55.0","SS1618435638496","","","","","","","","","images/stimuli/spore_stims/complex_20_A_a.gif","","","","{""Q0"":5}","[0]","","",""
"","2204.729999999923","survey-likert","158","483245","0.0-56.0","SS1618435638496","","","","","","","","","images/stimuli/spore_stims/simple_10_A_a.gif","","","","{""Q0"":1}","[0]","","",""
"","3372.820000000065","survey-likert","159","486622","0.0-57.0","SS1618435638496","","","","","","","","","images/stimuli/spore_stims/complex_10_A_b.gif","","","","{""Q0"":5}","[0]","","",""
"[{""page_index"":0,""viewing_time"":1156.1599999999744}]","1156.354999999574","instructions","160","487781","0.0-58.0","SS1618435638496","instructions","","","","","","","","","","","","","","","",""
"","2612.625000000233","demog-age","161","490397","0.0-59.0","SS1618435638496","","","","","","","","","","","","","{""age"":""21""}","","","",""
"","10058.814999999886","demog-ethnic-US","162","500461","0.0-60.0","SS1618435638496","","","","","","","","","","","","","{""ethnicity"":[""White""]}","[0]","","",""
"","10988.424999999988","demog-gender-and-education","163","511454","0.0-61.0","SS1618435638496","","","","","","","","","","","","","{""gender"":""Female"",""education"":""Bachelor's Degree""}","[0,1]","","",""
"","12683.33499999973","survey-text","164","524141","0.0-62.0","SS1618435638496","feedback","","","","","","","","","","","","{""Q0"":""everything was fine""}","","","",""
"[{""page_index"":0,""viewing_time"":964.8400000000838}]","965.0249999999069","instructions","165","525109","0.0-63.0","SS1618435638496","instructions","","","","","","","","","","","","","","","",""
