"view_history","rt","trial_type","trial_index","time_elapsed","internal_node_id","subject","stimulus_type","trial_stimulus","key_press","minimum_viewing_duration","trial_looking_time","block_deviant","block_background","exposure_type","stimulus","block_number","block_type","stimulus_displayed","responses","question_order","math_correct_answer","stimulus_left","stimulus_right"
"[{""page_index"":0,""viewing_time"":15006.53500000044}]","15006.984999999986","instructions","0","15008","0.0-0.0","SS1618365842572","","","","","","","","","","","","","","","","",""
"[{""page_index"":0,""viewing_time"":10570.705000000089},{""page_index"":1,""viewing_time"":5973.950000000514}]","16544.880000000376","instructions","1","33562","0.0-1.0","SS1618365842572","instructions","","","","","","","","","","","","","","","",""
"","7152.320000000145","sequential-stimulus-presentation-old","2","41218","0.0-2.0","SS1618365842572","","","40","500","7652.320000000145","null","null","self_paced","","","","","","","","",""
"","6331.74500000041","sequential-stimulus-presentation-old","3","48051","0.0-3.0","SS1618365842572","","","40","500","6831.74500000041","null","null","self_paced","","","","","","","","",""
"[{""page_index"":0,""viewing_time"":40680.15500000001}]","40680.35500000042","instructions","4","88732","0.0-4.0","SS1618365842572","instructions","","","","","","","","","","","","","","","",""
"","5603.3899999993155","sequential-stimulus-presentation-old","5","99339","0.0-5.0","SS1618365842572","","","40","500","6103.3899999993155","null","null","forced_long","","","","","","","","",""
"","4075.7400000002235","sequential-stimulus-presentation-old","6","103466","0.0-6.0","SS1618365842572","","","40","50","4125.7400000002235","null","null","forced_long","","","","","","","","",""
"[{""page_index"":0,""viewing_time"":6111.5700000000215}]","6111.7599999997765","instructions","7","109578","0.0-7.0","SS1618365842572","instructions","","","","","","","","","","","","","","","",""
"[{""page_index"":0,""viewing_time"":11116.280000000203},{""page_index"":1,""viewing_time"":7568.150000000052},{""page_index"":2,""viewing_time"":5045.495000000286},{""page_index"":3,""viewing_time"":2482.2549999999173},{""page_index"":4,""viewing_time"":1756.4999999995052}]","27968.864999999845","instructions","8","137548","0.0-8.0","SS1618365842572","instructions","","","","","","","","","","","","","","","",""
"","null","html-keyboard-response","9","138774","0.0-9.0-0.0","SS1618365842572","","","null","","","","","","<p><img src= images/blank.png width =""600"" height = ""600"" style=""position:fixed;top:50%; left:50%; transform: translate(-50%, -50%); border:5px solid black"">","","","","","","","",""
"","64113.29999999996","sequential-stimulus-presentation-old","10","203390","0.0-9.0-1.0","SS1618365842572","trial","","40","500","64613.29999999996","images/stimuli/spore_stims/simple_11_A_a.gif","images/stimuli/spore_stims/simple_10_A_b.gif","self_paced","","0","simple_dissimilar","images/stimuli/spore_stims/simple_10_A_b.gif","","","","",""
"","null","html-keyboard-response","11","204328","0.0-9.0-0.1","SS1618365842572","","","null","","","","","","<p><img src= images/blank.png width =""600"" height = ""600"" style=""position:fixed;top:50%; left:50%; transform: translate(-50%, -50%); border:5px solid black"">","","","","","","","",""
"","7866.8150000003225","sequential-stimulus-presentation-old","12","212697","0.0-9.0-1.1","SS1618365842572","trial","","40","500","8366.815000000322","images/stimuli/spore_stims/simple_11_A_a.gif","images/stimuli/spore_stims/simple_10_A_b.gif","self_paced","","0","simple_dissimilar","images/stimuli/spore_stims/simple_10_A_b.gif","","","","",""
"","null","html-keyboard-response","13","213911","0.0-9.0-0.2","SS1618365842572","","","null","","","","","","<p><img src= images/blank.png width =""600"" height = ""600"" style=""position:fixed;top:50%; left:50%; transform: translate(-50%, -50%); border:5px solid black"">","","","","","","","",""
"","13455.939999999828","sequential-stimulus-presentation-old","14","227870","0.0-9.0-1.2","SS1618365842572","trial","","40","500","13955.939999999828","images/stimuli/spore_stims/simple_11_A_a.gif","images/stimuli/spore_stims/simple_10_A_b.gif","self_paced","","0","simple_dissimilar","images/stimuli/spore_stims/simple_10_A_b.gif","","","","",""
"","null","html-keyboard-response","15","228752","0.0-9.0-0.3","SS1618365842572","","","null","","","","","","<p><img src= images/blank.png width =""600"" height = ""600"" style=""position:fixed;top:50%; left:50%; transform: translate(-50%, -50%); border:5px solid black"">","","","","","","","",""
"","7259.949999999662","sequential-stimulus-presentation-old","16","236515","0.0-9.0-1.3","SS1618365842572","trial","","40","500","7759.949999999662","images/stimuli/spore_stims/simple_11_A_a.gif","images/stimuli/spore_stims/simple_10_A_b.gif","self_paced","","0","simple_dissimilar","images/stimuli/spore_stims/simple_10_A_b.gif","","","","",""
"","null","html-keyboard-response","17","237609","0.0-9.0-0.4","SS1618365842572","","","null","","","","","","<p><img src= images/blank.png width =""600"" height = ""600"" style=""position:fixed;top:50%; left:50%; transform: translate(-50%, -50%); border:5px solid black"">","","","","","","","",""
"","8732.899999999965","sequential-stimulus-presentation-old","18","246845","0.0-9.0-1.4","SS1618365842572","trial","","40","500","9232.899999999965","images/stimuli/spore_stims/simple_11_A_a.gif","images/stimuli/spore_stims/simple_10_A_b.gif","self_paced","","0","simple_dissimilar","images/stimuli/spore_stims/simple_11_A_a.gif","","","","",""
"","null","html-keyboard-response","19","247993","0.0-9.0-0.5","SS1618365842572","","","null","","","","","","<p><img src= images/blank.png width =""600"" height = ""600"" style=""position:fixed;top:50%; left:50%; transform: translate(-50%, -50%); border:5px solid black"">","","","","","","","",""
"","510.0900000006659","sequential-stimulus-presentation-old","20","249006","0.0-9.0-1.5","SS1618365842572","trial","","40","500","1010.0900000006659","images/stimuli/spore_stims/simple_11_A_a.gif","images/stimuli/spore_stims/simple_10_A_b.gif","self_paced","","0","simple_dissimilar","images/stimuli/spore_stims/simple_10_A_b.gif","","","","",""
"","3044.5600000002887","survey-multi-choice","21","252052","0.0-10.0","SS1618365842572","math_question","","","","","","","","","","","","{""Q0"":""8""}","[0]","8","",""
"","null","html-keyboard-response","22","253093","0.0-11.0-0.0","SS1618365842572","","","null","","","","","","<p><img src= images/blank.png width =""600"" height = ""600"" style=""position:fixed;top:50%; left:50%; transform: translate(-50%, -50%); border:5px solid black"">","","","","","","","",""
"","752.6049999996321","sequential-stimulus-presentation-old","23","253898","0.0-11.0-1.0","SS1618365842572","trial","","40","500","1252.6049999996321","images/stimuli/spore_stims/simple_17_A_b.gif","images/stimuli/spore_stims/simple_16_A_a.gif","forced_short","","1","simple_dissimilar","images/stimuli/spore_stims/simple_16_A_a.gif","","","","",""
"","null","html-keyboard-response","24","254887","0.0-11.0-0.1","SS1618365842572","","","null","","","","","","<p><img src= images/blank.png width =""600"" height = ""600"" style=""position:fixed;top:50%; left:50%; transform: translate(-50%, -50%); border:5px solid black"">","","","","","","","",""
"","7139.149999999965","sequential-stimulus-presentation-old","25","262531","0.0-11.0-1.1","SS1618365842572","trial","","40","500","7639.149999999965","images/stimuli/spore_stims/simple_17_A_b.gif","images/stimuli/spore_stims/simple_16_A_a.gif","forced_short","","1","simple_dissimilar","images/stimuli/spore_stims/simple_16_A_a.gif","","","","",""
"","null","html-keyboard-response","26","263608","0.0-11.0-0.2","SS1618365842572","","","null","","","","","","<p><img src= images/blank.png width =""600"" height = ""600"" style=""position:fixed;top:50%; left:50%; transform: translate(-50%, -50%); border:5px solid black"">","","","","","","","",""
"","5947.4650000002","sequential-stimulus-presentation-old","27","270058","0.0-11.0-1.2","SS1618365842572","trial","","40","500","6447.4650000002","images/stimuli/spore_stims/simple_17_A_b.gif","images/stimuli/spore_stims/simple_16_A_a.gif","forced_short","","1","simple_dissimilar","images/stimuli/spore_stims/simple_16_A_a.gif","","","","",""
"","null","html-keyboard-response","28","270870","0.0-11.0-0.3","SS1618365842572","","","null","","","","","","<p><img src= images/blank.png width =""600"" height = ""600"" style=""position:fixed;top:50%; left:50%; transform: translate(-50%, -50%); border:5px solid black"">","","","","","","","",""
"","3626.4649999993853","sequential-stimulus-presentation-old","29","275000","0.0-11.0-1.3","SS1618365842572","trial","","40","500","4126.464999999385","images/stimuli/spore_stims/simple_17_A_b.gif","images/stimuli/spore_stims/simple_16_A_a.gif","forced_short","","1","simple_dissimilar","images/stimuli/spore_stims/simple_16_A_a.gif","","","","",""
"","2555.2800000004936","survey-multi-choice","30","277556","0.0-12.0","SS1618365842572","math_question","","","","","","","","","","","","{""Q0"":""11""}","[0]","11","",""
"","null","html-keyboard-response","31","278595","0.0-13.0-0.0","SS1618365842572","","","null","","","","","","<p><img src= images/blank.png width =""600"" height = ""600"" style=""position:fixed;top:50%; left:50%; transform: translate(-50%, -50%); border:5px solid black"">","","","","","","","",""
"","2034.630000000121","sequential-stimulus-presentation-old","32","285634","0.0-13.0-1.0","SS1618365842572","trial","","40","500","2534.630000000121","images/stimuli/spore_stims/complex_07_A_b.gif","images/stimuli/spore_stims/complex_18_A_a.gif","forced_long","","2","complex_dissimilar","images/stimuli/spore_stims/complex_18_A_a.gif","","","","",""
"","null","html-keyboard-response","33","286835","0.0-13.0-0.1","SS1618365842572","","","null","","","","","","<p><img src= images/blank.png width =""600"" height = ""600"" style=""position:fixed;top:50%; left:50%; transform: translate(-50%, -50%); border:5px solid black"">","","","","","","","",""
"","17188.26999999967","sequential-stimulus-presentation-old","34","304528","0.0-13.0-1.1","SS1618365842572","trial","","40","500","17688.26999999967","images/stimuli/spore_stims/complex_07_A_b.gif","images/stimuli/spore_stims/complex_18_A_a.gif","forced_long","","2","complex_dissimilar","images/stimuli/spore_stims/complex_18_A_a.gif","","","","",""
"","null","html-keyboard-response","35","305646","0.0-13.0-0.2","SS1618365842572","","","null","","","","","","<p><img src= images/blank.png width =""600"" height = ""600"" style=""position:fixed;top:50%; left:50%; transform: translate(-50%, -50%); border:5px solid black"">","","","","","","","",""
"","10193.169999999576","sequential-stimulus-presentation-old","36","316343","0.0-13.0-1.2","SS1618365842572","trial","","40","500","10693.169999999576","images/stimuli/spore_stims/complex_07_A_b.gif","images/stimuli/spore_stims/complex_18_A_a.gif","forced_long","","2","complex_dissimilar","images/stimuli/spore_stims/complex_18_A_a.gif","","","","",""
"","null","html-keyboard-response","37","317330","0.0-13.0-0.3","SS1618365842572","","","null","","","","","","<p><img src= images/blank.png width =""600"" height = ""600"" style=""position:fixed;top:50%; left:50%; transform: translate(-50%, -50%); border:5px solid black"">","","","","","","","",""
"","6367.214999999327","sequential-stimulus-presentation-old","38","324201","0.0-13.0-1.3","SS1618365842572","trial","","40","500","6867.214999999327","images/stimuli/spore_stims/complex_07_A_b.gif","images/stimuli/spore_stims/complex_18_A_a.gif","forced_long","","2","complex_dissimilar","images/stimuli/spore_stims/complex_18_A_a.gif","","","","",""
"","null","html-keyboard-response","39","325219","0.0-13.0-0.4","SS1618365842572","","","null","","","","","","<p><img src= images/blank.png width =""600"" height = ""600"" style=""position:fixed;top:50%; left:50%; transform: translate(-50%, -50%); border:5px solid black"">","","","","","","","",""
"","6179.709999999381","sequential-stimulus-presentation-old","40","331902","0.0-13.0-1.4","SS1618365842572","trial","","40","500","6679.709999999381","images/stimuli/spore_stims/complex_07_A_b.gif","images/stimuli/spore_stims/complex_18_A_a.gif","forced_long","","2","complex_dissimilar","images/stimuli/spore_stims/complex_18_A_a.gif","","","","",""
"","2528.1450000001932","survey-multi-choice","41","334432","0.0-14.0","SS1618365842572","math_question","","","","","","","","","","","","{""Q0"":""9""}","[0]","9","",""
"","null","html-keyboard-response","42","335375","0.0-15.0-0.0","SS1618365842572","","","null","","","","","","<p><img src= images/blank.png width =""600"" height = ""600"" style=""position:fixed;top:50%; left:50%; transform: translate(-50%, -50%); border:5px solid black"">","","","","","","","",""
"","887.1749999998719","sequential-stimulus-presentation-old","43","336317","0.0-15.0-1.0","SS1618365842572","trial","","40","500","1387.174999999872","images/stimuli/spore_stims/simple_13_A_b.gif","images/stimuli/spore_stims/simple_08_A_a.gif","forced_short","","3","simple_dissimilar","images/stimuli/spore_stims/simple_08_A_a.gif","","","","",""
"","null","html-keyboard-response","44","337614","0.0-15.0-0.1","SS1618365842572","","","null","","","","","","<p><img src= images/blank.png width =""600"" height = ""600"" style=""position:fixed;top:50%; left:50%; transform: translate(-50%, -50%); border:5px solid black"">","","","","","","","",""
"","818.3849999996019","sequential-stimulus-presentation-old","45","338936","0.0-15.0-1.1","SS1618365842572","trial","","40","500","1318.3849999996019","images/stimuli/spore_stims/simple_13_A_b.gif","images/stimuli/spore_stims/simple_08_A_a.gif","forced_short","","3","simple_dissimilar","images/stimuli/spore_stims/simple_08_A_a.gif","","","","",""
"","null","html-keyboard-response","46","340218","0.0-15.0-0.2","SS1618365842572","","","null","","","","","","<p><img src= images/blank.png width =""600"" height = ""600"" style=""position:fixed;top:50%; left:50%; transform: translate(-50%, -50%); border:5px solid black"">","","","","","","","",""
"","766.0699999996577","sequential-stimulus-presentation-old","47","341488","0.0-15.0-1.2","SS1618365842572","trial","","40","500","1266.0699999996577","images/stimuli/spore_stims/simple_13_A_b.gif","images/stimuli/spore_stims/simple_08_A_a.gif","forced_short","","3","simple_dissimilar","images/stimuli/spore_stims/simple_08_A_a.gif","","","","",""
"","null","html-keyboard-response","48","342479","0.0-15.0-0.3","SS1618365842572","","","null","","","","","","<p><img src= images/blank.png width =""600"" height = ""600"" style=""position:fixed;top:50%; left:50%; transform: translate(-50%, -50%); border:5px solid black"">","","","","","","","",""
"","817.9949999994133","sequential-stimulus-presentation-old","49","343801","0.0-15.0-1.3","SS1618365842572","trial","","40","500","1317.9949999994133","images/stimuli/spore_stims/simple_13_A_b.gif","images/stimuli/spore_stims/simple_08_A_a.gif","forced_short","","3","simple_dissimilar","images/stimuli/spore_stims/simple_08_A_a.gif","","","","",""
"","null","html-keyboard-response","50","344683","0.0-15.0-0.4","SS1618365842572","","","null","","","","","","<p><img src= images/blank.png width =""600"" height = ""600"" style=""position:fixed;top:50%; left:50%; transform: translate(-50%, -50%); border:5px solid black"">","","","","","","","",""
"","1205.2350000003353","sequential-stimulus-presentation-old","51","346392","0.0-15.0-1.4","SS1618365842572","trial","","40","500","1705.2350000003353","images/stimuli/spore_stims/simple_13_A_b.gif","images/stimuli/spore_stims/simple_08_A_a.gif","forced_short","","3","simple_dissimilar","images/stimuli/spore_stims/simple_08_A_a.gif","","","","",""
"","null","html-keyboard-response","52","347411","0.0-15.0-0.5","SS1618365842572","","","null","","","","","","<p><img src= images/blank.png width =""600"" height = ""600"" style=""position:fixed;top:50%; left:50%; transform: translate(-50%, -50%); border:5px solid black"">","","","","","","","",""
"","8150.849999999977","sequential-stimulus-presentation-old","53","356065","0.0-15.0-1.5","SS1618365842572","trial","","40","500","8650.849999999977","images/stimuli/spore_stims/simple_13_A_b.gif","images/stimuli/spore_stims/simple_08_A_a.gif","forced_short","","3","simple_dissimilar","images/stimuli/spore_stims/simple_13_A_b.gif","","","","",""
"","2423.4349999997066","survey-multi-choice","54","358491","0.0-16.0","SS1618365842572","math_question","","","","","","","","","","","","{""Q0"":""6""}","[0]","6","",""
"","null","html-keyboard-response","55","359511","0.0-17.0-0.0","SS1618365842572","","","null","","","","","","<p><img src= images/blank.png width =""600"" height = ""600"" style=""position:fixed;top:50%; left:50%; transform: translate(-50%, -50%); border:5px solid black"">","","","","","","","",""
"","1205.855000000156","sequential-stimulus-presentation-old","56","365721","0.0-17.0-1.0","SS1618365842572","trial","","40","500","1705.855000000156","images/stimuli/spore_stims/simple_02_A_a.gif","images/stimuli/spore_stims/simple_15_A_b.gif","forced_long","","4","simple_dissimilar","images/stimuli/spore_stims/simple_15_A_b.gif","","","","",""
"","null","html-keyboard-response","57","366911","0.0-17.0-0.1","SS1618365842572","","","null","","","","","","<p><img src= images/blank.png width =""600"" height = ""600"" style=""position:fixed;top:50%; left:50%; transform: translate(-50%, -50%); border:5px solid black"">","","","","","","","",""
"","3650.940000000468","sequential-stimulus-presentation-old","58","371066","0.0-17.0-1.1","SS1618365842572","trial","","40","500","4150.940000000468","images/stimuli/spore_stims/simple_02_A_a.gif","images/stimuli/spore_stims/simple_15_A_b.gif","forced_long","","4","simple_dissimilar","images/stimuli/spore_stims/simple_02_A_a.gif","","","","",""
"","null","html-keyboard-response","59","372142","0.0-17.0-0.2","SS1618365842572","","","null","","","","","","<p><img src= images/blank.png width =""600"" height = ""600"" style=""position:fixed;top:50%; left:50%; transform: translate(-50%, -50%); border:5px solid black"">","","","","","","","",""
"","3791.9400000000605","sequential-stimulus-presentation-old","60","376438","0.0-17.0-1.2","SS1618365842572","trial","","40","500","4291.9400000000605","images/stimuli/spore_stims/simple_02_A_a.gif","images/stimuli/spore_stims/simple_15_A_b.gif","forced_long","","4","simple_dissimilar","images/stimuli/spore_stims/simple_15_A_b.gif","","","","",""
"","null","html-keyboard-response","61","377372","0.0-17.0-0.3","SS1618365842572","","","null","","","","","","<p><img src= images/blank.png width =""600"" height = ""600"" style=""position:fixed;top:50%; left:50%; transform: translate(-50%, -50%); border:5px solid black"">","","","","","","","",""
"","2420.1899999998277","sequential-stimulus-presentation-old","62","380298","0.0-17.0-1.3","SS1618365842572","trial","","40","500","2920.1899999998277","images/stimuli/spore_stims/simple_02_A_a.gif","images/stimuli/spore_stims/simple_15_A_b.gif","forced_long","","4","simple_dissimilar","images/stimuli/spore_stims/simple_02_A_a.gif","","","","",""
"","2456.8049999998184","survey-multi-choice","63","382757","0.0-18.0","SS1618365842572","math_question","","","","","","","","","","","","{""Q0"":""6""}","[0]","6","",""
"","null","html-keyboard-response","64","383850","0.0-19.0-0.0","SS1618365842572","","","null","","","","","","<p><img src= images/blank.png width =""600"" height = ""600"" style=""position:fixed;top:50%; left:50%; transform: translate(-50%, -50%); border:5px solid black"">","","","","","","","",""
"","1102.1599999994505","sequential-stimulus-presentation-old","65","385006","0.0-19.0-1.0","SS1618365842572","trial","","40","500","1602.1599999994505","images/stimuli/spore_stims/complex_11_A_a.gif","images/stimuli/spore_stims/complex_06_A_b.gif","forced_short","","5","complex_dissimilar","images/stimuli/spore_stims/complex_06_A_b.gif","","","","",""
"","null","html-keyboard-response","66","386301","0.0-19.0-0.1","SS1618365842572","","","null","","","","","","<p><img src= images/blank.png width =""600"" height = ""600"" style=""position:fixed;top:50%; left:50%; transform: translate(-50%, -50%); border:5px solid black"">","","","","","","","",""
"","17024.189999999187","sequential-stimulus-presentation-old","67","403829","0.0-19.0-1.1","SS1618365842572","trial","","40","500","17524.189999999187","images/stimuli/spore_stims/complex_11_A_a.gif","images/stimuli/spore_stims/complex_06_A_b.gif","forced_short","","5","complex_dissimilar","images/stimuli/spore_stims/complex_06_A_b.gif","","","","",""
"","null","html-keyboard-response","68","405043","0.0-19.0-0.2","SS1618365842572","","","null","","","","","","<p><img src= images/blank.png width =""600"" height = ""600"" style=""position:fixed;top:50%; left:50%; transform: translate(-50%, -50%); border:5px solid black"">","","","","","","","",""
"","5657.234999999695","sequential-stimulus-presentation-old","69","411205","0.0-19.0-1.2","SS1618365842572","trial","","40","500","6157.234999999695","images/stimuli/spore_stims/complex_11_A_a.gif","images/stimuli/spore_stims/complex_06_A_b.gif","forced_short","","5","complex_dissimilar","images/stimuli/spore_stims/complex_06_A_b.gif","","","","",""
"","null","html-keyboard-response","70","412197","0.0-19.0-0.3","SS1618365842572","","","null","","","","","","<p><img src= images/blank.png width =""600"" height = ""600"" style=""position:fixed;top:50%; left:50%; transform: translate(-50%, -50%); border:5px solid black"">","","","","","","","",""
"","10082.269999999902","sequential-stimulus-presentation-old","71","422784","0.0-19.0-1.3","SS1618365842572","trial","","40","500","10582.269999999902","images/stimuli/spore_stims/complex_11_A_a.gif","images/stimuli/spore_stims/complex_06_A_b.gif","forced_short","","5","complex_dissimilar","images/stimuli/spore_stims/complex_11_A_a.gif","","","","",""
"","null","html-keyboard-response","72","423924","0.0-19.0-0.4","SS1618365842572","","","null","","","","","","<p><img src= images/blank.png width =""600"" height = ""600"" style=""position:fixed;top:50%; left:50%; transform: translate(-50%, -50%); border:5px solid black"">","","","","","","","",""
"","5134.82000000024","sequential-stimulus-presentation-old","73","429565","0.0-19.0-1.4","SS1618365842572","trial","","40","500","5634.82000000024","images/stimuli/spore_stims/complex_11_A_a.gif","images/stimuli/spore_stims/complex_06_A_b.gif","forced_short","","5","complex_dissimilar","images/stimuli/spore_stims/complex_06_A_b.gif","","","","",""
"","null","html-keyboard-response","74","430567","0.0-19.0-0.5","SS1618365842572","","","null","","","","","","<p><img src= images/blank.png width =""600"" height = ""600"" style=""position:fixed;top:50%; left:50%; transform: translate(-50%, -50%); border:5px solid black"">","","","","","","","",""
"","3943.944999999949","sequential-stimulus-presentation-old","75","435016","0.0-19.0-1.5","SS1618365842572","trial","","40","500","4443.944999999949","images/stimuli/spore_stims/complex_11_A_a.gif","images/stimuli/spore_stims/complex_06_A_b.gif","forced_short","","5","complex_dissimilar","images/stimuli/spore_stims/complex_11_A_a.gif","","","","",""
"","2330.594999999448","survey-multi-choice","76","437349","0.0-20.0","SS1618365842572","math_question","","","","","","","","","","","","{""Q0"":""16""}","[0]","16","",""
"","null","html-keyboard-response","77","438270","0.0-21.0-0.0","SS1618365842572","","","null","","","","","","<p><img src= images/blank.png width =""600"" height = ""600"" style=""position:fixed;top:50%; left:50%; transform: translate(-50%, -50%); border:5px solid black"">","","","","","","","",""
"","611.0650000000605","sequential-stimulus-presentation-old","78","438936","0.0-21.0-1.0","SS1618365842572","trial","","40","500","1111.0650000000605","images/stimuli/spore_stims/complex_15_A_b.gif","images/stimuli/spore_stims/complex_08_A_a.gif","forced_short","","6","complex_dissimilar","images/stimuli/spore_stims/complex_08_A_a.gif","","","","",""
"","null","html-keyboard-response","79","440088","0.0-21.0-0.1","SS1618365842572","","","null","","","","","","<p><img src= images/blank.png width =""600"" height = ""600"" style=""position:fixed;top:50%; left:50%; transform: translate(-50%, -50%); border:5px solid black"">","","","","","","","",""
"","4360.550000000338","sequential-stimulus-presentation-old","80","444953","0.0-21.0-1.1","SS1618365842572","trial","","40","500","4860.550000000338","images/stimuli/spore_stims/complex_15_A_b.gif","images/stimuli/spore_stims/complex_08_A_a.gif","forced_short","","6","complex_dissimilar","images/stimuli/spore_stims/complex_08_A_a.gif","","","","",""
"","null","html-keyboard-response","81","445955","0.0-21.0-0.2","SS1618365842572","","","null","","","","","","<p><img src= images/blank.png width =""600"" height = ""600"" style=""position:fixed;top:50%; left:50%; transform: translate(-50%, -50%); border:5px solid black"">","","","","","","","",""
"","294.57999999978347","sequential-stimulus-presentation-old","82","446753","0.0-21.0-1.2","SS1618365842572","trial","","40","500","794.5799999997835","images/stimuli/spore_stims/complex_15_A_b.gif","images/stimuli/spore_stims/complex_08_A_a.gif","forced_short","","6","complex_dissimilar","images/stimuli/spore_stims/complex_08_A_a.gif","","","","",""
"","null","html-keyboard-response","83","448024","0.0-21.0-0.3","SS1618365842572","","","null","","","","","","<p><img src= images/blank.png width =""600"" height = ""600"" style=""position:fixed;top:50%; left:50%; transform: translate(-50%, -50%); border:5px solid black"">","","","","","","","",""
"","429.24000000039814","sequential-stimulus-presentation-old","84","448957","0.0-21.0-1.3","SS1618365842572","trial","","40","500","929.2400000003981","images/stimuli/spore_stims/complex_15_A_b.gif","images/stimuli/spore_stims/complex_08_A_a.gif","forced_short","","6","complex_dissimilar","images/stimuli/spore_stims/complex_08_A_a.gif","","","","",""
"","null","html-keyboard-response","85","449961","0.0-21.0-0.4","SS1618365842572","","","null","","","","","","<p><img src= images/blank.png width =""600"" height = ""600"" style=""position:fixed;top:50%; left:50%; transform: translate(-50%, -50%); border:5px solid black"">","","","","","","","",""
"","235.6699999999837","sequential-stimulus-presentation-old","86","450702","0.0-21.0-1.4","SS1618365842572","trial","","40","500","735.6699999999837","images/stimuli/spore_stims/complex_15_A_b.gif","images/stimuli/spore_stims/complex_08_A_a.gif","forced_short","","6","complex_dissimilar","images/stimuli/spore_stims/complex_08_A_a.gif","","","","",""
"","null","html-keyboard-response","87","451725","0.0-21.0-0.5","SS1618365842572","","","null","","","","","","<p><img src= images/blank.png width =""600"" height = ""600"" style=""position:fixed;top:50%; left:50%; transform: translate(-50%, -50%); border:5px solid black"">","","","","","","","",""
"","226.964999999851","sequential-stimulus-presentation-old","88","452458","0.0-21.0-1.5","SS1618365842572","trial","","40","500","726.964999999851","images/stimuli/spore_stims/complex_15_A_b.gif","images/stimuli/spore_stims/complex_08_A_a.gif","forced_short","","6","complex_dissimilar","images/stimuli/spore_stims/complex_08_A_a.gif","","","","",""
"","2276.679999999935","survey-multi-choice","89","454738","0.0-22.0","SS1618365842572","math_question","","","","","","","","","","","","{""Q0"":""7""}","[0]","7","",""
"","null","html-keyboard-response","90","456002","0.0-23.0-0.0","SS1618365842572","","","null","","","","","","<p><img src= images/blank.png width =""600"" height = ""600"" style=""position:fixed;top:50%; left:50%; transform: translate(-50%, -50%); border:5px solid black"">","","","","","","","",""
"","5664.084999999439","sequential-stimulus-presentation-old","91","462171","0.0-23.0-1.0","SS1618365842572","trial","","40","500","6164.084999999439","images/stimuli/spore_stims/complex_09_A_b.gif","images/stimuli/spore_stims/complex_17_A_a.gif","self_paced","","7","complex_dissimilar","images/stimuli/spore_stims/complex_17_A_a.gif","","","","",""
"","null","html-keyboard-response","92","463450","0.0-23.0-0.1","SS1618365842572","","","null","","","","","","<p><img src= images/blank.png width =""600"" height = ""600"" style=""position:fixed;top:50%; left:50%; transform: translate(-50%, -50%); border:5px solid black"">","","","","","","","",""
"","3210.1949999996577","sequential-stimulus-presentation-old","93","467165","0.0-23.0-1.1","SS1618365842572","trial","","40","500","3710.1949999996577","images/stimuli/spore_stims/complex_09_A_b.gif","images/stimuli/spore_stims/complex_17_A_a.gif","self_paced","","7","complex_dissimilar","images/stimuli/spore_stims/complex_17_A_a.gif","","","","",""
"","null","html-keyboard-response","94","468129","0.0-23.0-0.2","SS1618365842572","","","null","","","","","","<p><img src= images/blank.png width =""600"" height = ""600"" style=""position:fixed;top:50%; left:50%; transform: translate(-50%, -50%); border:5px solid black"">","","","","","","","",""
"","3202.970000000263","sequential-stimulus-presentation-old","95","471838","0.0-23.0-1.2","SS1618365842572","trial","","40","500","3702.970000000263","images/stimuli/spore_stims/complex_09_A_b.gif","images/stimuli/spore_stims/complex_17_A_a.gif","self_paced","","7","complex_dissimilar","images/stimuli/spore_stims/complex_17_A_a.gif","","","","",""
"","null","html-keyboard-response","96","472951","0.0-23.0-0.3","SS1618365842572","","","null","","","","","","<p><img src= images/blank.png width =""600"" height = ""600"" style=""position:fixed;top:50%; left:50%; transform: translate(-50%, -50%); border:5px solid black"">","","","","","","","",""
"","4212.649999999441","sequential-stimulus-presentation-old","97","477670","0.0-23.0-1.3","SS1618365842572","trial","","40","500","4712.649999999441","images/stimuli/spore_stims/complex_09_A_b.gif","images/stimuli/spore_stims/complex_17_A_a.gif","self_paced","","7","complex_dissimilar","images/stimuli/spore_stims/complex_17_A_a.gif","","","","",""
"","3235.7949999995762","survey-multi-choice","98","480909","0.0-24.0","SS1618365842572","math_question","","","","","","","","","","","","{""Q0"":""11""}","[0]","11","",""
"","null","html-keyboard-response","99","481785","0.0-25.0-0.0","SS1618365842572","","","null","","","","","","<p><img src= images/blank.png width =""600"" height = ""600"" style=""position:fixed;top:50%; left:50%; transform: translate(-50%, -50%); border:5px solid black"">","","","","","","","",""
"","4141.299999999348","sequential-stimulus-presentation-old","100","490933","0.0-25.0-1.0","SS1618365842572","trial","","40","500","4641.299999999348","images/stimuli/spore_stims/simple_05_A_b.gif","images/stimuli/spore_stims/simple_12_A_a.gif","forced_long","","8","simple_dissimilar","images/stimuli/spore_stims/simple_12_A_a.gif","","","","",""
"","null","html-keyboard-response","101","491975","0.0-25.0-0.1","SS1618365842572","","","null","","","","","","<p><img src= images/blank.png width =""600"" height = ""600"" style=""position:fixed;top:50%; left:50%; transform: translate(-50%, -50%); border:5px solid black"">","","","","","","","",""
"","12305.695000000007","sequential-stimulus-presentation-old","102","504787","0.0-25.0-1.1","SS1618365842572","trial","","40","500","12805.695000000007","images/stimuli/spore_stims/simple_05_A_b.gif","images/stimuli/spore_stims/simple_12_A_a.gif","forced_long","","8","simple_dissimilar","images/stimuli/spore_stims/simple_12_A_a.gif","","","","",""
"","null","html-keyboard-response","103","505766","0.0-25.0-0.2","SS1618365842572","","","null","","","","","","<p><img src= images/blank.png width =""600"" height = ""600"" style=""position:fixed;top:50%; left:50%; transform: translate(-50%, -50%); border:5px solid black"">","","","","","","","",""
"","8038.989999999991","sequential-stimulus-presentation-old","104","514311","0.0-25.0-1.2","SS1618365842572","trial","","40","500","8538.98999999999","images/stimuli/spore_stims/simple_05_A_b.gif","images/stimuli/spore_stims/simple_12_A_a.gif","forced_long","","8","simple_dissimilar","images/stimuli/spore_stims/simple_05_A_b.gif","","","","",""
"","null","html-keyboard-response","105","515305","0.0-25.0-0.3","SS1618365842572","","","null","","","","","","<p><img src= images/blank.png width =""600"" height = ""600"" style=""position:fixed;top:50%; left:50%; transform: translate(-50%, -50%); border:5px solid black"">","","","","","","","",""
"","3439.6850000002887","sequential-stimulus-presentation-old","106","519252","0.0-25.0-1.3","SS1618365842572","trial","","40","500","3939.6850000002887","images/stimuli/spore_stims/simple_05_A_b.gif","images/stimuli/spore_stims/simple_12_A_a.gif","forced_long","","8","simple_dissimilar","images/stimuli/spore_stims/simple_12_A_a.gif","","","","",""
"","null","html-keyboard-response","107","520510","0.0-25.0-0.4","SS1618365842572","","","null","","","","","","<p><img src= images/blank.png width =""600"" height = ""600"" style=""position:fixed;top:50%; left:50%; transform: translate(-50%, -50%); border:5px solid black"">","","","","","","","",""
"","2530.6550000004936","sequential-stimulus-presentation-old","108","523546","0.0-25.0-1.4","SS1618365842572","trial","","40","500","3030.6550000004936","images/stimuli/spore_stims/simple_05_A_b.gif","images/stimuli/spore_stims/simple_12_A_a.gif","forced_long","","8","simple_dissimilar","images/stimuli/spore_stims/simple_12_A_a.gif","","","","",""
"","null","html-keyboard-response","109","524497","0.0-25.0-0.5","SS1618365842572","","","null","","","","","","<p><img src= images/blank.png width =""600"" height = ""600"" style=""position:fixed;top:50%; left:50%; transform: translate(-50%, -50%); border:5px solid black"">","","","","","","","",""
"","1378.0199999992037","sequential-stimulus-presentation-old","110","526380","0.0-25.0-1.5","SS1618365842572","trial","","40","500","1878.0199999992037","images/stimuli/spore_stims/simple_05_A_b.gif","images/stimuli/spore_stims/simple_12_A_a.gif","forced_long","","8","simple_dissimilar","images/stimuli/spore_stims/simple_12_A_a.gif","","","","",""
"","2897.164999999455","survey-multi-choice","111","529282","0.0-26.0","SS1618365842572","math_question","","","","","","","","","","","","{""Q0"":""15""}","[0]","15","",""
"","null","html-keyboard-response","112","530087","0.0-27.0-0.0","SS1618365842572","","","null","","","","","","<p><img src= images/blank.png width =""600"" height = ""600"" style=""position:fixed;top:50%; left:50%; transform: translate(-50%, -50%); border:5px solid black"">","","","","","","","",""
"","4010.8850000005914","sequential-stimulus-presentation-old","113","539104","0.0-27.0-1.0","SS1618365842572","trial","","40","500","4510.885000000591","images/stimuli/spore_stims/complex_18_A_b.gif","images/stimuli/spore_stims/complex_06_A_a.gif","forced_long","","9","complex_dissimilar","images/stimuli/spore_stims/complex_06_A_a.gif","","","","",""
"","null","html-keyboard-response","114","539952","0.0-27.0-0.1","SS1618365842572","","","null","","","","","","<p><img src= images/blank.png width =""600"" height = ""600"" style=""position:fixed;top:50%; left:50%; transform: translate(-50%, -50%); border:5px solid black"">","","","","","","","",""
"","11404.690000000293","sequential-stimulus-presentation-old","115","551863","0.0-27.0-1.1","SS1618365842572","trial","","40","500","11904.690000000293","images/stimuli/spore_stims/complex_18_A_b.gif","images/stimuli/spore_stims/complex_06_A_a.gif","forced_long","","9","complex_dissimilar","images/stimuli/spore_stims/complex_18_A_b.gif","","","","",""
"","null","html-keyboard-response","116","553132","0.0-27.0-0.2","SS1618365842572","","","null","","","","","","<p><img src= images/blank.png width =""600"" height = ""600"" style=""position:fixed;top:50%; left:50%; transform: translate(-50%, -50%); border:5px solid black"">","","","","","","","",""
"","8365.810000000289","sequential-stimulus-presentation-old","117","562003","0.0-27.0-1.2","SS1618365842572","trial","","40","500","8865.810000000289","images/stimuli/spore_stims/complex_18_A_b.gif","images/stimuli/spore_stims/complex_06_A_a.gif","forced_long","","9","complex_dissimilar","images/stimuli/spore_stims/complex_06_A_a.gif","","","","",""
"","null","html-keyboard-response","118","563196","0.0-27.0-0.3","SS1618365842572","","","null","","","","","","<p><img src= images/blank.png width =""600"" height = ""600"" style=""position:fixed;top:50%; left:50%; transform: translate(-50%, -50%); border:5px solid black"">","","","","","","","",""
"","3254.539999999921","sequential-stimulus-presentation-old","119","566956","0.0-27.0-1.3","SS1618365842572","trial","","40","500","3754.539999999921","images/stimuli/spore_stims/complex_18_A_b.gif","images/stimuli/spore_stims/complex_06_A_a.gif","forced_long","","9","complex_dissimilar","images/stimuli/spore_stims/complex_06_A_a.gif","","","","",""
"","null","html-keyboard-response","120","567959","0.0-27.0-0.4","SS1618365842572","","","null","","","","","","<p><img src= images/blank.png width =""600"" height = ""600"" style=""position:fixed;top:50%; left:50%; transform: translate(-50%, -50%); border:5px solid black"">","","","","","","","",""
"","4183.384999999311","sequential-stimulus-presentation-old","121","572649","0.0-27.0-1.4","SS1618365842572","trial","","40","500","4683.384999999311","images/stimuli/spore_stims/complex_18_A_b.gif","images/stimuli/spore_stims/complex_06_A_a.gif","forced_long","","9","complex_dissimilar","images/stimuli/spore_stims/complex_06_A_a.gif","","","","",""
"","null","html-keyboard-response","122","573686","0.0-27.0-0.5","SS1618365842572","","","null","","","","","","<p><img src= images/blank.png width =""600"" height = ""600"" style=""position:fixed;top:50%; left:50%; transform: translate(-50%, -50%); border:5px solid black"">","","","","","","","",""
"","10694.274999999907","sequential-stimulus-presentation-old","123","584886","0.0-27.0-1.5","SS1618365842572","trial","","40","500","11194.274999999907","images/stimuli/spore_stims/complex_18_A_b.gif","images/stimuli/spore_stims/complex_06_A_a.gif","forced_long","","9","complex_dissimilar","images/stimuli/spore_stims/complex_18_A_b.gif","","","","",""
"","1995.8900000001304","survey-multi-choice","124","586886","0.0-28.0","SS1618365842572","math_question","","","","","","","","","","","","{""Q0"":""10""}","[0]","10","",""
"","null","html-keyboard-response","125","587866","0.0-29.0-0.0","SS1618365842572","","","null","","","","","","<p><img src= images/blank.png width =""600"" height = ""600"" style=""position:fixed;top:50%; left:50%; transform: translate(-50%, -50%); border:5px solid black"">","","","","","","","",""
"","1696.549999999581","sequential-stimulus-presentation-old","126","590068","0.0-29.0-1.0","SS1618365842572","trial","","40","500","2196.549999999581","images/stimuli/spore_stims/simple_14_A_a.gif","images/stimuli/spore_stims/simple_02_A_b.gif","self_paced","","10","simple_dissimilar","images/stimuli/spore_stims/simple_02_A_b.gif","","","","",""
"","null","html-keyboard-response","127","591329","0.0-29.0-0.1","SS1618365842572","","","null","","","","","","<p><img src= images/blank.png width =""600"" height = ""600"" style=""position:fixed;top:50%; left:50%; transform: translate(-50%, -50%); border:5px solid black"">","","","","","","","",""
"","499.36500000057276","sequential-stimulus-presentation-old","128","592336","0.0-29.0-1.1","SS1618365842572","trial","","40","500","999.3650000005728","images/stimuli/spore_stims/simple_14_A_a.gif","images/stimuli/spore_stims/simple_02_A_b.gif","self_paced","","10","simple_dissimilar","images/stimuli/spore_stims/simple_14_A_a.gif","","","","",""
"","null","html-keyboard-response","129","593610","0.0-29.0-0.2","SS1618365842572","","","null","","","","","","<p><img src= images/blank.png width =""600"" height = ""600"" style=""position:fixed;top:50%; left:50%; transform: translate(-50%, -50%); border:5px solid black"">","","","","","","","",""
"","200.14999999967404","sequential-stimulus-presentation-old","130","594316","0.0-29.0-1.2","SS1618365842572","trial","","40","500","700.149999999674","images/stimuli/spore_stims/simple_14_A_a.gif","images/stimuli/spore_stims/simple_02_A_b.gif","self_paced","","10","simple_dissimilar","images/stimuli/spore_stims/simple_02_A_b.gif","","","","",""
"","null","html-keyboard-response","131","595130","0.0-29.0-0.3","SS1618365842572","","","null","","","","","","<p><img src= images/blank.png width =""600"" height = ""600"" style=""position:fixed;top:50%; left:50%; transform: translate(-50%, -50%); border:5px solid black"">","","","","","","","",""
"","488.76000000012573","sequential-stimulus-presentation-old","132","596126","0.0-29.0-1.3","SS1618365842572","trial","","40","500","988.7600000001257","images/stimuli/spore_stims/simple_14_A_a.gif","images/stimuli/spore_stims/simple_02_A_b.gif","self_paced","","10","simple_dissimilar","images/stimuli/spore_stims/simple_02_A_b.gif","","","","",""
"","2025.2499999996508","survey-multi-choice","133","598156","0.0-30.0","SS1618365842572","math_question","","","","","","","","","","","","{""Q0"":""8""}","[0]","8","",""
"","null","html-keyboard-response","134","599457","0.0-31.0-0.0","SS1618365842572","","","null","","","","","","<p><img src= images/blank.png width =""600"" height = ""600"" style=""position:fixed;top:50%; left:50%; transform: translate(-50%, -50%); border:5px solid black"">","","","","","","","",""
"","13265.694999999949","sequential-stimulus-presentation-old","135","613229","0.0-31.0-1.0","SS1618365842572","trial","","40","500","13765.694999999949","images/stimuli/spore_stims/complex_14_A_b.gif","images/stimuli/spore_stims/complex_19_A_a.gif","self_paced","","11","complex_dissimilar","images/stimuli/spore_stims/complex_19_A_a.gif","","","","",""
"","null","html-keyboard-response","136","614503","0.0-31.0-0.1","SS1618365842572","","","null","","","","","","<p><img src= images/blank.png width =""600"" height = ""600"" style=""position:fixed;top:50%; left:50%; transform: translate(-50%, -50%); border:5px solid black"">","","","","","","","",""
"","3323.444999999949","sequential-stimulus-presentation-old","137","618333","0.0-31.0-1.1","SS1618365842572","trial","","40","500","3823.444999999949","images/stimuli/spore_stims/complex_14_A_b.gif","images/stimuli/spore_stims/complex_19_A_a.gif","self_paced","","11","complex_dissimilar","images/stimuli/spore_stims/complex_19_A_a.gif","","","","",""
"","null","html-keyboard-response","138","619450","0.0-31.0-0.2","SS1618365842572","","","null","","","","","","<p><img src= images/blank.png width =""600"" height = ""600"" style=""position:fixed;top:50%; left:50%; transform: translate(-50%, -50%); border:5px solid black"">","","","","","","","",""
"","1548.085000000312","sequential-stimulus-presentation-old","139","621505","0.0-31.0-1.2","SS1618365842572","trial","","40","500","2048.085000000312","images/stimuli/spore_stims/complex_14_A_b.gif","images/stimuli/spore_stims/complex_19_A_a.gif","self_paced","","11","complex_dissimilar","images/stimuli/spore_stims/complex_19_A_a.gif","","","","",""
"","null","html-keyboard-response","140","622493","0.0-31.0-0.3","SS1618365842572","","","null","","","","","","<p><img src= images/blank.png width =""600"" height = ""600"" style=""position:fixed;top:50%; left:50%; transform: translate(-50%, -50%); border:5px solid black"">","","","","","","","",""
"","10409.340000000084","sequential-stimulus-presentation-old","141","633409","0.0-31.0-1.3","SS1618365842572","trial","","40","500","10909.340000000084","images/stimuli/spore_stims/complex_14_A_b.gif","images/stimuli/spore_stims/complex_19_A_a.gif","self_paced","","11","complex_dissimilar","images/stimuli/spore_stims/complex_19_A_a.gif","","","","",""
"","null","html-keyboard-response","142","634592","0.0-31.0-0.4","SS1618365842572","","","null","","","","","","<p><img src= images/blank.png width =""600"" height = ""600"" style=""position:fixed;top:50%; left:50%; transform: translate(-50%, -50%); border:5px solid black"">","","","","","","","",""
"","5837.099999999744","sequential-stimulus-presentation-old","143","640937","0.0-31.0-1.4","SS1618365842572","trial","","40","500","6337.099999999744","images/stimuli/spore_stims/complex_14_A_b.gif","images/stimuli/spore_stims/complex_19_A_a.gif","self_paced","","11","complex_dissimilar","images/stimuli/spore_stims/complex_19_A_a.gif","","","","",""
"","null","html-keyboard-response","144","641984","0.0-31.0-0.5","SS1618365842572","","","null","","","","","","<p><img src= images/blank.png width =""600"" height = ""600"" style=""position:fixed;top:50%; left:50%; transform: translate(-50%, -50%); border:5px solid black"">","","","","","","","",""
"","5752.340000000084","sequential-stimulus-presentation-old","145","648243","0.0-31.0-1.5","SS1618365842572","trial","","40","500","6252.340000000084","images/stimuli/spore_stims/complex_14_A_b.gif","images/stimuli/spore_stims/complex_19_A_a.gif","self_paced","","11","complex_dissimilar","images/stimuli/spore_stims/complex_14_A_b.gif","","","","",""
"[{""page_index"":0,""viewing_time"":4304.269999999669}]","4304.474999999977","instructions","146","652552","0.0-32.0","SS1618365842572","instructions","","","","","","","","","","","","","","","",""
"","8686.740000000107","survey-likert","147","661245","0.0-33.0","SS1618365842572","similarity_question","","","","","","","","","","","","{""Q0"":0}","[0]","","images/stimuli/spore_stims/complex_18_A_a.gif","images/stimuli/spore_stims/complex_07_A_b.gif"
"","5084.100000000093","survey-likert","148","666335","0.0-34.0","SS1618365842572","similarity_question","","","","","","","","","","","","{""Q0"":5}","[0]","","images/stimuli/spore_stims/simple_08_A_a.gif","images/stimuli/spore_stims/simple_13_A_b.gif"
"","4423.090000000317","survey-likert","149","670764","0.0-35.0","SS1618365842572","similarity_question","","","","","","","","","","","","{""Q0"":1}","[0]","","images/stimuli/spore_stims/complex_17_A_a.gif","images/stimuli/spore_stims/complex_09_A_b.gif"
"","4956.604999999399","survey-likert","150","675728","0.0-36.0","SS1618365842572","similarity_question","","","","","","","","","","","","{""Q0"":0}","[0]","","images/stimuli/spore_stims/complex_15_A_b.gif","images/stimuli/spore_stims/complex_08_A_a.gif"
"","6623.424999999814","survey-likert","151","682358","0.0-37.0","SS1618365842572","similarity_question","","","","","","","","","","","","{""Q0"":4}","[0]","","images/stimuli/spore_stims/simple_02_A_b.gif","images/stimuli/spore_stims/simple_14_A_a.gif"
"","2686.560000000056","survey-likert","152","685050","0.0-38.0","SS1618365842572","similarity_question","","","","","","","","","","","","{""Q0"":4}","[0]","","images/stimuli/spore_stims/simple_10_A_b.gif","images/stimuli/spore_stims/simple_11_A_a.gif"
"","5170.55999999959","survey-likert","153","690227","0.0-39.0","SS1618365842572","similarity_question","","","","","","","","","","","","{""Q0"":5}","[0]","","images/stimuli/spore_stims/simple_05_A_b.gif","images/stimuli/spore_stims/simple_12_A_a.gif"
"","2322.4100000006147","survey-likert","154","692555","0.0-40.0","SS1618365842572","similarity_question","","","","","","","","","","","","{""Q0"":5}","[0]","","images/stimuli/spore_stims/simple_17_A_b.gif","images/stimuli/spore_stims/simple_16_A_a.gif"
"","3352.3100000001723","survey-likert","155","695914","0.0-41.0","SS1618365842572","similarity_question","","","","","","","","","","","","{""Q0"":5}","[0]","","images/stimuli/spore_stims/simple_02_A_a.gif","images/stimuli/spore_stims/simple_15_A_b.gif"
"","9113.19999999972","survey-likert","156","705034","0.0-42.0","SS1618365842572","similarity_question","","","","","","","","","","","","{""Q0"":1}","[0]","","images/stimuli/spore_stims/complex_14_A_b.gif","images/stimuli/spore_stims/complex_19_A_a.gif"
"","5331.970000000205","survey-likert","157","710373","0.0-43.0","SS1618365842572","similarity_question","","","","","","","","","","","","{""Q0"":0}","[0]","","images/stimuli/spore_stims/complex_06_A_a.gif","images/stimuli/spore_stims/complex_18_A_b.gif"
"","4293.055000000051","survey-likert","158","714672","0.0-44.0","SS1618365842572","similarity_question","","","","","","","","","","","","{""Q0"":0}","[0]","","images/stimuli/spore_stims/complex_06_A_b.gif","images/stimuli/spore_stims/complex_11_A_a.gif"
"[{""page_index"":0,""viewing_time"":3139.2400000004563}]","3139.479999999865","instructions","159","717818","0.0-45.0","SS1618365842572","instructions","","","","","","","","","","","","","","","",""
"","4654.089999999967","survey-likert","160","722479","0.0-46.0","SS1618365842572","","","","","","","","","images/stimuli/spore_stims/complex_08_A_a.gif","","","","{""Q0"":4}","[0]","","",""
"","2826.605000000214","survey-likert","161","725312","0.0-47.0","SS1618365842572","","","","","","","","","images/stimuli/spore_stims/complex_18_A_b.gif","","","","{""Q0"":5}","[0]","","",""
"","2329.7000000003027","survey-likert","162","727649","0.0-48.0","SS1618365842572","","","","","","","","","images/stimuli/spore_stims/simple_13_A_b.gif","","","","{""Q0"":0}","[0]","","",""
"","1760.3349999999627","survey-likert","163","729416","0.0-49.0","SS1618365842572","","","","","","","","","images/stimuli/spore_stims/simple_10_A_b.gif","","","","{""Q0"":0}","[0]","","",""
"","4843.260000000591","survey-likert","164","734266","0.0-50.0","SS1618365842572","","","","","","","","","images/stimuli/spore_stims/complex_09_A_b.gif","","","","{""Q0"":4}","[0]","","",""
"","3031.7550000000047","survey-likert","165","737305","0.0-51.0","SS1618365842572","","","","","","","","","images/stimuli/spore_stims/complex_07_A_b.gif","","","","{""Q0"":5}","[0]","","",""
"","2420.7699999996694","survey-likert","166","739732","0.0-52.0","SS1618365842572","","","","","","","","","images/stimuli/spore_stims/simple_16_A_a.gif","","","","{""Q0"":0}","[0]","","",""
"","6282.860000000219","survey-likert","167","746022","0.0-53.0","SS1618365842572","","","","","","","","","images/stimuli/spore_stims/complex_06_A_b.gif","","","","{""Q0"":4}","[0]","","",""
"","3841.400000000256","survey-likert","168","749870","0.0-54.0","SS1618365842572","","","","","","","","","images/stimuli/spore_stims/complex_19_A_a.gif","","","","{""Q0"":5}","[0]","","",""
"","5999.904999999679","survey-likert","169","755877","0.0-55.0","SS1618365842572","","","","","","","","","images/stimuli/spore_stims/simple_14_A_a.gif","","","","{""Q0"":1}","[0]","","",""
"","1939.4649999995017","survey-likert","170","757824","0.0-56.0","SS1618365842572","","","","","","","","","images/stimuli/spore_stims/simple_05_A_b.gif","","","","{""Q0"":0}","[0]","","",""
"","1820.069999999716","survey-likert","171","759651","0.0-57.0","SS1618365842572","","","","","","","","","images/stimuli/spore_stims/simple_02_A_a.gif","","","","{""Q0"":0}","[0]","","",""
"[{""page_index"":0,""viewing_time"":2062.809999999474}]","2062.994999999297","instructions","172","761720","0.0-58.0","SS1618365842572","instructions","","","","","","","","","","","","","","","",""
"","2160.8100000002887","demog-age","173","763889","0.0-59.0","SS1618365842572","","","","","","","","","","","","","{""age"":""22""}","","","",""
"","2091.4499999999534","demog-ethnic-US","174","765989","0.0-60.0","SS1618365842572","","","","","","","","","","","","","{""ethnicity"":[""Hispanic or Latino""]}","[0]","","",""
"","6097.679999999935","demog-gender-and-education","175","772094","0.0-61.0","SS1618365842572","","","","","","","","","","","","","{""gender"":""Male"",""education"":""Bachelor's Degree""}","[0,1]","","",""
"","27315.709999999846","survey-text","176","799418","0.0-62.0","SS1618365842572","feedback","","","","","","","","","","","","{""Q0"":""The animation looked kinda blurry, but maybe that's normal""}","","","",""
"[{""page_index"":0,""viewing_time"":1918.1200000003446}]","1918.5000000006985","instructions","177","801343","0.0-63.0","SS1618365842572","instructions","","","","","","","","","","","","","","","",""
