"view_history","rt","trial_type","trial_index","time_elapsed","internal_node_id","subject","stimulus_type","trial_stimulus","key_press","minimum_viewing_duration","trial_looking_time","block_deviant","block_background","exposure_type","stimulus","block_number","block_type","stimulus_displayed","responses","question_order","math_correct_answer","stimulus_left","stimulus_right"
"[{""page_index"":0,""viewing_time"":20438.334999984363}]","20438.959999999497","instructions","0","20441","0.0-0.0","SS1618435637535","","","","","","","","","","","","","","","","",""
"[{""page_index"":0,""viewing_time"":3420.0549999950454},{""page_index"":1,""viewing_time"":7702.809999987949}]","11123.010000010254","instructions","1","33566","0.0-1.0","SS1618435637535","instructions","","","","","","","","","","","","","","","",""
"","4982.65999997966","sequential-stimulus-presentation-old","2","39051","0.0-2.0","SS1618435637535","","","40","500","5482.65999997966","null","null","self_paced","","","","","","","","",""
"","3270.220000005793","sequential-stimulus-presentation-old","3","42822","0.0-3.0","SS1618435637535","","","40","500","3770.220000005793","null","null","self_paced","","","","","","","","",""
"[{""page_index"":0,""viewing_time"":12972.309999982826}]","12972.534999978961","instructions","4","55796","0.0-4.0","SS1618435637535","instructions","","","","","","","","","","","","","","","",""
"","1241.7000000132248","sequential-stimulus-presentation-old","5","62040","0.0-5.0","SS1618435637535","","","40","500","1741.7000000132248","null","null","forced_long","","","","","","","","",""
"","11440.06000002264","sequential-stimulus-presentation-old","6","73531","0.0-6.0","SS1618435637535","","","40","50","11490.06000002264","null","null","forced_long","","","","","","","","",""
"[{""page_index"":0,""viewing_time"":3165.7650000124704}]","3165.9050000016578","instructions","7","76698","0.0-7.0","SS1618435637535","instructions","","","","","","","","","","","","","","","",""
"[{""page_index"":0,""viewing_time"":3175.1149999909103},{""page_index"":1,""viewing_time"":7125.440000003437},{""page_index"":2,""viewing_time"":5436.835000000428},{""page_index"":3,""viewing_time"":981.2300000048708},{""page_index"":4,""viewing_time"":759.8949999955948}]","17478.689999989","instructions","8","94178","0.0-8.0","SS1618435637535","instructions","","","","","","","","","","","","","","","",""
"","null","html-keyboard-response","9","94995","0.0-9.0-0.0","SS1618435637535","","","null","","","","","","<p><img src= images/blank.png width =""600"" height = ""600"" style=""position:fixed;top:50%; left:50%; transform: translate(-50%, -50%); border:5px solid black"">","","","","","","","",""
"","883.4849999984726","sequential-stimulus-presentation-old","10","95931","0.0-9.0-1.0","SS1618435637535","trial","","40","500","1383.4849999984726","images/stimuli/spore_stims/complex_12_A_a.gif","images/stimuli/spore_stims/complex_14_A_b.gif","forced_short","","0","complex_dissimilar","images/stimuli/spore_stims/complex_14_A_b.gif","","","","",""
"","null","html-keyboard-response","11","96950","0.0-9.0-0.1","SS1618435637535","","","null","","","","","","<p><img src= images/blank.png width =""600"" height = ""600"" style=""position:fixed;top:50%; left:50%; transform: translate(-50%, -50%); border:5px solid black"">","","","","","","","",""
"","2592.915000015637","sequential-stimulus-presentation-old","12","100045","0.0-9.0-1.1","SS1618435637535","trial","","40","500","3092.915000015637","images/stimuli/spore_stims/complex_12_A_a.gif","images/stimuli/spore_stims/complex_14_A_b.gif","forced_short","","0","complex_dissimilar","images/stimuli/spore_stims/complex_12_A_a.gif","","","","",""
"","null","html-keyboard-response","13","101003","0.0-9.0-0.2","SS1618435637535","","","null","","","","","","<p><img src= images/blank.png width =""600"" height = ""600"" style=""position:fixed;top:50%; left:50%; transform: translate(-50%, -50%); border:5px solid black"">","","","","","","","",""
"","2020.0049999984913","sequential-stimulus-presentation-old","14","103525","0.0-9.0-1.2","SS1618435637535","trial","","40","500","2520.0049999984913","images/stimuli/spore_stims/complex_12_A_a.gif","images/stimuli/spore_stims/complex_14_A_b.gif","forced_short","","0","complex_dissimilar","images/stimuli/spore_stims/complex_14_A_b.gif","","","","",""
"","null","html-keyboard-response","15","104429","0.0-9.0-0.3","SS1618435637535","","","null","","","","","","<p><img src= images/blank.png width =""600"" height = ""600"" style=""position:fixed;top:50%; left:50%; transform: translate(-50%, -50%); border:5px solid black"">","","","","","","","",""
"","1793.7950000050478","sequential-stimulus-presentation-old","16","106726","0.0-9.0-1.3","SS1618435637535","trial","","40","500","2293.7950000050478","images/stimuli/spore_stims/complex_12_A_a.gif","images/stimuli/spore_stims/complex_14_A_b.gif","forced_short","","0","complex_dissimilar","images/stimuli/spore_stims/complex_14_A_b.gif","","","","",""
"","null","html-keyboard-response","17","107638","0.0-9.0-0.4","SS1618435637535","","","null","","","","","","<p><img src= images/blank.png width =""600"" height = ""600"" style=""position:fixed;top:50%; left:50%; transform: translate(-50%, -50%); border:5px solid black"">","","","","","","","",""
"","1893.6099999991711","sequential-stimulus-presentation-old","18","110034","0.0-9.0-1.4","SS1618435637535","trial","","40","500","2393.609999999171","images/stimuli/spore_stims/complex_12_A_a.gif","images/stimuli/spore_stims/complex_14_A_b.gif","forced_short","","0","complex_dissimilar","images/stimuli/spore_stims/complex_14_A_b.gif","","","","",""
"","4877.874999976484","survey-multi-choice","19","114914","0.0-10.0","SS1618435637535","math_question","","","","","","","","","","","","{""Q0"":""3""}","[0]","3","",""
"","null","html-keyboard-response","20","116061","0.0-11.0-0.0","SS1618435637535","","","null","","","","","","<p><img src= images/blank.png width =""600"" height = ""600"" style=""position:fixed;top:50%; left:50%; transform: translate(-50%, -50%); border:5px solid black"">","","","","","","","",""
"","1480.4000000003725","sequential-stimulus-presentation-old","21","118046","0.0-11.0-1.0","SS1618435637535","trial","","40","500","1980.4000000003725","images/stimuli/spore_stims/complex_16_A_a.gif","images/stimuli/spore_stims/complex_08_A_b.gif","self_paced","","1","complex_dissimilar","images/stimuli/spore_stims/complex_08_A_b.gif","","","","",""
"","null","html-keyboard-response","22","119202","0.0-11.0-0.1","SS1618435637535","","","null","","","","","","<p><img src= images/blank.png width =""600"" height = ""600"" style=""position:fixed;top:50%; left:50%; transform: translate(-50%, -50%); border:5px solid black"">","","","","","","","",""
"","86.15499999723397","sequential-stimulus-presentation-old","23","119791","0.0-11.0-1.1","SS1618435637535","trial","","40","500","586.154999997234","images/stimuli/spore_stims/complex_16_A_a.gif","images/stimuli/spore_stims/complex_08_A_b.gif","self_paced","","1","complex_dissimilar","images/stimuli/spore_stims/complex_08_A_b.gif","","","","",""
"","null","html-keyboard-response","24","120852","0.0-11.0-0.2","SS1618435637535","","","null","","","","","","<p><img src= images/blank.png width =""600"" height = ""600"" style=""position:fixed;top:50%; left:50%; transform: translate(-50%, -50%); border:5px solid black"">","","","","","","","",""
"","1484.7350000054576","sequential-stimulus-presentation-old","25","122839","0.0-11.0-1.2","SS1618435637535","trial","","40","500","1984.7350000054576","images/stimuli/spore_stims/complex_16_A_a.gif","images/stimuli/spore_stims/complex_08_A_b.gif","self_paced","","1","complex_dissimilar","images/stimuli/spore_stims/complex_08_A_b.gif","","","","",""
"","null","html-keyboard-response","26","124140","0.0-11.0-0.3","SS1618435637535","","","null","","","","","","<p><img src= images/blank.png width =""600"" height = ""600"" style=""position:fixed;top:50%; left:50%; transform: translate(-50%, -50%); border:5px solid black"">","","","","","","","",""
"","689.2550000047777","sequential-stimulus-presentation-old","27","125333","0.0-11.0-1.3","SS1618435637535","trial","","40","500","1189.2550000047777","images/stimuli/spore_stims/complex_16_A_a.gif","images/stimuli/spore_stims/complex_08_A_b.gif","self_paced","","1","complex_dissimilar","images/stimuli/spore_stims/complex_08_A_b.gif","","","","",""
"","null","html-keyboard-response","28","126494","0.0-11.0-0.4","SS1618435637535","","","null","","","","","","<p><img src= images/blank.png width =""600"" height = ""600"" style=""position:fixed;top:50%; left:50%; transform: translate(-50%, -50%); border:5px solid black"">","","","","","","","",""
"","677.8600000252482","sequential-stimulus-presentation-old","29","127675","0.0-11.0-1.4","SS1618435637535","trial","","40","500","1177.8600000252482","images/stimuli/spore_stims/complex_16_A_a.gif","images/stimuli/spore_stims/complex_08_A_b.gif","self_paced","","1","complex_dissimilar","images/stimuli/spore_stims/complex_16_A_a.gif","","","","",""
"","null","html-keyboard-response","30","128675","0.0-11.0-0.5","SS1618435637535","","","null","","","","","","<p><img src= images/blank.png width =""600"" height = ""600"" style=""position:fixed;top:50%; left:50%; transform: translate(-50%, -50%); border:5px solid black"">","","","","","","","",""
"","4776.849999994738","sequential-stimulus-presentation-old","31","133953","0.0-11.0-1.5","SS1618435637535","trial","","40","500","5276.849999994738","images/stimuli/spore_stims/complex_16_A_a.gif","images/stimuli/spore_stims/complex_08_A_b.gif","self_paced","","1","complex_dissimilar","images/stimuli/spore_stims/complex_08_A_b.gif","","","","",""
"","3506.565000017872","survey-multi-choice","32","137461","0.0-12.0","SS1618435637535","math_question","","","","","","","","","","","","{""Q0"":""14""}","[0]","14","",""
"","null","html-keyboard-response","33","138734","0.0-13.0-0.0","SS1618435637535","","","null","","","","","","<p><img src= images/blank.png width =""600"" height = ""600"" style=""position:fixed;top:50%; left:50%; transform: translate(-50%, -50%); border:5px solid black"">","","","","","","","",""
"","720.4399999754969","sequential-stimulus-presentation-old","34","139507","0.0-13.0-1.0","SS1618435637535","trial","","40","500","1220.439999975497","images/stimuli/spore_stims/simple_11_A_b.gif","images/stimuli/spore_stims/simple_18_A_a.gif","forced_short","","2","simple_dissimilar","images/stimuli/spore_stims/simple_18_A_a.gif","","","","",""
"","null","html-keyboard-response","35","140484","0.0-13.0-0.1","SS1618435637535","","","null","","","","","","<p><img src= images/blank.png width =""600"" height = ""600"" style=""position:fixed;top:50%; left:50%; transform: translate(-50%, -50%); border:5px solid black"">","","","","","","","",""
"","1554.9150000151712","sequential-stimulus-presentation-old","36","142541","0.0-13.0-1.1","SS1618435637535","trial","","40","500","2054.9150000151712","images/stimuli/spore_stims/simple_11_A_b.gif","images/stimuli/spore_stims/simple_18_A_a.gif","forced_short","","2","simple_dissimilar","images/stimuli/spore_stims/simple_18_A_a.gif","","","","",""
"","null","html-keyboard-response","37","143713","0.0-13.0-0.2","SS1618435637535","","","null","","","","","","<p><img src= images/blank.png width =""600"" height = ""600"" style=""position:fixed;top:50%; left:50%; transform: translate(-50%, -50%); border:5px solid black"">","","","","","","","",""
"","452.40500001818873","sequential-stimulus-presentation-old","38","144669","0.0-13.0-1.2","SS1618435637535","trial","","40","500","952.4050000181887","images/stimuli/spore_stims/simple_11_A_b.gif","images/stimuli/spore_stims/simple_18_A_a.gif","forced_short","","2","simple_dissimilar","images/stimuli/spore_stims/simple_18_A_a.gif","","","","",""
"","null","html-keyboard-response","39","145828","0.0-13.0-0.3","SS1618435637535","","","null","","","","","","<p><img src= images/blank.png width =""600"" height = ""600"" style=""position:fixed;top:50%; left:50%; transform: translate(-50%, -50%); border:5px solid black"">","","","","","","","",""
"","473.969999991823","sequential-stimulus-presentation-old","40","146804","0.0-13.0-1.3","SS1618435637535","trial","","40","500","973.969999991823","images/stimuli/spore_stims/simple_11_A_b.gif","images/stimuli/spore_stims/simple_18_A_a.gif","forced_short","","2","simple_dissimilar","images/stimuli/spore_stims/simple_11_A_b.gif","","","","",""
"","3260.1850000210106","survey-multi-choice","41","150066","0.0-14.0","SS1618435637535","math_question","","","","","","","","","","","","{""Q0"":""9""}","[0]","9","",""
"","null","html-keyboard-response","42","151098","0.0-15.0-0.0","SS1618435637535","","","null","","","","","","<p><img src= images/blank.png width =""600"" height = ""600"" style=""position:fixed;top:50%; left:50%; transform: translate(-50%, -50%); border:5px solid black"">","","","","","","","",""
"","233.52999999769963","sequential-stimulus-presentation-old","43","151835","0.0-15.0-1.0","SS1618435637535","trial","","40","500","733.5299999976996","images/stimuli/spore_stims/complex_13_A_a.gif","images/stimuli/spore_stims/complex_10_A_b.gif","self_paced","","3","complex_dissimilar","images/stimuli/spore_stims/complex_10_A_b.gif","","","","",""
"","null","html-keyboard-response","44","153041","0.0-15.0-0.1","SS1618435637535","","","null","","","","","","<p><img src= images/blank.png width =""600"" height = ""600"" style=""position:fixed;top:50%; left:50%; transform: translate(-50%, -50%); border:5px solid black"">","","","","","","","",""
"","944.4249999942258","sequential-stimulus-presentation-old","45","154489","0.0-15.0-1.1","SS1618435637535","trial","","40","500","1444.4249999942258","images/stimuli/spore_stims/complex_13_A_a.gif","images/stimuli/spore_stims/complex_10_A_b.gif","self_paced","","3","complex_dissimilar","images/stimuli/spore_stims/complex_10_A_b.gif","","","","",""
"","null","html-keyboard-response","46","155548","0.0-15.0-0.2","SS1618435637535","","","null","","","","","","<p><img src= images/blank.png width =""600"" height = ""600"" style=""position:fixed;top:50%; left:50%; transform: translate(-50%, -50%); border:5px solid black"">","","","","","","","",""
"","909.2499999969732","sequential-stimulus-presentation-old","47","156959","0.0-15.0-1.2","SS1618435637535","trial","","40","500","1409.2499999969732","images/stimuli/spore_stims/complex_13_A_a.gif","images/stimuli/spore_stims/complex_10_A_b.gif","self_paced","","3","complex_dissimilar","images/stimuli/spore_stims/complex_10_A_b.gif","","","","",""
"","null","html-keyboard-response","48","158071","0.0-15.0-0.3","SS1618435637535","","","null","","","","","","<p><img src= images/blank.png width =""600"" height = ""600"" style=""position:fixed;top:50%; left:50%; transform: translate(-50%, -50%); border:5px solid black"">","","","","","","","",""
"","510.93499999842606","sequential-stimulus-presentation-old","49","159084","0.0-15.0-1.3","SS1618435637535","trial","","40","500","1010.9349999984261","images/stimuli/spore_stims/complex_13_A_a.gif","images/stimuli/spore_stims/complex_10_A_b.gif","self_paced","","3","complex_dissimilar","images/stimuli/spore_stims/complex_10_A_b.gif","","","","",""
"","null","html-keyboard-response","50","160348","0.0-15.0-0.4","SS1618435637535","","","null","","","","","","<p><img src= images/blank.png width =""600"" height = ""600"" style=""position:fixed;top:50%; left:50%; transform: translate(-50%, -50%); border:5px solid black"">","","","","","","","",""
"","796.6149999992922","sequential-stimulus-presentation-old","51","161647","0.0-15.0-1.4","SS1618435637535","trial","","40","500","1296.6149999992922","images/stimuli/spore_stims/complex_13_A_a.gif","images/stimuli/spore_stims/complex_10_A_b.gif","self_paced","","3","complex_dissimilar","images/stimuli/spore_stims/complex_10_A_b.gif","","","","",""
"","null","html-keyboard-response","52","162555","0.0-15.0-0.5","SS1618435637535","","","null","","","","","","<p><img src= images/blank.png width =""600"" height = ""600"" style=""position:fixed;top:50%; left:50%; transform: translate(-50%, -50%); border:5px solid black"">","","","","","","","",""
"","726.714999997057","sequential-stimulus-presentation-old","53","163783","0.0-15.0-1.5","SS1618435637535","trial","","40","500","1226.714999997057","images/stimuli/spore_stims/complex_13_A_a.gif","images/stimuli/spore_stims/complex_10_A_b.gif","self_paced","","3","complex_dissimilar","images/stimuli/spore_stims/complex_10_A_b.gif","","","","",""
"","3037.3099999851547","survey-multi-choice","54","166822","0.0-16.0","SS1618435637535","math_question","","","","","","","","","","","","{""Q0"":""9""}","[0]","9","",""
"","null","html-keyboard-response","55","167658","0.0-17.0-0.0","SS1618435637535","","","null","","","","","","<p><img src= images/blank.png width =""600"" height = ""600"" style=""position:fixed;top:50%; left:50%; transform: translate(-50%, -50%); border:5px solid black"">","","","","","","","",""
"","2044.079999992391","sequential-stimulus-presentation-old","56","169754","0.0-17.0-1.0","SS1618435637535","trial","","40","500","2544.079999992391","images/stimuli/spore_stims/complex_07_A_a.gif","images/stimuli/spore_stims/complex_15_A_b.gif","forced_short","","4","complex_dissimilar","images/stimuli/spore_stims/complex_15_A_b.gif","","","","",""
"","null","html-keyboard-response","57","170688","0.0-17.0-0.1","SS1618435637535","","","null","","","","","","<p><img src= images/blank.png width =""600"" height = ""600"" style=""position:fixed;top:50%; left:50%; transform: translate(-50%, -50%); border:5px solid black"">","","","","","","","",""
"","368.6899999738671","sequential-stimulus-presentation-old","58","171560","0.0-17.0-1.1","SS1618435637535","trial","","40","500","868.6899999738671","images/stimuli/spore_stims/complex_07_A_a.gif","images/stimuli/spore_stims/complex_15_A_b.gif","forced_short","","4","complex_dissimilar","images/stimuli/spore_stims/complex_15_A_b.gif","","","","",""
"","null","html-keyboard-response","59","172745","0.0-17.0-0.2","SS1618435637535","","","null","","","","","","<p><img src= images/blank.png width =""600"" height = ""600"" style=""position:fixed;top:50%; left:50%; transform: translate(-50%, -50%); border:5px solid black"">","","","","","","","",""
"","727.565000008326","sequential-stimulus-presentation-old","60","173976","0.0-17.0-1.2","SS1618435637535","trial","","40","500","1227.565000008326","images/stimuli/spore_stims/complex_07_A_a.gif","images/stimuli/spore_stims/complex_15_A_b.gif","forced_short","","4","complex_dissimilar","images/stimuli/spore_stims/complex_15_A_b.gif","","","","",""
"","null","html-keyboard-response","61","174981","0.0-17.0-0.3","SS1618435637535","","","null","","","","","","<p><img src= images/blank.png width =""600"" height = ""600"" style=""position:fixed;top:50%; left:50%; transform: translate(-50%, -50%); border:5px solid black"">","","","","","","","",""
"","1497.9199999943376","sequential-stimulus-presentation-old","62","176981","0.0-17.0-1.3","SS1618435637535","trial","","40","500","1997.9199999943376","images/stimuli/spore_stims/complex_07_A_a.gif","images/stimuli/spore_stims/complex_15_A_b.gif","forced_short","","4","complex_dissimilar","images/stimuli/spore_stims/complex_15_A_b.gif","","","","",""
"","3459.159999998519","survey-multi-choice","63","180442","0.0-18.0","SS1618435637535","math_question","","","","","","","","","","","","{""Q0"":""11""}","[0]","11","",""
"","null","html-keyboard-response","64","181246","0.0-19.0-0.0","SS1618435637535","","","null","","","","","","<p><img src= images/blank.png width =""600"" height = ""600"" style=""position:fixed;top:50%; left:50%; transform: translate(-50%, -50%); border:5px solid black"">","","","","","","","",""
"","1465.8150000032037","sequential-stimulus-presentation-old","65","187715","0.0-19.0-1.0","SS1618435637535","trial","","40","500","1965.8150000032037","images/stimuli/spore_stims/simple_10_A_b.gif","images/stimuli/spore_stims/simple_17_A_a.gif","forced_long","","5","simple_dissimilar","images/stimuli/spore_stims/simple_17_A_a.gif","","","","",""
"","null","html-keyboard-response","66","188626","0.0-19.0-0.1","SS1618435637535","","","null","","","","","","<p><img src= images/blank.png width =""600"" height = ""600"" style=""position:fixed;top:50%; left:50%; transform: translate(-50%, -50%); border:5px solid black"">","","","","","","","",""
"","540.8300000126474","sequential-stimulus-presentation-old","67","189670","0.0-19.0-1.1","SS1618435637535","trial","","40","500","1040.8300000126474","images/stimuli/spore_stims/simple_10_A_b.gif","images/stimuli/spore_stims/simple_17_A_a.gif","forced_long","","5","simple_dissimilar","images/stimuli/spore_stims/simple_17_A_a.gif","","","","",""
"","null","html-keyboard-response","68","190516","0.0-19.0-0.2","SS1618435637535","","","null","","","","","","<p><img src= images/blank.png width =""600"" height = ""600"" style=""position:fixed;top:50%; left:50%; transform: translate(-50%, -50%); border:5px solid black"">","","","","","","","",""
"","826.0599999921396","sequential-stimulus-presentation-old","69","191844","0.0-19.0-1.2","SS1618435637535","trial","","40","500","1326.0599999921396","images/stimuli/spore_stims/simple_10_A_b.gif","images/stimuli/spore_stims/simple_17_A_a.gif","forced_long","","5","simple_dissimilar","images/stimuli/spore_stims/simple_17_A_a.gif","","","","",""
"","null","html-keyboard-response","70","192804","0.0-19.0-0.3","SS1618435637535","","","null","","","","","","<p><img src= images/blank.png width =""600"" height = ""600"" style=""position:fixed;top:50%; left:50%; transform: translate(-50%, -50%); border:5px solid black"">","","","","","","","",""
"","1237.4349999881815","sequential-stimulus-presentation-old","71","194544","0.0-19.0-1.3","SS1618435637535","trial","","40","500","1737.4349999881815","images/stimuli/spore_stims/simple_10_A_b.gif","images/stimuli/spore_stims/simple_17_A_a.gif","forced_long","","5","simple_dissimilar","images/stimuli/spore_stims/simple_10_A_b.gif","","","","",""
"","2937.7150000073016","survey-multi-choice","72","197483","0.0-20.0","SS1618435637535","math_question","","","","","","","","","","","","{""Q0"":""8""}","[0]","8","",""
"","null","html-keyboard-response","73","198466","0.0-21.0-0.0","SS1618435637535","","","null","","","","","","<p><img src= images/blank.png width =""600"" height = ""600"" style=""position:fixed;top:50%; left:50%; transform: translate(-50%, -50%); border:5px solid black"">","","","","","","","",""
"","1362.0600000140257","sequential-stimulus-presentation-old","74","204831","0.0-21.0-1.0","SS1618435637535","trial","","40","500","1862.0600000140257","images/stimuli/spore_stims/complex_03_A_a.gif","images/stimuli/spore_stims/complex_19_A_b.gif","forced_long","","6","complex_dissimilar","images/stimuli/spore_stims/complex_19_A_b.gif","","","","",""
"","null","html-keyboard-response","75","205992","0.0-21.0-0.1","SS1618435637535","","","null","","","","","","<p><img src= images/blank.png width =""600"" height = ""600"" style=""position:fixed;top:50%; left:50%; transform: translate(-50%, -50%); border:5px solid black"">","","","","","","","",""
"","299.3199999909848","sequential-stimulus-presentation-old","76","206795","0.0-21.0-1.1","SS1618435637535","trial","","40","500","799.3199999909848","images/stimuli/spore_stims/complex_03_A_a.gif","images/stimuli/spore_stims/complex_19_A_b.gif","forced_long","","6","complex_dissimilar","images/stimuli/spore_stims/complex_19_A_b.gif","","","","",""
"","null","html-keyboard-response","77","207605","0.0-21.0-0.2","SS1618435637535","","","null","","","","","","<p><img src= images/blank.png width =""600"" height = ""600"" style=""position:fixed;top:50%; left:50%; transform: translate(-50%, -50%); border:5px solid black"">","","","","","","","",""
"","1041.7299999971874","sequential-stimulus-presentation-old","78","209149","0.0-21.0-1.2","SS1618435637535","trial","","40","500","1541.7299999971874","images/stimuli/spore_stims/complex_03_A_a.gif","images/stimuli/spore_stims/complex_19_A_b.gif","forced_long","","6","complex_dissimilar","images/stimuli/spore_stims/complex_19_A_b.gif","","","","",""
"","null","html-keyboard-response","79","210099","0.0-21.0-0.3","SS1618435637535","","","null","","","","","","<p><img src= images/blank.png width =""600"" height = ""600"" style=""position:fixed;top:50%; left:50%; transform: translate(-50%, -50%); border:5px solid black"">","","","","","","","",""
"","146.99999999720603","sequential-stimulus-presentation-old","80","210750","0.0-21.0-1.3","SS1618435637535","trial","","40","500","646.999999997206","images/stimuli/spore_stims/complex_03_A_a.gif","images/stimuli/spore_stims/complex_19_A_b.gif","forced_long","","6","complex_dissimilar","images/stimuli/spore_stims/complex_19_A_b.gif","","","","",""
"","null","html-keyboard-response","81","211905","0.0-21.0-0.4","SS1618435637535","","","null","","","","","","<p><img src= images/blank.png width =""600"" height = ""600"" style=""position:fixed;top:50%; left:50%; transform: translate(-50%, -50%); border:5px solid black"">","","","","","","","",""
"","648.5350000148173","sequential-stimulus-presentation-old","82","213057","0.0-21.0-1.4","SS1618435637535","trial","","40","500","1148.5350000148173","images/stimuli/spore_stims/complex_03_A_a.gif","images/stimuli/spore_stims/complex_19_A_b.gif","forced_long","","6","complex_dissimilar","images/stimuli/spore_stims/complex_19_A_b.gif","","","","",""
"","null","html-keyboard-response","83","214036","0.0-21.0-0.5","SS1618435637535","","","null","","","","","","<p><img src= images/blank.png width =""600"" height = ""600"" style=""position:fixed;top:50%; left:50%; transform: translate(-50%, -50%); border:5px solid black"">","","","","","","","",""
"","473.4199999948032","sequential-stimulus-presentation-old","84","215012","0.0-21.0-1.5","SS1618435637535","trial","","40","500","973.4199999948032","images/stimuli/spore_stims/complex_03_A_a.gif","images/stimuli/spore_stims/complex_19_A_b.gif","forced_long","","6","complex_dissimilar","images/stimuli/spore_stims/complex_03_A_a.gif","","","","",""
"","2941.2799999990966","survey-multi-choice","85","217954","0.0-22.0","SS1618435637535","math_question","","","","","","","","","","","","{""Q0"":""17""}","[0]","17","",""
"","null","html-keyboard-response","86","219034","0.0-23.0-0.0","SS1618435637535","","","null","","","","","","<p><img src= images/blank.png width =""600"" height = ""600"" style=""position:fixed;top:50%; left:50%; transform: translate(-50%, -50%); border:5px solid black"">","","","","","","","",""
"","564.2850000003818","sequential-stimulus-presentation-old","87","220103","0.0-23.0-1.0","SS1618435637535","trial","","40","500","1064.2850000003818","images/stimuli/spore_stims/simple_12_A_b.gif","images/stimuli/spore_stims/simple_05_A_a.gif","self_paced","","7","simple_dissimilar","images/stimuli/spore_stims/simple_05_A_a.gif","","","","",""
"","null","html-keyboard-response","88","221002","0.0-23.0-0.1","SS1618435637535","","","null","","","","","","<p><img src= images/blank.png width =""600"" height = ""600"" style=""position:fixed;top:50%; left:50%; transform: translate(-50%, -50%); border:5px solid black"">","","","","","","","",""
"","541.174999991199","sequential-stimulus-presentation-old","89","222046","0.0-23.0-1.1","SS1618435637535","trial","","40","500","1041.174999991199","images/stimuli/spore_stims/simple_12_A_b.gif","images/stimuli/spore_stims/simple_05_A_a.gif","self_paced","","7","simple_dissimilar","images/stimuli/spore_stims/simple_05_A_a.gif","","","","",""
"","null","html-keyboard-response","90","222854","0.0-23.0-0.2","SS1618435637535","","","null","","","","","","<p><img src= images/blank.png width =""600"" height = ""600"" style=""position:fixed;top:50%; left:50%; transform: translate(-50%, -50%); border:5px solid black"">","","","","","","","",""
"","399.10999999847263","sequential-stimulus-presentation-old","91","223756","0.0-23.0-1.2","SS1618435637535","trial","","40","500","899.1099999984726","images/stimuli/spore_stims/simple_12_A_b.gif","images/stimuli/spore_stims/simple_05_A_a.gif","self_paced","","7","simple_dissimilar","images/stimuli/spore_stims/simple_12_A_b.gif","","","","",""
"","null","html-keyboard-response","92","224685","0.0-23.0-0.3","SS1618435637535","","","null","","","","","","<p><img src= images/blank.png width =""600"" height = ""600"" style=""position:fixed;top:50%; left:50%; transform: translate(-50%, -50%); border:5px solid black"">","","","","","","","",""
"","456.41999997314997","sequential-stimulus-presentation-old","93","225644","0.0-23.0-1.3","SS1618435637535","trial","","40","500","956.41999997315","images/stimuli/spore_stims/simple_12_A_b.gif","images/stimuli/spore_stims/simple_05_A_a.gif","self_paced","","7","simple_dissimilar","images/stimuli/spore_stims/simple_05_A_a.gif","","","","",""
"","2312.884999992093","survey-multi-choice","94","227959","0.0-24.0","SS1618435637535","math_question","","","","","","","","","","","","{""Q0"":""3""}","[0]","3","",""
"","null","html-keyboard-response","95","229250","0.0-25.0-0.0","SS1618435637535","","","null","","","","","","<p><img src= images/blank.png width =""600"" height = ""600"" style=""position:fixed;top:50%; left:50%; transform: translate(-50%, -50%); border:5px solid black"">","","","","","","","",""
"","227.1599999803584","sequential-stimulus-presentation-old","96","234481","0.0-25.0-1.0","SS1618435637535","trial","","40","500","727.1599999803584","images/stimuli/spore_stims/complex_11_A_a.gif","images/stimuli/spore_stims/complex_17_A_b.gif","forced_long","","8","complex_dissimilar","images/stimuli/spore_stims/complex_17_A_b.gif","","","","",""
"","null","html-keyboard-response","97","235430","0.0-25.0-0.1","SS1618435637535","","","null","","","","","","<p><img src= images/blank.png width =""600"" height = ""600"" style=""position:fixed;top:50%; left:50%; transform: translate(-50%, -50%); border:5px solid black"">","","","","","","","",""
"","285.730000003241","sequential-stimulus-presentation-old","98","236220","0.0-25.0-1.1","SS1618435637535","trial","","40","500","785.730000003241","images/stimuli/spore_stims/complex_11_A_a.gif","images/stimuli/spore_stims/complex_17_A_b.gif","forced_long","","8","complex_dissimilar","images/stimuli/spore_stims/complex_17_A_b.gif","","","","",""
"","null","html-keyboard-response","99","237124","0.0-25.0-0.2","SS1618435637535","","","null","","","","","","<p><img src= images/blank.png width =""600"" height = ""600"" style=""position:fixed;top:50%; left:50%; transform: translate(-50%, -50%); border:5px solid black"">","","","","","","","",""
"","148.12999998684973","sequential-stimulus-presentation-old","100","237775","0.0-25.0-1.2","SS1618435637535","trial","","40","500","648.1299999868497","images/stimuli/spore_stims/complex_11_A_a.gif","images/stimuli/spore_stims/complex_17_A_b.gif","forced_long","","8","complex_dissimilar","images/stimuli/spore_stims/complex_11_A_a.gif","","","","",""
"","null","html-keyboard-response","101","238595","0.0-25.0-0.3","SS1618435637535","","","null","","","","","","<p><img src= images/blank.png width =""600"" height = ""600"" style=""position:fixed;top:50%; left:50%; transform: translate(-50%, -50%); border:5px solid black"">","","","","","","","",""
"","158.33999999449588","sequential-stimulus-presentation-old","102","239256","0.0-25.0-1.3","SS1618435637535","trial","","40","500","658.3399999944959","images/stimuli/spore_stims/complex_11_A_a.gif","images/stimuli/spore_stims/complex_17_A_b.gif","forced_long","","8","complex_dissimilar","images/stimuli/spore_stims/complex_17_A_b.gif","","","","",""
"","null","html-keyboard-response","103","240147","0.0-25.0-0.4","SS1618435637535","","","null","","","","","","<p><img src= images/blank.png width =""600"" height = ""600"" style=""position:fixed;top:50%; left:50%; transform: translate(-50%, -50%); border:5px solid black"">","","","","","","","",""
"","662.7100000041537","sequential-stimulus-presentation-old","104","241313","0.0-25.0-1.4","SS1618435637535","trial","","40","500","1162.7100000041537","images/stimuli/spore_stims/complex_11_A_a.gif","images/stimuli/spore_stims/complex_17_A_b.gif","forced_long","","8","complex_dissimilar","images/stimuli/spore_stims/complex_17_A_b.gif","","","","",""
"","3048.290000006091","survey-multi-choice","105","244363","0.0-26.0","SS1618435637535","math_question","","","","","","","","","","","","{""Q0"":""14""}","[0]","14","",""
"","null","html-keyboard-response","106","245360","0.0-27.0-0.0","SS1618435637535","","","null","","","","","","<p><img src= images/blank.png width =""600"" height = ""600"" style=""position:fixed;top:50%; left:50%; transform: translate(-50%, -50%); border:5px solid black"">","","","","","","","",""
"","3296.090000018012","sequential-stimulus-presentation-old","107","253659","0.0-27.0-1.0","SS1618435637535","trial","","40","500","3796.090000018012","images/stimuli/spore_stims/simple_03_A_b.gif","images/stimuli/spore_stims/simple_12_A_a.gif","forced_long","","9","simple_dissimilar","images/stimuli/spore_stims/simple_12_A_a.gif","","","","",""
"","null","html-keyboard-response","108","254769","0.0-27.0-0.1","SS1618435637535","","","null","","","","","","<p><img src= images/blank.png width =""600"" height = ""600"" style=""position:fixed;top:50%; left:50%; transform: translate(-50%, -50%); border:5px solid black"">","","","","","","","",""
"","780.4199999955017","sequential-stimulus-presentation-old","109","256053","0.0-27.0-1.1","SS1618435637535","trial","","40","500","1280.4199999955017","images/stimuli/spore_stims/simple_03_A_b.gif","images/stimuli/spore_stims/simple_12_A_a.gif","forced_long","","9","simple_dissimilar","images/stimuli/spore_stims/simple_12_A_a.gif","","","","",""
"","null","html-keyboard-response","110","257222","0.0-27.0-0.2","SS1618435637535","","","null","","","","","","<p><img src= images/blank.png width =""600"" height = ""600"" style=""position:fixed;top:50%; left:50%; transform: translate(-50%, -50%); border:5px solid black"">","","","","","","","",""
"","1825.2449999854434","sequential-stimulus-presentation-old","111","259550","0.0-27.0-1.2","SS1618435637535","trial","","40","500","2325.2449999854434","images/stimuli/spore_stims/simple_03_A_b.gif","images/stimuli/spore_stims/simple_12_A_a.gif","forced_long","","9","simple_dissimilar","images/stimuli/spore_stims/simple_12_A_a.gif","","","","",""
"","null","html-keyboard-response","112","260522","0.0-27.0-0.3","SS1618435637535","","","null","","","","","","<p><img src= images/blank.png width =""600"" height = ""600"" style=""position:fixed;top:50%; left:50%; transform: translate(-50%, -50%); border:5px solid black"">","","","","","","","",""
"","1631.0950000188313","sequential-stimulus-presentation-old","113","262656","0.0-27.0-1.3","SS1618435637535","trial","","40","500","2131.0950000188313","images/stimuli/spore_stims/simple_03_A_b.gif","images/stimuli/spore_stims/simple_12_A_a.gif","forced_long","","9","simple_dissimilar","images/stimuli/spore_stims/simple_12_A_a.gif","","","","",""
"","null","html-keyboard-response","114","263958","0.0-27.0-0.4","SS1618435637535","","","null","","","","","","<p><img src= images/blank.png width =""600"" height = ""600"" style=""position:fixed;top:50%; left:50%; transform: translate(-50%, -50%); border:5px solid black"">","","","","","","","",""
"","694.2099999869242","sequential-stimulus-presentation-old","115","265156","0.0-27.0-1.4","SS1618435637535","trial","","40","500","1194.2099999869242","images/stimuli/spore_stims/simple_03_A_b.gif","images/stimuli/spore_stims/simple_12_A_a.gif","forced_long","","9","simple_dissimilar","images/stimuli/spore_stims/simple_12_A_a.gif","","","","",""
"","2939.94000001112","survey-multi-choice","116","268098","0.0-28.0","SS1618435637535","math_question","","","","","","","","","","","","{""Q0"":""9""}","[0]","9","",""
"","null","html-keyboard-response","117","269160","0.0-29.0-0.0","SS1618435637535","","","null","","","","","","<p><img src= images/blank.png width =""600"" height = ""600"" style=""position:fixed;top:50%; left:50%; transform: translate(-50%, -50%); border:5px solid black"">","","","","","","","",""
"","14038.659999991069","sequential-stimulus-presentation-old","118","283703","0.0-29.0-1.0","SS1618435637535","trial","","40","500","14538.659999991069","images/stimuli/spore_stims/simple_07_A_b.gif","images/stimuli/spore_stims/simple_10_A_a.gif","self_paced","","10","simple_dissimilar","images/stimuli/spore_stims/simple_10_A_a.gif","","","","",""
"","null","html-keyboard-response","119","284829","0.0-29.0-0.1","SS1618435637535","","","null","","","","","","<p><img src= images/blank.png width =""600"" height = ""600"" style=""position:fixed;top:50%; left:50%; transform: translate(-50%, -50%); border:5px solid black"">","","","","","","","",""
"","54.74500000127591","sequential-stimulus-presentation-old","120","285387","0.0-29.0-1.1","SS1618435637535","trial","","40","500","554.7450000012759","images/stimuli/spore_stims/simple_07_A_b.gif","images/stimuli/spore_stims/simple_10_A_a.gif","self_paced","","10","simple_dissimilar","images/stimuli/spore_stims/simple_10_A_a.gif","","","","",""
"","null","html-keyboard-response","121","286388","0.0-29.0-0.2","SS1618435637535","","","null","","","","","","<p><img src= images/blank.png width =""600"" height = ""600"" style=""position:fixed;top:50%; left:50%; transform: translate(-50%, -50%); border:5px solid black"">","","","","","","","",""
"","464.65499998885207","sequential-stimulus-presentation-old","122","287355","0.0-29.0-1.2","SS1618435637535","trial","","40","500","964.6549999888521","images/stimuli/spore_stims/simple_07_A_b.gif","images/stimuli/spore_stims/simple_10_A_a.gif","self_paced","","10","simple_dissimilar","images/stimuli/spore_stims/simple_10_A_a.gif","","","","",""
"","null","html-keyboard-response","123","288185","0.0-29.0-0.3","SS1618435637535","","","null","","","","","","<p><img src= images/blank.png width =""600"" height = ""600"" style=""position:fixed;top:50%; left:50%; transform: translate(-50%, -50%); border:5px solid black"">","","","","","","","",""
"","25.025000009918585","sequential-stimulus-presentation-old","124","288713","0.0-29.0-1.3","SS1618435637535","trial","","40","500","525.0250000099186","images/stimuli/spore_stims/simple_07_A_b.gif","images/stimuli/spore_stims/simple_10_A_a.gif","self_paced","","10","simple_dissimilar","images/stimuli/spore_stims/simple_10_A_a.gif","","","","",""
"","null","html-keyboard-response","125","289846","0.0-29.0-0.4","SS1618435637535","","","null","","","","","","<p><img src= images/blank.png width =""600"" height = ""600"" style=""position:fixed;top:50%; left:50%; transform: translate(-50%, -50%); border:5px solid black"">","","","","","","","",""
"","224.61000000475906","sequential-stimulus-presentation-old","126","290573","0.0-29.0-1.4","SS1618435637535","trial","","40","500","724.6100000047591","images/stimuli/spore_stims/simple_07_A_b.gif","images/stimuli/spore_stims/simple_10_A_a.gif","self_paced","","10","simple_dissimilar","images/stimuli/spore_stims/simple_10_A_a.gif","","","","",""
"","null","html-keyboard-response","127","291701","0.0-29.0-0.5","SS1618435637535","","","null","","","","","","<p><img src= images/blank.png width =""600"" height = ""600"" style=""position:fixed;top:50%; left:50%; transform: translate(-50%, -50%); border:5px solid black"">","","","","","","","",""
"","577.6349999941885","sequential-stimulus-presentation-old","128","292781","0.0-29.0-1.5","SS1618435637535","trial","","40","500","1077.6349999941885","images/stimuli/spore_stims/simple_07_A_b.gif","images/stimuli/spore_stims/simple_10_A_a.gif","self_paced","","10","simple_dissimilar","images/stimuli/spore_stims/simple_07_A_b.gif","","","","",""
"","2790.0599999993574","survey-multi-choice","129","295574","0.0-30.0","SS1618435637535","math_question","","","","","","","","","","","","{""Q0"":""8""}","[0]","8","",""
"","null","html-keyboard-response","130","296524","0.0-31.0-0.0","SS1618435637535","","","null","","","","","","<p><img src= images/blank.png width =""600"" height = ""600"" style=""position:fixed;top:50%; left:50%; transform: translate(-50%, -50%); border:5px solid black"">","","","","","","","",""
"","649.9499999918044","sequential-stimulus-presentation-old","131","297227","0.0-31.0-1.0","SS1618435637535","trial","","40","500","1149.9499999918044","images/stimuli/spore_stims/simple_09_A_a.gif","images/stimuli/spore_stims/simple_01_A_b.gif","forced_short","","11","simple_dissimilar","images/stimuli/spore_stims/simple_01_A_b.gif","","","","",""
"","null","html-keyboard-response","132","298290","0.0-31.0-0.1","SS1618435637535","","","null","","","","","","<p><img src= images/blank.png width =""600"" height = ""600"" style=""position:fixed;top:50%; left:50%; transform: translate(-50%, -50%); border:5px solid black"">","","","","","","","",""
"","230.9100000129547","sequential-stimulus-presentation-old","133","299024","0.0-31.0-1.1","SS1618435637535","trial","","40","500","730.9100000129547","images/stimuli/spore_stims/simple_09_A_a.gif","images/stimuli/spore_stims/simple_01_A_b.gif","forced_short","","11","simple_dissimilar","images/stimuli/spore_stims/simple_01_A_b.gif","","","","",""
"","null","html-keyboard-response","134","299947","0.0-31.0-0.2","SS1618435637535","","","null","","","","","","<p><img src= images/blank.png width =""600"" height = ""600"" style=""position:fixed;top:50%; left:50%; transform: translate(-50%, -50%); border:5px solid black"">","","","","","","","",""
"","631.6449999867473","sequential-stimulus-presentation-old","135","301082","0.0-31.0-1.2","SS1618435637535","trial","","40","500","1131.6449999867473","images/stimuli/spore_stims/simple_09_A_a.gif","images/stimuli/spore_stims/simple_01_A_b.gif","forced_short","","11","simple_dissimilar","images/stimuli/spore_stims/simple_01_A_b.gif","","","","",""
"","null","html-keyboard-response","136","302138","0.0-31.0-0.3","SS1618435637535","","","null","","","","","","<p><img src= images/blank.png width =""600"" height = ""600"" style=""position:fixed;top:50%; left:50%; transform: translate(-50%, -50%); border:5px solid black"">","","","","","","","",""
"","248.0199999990873","sequential-stimulus-presentation-old","137","302889","0.0-31.0-1.3","SS1618435637535","trial","","40","500","748.0199999990873","images/stimuli/spore_stims/simple_09_A_a.gif","images/stimuli/spore_stims/simple_01_A_b.gif","forced_short","","11","simple_dissimilar","images/stimuli/spore_stims/simple_01_A_b.gif","","","","",""
"","null","html-keyboard-response","138","304048","0.0-31.0-0.4","SS1618435637535","","","null","","","","","","<p><img src= images/blank.png width =""600"" height = ""600"" style=""position:fixed;top:50%; left:50%; transform: translate(-50%, -50%); border:5px solid black"">","","","","","","","",""
"","172.64500001328997","sequential-stimulus-presentation-old","139","304723","0.0-31.0-1.4","SS1618435637535","trial","","40","500","672.64500001329","images/stimuli/spore_stims/simple_09_A_a.gif","images/stimuli/spore_stims/simple_01_A_b.gif","forced_short","","11","simple_dissimilar","images/stimuli/spore_stims/simple_01_A_b.gif","","","","",""
"","null","html-keyboard-response","140","305962","0.0-31.0-0.5","SS1618435637535","","","null","","","","","","<p><img src= images/blank.png width =""600"" height = ""600"" style=""position:fixed;top:50%; left:50%; transform: translate(-50%, -50%); border:5px solid black"">","","","","","","","",""
"","442.8699999989476","sequential-stimulus-presentation-old","141","306908","0.0-31.0-1.5","SS1618435637535","trial","","40","500","942.8699999989476","images/stimuli/spore_stims/simple_09_A_a.gif","images/stimuli/spore_stims/simple_01_A_b.gif","forced_short","","11","simple_dissimilar","images/stimuli/spore_stims/simple_01_A_b.gif","","","","",""
"[{""page_index"":0,""viewing_time"":2021.8799999856856}]","2022.144999995362","instructions","142","308932","0.0-32.0","SS1618435637535","instructions","","","","","","","","","","","","","","","",""
"","3626.430000003893","survey-likert","143","312562","0.0-33.0","SS1618435637535","similarity_question","","","","","","","","","","","","{""Q0"":1}","[0]","","images/stimuli/spore_stims/complex_10_A_b.gif","images/stimuli/spore_stims/complex_13_A_a.gif"
"","3700.4700000106823","survey-likert","144","316267","0.0-34.0","SS1618435637535","similarity_question","","","","","","","","","","","","{""Q0"":2}","[0]","","images/stimuli/spore_stims/complex_15_A_b.gif","images/stimuli/spore_stims/complex_07_A_a.gif"
"","2390.384999976959","survey-likert","145","318660","0.0-35.0","SS1618435637535","similarity_question","","","","","","","","","","","","{""Q0"":5}","[0]","","images/stimuli/spore_stims/simple_05_A_a.gif","images/stimuli/spore_stims/simple_12_A_b.gif"
"","2876.6000000177883","survey-likert","146","321541","0.0-36.0","SS1618435637535","similarity_question","","","","","","","","","","","","{""Q0"":2}","[0]","","images/stimuli/spore_stims/complex_16_A_a.gif","images/stimuli/spore_stims/complex_08_A_b.gif"
"","2108.2300000125542","survey-likert","147","323653","0.0-37.0","SS1618435637535","similarity_question","","","","","","","","","","","","{""Q0"":3}","[0]","","images/stimuli/spore_stims/complex_19_A_b.gif","images/stimuli/spore_stims/complex_03_A_a.gif"
"","2772.7000000013504","survey-likert","148","326428","0.0-38.0","SS1618435637535","similarity_question","","","","","","","","","","","","{""Q0"":1}","[0]","","images/stimuli/spore_stims/complex_17_A_b.gif","images/stimuli/spore_stims/complex_11_A_a.gif"
"","2087.1899999910966","survey-likert","149","328518","0.0-39.0","SS1618435637535","similarity_question","","","","","","","","","","","","{""Q0"":4}","[0]","","images/stimuli/spore_stims/simple_03_A_b.gif","images/stimuli/spore_stims/simple_12_A_a.gif"
"","4244.879999983823","survey-likert","150","332766","0.0-40.0","SS1618435637535","similarity_question","","","","","","","","","","","","{""Q0"":3}","[0]","","images/stimuli/spore_stims/simple_10_A_a.gif","images/stimuli/spore_stims/simple_07_A_b.gif"
"","2365.5499999877065","survey-likert","151","335135","0.0-41.0","SS1618435637535","similarity_question","","","","","","","","","","","","{""Q0"":4}","[0]","","images/stimuli/spore_stims/simple_18_A_a.gif","images/stimuli/spore_stims/simple_11_A_b.gif"
"","2918.7150000070687","survey-likert","152","338056","0.0-42.0","SS1618435637535","similarity_question","","","","","","","","","","","","{""Q0"":0}","[0]","","images/stimuli/spore_stims/complex_14_A_b.gif","images/stimuli/spore_stims/complex_12_A_a.gif"
"","3712.1149999729823","survey-likert","153","341772","0.0-43.0","SS1618435637535","similarity_question","","","","","","","","","","","","{""Q0"":5}","[0]","","images/stimuli/spore_stims/simple_01_A_b.gif","images/stimuli/spore_stims/simple_09_A_a.gif"
"","14333.524999994552","survey-likert","154","356107","0.0-44.0","SS1618435637535","similarity_question","","","","","","","","","","","","{""Q0"":4}","[0]","","images/stimuli/spore_stims/simple_10_A_b.gif","images/stimuli/spore_stims/simple_17_A_a.gif"
"[{""page_index"":0,""viewing_time"":1060.7200000085868}]","1060.9800000092946","instructions","155","357171","0.0-45.0","SS1618435637535","instructions","","","","","","","","","","","","","","","",""
"","3203.5199999809265","survey-likert","156","360378","0.0-46.0","SS1618435637535","","","","","","","","","images/stimuli/spore_stims/complex_13_A_a.gif","","","","{""Q0"":6}","[0]","","",""
"","2148.929999995744","survey-likert","157","362530","0.0-47.0","SS1618435637535","","","","","","","","","images/stimuli/spore_stims/complex_07_A_a.gif","","","","{""Q0"":4}","[0]","","",""
"","2980.1749999751337","survey-likert","158","365513","0.0-48.0","SS1618435637535","","","","","","","","","images/stimuli/spore_stims/complex_14_A_b.gif","","","","{""Q0"":2}","[0]","","",""
"","2536.0900000086986","survey-likert","159","368053","0.0-49.0","SS1618435637535","","","","","","","","","images/stimuli/spore_stims/simple_12_A_b.gif","","","","{""Q0"":0}","[0]","","",""
"","1823.9149999863002","survey-likert","160","369880","0.0-50.0","SS1618435637535","","","","","","","","","images/stimuli/spore_stims/simple_18_A_a.gif","","","","{""Q0"":1}","[0]","","",""
"","1924.8049999878276","survey-likert","161","371808","0.0-51.0","SS1618435637535","","","","","","","","","images/stimuli/spore_stims/simple_12_A_a.gif","","","","{""Q0"":0}","[0]","","",""
"","2603.949999989709","survey-likert","162","374416","0.0-52.0","SS1618435637535","","","","","","","","","images/stimuli/spore_stims/complex_19_A_b.gif","","","","{""Q0"":4}","[0]","","",""
"","1930.9700000158045","survey-likert","163","376351","0.0-53.0","SS1618435637535","","","","","","","","","images/stimuli/spore_stims/simple_10_A_a.gif","","","","{""Q0"":2}","[0]","","",""
"","2183.3499999775086","survey-likert","164","378537","0.0-54.0","SS1618435637535","","","","","","","","","images/stimuli/spore_stims/complex_17_A_b.gif","","","","{""Q0"":3}","[0]","","",""
"","2649.1600000008475","survey-likert","165","381189","0.0-55.0","SS1618435637535","","","","","","","","","images/stimuli/spore_stims/simple_01_A_b.gif","","","","{""Q0"":2}","[0]","","",""
"","2384.6799999882933","survey-likert","166","383577","0.0-56.0","SS1618435637535","","","","","","","","","images/stimuli/spore_stims/complex_08_A_b.gif","","","","{""Q0"":5}","[0]","","",""
"","1725.174999999581","survey-likert","167","385306","0.0-57.0","SS1618435637535","","","","","","","","","images/stimuli/spore_stims/simple_17_A_a.gif","","","","{""Q0"":1}","[0]","","",""
"[{""page_index"":0,""viewing_time"":1442.4899999867193}]","1442.6699999894481","instructions","168","386751","0.0-58.0","SS1618435637535","instructions","","","","","","","","","","","","","","","",""
"","2359.249999979511","demog-age","169","389115","0.0-59.0","SS1618435637535","","","","","","","","","","","","","{""age"":""20""}","","","",""
"","2102.8499999956694","demog-ethnic-US","170","391228","0.0-60.0","SS1618435637535","","","","","","","","","","","","","{""ethnicity"":[""White""]}","[0]","","",""
"","4374.6549999923445","demog-gender-and-education","171","395606","0.0-61.0","SS1618435637535","","","","","","","","","","","","","{""gender"":""Male"",""education"":""High school diploma""}","[0,1]","","",""
"","6893.1200000224635","survey-text","172","402504","0.0-62.0","SS1618435637535","feedback","","","","","","","","","","","","{""Q0"":""no""}","","","",""
"[{""page_index"":0,""viewing_time"":919.7350000031292}]","919.9149999767542","instructions","173","403427","0.0-63.0","SS1618435637535","instructions","","","","","","","","","","","","","","","",""
