"view_history","rt","trial_type","trial_index","time_elapsed","internal_node_id","subject","stimulus_type","trial_stimulus","key_press","minimum_viewing_duration","trial_looking_time","block_deviant","block_background","exposure_type","stimulus","block_number","block_type","stimulus_displayed","responses","question_order","math_correct_answer","stimulus_left","stimulus_right"
"[{""page_index"":0,""viewing_time"":20058.46999993082}]","20058.774999924935","instructions","0","20059","0.0-0.0","SS1618435644461","","","","","","","","","","","","","","","","",""
"[{""page_index"":0,""viewing_time"":10982.485000044107},{""page_index"":1,""viewing_time"":5209.3699999386445}]","16192.084999987856","instructions","1","38253","0.0-1.0","SS1618435644461","instructions","","","","","","","","","","","","","","","",""
"","4906.284999917261","sequential-stimulus-presentation-old","2","43662","0.0-2.0","SS1618435644461","","","40","500","5406.284999917261","null","null","self_paced","","","","","","","","",""
"","4154.3499999679625","sequential-stimulus-presentation-old","3","48319","0.0-3.0","SS1618435644461","","","40","500","4654.3499999679625","null","null","self_paced","","","","","","","","",""
"[{""page_index"":0,""viewing_time"":20559.76999993436}]","20560.014999937266","instructions","4","68880","0.0-4.0","SS1618435644461","instructions","","","","","","","","","","","","","","","",""
"","1900.980000034906","sequential-stimulus-presentation-old","5","75784","0.0-5.0","SS1618435644461","","","40","500","2400.980000034906","null","null","forced_long","","","","","","","","",""
"","1899.7250000247732","sequential-stimulus-presentation-old","6","77736","0.0-6.0","SS1618435644461","","","40","50","1949.7250000247732","null","null","forced_long","","","","","","","","",""
"[{""page_index"":0,""viewing_time"":3037.235000054352}]","3037.4900000169873","instructions","7","80775","0.0-7.0","SS1618435644461","instructions","","","","","","","","","","","","","","","",""
"[{""page_index"":0,""viewing_time"":5551.229999982752},{""page_index"":1,""viewing_time"":5161.3049999577925},{""page_index"":2,""viewing_time"":1578.0750000849366},{""page_index"":3,""viewing_time"":1584.1099999379367},{""page_index"":4,""viewing_time"":879.090000060387}]","14754.019999993034","instructions","8","95529","0.0-8.0","SS1618435644461","instructions","","","","","","","","","","","","","","","",""
"","null","html-keyboard-response","9","96339","0.0-9.0-0.0","SS1618435644461","","","null","","","","","","<p><img src= images/blank.png width =""600"" height = ""600"" style=""position:fixed;top:50%; left:50%; transform: translate(-50%, -50%); border:5px solid black"">","","","","","","","",""
"","1052.750000031665","sequential-stimulus-presentation-old","10","102394","0.0-9.0-1.0","SS1618435644461","trial","","40","500","1552.750000031665","images/stimuli/spore_stims/complex_07_A_b.gif","images/stimuli/spore_stims/complex_12_A_a.gif","forced_long","","0","complex_dissimilar","images/stimuli/spore_stims/complex_12_A_a.gif","","","","",""
"","null","html-keyboard-response","11","103414","0.0-9.0-0.1","SS1618435644461","","","null","","","","","","<p><img src= images/blank.png width =""600"" height = ""600"" style=""position:fixed;top:50%; left:50%; transform: translate(-50%, -50%); border:5px solid black"">","","","","","","","",""
"","3692.299999995157","sequential-stimulus-presentation-old","12","107610","0.0-9.0-1.1","SS1618435644461","trial","","40","500","4192.299999995157","images/stimuli/spore_stims/complex_07_A_b.gif","images/stimuli/spore_stims/complex_12_A_a.gif","forced_long","","0","complex_dissimilar","images/stimuli/spore_stims/complex_12_A_a.gif","","","","",""
"","null","html-keyboard-response","13","108418","0.0-9.0-0.2","SS1618435644461","","","null","","","","","","<p><img src= images/blank.png width =""600"" height = ""600"" style=""position:fixed;top:50%; left:50%; transform: translate(-50%, -50%); border:5px solid black"">","","","","","","","",""
"","1040.2599999215454","sequential-stimulus-presentation-old","14","109962","0.0-9.0-1.2","SS1618435644461","trial","","40","500","1540.2599999215454","images/stimuli/spore_stims/complex_07_A_b.gif","images/stimuli/spore_stims/complex_12_A_a.gif","forced_long","","0","complex_dissimilar","images/stimuli/spore_stims/complex_12_A_a.gif","","","","",""
"","null","html-keyboard-response","15","111120","0.0-9.0-0.3","SS1618435644461","","","null","","","","","","<p><img src= images/blank.png width =""600"" height = ""600"" style=""position:fixed;top:50%; left:50%; transform: translate(-50%, -50%); border:5px solid black"">","","","","","","","",""
"","683.530000038445","sequential-stimulus-presentation-old","16","112306","0.0-9.0-1.3","SS1618435644461","trial","","40","500","1183.530000038445","images/stimuli/spore_stims/complex_07_A_b.gif","images/stimuli/spore_stims/complex_12_A_a.gif","forced_long","","0","complex_dissimilar","images/stimuli/spore_stims/complex_12_A_a.gif","","","","",""
"","3160.6949999695644","survey-multi-choice","17","115469","0.0-10.0","SS1618435644461","math_question","","","","","","","","","","","","{""Q0"":""12""}","[0]","12","",""
"","null","html-keyboard-response","18","116605","0.0-11.0-0.0","SS1618435644461","","","null","","","","","","<p><img src= images/blank.png width =""600"" height = ""600"" style=""position:fixed;top:50%; left:50%; transform: translate(-50%, -50%); border:5px solid black"">","","","","","","","",""
"","1439.6249999990687","sequential-stimulus-presentation-old","19","118098","0.0-11.0-1.0","SS1618435644461","trial","","40","500","1939.6249999990687","images/stimuli/spore_stims/complex_11_A_a.gif","images/stimuli/spore_stims/complex_13_A_b.gif","forced_short","","1","complex_dissimilar","images/stimuli/spore_stims/complex_13_A_b.gif","","","","",""
"","null","html-keyboard-response","20","118938","0.0-11.0-0.1","SS1618435644461","","","null","","","","","","<p><img src= images/blank.png width =""600"" height = ""600"" style=""position:fixed;top:50%; left:50%; transform: translate(-50%, -50%); border:5px solid black"">","","","","","","","",""
"","4103.639999986626","sequential-stimulus-presentation-old","21","123547","0.0-11.0-1.1","SS1618435644461","trial","","40","500","4603.639999986626","images/stimuli/spore_stims/complex_11_A_a.gif","images/stimuli/spore_stims/complex_13_A_b.gif","forced_short","","1","complex_dissimilar","images/stimuli/spore_stims/complex_13_A_b.gif","","","","",""
"","null","html-keyboard-response","22","124772","0.0-11.0-0.2","SS1618435644461","","","null","","","","","","<p><img src= images/blank.png width =""600"" height = ""600"" style=""position:fixed;top:50%; left:50%; transform: translate(-50%, -50%); border:5px solid black"">","","","","","","","",""
"","927.8299999423325","sequential-stimulus-presentation-old","23","126204","0.0-11.0-1.2","SS1618435644461","trial","","40","500","1427.8299999423325","images/stimuli/spore_stims/complex_11_A_a.gif","images/stimuli/spore_stims/complex_13_A_b.gif","forced_short","","1","complex_dissimilar","images/stimuli/spore_stims/complex_13_A_b.gif","","","","",""
"","null","html-keyboard-response","24","127091","0.0-11.0-0.3","SS1618435644461","","","null","","","","","","<p><img src= images/blank.png width =""600"" height = ""600"" style=""position:fixed;top:50%; left:50%; transform: translate(-50%, -50%); border:5px solid black"">","","","","","","","",""
"","1208.8500000536442","sequential-stimulus-presentation-old","25","128803","0.0-11.0-1.3","SS1618435644461","trial","","40","500","1708.8500000536442","images/stimuli/spore_stims/complex_11_A_a.gif","images/stimuli/spore_stims/complex_13_A_b.gif","forced_short","","1","complex_dissimilar","images/stimuli/spore_stims/complex_13_A_b.gif","","","","",""
"","2519.659999990836","survey-multi-choice","26","131325","0.0-12.0","SS1618435644461","math_question","","","","","","","","","","","","{""Q0"":""16""}","[0]","16","",""
"","null","html-keyboard-response","27","132523","0.0-13.0-0.0","SS1618435644461","","","null","","","","","","<p><img src= images/blank.png width =""600"" height = ""600"" style=""position:fixed;top:50%; left:50%; transform: translate(-50%, -50%); border:5px solid black"">","","","","","","","",""
"","1546.970000024885","sequential-stimulus-presentation-old","28","134123","0.0-13.0-1.0","SS1618435644461","trial","","40","500","2046.970000024885","images/stimuli/spore_stims/complex_02_A_a.gif","images/stimuli/spore_stims/complex_20_A_b.gif","forced_short","","2","complex_dissimilar","images/stimuli/spore_stims/complex_20_A_b.gif","","","","",""
"","null","html-keyboard-response","29","135175","0.0-13.0-0.1","SS1618435644461","","","null","","","","","","<p><img src= images/blank.png width =""600"" height = ""600"" style=""position:fixed;top:50%; left:50%; transform: translate(-50%, -50%); border:5px solid black"">","","","","","","","",""
"","1869.5600000210106","sequential-stimulus-presentation-old","30","137549","0.0-13.0-1.1","SS1618435644461","trial","","40","500","2369.5600000210106","images/stimuli/spore_stims/complex_02_A_a.gif","images/stimuli/spore_stims/complex_20_A_b.gif","forced_short","","2","complex_dissimilar","images/stimuli/spore_stims/complex_20_A_b.gif","","","","",""
"","null","html-keyboard-response","31","138826","0.0-13.0-0.2","SS1618435644461","","","null","","","","","","<p><img src= images/blank.png width =""600"" height = ""600"" style=""position:fixed;top:50%; left:50%; transform: translate(-50%, -50%); border:5px solid black"">","","","","","","","",""
"","954.5950000174344","sequential-stimulus-presentation-old","32","140284","0.0-13.0-1.2","SS1618435644461","trial","","40","500","1454.5950000174344","images/stimuli/spore_stims/complex_02_A_a.gif","images/stimuli/spore_stims/complex_20_A_b.gif","forced_short","","2","complex_dissimilar","images/stimuli/spore_stims/complex_20_A_b.gif","","","","",""
"","null","html-keyboard-response","33","141217","0.0-13.0-0.3","SS1618435644461","","","null","","","","","","<p><img src= images/blank.png width =""600"" height = ""600"" style=""position:fixed;top:50%; left:50%; transform: translate(-50%, -50%); border:5px solid black"">","","","","","","","",""
"","356.5599999856204","sequential-stimulus-presentation-old","34","142076","0.0-13.0-1.3","SS1618435644461","trial","","40","500","856.5599999856204","images/stimuli/spore_stims/complex_02_A_a.gif","images/stimuli/spore_stims/complex_20_A_b.gif","forced_short","","2","complex_dissimilar","images/stimuli/spore_stims/complex_20_A_b.gif","","","","",""
"","null","html-keyboard-response","35","143308","0.0-13.0-0.4","SS1618435644461","","","null","","","","","","<p><img src= images/blank.png width =""600"" height = ""600"" style=""position:fixed;top:50%; left:50%; transform: translate(-50%, -50%); border:5px solid black"">","","","","","","","",""
"","1176.3749999227002","sequential-stimulus-presentation-old","36","144988","0.0-13.0-1.4","SS1618435644461","trial","","40","500","1676.3749999227002","images/stimuli/spore_stims/complex_02_A_a.gif","images/stimuli/spore_stims/complex_20_A_b.gif","forced_short","","2","complex_dissimilar","images/stimuli/spore_stims/complex_20_A_b.gif","","","","",""
"","2206.4299999037758","survey-multi-choice","37","147197","0.0-14.0","SS1618435644461","math_question","","","","","","","","","","","","{""Q0"":""2""}","[0]","2","",""
"","null","html-keyboard-response","38","148398","0.0-15.0-0.0","SS1618435644461","","","null","","","","","","<p><img src= images/blank.png width =""600"" height = ""600"" style=""position:fixed;top:50%; left:50%; transform: translate(-50%, -50%); border:5px solid black"">","","","","","","","",""
"","833.1849999958649","sequential-stimulus-presentation-old","39","149285","0.0-15.0-1.0","SS1618435644461","trial","","40","500","1333.184999995865","images/stimuli/spore_stims/simple_05_A_b.gif","images/stimuli/spore_stims/simple_14_A_a.gif","forced_short","","3","simple_dissimilar","images/stimuli/spore_stims/simple_14_A_a.gif","","","","",""
"","null","html-keyboard-response","40","150358","0.0-15.0-0.1","SS1618435644461","","","null","","","","","","<p><img src= images/blank.png width =""600"" height = ""600"" style=""position:fixed;top:50%; left:50%; transform: translate(-50%, -50%); border:5px solid black"">","","","","","","","",""
"","920.6349999876693","sequential-stimulus-presentation-old","41","151782","0.0-15.0-1.1","SS1618435644461","trial","","40","500","1420.6349999876693","images/stimuli/spore_stims/simple_05_A_b.gif","images/stimuli/spore_stims/simple_14_A_a.gif","forced_short","","3","simple_dissimilar","images/stimuli/spore_stims/simple_05_A_b.gif","","","","",""
"","null","html-keyboard-response","42","152843","0.0-15.0-0.2","SS1618435644461","","","null","","","","","","<p><img src= images/blank.png width =""600"" height = ""600"" style=""position:fixed;top:50%; left:50%; transform: translate(-50%, -50%); border:5px solid black"">","","","","","","","",""
"","1514.4399999408051","sequential-stimulus-presentation-old","43","154861","0.0-15.0-1.2","SS1618435644461","trial","","40","500","2014.4399999408051","images/stimuli/spore_stims/simple_05_A_b.gif","images/stimuli/spore_stims/simple_14_A_a.gif","forced_short","","3","simple_dissimilar","images/stimuli/spore_stims/simple_14_A_a.gif","","","","",""
"","null","html-keyboard-response","44","155802","0.0-15.0-0.3","SS1618435644461","","","null","","","","","","<p><img src= images/blank.png width =""600"" height = ""600"" style=""position:fixed;top:50%; left:50%; transform: translate(-50%, -50%); border:5px solid black"">","","","","","","","",""
"","497.7450000587851","sequential-stimulus-presentation-old","45","156805","0.0-15.0-1.3","SS1618435644461","trial","","40","500","997.7450000587851","images/stimuli/spore_stims/simple_05_A_b.gif","images/stimuli/spore_stims/simple_14_A_a.gif","forced_short","","3","simple_dissimilar","images/stimuli/spore_stims/simple_14_A_a.gif","","","","",""
"","2248.924999963492","survey-multi-choice","46","159056","0.0-16.0","SS1618435644461","math_question","","","","","","","","","","","","{""Q0"":""10""}","[0]","10","",""
"","null","html-keyboard-response","47","159992","0.0-17.0-0.0","SS1618435644461","","","null","","","","","","<p><img src= images/blank.png width =""600"" height = ""600"" style=""position:fixed;top:50%; left:50%; transform: translate(-50%, -50%); border:5px solid black"">","","","","","","","",""
"","1941.259999992326","sequential-stimulus-presentation-old","48","162438","0.0-17.0-1.0","SS1618435644461","trial","","40","500","2441.259999992326","images/stimuli/spore_stims/complex_03_A_a.gif","images/stimuli/spore_stims/complex_16_A_b.gif","self_paced","","4","complex_dissimilar","images/stimuli/spore_stims/complex_16_A_b.gif","","","","",""
"","null","html-keyboard-response","49","163267","0.0-17.0-0.1","SS1618435644461","","","null","","","","","","<p><img src= images/blank.png width =""600"" height = ""600"" style=""position:fixed;top:50%; left:50%; transform: translate(-50%, -50%); border:5px solid black"">","","","","","","","",""
"","1266.0799999721348","sequential-stimulus-presentation-old","50","165037","0.0-17.0-1.1","SS1618435644461","trial","","40","500","1766.0799999721348","images/stimuli/spore_stims/complex_03_A_a.gif","images/stimuli/spore_stims/complex_16_A_b.gif","self_paced","","4","complex_dissimilar","images/stimuli/spore_stims/complex_16_A_b.gif","","","","",""
"","null","html-keyboard-response","51","165971","0.0-17.0-0.2","SS1618435644461","","","null","","","","","","<p><img src= images/blank.png width =""600"" height = ""600"" style=""position:fixed;top:50%; left:50%; transform: translate(-50%, -50%); border:5px solid black"">","","","","","","","",""
"","458.6600000038743","sequential-stimulus-presentation-old","52","166935","0.0-17.0-1.2","SS1618435644461","trial","","40","500","958.6600000038743","images/stimuli/spore_stims/complex_03_A_a.gif","images/stimuli/spore_stims/complex_16_A_b.gif","self_paced","","4","complex_dissimilar","images/stimuli/spore_stims/complex_16_A_b.gif","","","","",""
"","null","html-keyboard-response","53","167940","0.0-17.0-0.3","SS1618435644461","","","null","","","","","","<p><img src= images/blank.png width =""600"" height = ""600"" style=""position:fixed;top:50%; left:50%; transform: translate(-50%, -50%); border:5px solid black"">","","","","","","","",""
"","2145.974999992177","sequential-stimulus-presentation-old","54","170590","0.0-17.0-1.3","SS1618435644461","trial","","40","500","2645.974999992177","images/stimuli/spore_stims/complex_03_A_a.gif","images/stimuli/spore_stims/complex_16_A_b.gif","self_paced","","4","complex_dissimilar","images/stimuli/spore_stims/complex_03_A_a.gif","","","","",""
"","null","html-keyboard-response","55","171784","0.0-17.0-0.4","SS1618435644461","","","null","","","","","","<p><img src= images/blank.png width =""600"" height = ""600"" style=""position:fixed;top:50%; left:50%; transform: translate(-50%, -50%); border:5px solid black"">","","","","","","","",""
"","638.0300000309944","sequential-stimulus-presentation-old","56","172927","0.0-17.0-1.4","SS1618435644461","trial","","40","500","1138.0300000309944","images/stimuli/spore_stims/complex_03_A_a.gif","images/stimuli/spore_stims/complex_16_A_b.gif","self_paced","","4","complex_dissimilar","images/stimuli/spore_stims/complex_16_A_b.gif","","","","",""
"","null","html-keyboard-response","57","173830","0.0-17.0-0.5","SS1618435644461","","","null","","","","","","<p><img src= images/blank.png width =""600"" height = ""600"" style=""position:fixed;top:50%; left:50%; transform: translate(-50%, -50%); border:5px solid black"">","","","","","","","",""
"","287.77500009164214","sequential-stimulus-presentation-old","58","174622","0.0-17.0-1.5","SS1618435644461","trial","","40","500","787.7750000916421","images/stimuli/spore_stims/complex_03_A_a.gif","images/stimuli/spore_stims/complex_16_A_b.gif","self_paced","","4","complex_dissimilar","images/stimuli/spore_stims/complex_16_A_b.gif","","","","",""
"","1935.715000028722","survey-multi-choice","59","176560","0.0-18.0","SS1618435644461","math_question","","","","","","","","","","","","{""Q0"":""7""}","[0]","7","",""
"","null","html-keyboard-response","60","177633","0.0-19.0-0.0","SS1618435644461","","","null","","","","","","<p><img src= images/blank.png width =""600"" height = ""600"" style=""position:fixed;top:50%; left:50%; transform: translate(-50%, -50%); border:5px solid black"">","","","","","","","",""
"","1388.0600000265986","sequential-stimulus-presentation-old","61","179526","0.0-19.0-1.0","SS1618435644461","trial","","40","500","1888.0600000265986","images/stimuli/spore_stims/complex_19_A_b.gif","images/stimuli/spore_stims/complex_20_A_a.gif","self_paced","","5","complex_dissimilar","images/stimuli/spore_stims/complex_20_A_a.gif","","","","",""
"","null","html-keyboard-response","62","180495","0.0-19.0-0.1","SS1618435644461","","","null","","","","","","<p><img src= images/blank.png width =""600"" height = ""600"" style=""position:fixed;top:50%; left:50%; transform: translate(-50%, -50%); border:5px solid black"">","","","","","","","",""
"","2031.375000020489","sequential-stimulus-presentation-old","63","183031","0.0-19.0-1.1","SS1618435644461","trial","","40","500","2531.375000020489","images/stimuli/spore_stims/complex_19_A_b.gif","images/stimuli/spore_stims/complex_20_A_a.gif","self_paced","","5","complex_dissimilar","images/stimuli/spore_stims/complex_19_A_b.gif","","","","",""
"","null","html-keyboard-response","64","184158","0.0-19.0-0.2","SS1618435644461","","","null","","","","","","<p><img src= images/blank.png width =""600"" height = ""600"" style=""position:fixed;top:50%; left:50%; transform: translate(-50%, -50%); border:5px solid black"">","","","","","","","",""
"","687.4649999663234","sequential-stimulus-presentation-old","65","185350","0.0-19.0-1.2","SS1618435644461","trial","","40","500","1187.4649999663234","images/stimuli/spore_stims/complex_19_A_b.gif","images/stimuli/spore_stims/complex_20_A_a.gif","self_paced","","5","complex_dissimilar","images/stimuli/spore_stims/complex_20_A_a.gif","","","","",""
"","null","html-keyboard-response","66","186553","0.0-19.0-0.3","SS1618435644461","","","null","","","","","","<p><img src= images/blank.png width =""600"" height = ""600"" style=""position:fixed;top:50%; left:50%; transform: translate(-50%, -50%); border:5px solid black"">","","","","","","","",""
"","284.40999996382743","sequential-stimulus-presentation-old","67","187342","0.0-19.0-1.3","SS1618435644461","trial","","40","500","784.4099999638274","images/stimuli/spore_stims/complex_19_A_b.gif","images/stimuli/spore_stims/complex_20_A_a.gif","self_paced","","5","complex_dissimilar","images/stimuli/spore_stims/complex_20_A_a.gif","","","","",""
"","null","html-keyboard-response","68","188221","0.0-19.0-0.4","SS1618435644461","","","null","","","","","","<p><img src= images/blank.png width =""600"" height = ""600"" style=""position:fixed;top:50%; left:50%; transform: translate(-50%, -50%); border:5px solid black"">","","","","","","","",""
"","543.6650000046939","sequential-stimulus-presentation-old","69","189270","0.0-19.0-1.4","SS1618435644461","trial","","40","500","1043.6650000046939","images/stimuli/spore_stims/complex_19_A_b.gif","images/stimuli/spore_stims/complex_20_A_a.gif","self_paced","","5","complex_dissimilar","images/stimuli/spore_stims/complex_19_A_b.gif","","","","",""
"","2605.4250000743195","survey-multi-choice","70","191879","0.0-20.0","SS1618435644461","math_question","","","","","","","","","","","","{""Q0"":""13""}","[0]","13","",""
"","null","html-keyboard-response","71","193162","0.0-21.0-0.0","SS1618435644461","","","null","","","","","","<p><img src= images/blank.png width =""600"" height = ""600"" style=""position:fixed;top:50%; left:50%; transform: translate(-50%, -50%); border:5px solid black"">","","","","","","","",""
"","484.96499995235354","sequential-stimulus-presentation-old","72","194151","0.0-21.0-1.0","SS1618435644461","trial","","40","500","984.9649999523535","images/stimuli/spore_stims/simple_13_A_a.gif","images/stimuli/spore_stims/simple_19_A_b.gif","self_paced","","6","simple_dissimilar","images/stimuli/spore_stims/simple_19_A_b.gif","","","","",""
"","null","html-keyboard-response","73","195383","0.0-21.0-0.1","SS1618435644461","","","null","","","","","","<p><img src= images/blank.png width =""600"" height = ""600"" style=""position:fixed;top:50%; left:50%; transform: translate(-50%, -50%); border:5px solid black"">","","","","","","","",""
"","333.8199999416247","sequential-stimulus-presentation-old","74","196223","0.0-21.0-1.1","SS1618435644461","trial","","40","500","833.8199999416247","images/stimuli/spore_stims/simple_13_A_a.gif","images/stimuli/spore_stims/simple_19_A_b.gif","self_paced","","6","simple_dissimilar","images/stimuli/spore_stims/simple_13_A_a.gif","","","","",""
"","null","html-keyboard-response","75","197368","0.0-21.0-0.2","SS1618435644461","","","null","","","","","","<p><img src= images/blank.png width =""600"" height = ""600"" style=""position:fixed;top:50%; left:50%; transform: translate(-50%, -50%); border:5px solid black"">","","","","","","","",""
"","117.38499999046326","sequential-stimulus-presentation-old","76","197991","0.0-21.0-1.2","SS1618435644461","trial","","40","500","617.3849999904633","images/stimuli/spore_stims/simple_13_A_a.gif","images/stimuli/spore_stims/simple_19_A_b.gif","self_paced","","6","simple_dissimilar","images/stimuli/spore_stims/simple_19_A_b.gif","","","","",""
"","null","html-keyboard-response","77","199250","0.0-21.0-0.3","SS1618435644461","","","null","","","","","","<p><img src= images/blank.png width =""600"" height = ""600"" style=""position:fixed;top:50%; left:50%; transform: translate(-50%, -50%); border:5px solid black"">","","","","","","","",""
"","1131.0450000455603","sequential-stimulus-presentation-old","78","200887","0.0-21.0-1.3","SS1618435644461","trial","","40","500","1631.0450000455603","images/stimuli/spore_stims/simple_13_A_a.gif","images/stimuli/spore_stims/simple_19_A_b.gif","self_paced","","6","simple_dissimilar","images/stimuli/spore_stims/simple_19_A_b.gif","","","","",""
"","null","html-keyboard-response","79","201886","0.0-21.0-0.4","SS1618435644461","","","null","","","","","","<p><img src= images/blank.png width =""600"" height = ""600"" style=""position:fixed;top:50%; left:50%; transform: translate(-50%, -50%); border:5px solid black"">","","","","","","","",""
"","344.2100000102073","sequential-stimulus-presentation-old","80","202735","0.0-21.0-1.4","SS1618435644461","trial","","40","500","844.2100000102073","images/stimuli/spore_stims/simple_13_A_a.gif","images/stimuli/spore_stims/simple_19_A_b.gif","self_paced","","6","simple_dissimilar","images/stimuli/spore_stims/simple_13_A_a.gif","","","","",""
"","2199.625000008382","survey-multi-choice","81","204938","0.0-22.0","SS1618435644461","math_question","","","","","","","","","","","","{""Q0"":""14""}","[0]","14","",""
"","null","html-keyboard-response","82","206075","0.0-23.0-0.0","SS1618435644461","","","null","","","","","","<p><img src= images/blank.png width =""600"" height = ""600"" style=""position:fixed;top:50%; left:50%; transform: translate(-50%, -50%); border:5px solid black"">","","","","","","","",""
"","435.0199999753386","sequential-stimulus-presentation-old","83","211515","0.0-23.0-1.0","SS1618435644461","trial","","40","500","935.0199999753386","images/stimuli/spore_stims/complex_06_A_b.gif","images/stimuli/spore_stims/complex_08_A_a.gif","forced_long","","7","complex_dissimilar","images/stimuli/spore_stims/complex_08_A_a.gif","","","","",""
"","null","html-keyboard-response","84","212773","0.0-23.0-0.1","SS1618435644461","","","null","","","","","","<p><img src= images/blank.png width =""600"" height = ""600"" style=""position:fixed;top:50%; left:50%; transform: translate(-50%, -50%); border:5px solid black"">","","","","","","","",""
"","3370.3649999806657","sequential-stimulus-presentation-old","85","216649","0.0-23.0-1.1","SS1618435644461","trial","","40","500","3870.3649999806657","images/stimuli/spore_stims/complex_06_A_b.gif","images/stimuli/spore_stims/complex_08_A_a.gif","forced_long","","7","complex_dissimilar","images/stimuli/spore_stims/complex_06_A_b.gif","","","","",""
"","null","html-keyboard-response","86","217751","0.0-23.0-0.2","SS1618435644461","","","null","","","","","","<p><img src= images/blank.png width =""600"" height = ""600"" style=""position:fixed;top:50%; left:50%; transform: translate(-50%, -50%); border:5px solid black"">","","","","","","","",""
"","687.5199999194592","sequential-stimulus-presentation-old","87","218944","0.0-23.0-1.2","SS1618435644461","trial","","40","500","1187.5199999194592","images/stimuli/spore_stims/complex_06_A_b.gif","images/stimuli/spore_stims/complex_08_A_a.gif","forced_long","","7","complex_dissimilar","images/stimuli/spore_stims/complex_08_A_a.gif","","","","",""
"","null","html-keyboard-response","88","219853","0.0-23.0-0.3","SS1618435644461","","","null","","","","","","<p><img src= images/blank.png width =""600"" height = ""600"" style=""position:fixed;top:50%; left:50%; transform: translate(-50%, -50%); border:5px solid black"">","","","","","","","",""
"","362.2049998957664","sequential-stimulus-presentation-old","89","220720","0.0-23.0-1.3","SS1618435644461","trial","","40","500","862.2049998957664","images/stimuli/spore_stims/complex_06_A_b.gif","images/stimuli/spore_stims/complex_08_A_a.gif","forced_long","","7","complex_dissimilar","images/stimuli/spore_stims/complex_08_A_a.gif","","","","",""
"","null","html-keyboard-response","90","221917","0.0-23.0-0.4","SS1618435644461","","","null","","","","","","<p><img src= images/blank.png width =""600"" height = ""600"" style=""position:fixed;top:50%; left:50%; transform: translate(-50%, -50%); border:5px solid black"">","","","","","","","",""
"","1240.9500000067055","sequential-stimulus-presentation-old","91","223664","0.0-23.0-1.4","SS1618435644461","trial","","40","500","1740.9500000067055","images/stimuli/spore_stims/complex_06_A_b.gif","images/stimuli/spore_stims/complex_08_A_a.gif","forced_long","","7","complex_dissimilar","images/stimuli/spore_stims/complex_06_A_b.gif","","","","",""
"","2034.2950000194833","survey-multi-choice","92","225703","0.0-24.0","SS1618435644461","math_question","","","","","","","","","","","","{""Q0"":""5""}","[0]","5","",""
"","null","html-keyboard-response","93","226997","0.0-25.0-0.0","SS1618435644461","","","null","","","","","","<p><img src= images/blank.png width =""600"" height = ""600"" style=""position:fixed;top:50%; left:50%; transform: translate(-50%, -50%); border:5px solid black"">","","","","","","","",""
"","514.0850000316277","sequential-stimulus-presentation-old","94","228017","0.0-25.0-1.0","SS1618435644461","trial","","40","500","1014.0850000316277","images/stimuli/spore_stims/simple_08_A_b.gif","images/stimuli/spore_stims/simple_20_A_a.gif","self_paced","","8","simple_dissimilar","images/stimuli/spore_stims/simple_20_A_a.gif","","","","",""
"","null","html-keyboard-response","95","229149","0.0-25.0-0.1","SS1618435644461","","","null","","","","","","<p><img src= images/blank.png width =""600"" height = ""600"" style=""position:fixed;top:50%; left:50%; transform: translate(-50%, -50%); border:5px solid black"">","","","","","","","",""
"","794.0050000324845","sequential-stimulus-presentation-old","96","230448","0.0-25.0-1.1","SS1618435644461","trial","","40","500","1294.0050000324845","images/stimuli/spore_stims/simple_08_A_b.gif","images/stimuli/spore_stims/simple_20_A_a.gif","self_paced","","8","simple_dissimilar","images/stimuli/spore_stims/simple_20_A_a.gif","","","","",""
"","null","html-keyboard-response","97","231577","0.0-25.0-0.2","SS1618435644461","","","null","","","","","","<p><img src= images/blank.png width =""600"" height = ""600"" style=""position:fixed;top:50%; left:50%; transform: translate(-50%, -50%); border:5px solid black"">","","","","","","","",""
"","2766.1499999230728","sequential-stimulus-presentation-old","98","234849","0.0-25.0-1.2","SS1618435644461","trial","","40","500","3266.1499999230728","images/stimuli/spore_stims/simple_08_A_b.gif","images/stimuli/spore_stims/simple_20_A_a.gif","self_paced","","8","simple_dissimilar","images/stimuli/spore_stims/simple_20_A_a.gif","","","","",""
"","null","html-keyboard-response","99","236099","0.0-25.0-0.3","SS1618435644461","","","null","","","","","","<p><img src= images/blank.png width =""600"" height = ""600"" style=""position:fixed;top:50%; left:50%; transform: translate(-50%, -50%); border:5px solid black"">","","","","","","","",""
"","282.755000051111","sequential-stimulus-presentation-old","100","236889","0.0-25.0-1.3","SS1618435644461","trial","","40","500","782.755000051111","images/stimuli/spore_stims/simple_08_A_b.gif","images/stimuli/spore_stims/simple_20_A_a.gif","self_paced","","8","simple_dissimilar","images/stimuli/spore_stims/simple_08_A_b.gif","","","","",""
"","null","html-keyboard-response","101","237864","0.0-25.0-0.4","SS1618435644461","","","null","","","","","","<p><img src= images/blank.png width =""600"" height = ""600"" style=""position:fixed;top:50%; left:50%; transform: translate(-50%, -50%); border:5px solid black"">","","","","","","","",""
"","383.1400000490248","sequential-stimulus-presentation-old","102","238754","0.0-25.0-1.4","SS1618435644461","trial","","40","500","883.1400000490248","images/stimuli/spore_stims/simple_08_A_b.gif","images/stimuli/spore_stims/simple_20_A_a.gif","self_paced","","8","simple_dissimilar","images/stimuli/spore_stims/simple_20_A_a.gif","","","","",""
"","null","html-keyboard-response","103","239739","0.0-25.0-0.5","SS1618435644461","","","null","","","","","","<p><img src= images/blank.png width =""600"" height = ""600"" style=""position:fixed;top:50%; left:50%; transform: translate(-50%, -50%); border:5px solid black"">","","","","","","","",""
"","596.819999977015","sequential-stimulus-presentation-old","104","240841","0.0-25.0-1.5","SS1618435644461","trial","","40","500","1096.819999977015","images/stimuli/spore_stims/simple_08_A_b.gif","images/stimuli/spore_stims/simple_20_A_a.gif","self_paced","","8","simple_dissimilar","images/stimuli/spore_stims/simple_08_A_b.gif","","","","",""
"","2251.1849999427795","survey-multi-choice","105","243097","0.0-26.0","SS1618435644461","math_question","","","","","","","","","","","","{""Q0"":""13""}","[0]","13","",""
"","null","html-keyboard-response","106","244309","0.0-27.0-0.0","SS1618435644461","","","null","","","","","","<p><img src= images/blank.png width =""600"" height = ""600"" style=""position:fixed;top:50%; left:50%; transform: translate(-50%, -50%); border:5px solid black"">","","","","","","","",""
"","391.2049999926239","sequential-stimulus-presentation-old","107","249706","0.0-27.0-1.0","SS1618435644461","trial","","40","500","891.2049999926239","images/stimuli/spore_stims/simple_08_A_a.gif","images/stimuli/spore_stims/simple_01_A_b.gif","forced_long","","9","simple_dissimilar","images/stimuli/spore_stims/simple_01_A_b.gif","","","","",""
"","null","html-keyboard-response","108","250819","0.0-27.0-0.1","SS1618435644461","","","null","","","","","","<p><img src= images/blank.png width =""600"" height = ""600"" style=""position:fixed;top:50%; left:50%; transform: translate(-50%, -50%); border:5px solid black"">","","","","","","","",""
"","532.0349999237806","sequential-stimulus-presentation-old","109","251857","0.0-27.0-1.1","SS1618435644461","trial","","40","500","1032.0349999237806","images/stimuli/spore_stims/simple_08_A_a.gif","images/stimuli/spore_stims/simple_01_A_b.gif","forced_long","","9","simple_dissimilar","images/stimuli/spore_stims/simple_01_A_b.gif","","","","",""
"","null","html-keyboard-response","110","253041","0.0-27.0-0.2","SS1618435644461","","","null","","","","","","<p><img src= images/blank.png width =""600"" height = ""600"" style=""position:fixed;top:50%; left:50%; transform: translate(-50%, -50%); border:5px solid black"">","","","","","","","",""
"","1134.944999939762","sequential-stimulus-presentation-old","111","254682","0.0-27.0-1.2","SS1618435644461","trial","","40","500","1634.944999939762","images/stimuli/spore_stims/simple_08_A_a.gif","images/stimuli/spore_stims/simple_01_A_b.gif","forced_long","","9","simple_dissimilar","images/stimuli/spore_stims/simple_08_A_a.gif","","","","",""
"","null","html-keyboard-response","112","255559","0.0-27.0-0.3","SS1618435644461","","","null","","","","","","<p><img src= images/blank.png width =""600"" height = ""600"" style=""position:fixed;top:50%; left:50%; transform: translate(-50%, -50%); border:5px solid black"">","","","","","","","",""
"","376.3800000306219","sequential-stimulus-presentation-old","113","256442","0.0-27.0-1.3","SS1618435644461","trial","","40","500","876.3800000306219","images/stimuli/spore_stims/simple_08_A_a.gif","images/stimuli/spore_stims/simple_01_A_b.gif","forced_long","","9","simple_dissimilar","images/stimuli/spore_stims/simple_08_A_a.gif","","","","",""
"","null","html-keyboard-response","114","257346","0.0-27.0-0.4","SS1618435644461","","","null","","","","","","<p><img src= images/blank.png width =""600"" height = ""600"" style=""position:fixed;top:50%; left:50%; transform: translate(-50%, -50%); border:5px solid black"">","","","","","","","",""
"","445.48500003293157","sequential-stimulus-presentation-old","115","258298","0.0-27.0-1.4","SS1618435644461","trial","","40","500","945.4850000329316","images/stimuli/spore_stims/simple_08_A_a.gif","images/stimuli/spore_stims/simple_01_A_b.gif","forced_long","","9","simple_dissimilar","images/stimuli/spore_stims/simple_01_A_b.gif","","","","",""
"","1906.4999999245629","survey-multi-choice","116","260209","0.0-28.0","SS1618435644461","math_question","","","","","","","","","","","","{""Q0"":""7""}","[0]","7","",""
"","null","html-keyboard-response","117","261251","0.0-29.0-0.0","SS1618435644461","","","null","","","","","","<p><img src= images/blank.png width =""600"" height = ""600"" style=""position:fixed;top:50%; left:50%; transform: translate(-50%, -50%); border:5px solid black"">","","","","","","","",""
"","321.55500003136694","sequential-stimulus-presentation-old","118","266578","0.0-29.0-1.0","SS1618435644461","trial","","40","500","821.555000031367","images/stimuli/spore_stims/simple_07_A_a.gif","images/stimuli/spore_stims/simple_04_A_b.gif","forced_long","","10","simple_dissimilar","images/stimuli/spore_stims/simple_04_A_b.gif","","","","",""
"","null","html-keyboard-response","119","267486","0.0-29.0-0.1","SS1618435644461","","","null","","","","","","<p><img src= images/blank.png width =""600"" height = ""600"" style=""position:fixed;top:50%; left:50%; transform: translate(-50%, -50%); border:5px solid black"">","","","","","","","",""
"","98.01499999593943","sequential-stimulus-presentation-old","120","268091","0.0-29.0-1.1","SS1618435644461","trial","","40","500","598.0149999959394","images/stimuli/spore_stims/simple_07_A_a.gif","images/stimuli/spore_stims/simple_04_A_b.gif","forced_long","","10","simple_dissimilar","images/stimuli/spore_stims/simple_04_A_b.gif","","","","",""
"","null","html-keyboard-response","121","269117","0.0-29.0-0.2","SS1618435644461","","","null","","","","","","<p><img src= images/blank.png width =""600"" height = ""600"" style=""position:fixed;top:50%; left:50%; transform: translate(-50%, -50%); border:5px solid black"">","","","","","","","",""
"","91.2700000917539","sequential-stimulus-presentation-old","122","269714","0.0-29.0-1.2","SS1618435644461","trial","","40","500","591.2700000917539","images/stimuli/spore_stims/simple_07_A_a.gif","images/stimuli/spore_stims/simple_04_A_b.gif","forced_long","","10","simple_dissimilar","images/stimuli/spore_stims/simple_07_A_a.gif","","","","",""
"","null","html-keyboard-response","123","270629","0.0-29.0-0.3","SS1618435644461","","","null","","","","","","<p><img src= images/blank.png width =""600"" height = ""600"" style=""position:fixed;top:50%; left:50%; transform: translate(-50%, -50%); border:5px solid black"">","","","","","","","",""
"","3.440000000409782","sequential-stimulus-presentation-old","124","271139","0.0-29.0-1.3","SS1618435644461","trial","","40","500","503.4400000004098","images/stimuli/spore_stims/simple_07_A_a.gif","images/stimuli/spore_stims/simple_04_A_b.gif","forced_long","","10","simple_dissimilar","images/stimuli/spore_stims/simple_07_A_a.gif","","","","",""
"","null","html-keyboard-response","125","272000","0.0-29.0-0.4","SS1618435644461","","","null","","","","","","<p><img src= images/blank.png width =""600"" height = ""600"" style=""position:fixed;top:50%; left:50%; transform: translate(-50%, -50%); border:5px solid black"">","","","","","","","",""
"","631.7350000608712","sequential-stimulus-presentation-old","126","273139","0.0-29.0-1.4","SS1618435644461","trial","","40","500","1131.7350000608712","images/stimuli/spore_stims/simple_07_A_a.gif","images/stimuli/spore_stims/simple_04_A_b.gif","forced_long","","10","simple_dissimilar","images/stimuli/spore_stims/simple_04_A_b.gif","","","","",""
"","1794.1550000105053","survey-multi-choice","127","274938","0.0-30.0","SS1618435644461","math_question","","","","","","","","","","","","{""Q0"":""8""}","[0]","8","",""
"","null","html-keyboard-response","128","276174","0.0-31.0-0.0","SS1618435644461","","","null","","","","","","<p><img src= images/blank.png width =""600"" height = ""600"" style=""position:fixed;top:50%; left:50%; transform: translate(-50%, -50%); border:5px solid black"">","","","","","","","",""
"","691.8200000654906","sequential-stimulus-presentation-old","129","276923","0.0-31.0-1.0","SS1618435644461","trial","","40","500","1191.8200000654906","images/stimuli/spore_stims/simple_17_A_b.gif","images/stimuli/spore_stims/simple_16_A_a.gif","forced_short","","11","simple_dissimilar","images/stimuli/spore_stims/simple_16_A_a.gif","","","","",""
"","null","html-keyboard-response","130","278222","0.0-31.0-0.1","SS1618435644461","","","null","","","","","","<p><img src= images/blank.png width =""600"" height = ""600"" style=""position:fixed;top:50%; left:50%; transform: translate(-50%, -50%); border:5px solid black"">","","","","","","","",""
"","880.959999980405","sequential-stimulus-presentation-old","131","279611","0.0-31.0-1.1","SS1618435644461","trial","","40","500","1380.959999980405","images/stimuli/spore_stims/simple_17_A_b.gif","images/stimuli/spore_stims/simple_16_A_a.gif","forced_short","","11","simple_dissimilar","images/stimuli/spore_stims/simple_16_A_a.gif","","","","",""
"","null","html-keyboard-response","132","280490","0.0-31.0-0.2","SS1618435644461","","","null","","","","","","<p><img src= images/blank.png width =""600"" height = ""600"" style=""position:fixed;top:50%; left:50%; transform: translate(-50%, -50%); border:5px solid black"">","","","","","","","",""
"","70.79499994870275","sequential-stimulus-presentation-old","133","281067","0.0-31.0-1.2","SS1618435644461","trial","","40","500","570.7949999487028","images/stimuli/spore_stims/simple_17_A_b.gif","images/stimuli/spore_stims/simple_16_A_a.gif","forced_short","","11","simple_dissimilar","images/stimuli/spore_stims/simple_16_A_a.gif","","","","",""
"","null","html-keyboard-response","134","282196","0.0-31.0-0.3","SS1618435644461","","","null","","","","","","<p><img src= images/blank.png width =""600"" height = ""600"" style=""position:fixed;top:50%; left:50%; transform: translate(-50%, -50%); border:5px solid black"">","","","","","","","",""
"","701.1650000931695","sequential-stimulus-presentation-old","135","283404","0.0-31.0-1.3","SS1618435644461","trial","","40","500","1201.1650000931695","images/stimuli/spore_stims/simple_17_A_b.gif","images/stimuli/spore_stims/simple_16_A_a.gif","forced_short","","11","simple_dissimilar","images/stimuli/spore_stims/simple_17_A_b.gif","","","","",""
"","null","html-keyboard-response","136","284270","0.0-31.0-0.4","SS1618435644461","","","null","","","","","","<p><img src= images/blank.png width =""600"" height = ""600"" style=""position:fixed;top:50%; left:50%; transform: translate(-50%, -50%); border:5px solid black"">","","","","","","","",""
"","282.9399999463931","sequential-stimulus-presentation-old","137","285059","0.0-31.0-1.4","SS1618435644461","trial","","40","500","782.9399999463931","images/stimuli/spore_stims/simple_17_A_b.gif","images/stimuli/spore_stims/simple_16_A_a.gif","forced_short","","11","simple_dissimilar","images/stimuli/spore_stims/simple_16_A_a.gif","","","","",""
"","null","html-keyboard-response","138","286093","0.0-31.0-0.5","SS1618435644461","","","null","","","","","","<p><img src= images/blank.png width =""600"" height = ""600"" style=""position:fixed;top:50%; left:50%; transform: translate(-50%, -50%); border:5px solid black"">","","","","","","","",""
"","666.4899999741465","sequential-stimulus-presentation-old","139","287267","0.0-31.0-1.5","SS1618435644461","trial","","40","500","1166.4899999741465","images/stimuli/spore_stims/simple_17_A_b.gif","images/stimuli/spore_stims/simple_16_A_a.gif","forced_short","","11","simple_dissimilar","images/stimuli/spore_stims/simple_16_A_a.gif","","","","",""
"[{""page_index"":0,""viewing_time"":3883.9200000511482}]","3884.1600000159815","instructions","140","291157","0.0-32.0","SS1618435644461","instructions","","","","","","","","","","","","","","","",""
"","6762.224999954924","survey-likert","141","297926","0.0-33.0","SS1618435644461","similarity_question","","","","","","","","","","","","{""Q0"":2}","[0]","","images/stimuli/spore_stims/complex_07_A_b.gif","images/stimuli/spore_stims/complex_12_A_a.gif"
"","5172.164999996312","survey-likert","142","303105","0.0-34.0","SS1618435644461","similarity_question","","","","","","","","","","","","{""Q0"":4}","[0]","","images/stimuli/spore_stims/simple_01_A_b.gif","images/stimuli/spore_stims/simple_08_A_a.gif"
"","5037.735000019893","survey-likert","143","308149","0.0-35.0","SS1618435644461","similarity_question","","","","","","","","","","","","{""Q0"":2}","[0]","","images/stimuli/spore_stims/simple_07_A_a.gif","images/stimuli/spore_stims/simple_04_A_b.gif"
"","4837.485000025481","survey-likert","144","312994","0.0-36.0","SS1618435644461","similarity_question","","","","","","","","","","","","{""Q0"":2}","[0]","","images/stimuli/spore_stims/complex_02_A_a.gif","images/stimuli/spore_stims/complex_20_A_b.gif"
"","2652.254999964498","survey-likert","145","315653","0.0-37.0","SS1618435644461","similarity_question","","","","","","","","","","","","{""Q0"":5}","[0]","","images/stimuli/spore_stims/simple_19_A_b.gif","images/stimuli/spore_stims/simple_13_A_a.gif"
"","6647.735000005923","survey-likert","146","322307","0.0-38.0","SS1618435644461","similarity_question","","","","","","","","","","","","{""Q0"":3}","[0]","","images/stimuli/spore_stims/complex_19_A_b.gif","images/stimuli/spore_stims/complex_20_A_a.gif"
"","2634.235000004992","survey-likert","147","324948","0.0-39.0","SS1618435644461","similarity_question","","","","","","","","","","","","{""Q0"":4}","[0]","","images/stimuli/spore_stims/complex_08_A_a.gif","images/stimuli/spore_stims/complex_06_A_b.gif"
"","2161.2899999599904","survey-likert","148","327116","0.0-40.0","SS1618435644461","similarity_question","","","","","","","","","","","","{""Q0"":4}","[0]","","images/stimuli/spore_stims/simple_17_A_b.gif","images/stimuli/spore_stims/simple_16_A_a.gif"
"","2055.240000016056","survey-likert","149","329179","0.0-41.0","SS1618435644461","similarity_question","","","","","","","","","","","","{""Q0"":5}","[0]","","images/stimuli/spore_stims/simple_20_A_a.gif","images/stimuli/spore_stims/simple_08_A_b.gif"
"","1419.9749999679625","survey-likert","150","330606","0.0-42.0","SS1618435644461","similarity_question","","","","","","","","","","","","{""Q0"":4}","[0]","","images/stimuli/spore_stims/simple_14_A_a.gif","images/stimuli/spore_stims/simple_05_A_b.gif"
"","2489.2649999819696","survey-likert","151","333102","0.0-43.0","SS1618435644461","similarity_question","","","","","","","","","","","","{""Q0"":1}","[0]","","images/stimuli/spore_stims/complex_13_A_b.gif","images/stimuli/spore_stims/complex_11_A_a.gif"
"","2057.6400000136346","survey-likert","152","335170","0.0-44.0","SS1618435644461","similarity_question","","","","","","","","","","","","{""Q0"":1}","[0]","","images/stimuli/spore_stims/complex_16_A_b.gif","images/stimuli/spore_stims/complex_03_A_a.gif"
"[{""page_index"":0,""viewing_time"":2921.114999917336}]","2921.4049999136478","instructions","153","338098","0.0-45.0","SS1618435644461","instructions","","","","","","","","","","","","","","","",""
"","2364.0400000149384","survey-likert","154","340471","0.0-46.0","SS1618435644461","","","","","","","","","images/stimuli/spore_stims/simple_07_A_a.gif","","","","{""Q0"":0}","[0]","","",""
"","3832.950000069104","survey-likert","155","344311","0.0-47.0","SS1618435644461","","","","","","","","","images/stimuli/spore_stims/complex_20_A_b.gif","","","","{""Q0"":5}","[0]","","",""
"","2834.0799999423325","survey-likert","156","347153","0.0-48.0","SS1618435644461","","","","","","","","","images/stimuli/spore_stims/simple_05_A_b.gif","","","","{""Q0"":0}","[0]","","",""
"","2264.0400000382215","survey-likert","157","349424","0.0-49.0","SS1618435644461","","","","","","","","","images/stimuli/spore_stims/complex_16_A_b.gif","","","","{""Q0"":4}","[0]","","",""
"","1575.9450000477955","survey-likert","158","351007","0.0-50.0","SS1618435644461","","","","","","","","","images/stimuli/spore_stims/complex_19_A_b.gif","","","","{""Q0"":4}","[0]","","",""
"","3628.0450000194833","survey-likert","159","354642","0.0-51.0","SS1618435644461","","","","","","","","","images/stimuli/spore_stims/complex_12_A_a.gif","","","","{""Q0"":5}","[0]","","",""
"","2252.019999898039","survey-likert","160","356901","0.0-52.0","SS1618435644461","","","","","","","","","images/stimuli/spore_stims/simple_17_A_b.gif","","","","{""Q0"":0}","[0]","","",""
"","1547.9099999647588","survey-likert","161","358456","0.0-53.0","SS1618435644461","","","","","","","","","images/stimuli/spore_stims/simple_08_A_b.gif","","","","{""Q0"":0}","[0]","","",""
"","1462.69499999471","survey-likert","162","359926","0.0-54.0","SS1618435644461","","","","","","","","","images/stimuli/spore_stims/simple_13_A_a.gif","","","","{""Q0"":0}","[0]","","",""
"","2776.854999945499","survey-likert","163","362711","0.0-55.0","SS1618435644461","","","","","","","","","images/stimuli/spore_stims/complex_13_A_b.gif","","","","{""Q0"":4}","[0]","","",""
"","2071.5249999193475","survey-likert","164","364790","0.0-56.0","SS1618435644461","","","","","","","","","images/stimuli/spore_stims/complex_08_A_a.gif","","","","{""Q0"":5}","[0]","","",""
"","1457.8050000127405","survey-likert","165","366255","0.0-57.0","SS1618435644461","","","","","","","","","images/stimuli/spore_stims/simple_08_A_a.gif","","","","{""Q0"":0}","[0]","","",""
"[{""page_index"":0,""viewing_time"":1520.8199999760836}]","1521.0499999811873","instructions","166","367783","0.0-58.0","SS1618435644461","instructions","","","","","","","","","","","","","","","",""
"","2083.354999893345","demog-age","167","369874","0.0-59.0","SS1618435644461","","","","","","","","","","","","","{""age"":""19""}","","","",""
"","1640.5050000175834","demog-ethnic-US","168","371524","0.0-60.0","SS1618435644461","","","","","","","","","","","","","{""ethnicity"":[""White""]}","[0]","","",""
"","3030.1350000081584","demog-gender-and-education","169","374562","0.0-61.0","SS1618435644461","","","","","","","","","","","","","{""gender"":""Male"",""education"":""High school diploma""}","[0,1]","","",""
"","15182.024999987334","survey-text","170","389752","0.0-62.0","SS1618435644461","feedback","","","","","","","","","","","","{""Q0"":""No issues, ur very kind btw""}","","","",""
"[{""page_index"":0,""viewing_time"":1627.764999982901}]","1627.985000028275","instructions","171","391387","0.0-63.0","SS1618435644461","instructions","","","","","","","","","","","","","","","",""
