"view_history","rt","trial_type","trial_index","time_elapsed","internal_node_id","subject","stimulus_type","trial_stimulus","key_press","minimum_viewing_duration","trial_looking_time","block_deviant","block_background","exposure_type","stimulus","block_number","block_type","stimulus_displayed","responses","question_order","math_correct_answer","stimulus_left","stimulus_right"
"[{""page_index"":0,""viewing_time"":20991}]","20991","instructions","0","20993","0.0-0.0","SS1618365620193","","","","","","","","","","","","","","","","",""
"[{""page_index"":0,""viewing_time"":24349},{""page_index"":1,""viewing_time"":25256}]","49605","instructions","1","72602","0.0-1.0","SS1618365620193","instructions","","","","","","","","","","","","","","","",""
"","8043","sequential-stimulus-presentation-old","2","81150","0.0-2.0","SS1618365620193","","","40","500","8543","null","null","self_paced","","","","","","","","",""
"","9467","sequential-stimulus-presentation-old","3","91118","0.0-3.0","SS1618365620193","","","40","500","9967","null","null","self_paced","","","","","","","","",""
"[{""page_index"":0,""viewing_time"":18037}]","18037","instructions","4","109156","0.0-4.0","SS1618365620193","instructions","","","","","","","","","","","","","","","",""
"","4575","sequential-stimulus-presentation-old","5","118737","0.0-5.0","SS1618365620193","","","40","500","5075","null","null","forced_long","","","","","","","","",""
"","4100","sequential-stimulus-presentation-old","6","122897","0.0-6.0","SS1618365620193","","","40","50","4150","null","null","forced_long","","","","","","","","",""
"[{""page_index"":0,""viewing_time"":42651}]","42652","instructions","7","165550","0.0-7.0","SS1618365620193","instructions","","","","","","","","","","","","","","","",""
"[{""page_index"":0,""viewing_time"":7897},{""page_index"":1,""viewing_time"":8584},{""page_index"":2,""viewing_time"":5568},{""page_index"":3,""viewing_time"":2194},{""page_index"":4,""viewing_time"":4060}]","28303","instructions","8","193854","0.0-8.0","SS1618365620193","instructions","","","","","","","","","","","","","","","",""
"","null","html-keyboard-response","9","194680","0.0-9.0-0.0","SS1618365620193","","","null","","","","","","<p><img src= images/blank.png width =""600"" height = ""600"" style=""position:fixed;top:50%; left:50%; transform: translate(-50%, -50%); border:5px solid black"">","","","","","","","",""
"","9336","sequential-stimulus-presentation-old","10","204529","0.0-9.0-1.0","SS1618365620193","trial","","40","500","9836","images/stimuli/spore_stims/complex_20_A_b.gif","images/stimuli/spore_stims/complex_16_A_a.gif","self_paced","","0","complex_dissimilar","images/stimuli/spore_stims/complex_16_A_a.gif","","","","",""
"","null","html-keyboard-response","11","205530","0.0-9.0-0.1","SS1618365620193","","","null","","","","","","<p><img src= images/blank.png width =""600"" height = ""600"" style=""position:fixed;top:50%; left:50%; transform: translate(-50%, -50%); border:5px solid black"">","","","","","","","",""
"","9725","sequential-stimulus-presentation-old","12","215769","0.0-9.0-1.1","SS1618365620193","trial","","40","500","10225","images/stimuli/spore_stims/complex_20_A_b.gif","images/stimuli/spore_stims/complex_16_A_a.gif","self_paced","","0","complex_dissimilar","images/stimuli/spore_stims/complex_16_A_a.gif","","","","",""
"","null","html-keyboard-response","13","216802","0.0-9.0-0.2","SS1618365620193","","","null","","","","","","<p><img src= images/blank.png width =""600"" height = ""600"" style=""position:fixed;top:50%; left:50%; transform: translate(-50%, -50%); border:5px solid black"">","","","","","","","",""
"","9408","sequential-stimulus-presentation-old","14","226723","0.0-9.0-1.2","SS1618365620193","trial","","40","500","9908","images/stimuli/spore_stims/complex_20_A_b.gif","images/stimuli/spore_stims/complex_16_A_a.gif","self_paced","","0","complex_dissimilar","images/stimuli/spore_stims/complex_16_A_a.gif","","","","",""
"","null","html-keyboard-response","15","228028","0.0-9.0-0.3","SS1618365620193","","","null","","","","","","<p><img src= images/blank.png width =""600"" height = ""600"" style=""position:fixed;top:50%; left:50%; transform: translate(-50%, -50%); border:5px solid black"">","","","","","","","",""
"","21827","sequential-stimulus-presentation-old","16","250370","0.0-9.0-1.3","SS1618365620193","trial","","40","500","22327","images/stimuli/spore_stims/complex_20_A_b.gif","images/stimuli/spore_stims/complex_16_A_a.gif","self_paced","","0","complex_dissimilar","images/stimuli/spore_stims/complex_16_A_a.gif","","","","",""
"","null","html-keyboard-response","17","251431","0.0-9.0-0.4","SS1618365620193","","","null","","","","","","<p><img src= images/blank.png width =""600"" height = ""600"" style=""position:fixed;top:50%; left:50%; transform: translate(-50%, -50%); border:5px solid black"">","","","","","","","",""
"","10350","sequential-stimulus-presentation-old","18","262299","0.0-9.0-1.4","SS1618365620193","trial","","40","500","10850","images/stimuli/spore_stims/complex_20_A_b.gif","images/stimuli/spore_stims/complex_16_A_a.gif","self_paced","","0","complex_dissimilar","images/stimuli/spore_stims/complex_16_A_a.gif","","","","",""
"","null","html-keyboard-response","19","263190","0.0-9.0-0.5","SS1618365620193","","","null","","","","","","<p><img src= images/blank.png width =""600"" height = ""600"" style=""position:fixed;top:50%; left:50%; transform: translate(-50%, -50%); border:5px solid black"">","","","","","","","",""
"","10926","sequential-stimulus-presentation-old","20","274631","0.0-9.0-1.5","SS1618365620193","trial","","40","500","11426","images/stimuli/spore_stims/complex_20_A_b.gif","images/stimuli/spore_stims/complex_16_A_a.gif","self_paced","","0","complex_dissimilar","images/stimuli/spore_stims/complex_16_A_a.gif","","","","",""
"","4275","survey-multi-choice","21","278910","0.0-10.0","SS1618365620193","math_question","","","","","","","","","","","","{""Q0"":""12""}","[0]","12","",""
"","null","html-keyboard-response","22","280073","0.0-11.0-0.0","SS1618365620193","","","null","","","","","","<p><img src= images/blank.png width =""600"" height = ""600"" style=""position:fixed;top:50%; left:50%; transform: translate(-50%, -50%); border:5px solid black"">","","","","","","","",""
"","1696","sequential-stimulus-presentation-old","23","286785","0.0-11.0-1.0","SS1618365620193","trial","","40","500","2196","images/stimuli/spore_stims/complex_12_A_b.gif","images/stimuli/spore_stims/complex_04_A_a.gif","forced_long","","1","complex_dissimilar","images/stimuli/spore_stims/complex_04_A_a.gif","","","","",""
"","null","html-keyboard-response","24","287660","0.0-11.0-0.1","SS1618365620193","","","null","","","","","","<p><img src= images/blank.png width =""600"" height = ""600"" style=""position:fixed;top:50%; left:50%; transform: translate(-50%, -50%); border:5px solid black"">","","","","","","","",""
"","9193","sequential-stimulus-presentation-old","25","297366","0.0-11.0-1.1","SS1618365620193","trial","","40","500","9693","images/stimuli/spore_stims/complex_12_A_b.gif","images/stimuli/spore_stims/complex_04_A_a.gif","forced_long","","1","complex_dissimilar","images/stimuli/spore_stims/complex_12_A_b.gif","","","","",""
"","null","html-keyboard-response","26","298529","0.0-11.0-0.2","SS1618365620193","","","null","","","","","","<p><img src= images/blank.png width =""600"" height = ""600"" style=""position:fixed;top:50%; left:50%; transform: translate(-50%, -50%); border:5px solid black"">","","","","","","","",""
"","5665","sequential-stimulus-presentation-old","27","304703","0.0-11.0-1.2","SS1618365620193","trial","","40","500","6165","images/stimuli/spore_stims/complex_12_A_b.gif","images/stimuli/spore_stims/complex_04_A_a.gif","forced_long","","1","complex_dissimilar","images/stimuli/spore_stims/complex_04_A_a.gif","","","","",""
"","null","html-keyboard-response","28","305540","0.0-11.0-0.3","SS1618365620193","","","null","","","","","","<p><img src= images/blank.png width =""600"" height = ""600"" style=""position:fixed;top:50%; left:50%; transform: translate(-50%, -50%); border:5px solid black"">","","","","","","","",""
"","6712","sequential-stimulus-presentation-old","29","312762","0.0-11.0-1.3","SS1618365620193","trial","","40","500","7212","images/stimuli/spore_stims/complex_12_A_b.gif","images/stimuli/spore_stims/complex_04_A_a.gif","forced_long","","1","complex_dissimilar","images/stimuli/spore_stims/complex_04_A_a.gif","","","","",""
"","null","html-keyboard-response","30","313727","0.0-11.0-0.4","SS1618365620193","","","null","","","","","","<p><img src= images/blank.png width =""600"" height = ""600"" style=""position:fixed;top:50%; left:50%; transform: translate(-50%, -50%); border:5px solid black"">","","","","","","","",""
"","8077","sequential-stimulus-presentation-old","31","322318","0.0-11.0-1.4","SS1618365620193","trial","","40","500","8577","images/stimuli/spore_stims/complex_12_A_b.gif","images/stimuli/spore_stims/complex_04_A_a.gif","forced_long","","1","complex_dissimilar","images/stimuli/spore_stims/complex_04_A_a.gif","","","","",""
"","null","html-keyboard-response","32","323559","0.0-11.0-0.5","SS1618365620193","","","null","","","","","","<p><img src= images/blank.png width =""600"" height = ""600"" style=""position:fixed;top:50%; left:50%; transform: translate(-50%, -50%); border:5px solid black"">","","","","","","","",""
"","4346","sequential-stimulus-presentation-old","33","328417","0.0-11.0-1.5","SS1618365620193","trial","","40","500","4846","images/stimuli/spore_stims/complex_12_A_b.gif","images/stimuli/spore_stims/complex_04_A_a.gif","forced_long","","1","complex_dissimilar","images/stimuli/spore_stims/complex_04_A_a.gif","","","","",""
"","4183","survey-multi-choice","34","332601","0.0-12.0","SS1618365620193","math_question","","","","","","","","","","","","{""Q0"":""5""}","[0]","5","",""
"","null","html-keyboard-response","35","333835","0.0-13.0-0.0","SS1618365620193","","","null","","","","","","<p><img src= images/blank.png width =""600"" height = ""600"" style=""position:fixed;top:50%; left:50%; transform: translate(-50%, -50%); border:5px solid black"">","","","","","","","",""
"","2061","sequential-stimulus-presentation-old","36","335959","0.0-13.0-1.0","SS1618365620193","trial","","40","500","2561","images/stimuli/spore_stims/complex_09_A_a.gif","images/stimuli/spore_stims/complex_07_A_b.gif","forced_short","","2","complex_dissimilar","images/stimuli/spore_stims/complex_07_A_b.gif","","","","",""
"","null","html-keyboard-response","37","336872","0.0-13.0-0.1","SS1618365620193","","","null","","","","","","<p><img src= images/blank.png width =""600"" height = ""600"" style=""position:fixed;top:50%; left:50%; transform: translate(-50%, -50%); border:5px solid black"">","","","","","","","",""
"","10489","sequential-stimulus-presentation-old","38","347871","0.0-13.0-1.1","SS1618365620193","trial","","40","500","10989","images/stimuli/spore_stims/complex_09_A_a.gif","images/stimuli/spore_stims/complex_07_A_b.gif","forced_short","","2","complex_dissimilar","images/stimuli/spore_stims/complex_07_A_b.gif","","","","",""
"","null","html-keyboard-response","39","349171","0.0-13.0-0.2","SS1618365620193","","","null","","","","","","<p><img src= images/blank.png width =""600"" height = ""600"" style=""position:fixed;top:50%; left:50%; transform: translate(-50%, -50%); border:5px solid black"">","","","","","","","",""
"","8598","sequential-stimulus-presentation-old","40","358275","0.0-13.0-1.2","SS1618365620193","trial","","40","500","9098","images/stimuli/spore_stims/complex_09_A_a.gif","images/stimuli/spore_stims/complex_07_A_b.gif","forced_short","","2","complex_dissimilar","images/stimuli/spore_stims/complex_07_A_b.gif","","","","",""
"","null","html-keyboard-response","41","359378","0.0-13.0-0.3","SS1618365620193","","","null","","","","","","<p><img src= images/blank.png width =""600"" height = ""600"" style=""position:fixed;top:50%; left:50%; transform: translate(-50%, -50%); border:5px solid black"">","","","","","","","",""
"","9357","sequential-stimulus-presentation-old","42","369247","0.0-13.0-1.3","SS1618365620193","trial","","40","500","9857","images/stimuli/spore_stims/complex_09_A_a.gif","images/stimuli/spore_stims/complex_07_A_b.gif","forced_short","","2","complex_dissimilar","images/stimuli/spore_stims/complex_07_A_b.gif","","","","",""
"","null","html-keyboard-response","43","370109","0.0-13.0-0.4","SS1618365620193","","","null","","","","","","<p><img src= images/blank.png width =""600"" height = ""600"" style=""position:fixed;top:50%; left:50%; transform: translate(-50%, -50%); border:5px solid black"">","","","","","","","",""
"","5099","sequential-stimulus-presentation-old","44","375723","0.0-13.0-1.4","SS1618365620193","trial","","40","500","5599","images/stimuli/spore_stims/complex_09_A_a.gif","images/stimuli/spore_stims/complex_07_A_b.gif","forced_short","","2","complex_dissimilar","images/stimuli/spore_stims/complex_07_A_b.gif","","","","",""
"","null","html-keyboard-response","45","376996","0.0-13.0-0.5","SS1618365620193","","","null","","","","","","<p><img src= images/blank.png width =""600"" height = ""600"" style=""position:fixed;top:50%; left:50%; transform: translate(-50%, -50%); border:5px solid black"">","","","","","","","",""
"","9099","sequential-stimulus-presentation-old","46","386606","0.0-13.0-1.5","SS1618365620193","trial","","40","500","9599","images/stimuli/spore_stims/complex_09_A_a.gif","images/stimuli/spore_stims/complex_07_A_b.gif","forced_short","","2","complex_dissimilar","images/stimuli/spore_stims/complex_09_A_a.gif","","","","",""
"","3362","survey-multi-choice","47","389973","0.0-14.0","SS1618365620193","math_question","","","","","","","","","","","","{""Q0"":""11""}","[0]","11","",""
"","null","html-keyboard-response","48","391092","0.0-15.0-0.0","SS1618365620193","","","null","","","","","","<p><img src= images/blank.png width =""600"" height = ""600"" style=""position:fixed;top:50%; left:50%; transform: translate(-50%, -50%); border:5px solid black"">","","","","","","","",""
"","6864","sequential-stimulus-presentation-old","49","398467","0.0-15.0-1.0","SS1618365620193","trial","","40","500","7364","images/stimuli/spore_stims/complex_11_A_b.gif","images/stimuli/spore_stims/complex_17_A_a.gif","self_paced","","3","complex_dissimilar","images/stimuli/spore_stims/complex_17_A_a.gif","","","","",""
"","null","html-keyboard-response","50","399543","0.0-15.0-0.1","SS1618365620193","","","null","","","","","","<p><img src= images/blank.png width =""600"" height = ""600"" style=""position:fixed;top:50%; left:50%; transform: translate(-50%, -50%); border:5px solid black"">","","","","","","","",""
"","9160","sequential-stimulus-presentation-old","51","409216","0.0-15.0-1.1","SS1618365620193","trial","","40","500","9660","images/stimuli/spore_stims/complex_11_A_b.gif","images/stimuli/spore_stims/complex_17_A_a.gif","self_paced","","3","complex_dissimilar","images/stimuli/spore_stims/complex_17_A_a.gif","","","","",""
"","null","html-keyboard-response","52","410395","0.0-15.0-0.2","SS1618365620193","","","null","","","","","","<p><img src= images/blank.png width =""600"" height = ""600"" style=""position:fixed;top:50%; left:50%; transform: translate(-50%, -50%); border:5px solid black"">","","","","","","","",""
"","4401","sequential-stimulus-presentation-old","53","415304","0.0-15.0-1.2","SS1618365620193","trial","","40","500","4901","images/stimuli/spore_stims/complex_11_A_b.gif","images/stimuli/spore_stims/complex_17_A_a.gif","self_paced","","3","complex_dissimilar","images/stimuli/spore_stims/complex_11_A_b.gif","","","","",""
"","null","html-keyboard-response","54","416300","0.0-15.0-0.3","SS1618365620193","","","null","","","","","","<p><img src= images/blank.png width =""600"" height = ""600"" style=""position:fixed;top:50%; left:50%; transform: translate(-50%, -50%); border:5px solid black"">","","","","","","","",""
"","7129","sequential-stimulus-presentation-old","55","423939","0.0-15.0-1.3","SS1618365620193","trial","","40","500","7629","images/stimuli/spore_stims/complex_11_A_b.gif","images/stimuli/spore_stims/complex_17_A_a.gif","self_paced","","3","complex_dissimilar","images/stimuli/spore_stims/complex_11_A_b.gif","","","","",""
"","null","html-keyboard-response","56","424849","0.0-15.0-0.4","SS1618365620193","","","null","","","","","","<p><img src= images/blank.png width =""600"" height = ""600"" style=""position:fixed;top:50%; left:50%; transform: translate(-50%, -50%); border:5px solid black"">","","","","","","","",""
"","6201","sequential-stimulus-presentation-old","57","431561","0.0-15.0-1.4","SS1618365620193","trial","","40","500","6701","images/stimuli/spore_stims/complex_11_A_b.gif","images/stimuli/spore_stims/complex_17_A_a.gif","self_paced","","3","complex_dissimilar","images/stimuli/spore_stims/complex_17_A_a.gif","","","","",""
"","3871","survey-multi-choice","58","435433","0.0-16.0","SS1618365620193","math_question","","","","","","","","","","","","{""Q0"":""3""}","[0]","3","",""
"","null","html-keyboard-response","59","436311","0.0-17.0-0.0","SS1618365620193","","","null","","","","","","<p><img src= images/blank.png width =""600"" height = ""600"" style=""position:fixed;top:50%; left:50%; transform: translate(-50%, -50%); border:5px solid black"">","","","","","","","",""
"","11144","sequential-stimulus-presentation-old","60","447963","0.0-17.0-1.0","SS1618365620193","trial","","40","500","11644","images/stimuli/spore_stims/simple_03_A_a.gif","images/stimuli/spore_stims/simple_11_A_b.gif","self_paced","","4","simple_dissimilar","images/stimuli/spore_stims/simple_11_A_b.gif","","","","",""
"","null","html-keyboard-response","61","449262","0.0-17.0-0.1","SS1618365620193","","","null","","","","","","<p><img src= images/blank.png width =""600"" height = ""600"" style=""position:fixed;top:50%; left:50%; transform: translate(-50%, -50%); border:5px solid black"">","","","","","","","",""
"","13849","sequential-stimulus-presentation-old","62","463621","0.0-17.0-1.1","SS1618365620193","trial","","40","500","14349","images/stimuli/spore_stims/simple_03_A_a.gif","images/stimuli/spore_stims/simple_11_A_b.gif","self_paced","","4","simple_dissimilar","images/stimuli/spore_stims/simple_11_A_b.gif","","","","",""
"","null","html-keyboard-response","63","464473","0.0-17.0-0.2","SS1618365620193","","","null","","","","","","<p><img src= images/blank.png width =""600"" height = ""600"" style=""position:fixed;top:50%; left:50%; transform: translate(-50%, -50%); border:5px solid black"">","","","","","","","",""
"","8754","sequential-stimulus-presentation-old","64","473738","0.0-17.0-1.2","SS1618365620193","trial","","40","500","9254","images/stimuli/spore_stims/simple_03_A_a.gif","images/stimuli/spore_stims/simple_11_A_b.gif","self_paced","","4","simple_dissimilar","images/stimuli/spore_stims/simple_03_A_a.gif","","","","",""
"","null","html-keyboard-response","65","474609","0.0-17.0-0.3","SS1618365620193","","","null","","","","","","<p><img src= images/blank.png width =""600"" height = ""600"" style=""position:fixed;top:50%; left:50%; transform: translate(-50%, -50%); border:5px solid black"">","","","","","","","",""
"","5879","sequential-stimulus-presentation-old","66","480998","0.0-17.0-1.3","SS1618365620193","trial","","40","500","6379","images/stimuli/spore_stims/simple_03_A_a.gif","images/stimuli/spore_stims/simple_11_A_b.gif","self_paced","","4","simple_dissimilar","images/stimuli/spore_stims/simple_11_A_b.gif","","","","",""
"","null","html-keyboard-response","67","482248","0.0-17.0-0.4","SS1618365620193","","","null","","","","","","<p><img src= images/blank.png width =""600"" height = ""600"" style=""position:fixed;top:50%; left:50%; transform: translate(-50%, -50%); border:5px solid black"">","","","","","","","",""
"","6874","sequential-stimulus-presentation-old","68","489633","0.0-17.0-1.4","SS1618365620193","trial","","40","500","7374","images/stimuli/spore_stims/simple_03_A_a.gif","images/stimuli/spore_stims/simple_11_A_b.gif","self_paced","","4","simple_dissimilar","images/stimuli/spore_stims/simple_11_A_b.gif","","","","",""
"","3152","survey-multi-choice","69","492787","0.0-18.0","SS1618365620193","math_question","","","","","","","","","","","","{""Q0"":""14""}","[0]","14","",""
"","null","html-keyboard-response","70","493663","0.0-19.0-0.0","SS1618365620193","","","null","","","","","","<p><img src= images/blank.png width =""600"" height = ""600"" style=""position:fixed;top:50%; left:50%; transform: translate(-50%, -50%); border:5px solid black"">","","","","","","","",""
"","1187","sequential-stimulus-presentation-old","71","499850","0.0-19.0-1.0","SS1618365620193","trial","","40","500","1687","images/stimuli/spore_stims/simple_20_A_b.gif","images/stimuli/spore_stims/simple_09_A_a.gif","forced_long","","5","simple_dissimilar","images/stimuli/spore_stims/simple_09_A_a.gif","","","","",""
"","null","html-keyboard-response","72","500971","0.0-19.0-0.1","SS1618365620193","","","null","","","","","","<p><img src= images/blank.png width =""600"" height = ""600"" style=""position:fixed;top:50%; left:50%; transform: translate(-50%, -50%); border:5px solid black"">","","","","","","","",""
"","12652","sequential-stimulus-presentation-old","73","514132","0.0-19.0-1.1","SS1618365620193","trial","","40","500","13152","images/stimuli/spore_stims/simple_20_A_b.gif","images/stimuli/spore_stims/simple_09_A_a.gif","forced_long","","5","simple_dissimilar","images/stimuli/spore_stims/simple_09_A_a.gif","","","","",""
"","null","html-keyboard-response","74","515300","0.0-19.0-0.2","SS1618365620193","","","null","","","","","","<p><img src= images/blank.png width =""600"" height = ""600"" style=""position:fixed;top:50%; left:50%; transform: translate(-50%, -50%); border:5px solid black"">","","","","","","","",""
"","23757","sequential-stimulus-presentation-old","75","539566","0.0-19.0-1.2","SS1618365620193","trial","","40","500","24257","images/stimuli/spore_stims/simple_20_A_b.gif","images/stimuli/spore_stims/simple_09_A_a.gif","forced_long","","5","simple_dissimilar","images/stimuli/spore_stims/simple_20_A_b.gif","","","","",""
"","null","html-keyboard-response","76","540738","0.0-19.0-0.3","SS1618365620193","","","null","","","","","","<p><img src= images/blank.png width =""600"" height = ""600"" style=""position:fixed;top:50%; left:50%; transform: translate(-50%, -50%); border:5px solid black"">","","","","","","","",""
"","4904","sequential-stimulus-presentation-old","77","546152","0.0-19.0-1.3","SS1618365620193","trial","","40","500","5404","images/stimuli/spore_stims/simple_20_A_b.gif","images/stimuli/spore_stims/simple_09_A_a.gif","forced_long","","5","simple_dissimilar","images/stimuli/spore_stims/simple_09_A_a.gif","","","","",""
"","null","html-keyboard-response","78","547219","0.0-19.0-0.4","SS1618365620193","","","null","","","","","","<p><img src= images/blank.png width =""600"" height = ""600"" style=""position:fixed;top:50%; left:50%; transform: translate(-50%, -50%); border:5px solid black"">","","","","","","","",""
"","3685","sequential-stimulus-presentation-old","79","551414","0.0-19.0-1.4","SS1618365620193","trial","","40","500","4185","images/stimuli/spore_stims/simple_20_A_b.gif","images/stimuli/spore_stims/simple_09_A_a.gif","forced_long","","5","simple_dissimilar","images/stimuli/spore_stims/simple_20_A_b.gif","","","","",""
"","3501","survey-multi-choice","80","554917","0.0-20.0","SS1618365620193","math_question","","","","","","","","","","","","{""Q0"":""6""}","[0]","6","",""
"","null","html-keyboard-response","81","556161","0.0-21.0-0.0","SS1618365620193","","","null","","","","","","<p><img src= images/blank.png width =""600"" height = ""600"" style=""position:fixed;top:50%; left:50%; transform: translate(-50%, -50%); border:5px solid black"">","","","","","","","",""
"","1250","sequential-stimulus-presentation-old","82","557474","0.0-21.0-1.0","SS1618365620193","trial","","40","500","1750","images/stimuli/spore_stims/simple_19_A_a.gif","images/stimuli/spore_stims/simple_06_A_b.gif","forced_short","","6","simple_dissimilar","images/stimuli/spore_stims/simple_06_A_b.gif","","","","",""
"","null","html-keyboard-response","83","558692","0.0-21.0-0.1","SS1618365620193","","","null","","","","","","<p><img src= images/blank.png width =""600"" height = ""600"" style=""position:fixed;top:50%; left:50%; transform: translate(-50%, -50%); border:5px solid black"">","","","","","","","",""
"","13103","sequential-stimulus-presentation-old","84","572308","0.0-21.0-1.1","SS1618365620193","trial","","40","500","13603","images/stimuli/spore_stims/simple_19_A_a.gif","images/stimuli/spore_stims/simple_06_A_b.gif","forced_short","","6","simple_dissimilar","images/stimuli/spore_stims/simple_06_A_b.gif","","","","",""
"","null","html-keyboard-response","85","573299","0.0-21.0-0.2","SS1618365620193","","","null","","","","","","<p><img src= images/blank.png width =""600"" height = ""600"" style=""position:fixed;top:50%; left:50%; transform: translate(-50%, -50%); border:5px solid black"">","","","","","","","",""
"","7123","sequential-stimulus-presentation-old","86","580932","0.0-21.0-1.2","SS1618365620193","trial","","40","500","7623","images/stimuli/spore_stims/simple_19_A_a.gif","images/stimuli/spore_stims/simple_06_A_b.gif","forced_short","","6","simple_dissimilar","images/stimuli/spore_stims/simple_06_A_b.gif","","","","",""
"","null","html-keyboard-response","87","582219","0.0-21.0-0.3","SS1618365620193","","","null","","","","","","<p><img src= images/blank.png width =""600"" height = ""600"" style=""position:fixed;top:50%; left:50%; transform: translate(-50%, -50%); border:5px solid black"">","","","","","","","",""
"","7150","sequential-stimulus-presentation-old","88","589880","0.0-21.0-1.3","SS1618365620193","trial","","40","500","7650","images/stimuli/spore_stims/simple_19_A_a.gif","images/stimuli/spore_stims/simple_06_A_b.gif","forced_short","","6","simple_dissimilar","images/stimuli/spore_stims/simple_19_A_a.gif","","","","",""
"","null","html-keyboard-response","89","590903","0.0-21.0-0.4","SS1618365620193","","","null","","","","","","<p><img src= images/blank.png width =""600"" height = ""600"" style=""position:fixed;top:50%; left:50%; transform: translate(-50%, -50%); border:5px solid black"">","","","","","","","",""
"","5667","sequential-stimulus-presentation-old","90","597080","0.0-21.0-1.4","SS1618365620193","trial","","40","500","6167","images/stimuli/spore_stims/simple_19_A_a.gif","images/stimuli/spore_stims/simple_06_A_b.gif","forced_short","","6","simple_dissimilar","images/stimuli/spore_stims/simple_06_A_b.gif","","","","",""
"","null","html-keyboard-response","91","598081","0.0-21.0-0.5","SS1618365620193","","","null","","","","","","<p><img src= images/blank.png width =""600"" height = ""600"" style=""position:fixed;top:50%; left:50%; transform: translate(-50%, -50%); border:5px solid black"">","","","","","","","",""
"","5981","sequential-stimulus-presentation-old","92","604575","0.0-21.0-1.5","SS1618365620193","trial","","40","500","6481","images/stimuli/spore_stims/simple_19_A_a.gif","images/stimuli/spore_stims/simple_06_A_b.gif","forced_short","","6","simple_dissimilar","images/stimuli/spore_stims/simple_06_A_b.gif","","","","",""
"","3262","survey-multi-choice","93","607839","0.0-22.0","SS1618365620193","math_question","","","","","","","","","","","","{""Q0"":""11""}","[0]","11","",""
"","null","html-keyboard-response","94","609086","0.0-23.0-0.0","SS1618365620193","","","null","","","","","","<p><img src= images/blank.png width =""600"" height = ""600"" style=""position:fixed;top:50%; left:50%; transform: translate(-50%, -50%); border:5px solid black"">","","","","","","","",""
"","1384","sequential-stimulus-presentation-old","95","615484","0.0-23.0-1.0","SS1618365620193","trial","","40","500","1884","images/stimuli/spore_stims/simple_09_A_b.gif","images/stimuli/spore_stims/simple_04_A_a.gif","forced_long","","7","simple_dissimilar","images/stimuli/spore_stims/simple_04_A_a.gif","","","","",""
"","null","html-keyboard-response","96","616643","0.0-23.0-0.1","SS1618365620193","","","null","","","","","","<p><img src= images/blank.png width =""600"" height = ""600"" style=""position:fixed;top:50%; left:50%; transform: translate(-50%, -50%); border:5px solid black"">","","","","","","","",""
"","6615","sequential-stimulus-presentation-old","97","623770","0.0-23.0-1.1","SS1618365620193","trial","","40","500","7115","images/stimuli/spore_stims/simple_09_A_b.gif","images/stimuli/spore_stims/simple_04_A_a.gif","forced_long","","7","simple_dissimilar","images/stimuli/spore_stims/simple_09_A_b.gif","","","","",""
"","null","html-keyboard-response","98","624762","0.0-23.0-0.2","SS1618365620193","","","null","","","","","","<p><img src= images/blank.png width =""600"" height = ""600"" style=""position:fixed;top:50%; left:50%; transform: translate(-50%, -50%); border:5px solid black"">","","","","","","","",""
"","6171","sequential-stimulus-presentation-old","99","631443","0.0-23.0-1.2","SS1618365620193","trial","","40","500","6671","images/stimuli/spore_stims/simple_09_A_b.gif","images/stimuli/spore_stims/simple_04_A_a.gif","forced_long","","7","simple_dissimilar","images/stimuli/spore_stims/simple_04_A_a.gif","","","","",""
"","null","html-keyboard-response","100","632295","0.0-23.0-0.3","SS1618365620193","","","null","","","","","","<p><img src= images/blank.png width =""600"" height = ""600"" style=""position:fixed;top:50%; left:50%; transform: translate(-50%, -50%); border:5px solid black"">","","","","","","","",""
"","31992","sequential-stimulus-presentation-old","101","664798","0.0-23.0-1.3","SS1618365620193","trial","","40","500","32492","images/stimuli/spore_stims/simple_09_A_b.gif","images/stimuli/spore_stims/simple_04_A_a.gif","forced_long","","7","simple_dissimilar","images/stimuli/spore_stims/simple_04_A_a.gif","","","","",""
"","null","html-keyboard-response","102","665938","0.0-23.0-0.4","SS1618365620193","","","null","","","","","","<p><img src= images/blank.png width =""600"" height = ""600"" style=""position:fixed;top:50%; left:50%; transform: translate(-50%, -50%); border:5px solid black"">","","","","","","","",""
"","4699","sequential-stimulus-presentation-old","103","671146","0.0-23.0-1.4","SS1618365620193","trial","","40","500","5199","images/stimuli/spore_stims/simple_09_A_b.gif","images/stimuli/spore_stims/simple_04_A_a.gif","forced_long","","7","simple_dissimilar","images/stimuli/spore_stims/simple_04_A_a.gif","","","","",""
"","5460","survey-multi-choice","104","676609","0.0-24.0","SS1618365620193","math_question","","","","","","","","","","","","{""Q0"":""15""}","[0]","15","",""
"","null","html-keyboard-response","105","677675","0.0-25.0-0.0","SS1618365620193","","","null","","","","","","<p><img src= images/blank.png width =""600"" height = ""600"" style=""position:fixed;top:50%; left:50%; transform: translate(-50%, -50%); border:5px solid black"">","","","","","","","",""
"","4926","sequential-stimulus-presentation-old","106","682663","0.0-25.0-1.0","SS1618365620193","trial","","40","500","5426","images/stimuli/spore_stims/complex_01_A_b.gif","images/stimuli/spore_stims/complex_14_A_a.gif","forced_short","","8","complex_dissimilar","images/stimuli/spore_stims/complex_14_A_a.gif","","","","",""
"","null","html-keyboard-response","107","683647","0.0-25.0-0.1","SS1618365620193","","","null","","","","","","<p><img src= images/blank.png width =""600"" height = ""600"" style=""position:fixed;top:50%; left:50%; transform: translate(-50%, -50%); border:5px solid black"">","","","","","","","",""
"","4520","sequential-stimulus-presentation-old","108","688680","0.0-25.0-1.1","SS1618365620193","trial","","40","500","5020","images/stimuli/spore_stims/complex_01_A_b.gif","images/stimuli/spore_stims/complex_14_A_a.gif","forced_short","","8","complex_dissimilar","images/stimuli/spore_stims/complex_14_A_a.gif","","","","",""
"","null","html-keyboard-response","109","689528","0.0-25.0-0.2","SS1618365620193","","","null","","","","","","<p><img src= images/blank.png width =""600"" height = ""600"" style=""position:fixed;top:50%; left:50%; transform: translate(-50%, -50%); border:5px solid black"">","","","","","","","",""
"","5218","sequential-stimulus-presentation-old","110","695256","0.0-25.0-1.2","SS1618365620193","trial","","40","500","5718","images/stimuli/spore_stims/complex_01_A_b.gif","images/stimuli/spore_stims/complex_14_A_a.gif","forced_short","","8","complex_dissimilar","images/stimuli/spore_stims/complex_14_A_a.gif","","","","",""
"","null","html-keyboard-response","111","696308","0.0-25.0-0.3","SS1618365620193","","","null","","","","","","<p><img src= images/blank.png width =""600"" height = ""600"" style=""position:fixed;top:50%; left:50%; transform: translate(-50%, -50%); border:5px solid black"">","","","","","","","",""
"","4299","sequential-stimulus-presentation-old","112","701114","0.0-25.0-1.3","SS1618365620193","trial","","40","500","4799","images/stimuli/spore_stims/complex_01_A_b.gif","images/stimuli/spore_stims/complex_14_A_a.gif","forced_short","","8","complex_dissimilar","images/stimuli/spore_stims/complex_14_A_a.gif","","","","",""
"","3496","survey-multi-choice","113","704612","0.0-26.0","SS1618365620193","math_question","","","","","","","","","","","","{""Q0"":""10""}","[0]","10","",""
"","null","html-keyboard-response","114","705836","0.0-27.0-0.0","SS1618365620193","","","null","","","","","","<p><img src= images/blank.png width =""600"" height = ""600"" style=""position:fixed;top:50%; left:50%; transform: translate(-50%, -50%); border:5px solid black"">","","","","","","","",""
"","10465","sequential-stimulus-presentation-old","115","721308","0.0-27.0-1.0","SS1618365620193","trial","","40","500","10965","images/stimuli/spore_stims/complex_06_A_a.gif","images/stimuli/spore_stims/complex_02_A_b.gif","forced_long","","9","complex_dissimilar","images/stimuli/spore_stims/complex_02_A_b.gif","","","","",""
"","null","html-keyboard-response","116","722431","0.0-27.0-0.1","SS1618365620193","","","null","","","","","","<p><img src= images/blank.png width =""600"" height = ""600"" style=""position:fixed;top:50%; left:50%; transform: translate(-50%, -50%); border:5px solid black"">","","","","","","","",""
"","4285","sequential-stimulus-presentation-old","117","727226","0.0-27.0-1.1","SS1618365620193","trial","","40","500","4785","images/stimuli/spore_stims/complex_06_A_a.gif","images/stimuli/spore_stims/complex_02_A_b.gif","forced_long","","9","complex_dissimilar","images/stimuli/spore_stims/complex_02_A_b.gif","","","","",""
"","null","html-keyboard-response","118","728077","0.0-27.0-0.2","SS1618365620193","","","null","","","","","","<p><img src= images/blank.png width =""600"" height = ""600"" style=""position:fixed;top:50%; left:50%; transform: translate(-50%, -50%); border:5px solid black"">","","","","","","","",""
"","2610","sequential-stimulus-presentation-old","119","731199","0.0-27.0-1.2","SS1618365620193","trial","","40","500","3110","images/stimuli/spore_stims/complex_06_A_a.gif","images/stimuli/spore_stims/complex_02_A_b.gif","forced_long","","9","complex_dissimilar","images/stimuli/spore_stims/complex_02_A_b.gif","","","","",""
"","null","html-keyboard-response","120","732216","0.0-27.0-0.3","SS1618365620193","","","null","","","","","","<p><img src= images/blank.png width =""600"" height = ""600"" style=""position:fixed;top:50%; left:50%; transform: translate(-50%, -50%); border:5px solid black"">","","","","","","","",""
"","6623","sequential-stimulus-presentation-old","121","739350","0.0-27.0-1.3","SS1618365620193","trial","","40","500","7123","images/stimuli/spore_stims/complex_06_A_a.gif","images/stimuli/spore_stims/complex_02_A_b.gif","forced_long","","9","complex_dissimilar","images/stimuli/spore_stims/complex_02_A_b.gif","","","","",""
"","null","html-keyboard-response","122","740178","0.0-27.0-0.4","SS1618365620193","","","null","","","","","","<p><img src= images/blank.png width =""600"" height = ""600"" style=""position:fixed;top:50%; left:50%; transform: translate(-50%, -50%); border:5px solid black"">","","","","","","","",""
"","3464","sequential-stimulus-presentation-old","123","744151","0.0-27.0-1.4","SS1618365620193","trial","","40","500","3964","images/stimuli/spore_stims/complex_06_A_a.gif","images/stimuli/spore_stims/complex_02_A_b.gif","forced_long","","9","complex_dissimilar","images/stimuli/spore_stims/complex_02_A_b.gif","","","","",""
"","null","html-keyboard-response","124","745041","0.0-27.0-0.5","SS1618365620193","","","null","","","","","","<p><img src= images/blank.png width =""600"" height = ""600"" style=""position:fixed;top:50%; left:50%; transform: translate(-50%, -50%); border:5px solid black"">","","","","","","","",""
"","671","sequential-stimulus-presentation-old","125","746224","0.0-27.0-1.5","SS1618365620193","trial","","40","500","1171","images/stimuli/spore_stims/complex_06_A_a.gif","images/stimuli/spore_stims/complex_02_A_b.gif","forced_long","","9","complex_dissimilar","images/stimuli/spore_stims/complex_02_A_b.gif","","","","",""
"","4717","survey-multi-choice","126","750945","0.0-28.0","SS1618365620193","math_question","","","","","","","","","","","","{""Q0"":""8""}","[0]","8","",""
"","null","html-keyboard-response","127","752065","0.0-29.0-0.0","SS1618365620193","","","null","","","","","","<p><img src= images/blank.png width =""600"" height = ""600"" style=""position:fixed;top:50%; left:50%; transform: translate(-50%, -50%); border:5px solid black"">","","","","","","","",""
"","8476","sequential-stimulus-presentation-old","128","761049","0.0-29.0-1.0","SS1618365620193","trial","","40","500","8976","images/stimuli/spore_stims/simple_17_A_a.gif","images/stimuli/spore_stims/simple_13_A_b.gif","self_paced","","10","simple_dissimilar","images/stimuli/spore_stims/simple_13_A_b.gif","","","","",""
"","null","html-keyboard-response","129","761959","0.0-29.0-0.1","SS1618365620193","","","null","","","","","","<p><img src= images/blank.png width =""600"" height = ""600"" style=""position:fixed;top:50%; left:50%; transform: translate(-50%, -50%); border:5px solid black"">","","","","","","","",""
"","6685","sequential-stimulus-presentation-old","130","769166","0.0-29.0-1.1","SS1618365620193","trial","","40","500","7185","images/stimuli/spore_stims/simple_17_A_a.gif","images/stimuli/spore_stims/simple_13_A_b.gif","self_paced","","10","simple_dissimilar","images/stimuli/spore_stims/simple_13_A_b.gif","","","","",""
"","null","html-keyboard-response","131","770300","0.0-29.0-0.2","SS1618365620193","","","null","","","","","","<p><img src= images/blank.png width =""600"" height = ""600"" style=""position:fixed;top:50%; left:50%; transform: translate(-50%, -50%); border:5px solid black"">","","","","","","","",""
"","5147","sequential-stimulus-presentation-old","132","775959","0.0-29.0-1.2","SS1618365620193","trial","","40","500","5647","images/stimuli/spore_stims/simple_17_A_a.gif","images/stimuli/spore_stims/simple_13_A_b.gif","self_paced","","10","simple_dissimilar","images/stimuli/spore_stims/simple_13_A_b.gif","","","","",""
"","null","html-keyboard-response","133","777164","0.0-29.0-0.3","SS1618365620193","","","null","","","","","","<p><img src= images/blank.png width =""600"" height = ""600"" style=""position:fixed;top:50%; left:50%; transform: translate(-50%, -50%); border:5px solid black"">","","","","","","","",""
"","6407","sequential-stimulus-presentation-old","134","784085","0.0-29.0-1.3","SS1618365620193","trial","","40","500","6907","images/stimuli/spore_stims/simple_17_A_a.gif","images/stimuli/spore_stims/simple_13_A_b.gif","self_paced","","10","simple_dissimilar","images/stimuli/spore_stims/simple_13_A_b.gif","","","","",""
"","null","html-keyboard-response","135","785379","0.0-29.0-0.4","SS1618365620193","","","null","","","","","","<p><img src= images/blank.png width =""600"" height = ""600"" style=""position:fixed;top:50%; left:50%; transform: translate(-50%, -50%); border:5px solid black"">","","","","","","","",""
"","8874","sequential-stimulus-presentation-old","136","794768","0.0-29.0-1.4","SS1618365620193","trial","","40","500","9374","images/stimuli/spore_stims/simple_17_A_a.gif","images/stimuli/spore_stims/simple_13_A_b.gif","self_paced","","10","simple_dissimilar","images/stimuli/spore_stims/simple_17_A_a.gif","","","","",""
"","4022","survey-multi-choice","137","798795","0.0-30.0","SS1618365620193","math_question","","","","","","","","","","","","{""Q0"":""11""}","[0]","11","",""
"","null","html-keyboard-response","138","799764","0.0-31.0-0.0","SS1618365620193","","","null","","","","","","<p><img src= images/blank.png width =""600"" height = ""600"" style=""position:fixed;top:50%; left:50%; transform: translate(-50%, -50%); border:5px solid black"">","","","","","","","",""
"","7730","sequential-stimulus-presentation-old","139","807556","0.0-31.0-1.0","SS1618365620193","trial","","40","500","8230","images/stimuli/spore_stims/simple_19_A_b.gif","images/stimuli/spore_stims/simple_14_A_a.gif","forced_short","","11","simple_dissimilar","images/stimuli/spore_stims/simple_14_A_a.gif","","","","",""
"","null","html-keyboard-response","140","808776","0.0-31.0-0.1","SS1618365620193","","","null","","","","","","<p><img src= images/blank.png width =""600"" height = ""600"" style=""position:fixed;top:50%; left:50%; transform: translate(-50%, -50%); border:5px solid black"">","","","","","","","",""
"","5586","sequential-stimulus-presentation-old","141","814875","0.0-31.0-1.1","SS1618365620193","trial","","40","500","6086","images/stimuli/spore_stims/simple_19_A_b.gif","images/stimuli/spore_stims/simple_14_A_a.gif","forced_short","","11","simple_dissimilar","images/stimuli/spore_stims/simple_14_A_a.gif","","","","",""
"","null","html-keyboard-response","142","816187","0.0-31.0-0.2","SS1618365620193","","","null","","","","","","<p><img src= images/blank.png width =""600"" height = ""600"" style=""position:fixed;top:50%; left:50%; transform: translate(-50%, -50%); border:5px solid black"">","","","","","","","",""
"","4597","sequential-stimulus-presentation-old","143","821297","0.0-31.0-1.2","SS1618365620193","trial","","40","500","5097","images/stimuli/spore_stims/simple_19_A_b.gif","images/stimuli/spore_stims/simple_14_A_a.gif","forced_short","","11","simple_dissimilar","images/stimuli/spore_stims/simple_14_A_a.gif","","","","",""
"","null","html-keyboard-response","144","822501","0.0-31.0-0.3","SS1618365620193","","","null","","","","","","<p><img src= images/blank.png width =""600"" height = ""600"" style=""position:fixed;top:50%; left:50%; transform: translate(-50%, -50%); border:5px solid black"">","","","","","","","",""
"","13536","sequential-stimulus-presentation-old","145","836549","0.0-31.0-1.3","SS1618365620193","trial","","40","500","14036","images/stimuli/spore_stims/simple_19_A_b.gif","images/stimuli/spore_stims/simple_14_A_a.gif","forced_short","","11","simple_dissimilar","images/stimuli/spore_stims/simple_14_A_a.gif","","","","",""
"","null","html-keyboard-response","146","837842","0.0-31.0-0.4","SS1618365620193","","","null","","","","","","<p><img src= images/blank.png width =""600"" height = ""600"" style=""position:fixed;top:50%; left:50%; transform: translate(-50%, -50%); border:5px solid black"">","","","","","","","",""
"","9205","sequential-stimulus-presentation-old","147","847556","0.0-31.0-1.4","SS1618365620193","trial","","40","500","9705","images/stimuli/spore_stims/simple_19_A_b.gif","images/stimuli/spore_stims/simple_14_A_a.gif","forced_short","","11","simple_dissimilar","images/stimuli/spore_stims/simple_19_A_b.gif","","","","",""
"","null","html-keyboard-response","148","848738","0.0-31.0-0.5","SS1618365620193","","","null","","","","","","<p><img src= images/blank.png width =""600"" height = ""600"" style=""position:fixed;top:50%; left:50%; transform: translate(-50%, -50%); border:5px solid black"">","","","","","","","",""
"","12171","sequential-stimulus-presentation-old","149","861422","0.0-31.0-1.5","SS1618365620193","trial","","40","500","12671","images/stimuli/spore_stims/simple_19_A_b.gif","images/stimuli/spore_stims/simple_14_A_a.gif","forced_short","","11","simple_dissimilar","images/stimuli/spore_stims/simple_19_A_b.gif","","","","",""
"[{""page_index"":0,""viewing_time"":9833}]","9833","instructions","150","871262","0.0-32.0","SS1618365620193","instructions","","","","","","","","","","","","","","","",""
"","7748","survey-likert","151","879013","0.0-33.0","SS1618365620193","similarity_question","","","","","","","","","","","","{""Q0"":5}","[0]","","images/stimuli/spore_stims/simple_09_A_b.gif","images/stimuli/spore_stims/simple_04_A_a.gif"
"","6693","survey-likert","152","885710","0.0-34.0","SS1618365620193","similarity_question","","","","","","","","","","","","{""Q0"":0}","[0]","","images/stimuli/spore_stims/simple_19_A_a.gif","images/stimuli/spore_stims/simple_06_A_b.gif"
"","5078","survey-likert","153","890791","0.0-35.0","SS1618365620193","similarity_question","","","","","","","","","","","","{""Q0"":4}","[0]","","images/stimuli/spore_stims/complex_14_A_a.gif","images/stimuli/spore_stims/complex_01_A_b.gif"
"","6138","survey-likert","154","896932","0.0-36.0","SS1618365620193","similarity_question","","","","","","","","","","","","{""Q0"":5}","[0]","","images/stimuli/spore_stims/simple_13_A_b.gif","images/stimuli/spore_stims/simple_17_A_a.gif"
"","5219","survey-likert","155","902154","0.0-37.0","SS1618365620193","similarity_question","","","","","","","","","","","","{""Q0"":2}","[0]","","images/stimuli/spore_stims/complex_09_A_a.gif","images/stimuli/spore_stims/complex_07_A_b.gif"
"","4405","survey-likert","156","906563","0.0-38.0","SS1618365620193","similarity_question","","","","","","","","","","","","{""Q0"":1}","[0]","","images/stimuli/spore_stims/complex_16_A_a.gif","images/stimuli/spore_stims/complex_20_A_b.gif"
"","4057","survey-likert","157","910625","0.0-39.0","SS1618365620193","similarity_question","","","","","","","","","","","","{""Q0"":6}","[0]","","images/stimuli/spore_stims/complex_17_A_a.gif","images/stimuli/spore_stims/complex_11_A_b.gif"
"","34537","survey-likert","158","945166","0.0-40.0","SS1618365620193","similarity_question","","","","","","","","","","","","{""Q0"":4}","[0]","","images/stimuli/spore_stims/simple_09_A_a.gif","images/stimuli/spore_stims/simple_20_A_b.gif"
"","8364","survey-likert","159","953533","0.0-41.0","SS1618365620193","similarity_question","","","","","","","","","","","","{""Q0"":1}","[0]","","images/stimuli/spore_stims/complex_06_A_a.gif","images/stimuli/spore_stims/complex_02_A_b.gif"
"","9909","survey-likert","160","963447","0.0-42.0","SS1618365620193","similarity_question","","","","","","","","","","","","{""Q0"":1}","[0]","","images/stimuli/spore_stims/complex_04_A_a.gif","images/stimuli/spore_stims/complex_12_A_b.gif"
"","5619","survey-likert","161","969068","0.0-43.0","SS1618365620193","similarity_question","","","","","","","","","","","","{""Q0"":5}","[0]","","images/stimuli/spore_stims/simple_19_A_b.gif","images/stimuli/spore_stims/simple_14_A_a.gif"
"","4412","survey-likert","162","973484","0.0-44.0","SS1618365620193","similarity_question","","","","","","","","","","","","{""Q0"":1}","[0]","","images/stimuli/spore_stims/simple_11_A_b.gif","images/stimuli/spore_stims/simple_03_A_a.gif"
"[{""page_index"":0,""viewing_time"":5231}]","5231","instructions","163","978718","0.0-45.0","SS1618365620193","instructions","","","","","","","","","","","","","","","",""
"","4028","survey-likert","164","982749","0.0-46.0","SS1618365620193","","","","","","","","","images/stimuli/spore_stims/complex_01_A_b.gif","","","","{""Q0"":5}","[0]","","",""
"","5004","survey-likert","165","987758","0.0-47.0","SS1618365620193","","","","","","","","","images/stimuli/spore_stims/complex_16_A_a.gif","","","","{""Q0"":6}","[0]","","",""
"","9185","survey-likert","166","996948","0.0-48.0","SS1618365620193","","","","","","","","","images/stimuli/spore_stims/simple_19_A_a.gif","","","","{""Q0"":1}","[0]","","",""
"","2829","survey-likert","167","999781","0.0-49.0","SS1618365620193","","","","","","","","","images/stimuli/spore_stims/simple_17_A_a.gif","","","","{""Q0"":0}","[0]","","",""
"","3071","survey-likert","168","1002857","0.0-50.0","SS1618365620193","","","","","","","","","images/stimuli/spore_stims/simple_20_A_b.gif","","","","{""Q0"":1}","[0]","","",""
"","3814","survey-likert","169","1006675","0.0-51.0","SS1618365620193","","","","","","","","","images/stimuli/spore_stims/complex_09_A_a.gif","","","","{""Q0"":6}","[0]","","",""
"","3093","survey-likert","170","1009771","0.0-52.0","SS1618365620193","","","","","","","","","images/stimuli/spore_stims/complex_02_A_b.gif","","","","{""Q0"":6}","[0]","","",""
"","2630","survey-likert","171","1012405","0.0-53.0","SS1618365620193","","","","","","","","","images/stimuli/spore_stims/simple_14_A_a.gif","","","","{""Q0"":0}","[0]","","",""
"","5131","survey-likert","172","1017541","0.0-54.0","SS1618365620193","","","","","","","","","images/stimuli/spore_stims/simple_03_A_a.gif","","","","{""Q0"":1}","[0]","","",""
"","5445","survey-likert","173","1022991","0.0-55.0","SS1618365620193","","","","","","","","","images/stimuli/spore_stims/simple_09_A_b.gif","","","","{""Q0"":0}","[0]","","",""
"","3346","survey-likert","174","1026341","0.0-56.0","SS1618365620193","","","","","","","","","images/stimuli/spore_stims/complex_17_A_a.gif","","","","{""Q0"":5}","[0]","","",""
"","3495","survey-likert","175","1029840","0.0-57.0","SS1618365620193","","","","","","","","","images/stimuli/spore_stims/complex_12_A_b.gif","","","","{""Q0"":6}","[0]","","",""
"[{""page_index"":0,""viewing_time"":1912}]","1913","instructions","176","1031756","0.0-58.0","SS1618365620193","instructions","","","","","","","","","","","","","","","",""
"","2235","demog-age","177","1033997","0.0-59.0","SS1618365620193","","","","","","","","","","","","","{""age"":""20""}","","","",""
"","2734","demog-ethnic-US","178","1036735","0.0-60.0","SS1618365620193","","","","","","","","","","","","","{""ethnicity"":[""Hispanic or Latino""]}","[0]","","",""
"","11158","demog-gender-and-education","179","1047896","0.0-61.0","SS1618365620193","","","","","","","","","","","","","{""gender"":""Male"",""education"":""High school diploma""}","[0,1]","","",""
"","27240","survey-text","180","1075141","0.0-62.0","SS1618365620193","feedback","","","","","","","","","","","","{""Q0"":""No problems! ""}","","","",""
"[{""page_index"":0,""viewing_time"":1498}]","1499","instructions","181","1076643","0.0-63.0","SS1618365620193","instructions","","","","","","","","","","","","","","","",""
