"view_history","rt","trial_type","trial_index","time_elapsed","internal_node_id","subject","stimulus_type","trial_stimulus","key_press","minimum_viewing_duration","trial_looking_time","block_deviant","block_background","exposure_type","stimulus","block_number","block_type","stimulus_displayed","responses","question_order","math_correct_answer","stimulus_left","stimulus_right"
"[{""page_index"":0,""viewing_time"":9966}]","9967","instructions","0","9968","0.0-0.0","SS1618365455295","","","","","","","","","","","","","","","","",""
"[{""page_index"":0,""viewing_time"":17946},{""page_index"":1,""viewing_time"":8072}]","26018","instructions","1","37991","0.0-1.0","SS1618365455295","instructions","","","","","","","","","","","","","","","",""
"","12276","sequential-stimulus-presentation-old","2","50780","0.0-2.0","SS1618365455295","","","40","500","12776","null","null","self_paced","","","","","","","","",""
"","9518","sequential-stimulus-presentation-old","3","60803","0.0-3.0","SS1618365455295","","","40","500","10018","null","null","self_paced","","","","","","","","",""
"[{""page_index"":0,""viewing_time"":23722}]","23722","instructions","4","84528","0.0-4.0","SS1618365455295","instructions","","","","","","","","","","","","","","","",""
"","12452","sequential-stimulus-presentation-old","5","101986","0.0-5.0","SS1618365455295","","","40","500","12952","null","null","forced_long","","","","","","","","",""
"","6500","sequential-stimulus-presentation-old","6","108550","0.0-6.0","SS1618365455295","","","40","50","6550","null","null","forced_long","","","","","","","","",""
"[{""page_index"":0,""viewing_time"":4488}]","4488","instructions","7","113039","0.0-7.0","SS1618365455295","instructions","","","","","","","","","","","","","","","",""
"[{""page_index"":0,""viewing_time"":15301},{""page_index"":1,""viewing_time"":13376},{""page_index"":2,""viewing_time"":9480},{""page_index"":3,""viewing_time"":1352},{""page_index"":4,""viewing_time"":1624}]","41133","instructions","8","154175","0.0-8.0","SS1618365455295","instructions","","","","","","","","","","","","","","","",""
"","null","html-keyboard-response","9","155283","0.0-9.0-0.0","SS1618365455295","","","null","","","","","","<p><img src= images/blank.png width =""600"" height = ""600"" style=""position:fixed;top:50%; left:50%; transform: translate(-50%, -50%); border:5px solid black"">","","","","","","","",""
"","4779","sequential-stimulus-presentation-old","10","165078","0.0-9.0-1.0","SS1618365455295","trial","","40","500","5279","images/stimuli/spore_stims/simple_18_A_b.gif","images/stimuli/spore_stims/simple_01_A_a.gif","forced_long","","0","simple_dissimilar","images/stimuli/spore_stims/simple_01_A_a.gif","","","","",""
"","null","html-keyboard-response","11","166104","0.0-9.0-0.1","SS1618365455295","","","null","","","","","","<p><img src= images/blank.png width =""600"" height = ""600"" style=""position:fixed;top:50%; left:50%; transform: translate(-50%, -50%); border:5px solid black"">","","","","","","","",""
"","22663","sequential-stimulus-presentation-old","12","189278","0.0-9.0-1.1","SS1618365455295","trial","","40","500","23163","images/stimuli/spore_stims/simple_18_A_b.gif","images/stimuli/spore_stims/simple_01_A_a.gif","forced_long","","0","simple_dissimilar","images/stimuli/spore_stims/simple_01_A_a.gif","","","","",""
"","null","html-keyboard-response","13","190420","0.0-9.0-0.2","SS1618365455295","","","null","","","","","","<p><img src= images/blank.png width =""600"" height = ""600"" style=""position:fixed;top:50%; left:50%; transform: translate(-50%, -50%); border:5px solid black"">","","","","","","","",""
"","17399","sequential-stimulus-presentation-old","14","208333","0.0-9.0-1.2","SS1618365455295","trial","","40","500","17899","images/stimuli/spore_stims/simple_18_A_b.gif","images/stimuli/spore_stims/simple_01_A_a.gif","forced_long","","0","simple_dissimilar","images/stimuli/spore_stims/simple_01_A_a.gif","","","","",""
"","null","html-keyboard-response","15","209612","0.0-9.0-0.3","SS1618365455295","","","null","","","","","","<p><img src= images/blank.png width =""600"" height = ""600"" style=""position:fixed;top:50%; left:50%; transform: translate(-50%, -50%); border:5px solid black"">","","","","","","","",""
"","13160","sequential-stimulus-presentation-old","16","223281","0.0-9.0-1.3","SS1618365455295","trial","","40","500","13660","images/stimuli/spore_stims/simple_18_A_b.gif","images/stimuli/spore_stims/simple_01_A_a.gif","forced_long","","0","simple_dissimilar","images/stimuli/spore_stims/simple_18_A_b.gif","","","","",""
"","null","html-keyboard-response","17","224303","0.0-9.0-0.4","SS1618365455295","","","null","","","","","","<p><img src= images/blank.png width =""600"" height = ""600"" style=""position:fixed;top:50%; left:50%; transform: translate(-50%, -50%); border:5px solid black"">","","","","","","","",""
"","6468","sequential-stimulus-presentation-old","18","231280","0.0-9.0-1.4","SS1618365455295","trial","","40","500","6968","images/stimuli/spore_stims/simple_18_A_b.gif","images/stimuli/spore_stims/simple_01_A_a.gif","forced_long","","0","simple_dissimilar","images/stimuli/spore_stims/simple_01_A_a.gif","","","","",""
"","null","html-keyboard-response","19","232188","0.0-9.0-0.5","SS1618365455295","","","null","","","","","","<p><img src= images/blank.png width =""600"" height = ""600"" style=""position:fixed;top:50%; left:50%; transform: translate(-50%, -50%); border:5px solid black"">","","","","","","","",""
"","12942","sequential-stimulus-presentation-old","20","245640","0.0-9.0-1.5","SS1618365455295","trial","","40","500","13442","images/stimuli/spore_stims/simple_18_A_b.gif","images/stimuli/spore_stims/simple_01_A_a.gif","forced_long","","0","simple_dissimilar","images/stimuli/spore_stims/simple_18_A_b.gif","","","","",""
"","6050","survey-multi-choice","21","251694","0.0-10.0","SS1618365455295","math_question","","","","","","","","","","","","{""Q0"":""11""}","[0]","11","",""
"","null","html-keyboard-response","22","252585","0.0-11.0-0.0","SS1618365455295","","","null","","","","","","<p><img src= images/blank.png width =""600"" height = ""600"" style=""position:fixed;top:50%; left:50%; transform: translate(-50%, -50%); border:5px solid black"">","","","","","","","",""
"","11814","sequential-stimulus-presentation-old","23","264909","0.0-11.0-1.0","SS1618365455295","trial","","40","500","12314","images/stimuli/spore_stims/simple_14_A_a.gif","images/stimuli/spore_stims/simple_17_A_b.gif","self_paced","","1","simple_dissimilar","images/stimuli/spore_stims/simple_17_A_b.gif","","","","",""
"","null","html-keyboard-response","24","265848","0.0-11.0-0.1","SS1618365455295","","","null","","","","","","<p><img src= images/blank.png width =""600"" height = ""600"" style=""position:fixed;top:50%; left:50%; transform: translate(-50%, -50%); border:5px solid black"">","","","","","","","",""
"","5721","sequential-stimulus-presentation-old","25","272082","0.0-11.0-1.1","SS1618365455295","trial","","40","500","6221","images/stimuli/spore_stims/simple_14_A_a.gif","images/stimuli/spore_stims/simple_17_A_b.gif","self_paced","","1","simple_dissimilar","images/stimuli/spore_stims/simple_17_A_b.gif","","","","",""
"","null","html-keyboard-response","26","273191","0.0-11.0-0.2","SS1618365455295","","","null","","","","","","<p><img src= images/blank.png width =""600"" height = ""600"" style=""position:fixed;top:50%; left:50%; transform: translate(-50%, -50%); border:5px solid black"">","","","","","","","",""
"","5849","sequential-stimulus-presentation-old","27","279551","0.0-11.0-1.2","SS1618365455295","trial","","40","500","6349","images/stimuli/spore_stims/simple_14_A_a.gif","images/stimuli/spore_stims/simple_17_A_b.gif","self_paced","","1","simple_dissimilar","images/stimuli/spore_stims/simple_17_A_b.gif","","","","",""
"","null","html-keyboard-response","28","280762","0.0-11.0-0.3","SS1618365455295","","","null","","","","","","<p><img src= images/blank.png width =""600"" height = ""600"" style=""position:fixed;top:50%; left:50%; transform: translate(-50%, -50%); border:5px solid black"">","","","","","","","",""
"","5090","sequential-stimulus-presentation-old","29","286365","0.0-11.0-1.3","SS1618365455295","trial","","40","500","5590","images/stimuli/spore_stims/simple_14_A_a.gif","images/stimuli/spore_stims/simple_17_A_b.gif","self_paced","","1","simple_dissimilar","images/stimuli/spore_stims/simple_17_A_b.gif","","","","",""
"","4377","survey-multi-choice","30","290744","0.0-12.0","SS1618365455295","math_question","","","","","","","","","","","","{""Q0"":""3""}","[0]","3","",""
"","null","html-keyboard-response","31","291908","0.0-13.0-0.0","SS1618365455295","","","null","","","","","","<p><img src= images/blank.png width =""600"" height = ""600"" style=""position:fixed;top:50%; left:50%; transform: translate(-50%, -50%); border:5px solid black"">","","","","","","","",""
"","12023","sequential-stimulus-presentation-old","32","303991","0.0-13.0-1.0","SS1618365455295","trial","","40","500","12523","images/stimuli/spore_stims/simple_20_A_a.gif","images/stimuli/spore_stims/simple_03_A_b.gif","forced_short","","2","simple_dissimilar","images/stimuli/spore_stims/simple_03_A_b.gif","","","","",""
"","null","html-keyboard-response","33","304969","0.0-13.0-0.1","SS1618365455295","","","null","","","","","","<p><img src= images/blank.png width =""600"" height = ""600"" style=""position:fixed;top:50%; left:50%; transform: translate(-50%, -50%); border:5px solid black"">","","","","","","","",""
"","8092","sequential-stimulus-presentation-old","34","313578","0.0-13.0-1.1","SS1618365455295","trial","","40","500","8592","images/stimuli/spore_stims/simple_20_A_a.gif","images/stimuli/spore_stims/simple_03_A_b.gif","forced_short","","2","simple_dissimilar","images/stimuli/spore_stims/simple_20_A_a.gif","","","","",""
"","null","html-keyboard-response","35","314647","0.0-13.0-0.2","SS1618365455295","","","null","","","","","","<p><img src= images/blank.png width =""600"" height = ""600"" style=""position:fixed;top:50%; left:50%; transform: translate(-50%, -50%); border:5px solid black"">","","","","","","","",""
"","10606","sequential-stimulus-presentation-old","36","325769","0.0-13.0-1.2","SS1618365455295","trial","","40","500","11106","images/stimuli/spore_stims/simple_20_A_a.gif","images/stimuli/spore_stims/simple_03_A_b.gif","forced_short","","2","simple_dissimilar","images/stimuli/spore_stims/simple_03_A_b.gif","","","","",""
"","null","html-keyboard-response","37","326877","0.0-13.0-0.3","SS1618365455295","","","null","","","","","","<p><img src= images/blank.png width =""600"" height = ""600"" style=""position:fixed;top:50%; left:50%; transform: translate(-50%, -50%); border:5px solid black"">","","","","","","","",""
"","4203","sequential-stimulus-presentation-old","38","331593","0.0-13.0-1.3","SS1618365455295","trial","","40","500","4703","images/stimuli/spore_stims/simple_20_A_a.gif","images/stimuli/spore_stims/simple_03_A_b.gif","forced_short","","2","simple_dissimilar","images/stimuli/spore_stims/simple_03_A_b.gif","","","","",""
"","null","html-keyboard-response","39","332414","0.0-13.0-0.4","SS1618365455295","","","null","","","","","","<p><img src= images/blank.png width =""600"" height = ""600"" style=""position:fixed;top:50%; left:50%; transform: translate(-50%, -50%); border:5px solid black"">","","","","","","","",""
"","9491","sequential-stimulus-presentation-old","40","342420","0.0-13.0-1.4","SS1618365455295","trial","","40","500","9991","images/stimuli/spore_stims/simple_20_A_a.gif","images/stimuli/spore_stims/simple_03_A_b.gif","forced_short","","2","simple_dissimilar","images/stimuli/spore_stims/simple_20_A_a.gif","","","","",""
"","10618","survey-multi-choice","41","353039","0.0-14.0","SS1618365455295","math_question","","","","","","","","","","","","{""Q0"":""12""}","[0]","12","",""
"","null","html-keyboard-response","42","354236","0.0-15.0-0.0","SS1618365455295","","","null","","","","","","<p><img src= images/blank.png width =""600"" height = ""600"" style=""position:fixed;top:50%; left:50%; transform: translate(-50%, -50%); border:5px solid black"">","","","","","","","",""
"","2774","sequential-stimulus-presentation-old","43","362025","0.0-15.0-1.0","SS1618365455295","trial","","40","500","3274","images/stimuli/spore_stims/complex_05_A_b.gif","images/stimuli/spore_stims/complex_01_A_a.gif","forced_long","","3","complex_dissimilar","images/stimuli/spore_stims/complex_01_A_a.gif","","","","",""
"","null","html-keyboard-response","44","362834","0.0-15.0-0.1","SS1618365455295","","","null","","","","","","<p><img src= images/blank.png width =""600"" height = ""600"" style=""position:fixed;top:50%; left:50%; transform: translate(-50%, -50%); border:5px solid black"">","","","","","","","",""
"","6584","sequential-stimulus-presentation-old","45","369928","0.0-15.0-1.1","SS1618365455295","trial","","40","500","7084","images/stimuli/spore_stims/complex_05_A_b.gif","images/stimuli/spore_stims/complex_01_A_a.gif","forced_long","","3","complex_dissimilar","images/stimuli/spore_stims/complex_05_A_b.gif","","","","",""
"","null","html-keyboard-response","46","371129","0.0-15.0-0.2","SS1618365455295","","","null","","","","","","<p><img src= images/blank.png width =""600"" height = ""600"" style=""position:fixed;top:50%; left:50%; transform: translate(-50%, -50%); border:5px solid black"">","","","","","","","",""
"","7171","sequential-stimulus-presentation-old","47","378810","0.0-15.0-1.2","SS1618365455295","trial","","40","500","7671","images/stimuli/spore_stims/complex_05_A_b.gif","images/stimuli/spore_stims/complex_01_A_a.gif","forced_long","","3","complex_dissimilar","images/stimuli/spore_stims/complex_05_A_b.gif","","","","",""
"","null","html-keyboard-response","48","379897","0.0-15.0-0.3","SS1618365455295","","","null","","","","","","<p><img src= images/blank.png width =""600"" height = ""600"" style=""position:fixed;top:50%; left:50%; transform: translate(-50%, -50%); border:5px solid black"">","","","","","","","",""
"","6380","sequential-stimulus-presentation-old","49","386792","0.0-15.0-1.3","SS1618365455295","trial","","40","500","6880","images/stimuli/spore_stims/complex_05_A_b.gif","images/stimuli/spore_stims/complex_01_A_a.gif","forced_long","","3","complex_dissimilar","images/stimuli/spore_stims/complex_01_A_a.gif","","","","",""
"","3493","survey-multi-choice","50","390288","0.0-16.0","SS1618365455295","math_question","","","","","","","","","","","","{""Q0"":""7""}","[0]","7","",""
"","null","html-keyboard-response","51","391497","0.0-17.0-0.0","SS1618365455295","","","null","","","","","","<p><img src= images/blank.png width =""600"" height = ""600"" style=""position:fixed;top:50%; left:50%; transform: translate(-50%, -50%); border:5px solid black"">","","","","","","","",""
"","6227","sequential-stimulus-presentation-old","52","397784","0.0-17.0-1.0","SS1618365455295","trial","","40","500","6727","images/stimuli/spore_stims/complex_09_A_b.gif","images/stimuli/spore_stims/complex_16_A_a.gif","forced_short","","4","complex_dissimilar","images/stimuli/spore_stims/complex_16_A_a.gif","","","","",""
"","null","html-keyboard-response","53","399055","0.0-17.0-0.1","SS1618365455295","","","null","","","","","","<p><img src= images/blank.png width =""600"" height = ""600"" style=""position:fixed;top:50%; left:50%; transform: translate(-50%, -50%); border:5px solid black"">","","","","","","","",""
"","8747","sequential-stimulus-presentation-old","54","408308","0.0-17.0-1.1","SS1618365455295","trial","","40","500","9247","images/stimuli/spore_stims/complex_09_A_b.gif","images/stimuli/spore_stims/complex_16_A_a.gif","forced_short","","4","complex_dissimilar","images/stimuli/spore_stims/complex_09_A_b.gif","","","","",""
"","null","html-keyboard-response","55","409127","0.0-17.0-0.2","SS1618365455295","","","null","","","","","","<p><img src= images/blank.png width =""600"" height = ""600"" style=""position:fixed;top:50%; left:50%; transform: translate(-50%, -50%); border:5px solid black"">","","","","","","","",""
"","3147","sequential-stimulus-presentation-old","56","412787","0.0-17.0-1.2","SS1618365455295","trial","","40","500","3647","images/stimuli/spore_stims/complex_09_A_b.gif","images/stimuli/spore_stims/complex_16_A_a.gif","forced_short","","4","complex_dissimilar","images/stimuli/spore_stims/complex_09_A_b.gif","","","","",""
"","null","html-keyboard-response","57","413817","0.0-17.0-0.3","SS1618365455295","","","null","","","","","","<p><img src= images/blank.png width =""600"" height = ""600"" style=""position:fixed;top:50%; left:50%; transform: translate(-50%, -50%); border:5px solid black"">","","","","","","","",""
"","12797","sequential-stimulus-presentation-old","58","427127","0.0-17.0-1.3","SS1618365455295","trial","","40","500","13297","images/stimuli/spore_stims/complex_09_A_b.gif","images/stimuli/spore_stims/complex_16_A_a.gif","forced_short","","4","complex_dissimilar","images/stimuli/spore_stims/complex_16_A_a.gif","","","","",""
"","null","html-keyboard-response","59","428160","0.0-17.0-0.4","SS1618365455295","","","null","","","","","","<p><img src= images/blank.png width =""600"" height = ""600"" style=""position:fixed;top:50%; left:50%; transform: translate(-50%, -50%); border:5px solid black"">","","","","","","","",""
"","3477","sequential-stimulus-presentation-old","60","432147","0.0-17.0-1.4","SS1618365455295","trial","","40","500","3977","images/stimuli/spore_stims/complex_09_A_b.gif","images/stimuli/spore_stims/complex_16_A_a.gif","forced_short","","4","complex_dissimilar","images/stimuli/spore_stims/complex_16_A_a.gif","","","","",""
"","null","html-keyboard-response","61","433250","0.0-17.0-0.5","SS1618365455295","","","null","","","","","","<p><img src= images/blank.png width =""600"" height = ""600"" style=""position:fixed;top:50%; left:50%; transform: translate(-50%, -50%); border:5px solid black"">","","","","","","","",""
"","3778","sequential-stimulus-presentation-old","62","437543","0.0-17.0-1.5","SS1618365455295","trial","","40","500","4278","images/stimuli/spore_stims/complex_09_A_b.gif","images/stimuli/spore_stims/complex_16_A_a.gif","forced_short","","4","complex_dissimilar","images/stimuli/spore_stims/complex_16_A_a.gif","","","","",""
"","3535","survey-multi-choice","63","441080","0.0-18.0","SS1618365455295","math_question","","","","","","","","","","","","{""Q0"":""7""}","[0]","7","",""
"","null","html-keyboard-response","64","442047","0.0-19.0-0.0","SS1618365455295","","","null","","","","","","<p><img src= images/blank.png width =""600"" height = ""600"" style=""position:fixed;top:50%; left:50%; transform: translate(-50%, -50%); border:5px solid black"">","","","","","","","",""
"","4727","sequential-stimulus-presentation-old","65","446837","0.0-19.0-1.0","SS1618365455295","trial","","40","500","5227","images/stimuli/spore_stims/complex_06_A_a.gif","images/stimuli/spore_stims/complex_04_A_b.gif","forced_short","","5","complex_dissimilar","images/stimuli/spore_stims/complex_04_A_b.gif","","","","",""
"","null","html-keyboard-response","66","447740","0.0-19.0-0.1","SS1618365455295","","","null","","","","","","<p><img src= images/blank.png width =""600"" height = ""600"" style=""position:fixed;top:50%; left:50%; transform: translate(-50%, -50%); border:5px solid black"">","","","","","","","",""
"","5799","sequential-stimulus-presentation-old","67","454051","0.0-19.0-1.1","SS1618365455295","trial","","40","500","6299","images/stimuli/spore_stims/complex_06_A_a.gif","images/stimuli/spore_stims/complex_04_A_b.gif","forced_short","","5","complex_dissimilar","images/stimuli/spore_stims/complex_04_A_b.gif","","","","",""
"","null","html-keyboard-response","68","455255","0.0-19.0-0.2","SS1618365455295","","","null","","","","","","<p><img src= images/blank.png width =""600"" height = ""600"" style=""position:fixed;top:50%; left:50%; transform: translate(-50%, -50%); border:5px solid black"">","","","","","","","",""
"","4070","sequential-stimulus-presentation-old","69","459843","0.0-19.0-1.2","SS1618365455295","trial","","40","500","4570","images/stimuli/spore_stims/complex_06_A_a.gif","images/stimuli/spore_stims/complex_04_A_b.gif","forced_short","","5","complex_dissimilar","images/stimuli/spore_stims/complex_04_A_b.gif","","","","",""
"","null","html-keyboard-response","70","460915","0.0-19.0-0.3","SS1618365455295","","","null","","","","","","<p><img src= images/blank.png width =""600"" height = ""600"" style=""position:fixed;top:50%; left:50%; transform: translate(-50%, -50%); border:5px solid black"">","","","","","","","",""
"","3281","sequential-stimulus-presentation-old","71","464711","0.0-19.0-1.3","SS1618365455295","trial","","40","500","3781","images/stimuli/spore_stims/complex_06_A_a.gif","images/stimuli/spore_stims/complex_04_A_b.gif","forced_short","","5","complex_dissimilar","images/stimuli/spore_stims/complex_04_A_b.gif","","","","",""
"","null","html-keyboard-response","72","465641","0.0-19.0-0.4","SS1618365455295","","","null","","","","","","<p><img src= images/blank.png width =""600"" height = ""600"" style=""position:fixed;top:50%; left:50%; transform: translate(-50%, -50%); border:5px solid black"">","","","","","","","",""
"","3406","sequential-stimulus-presentation-old","73","469561","0.0-19.0-1.4","SS1618365455295","trial","","40","500","3906","images/stimuli/spore_stims/complex_06_A_a.gif","images/stimuli/spore_stims/complex_04_A_b.gif","forced_short","","5","complex_dissimilar","images/stimuli/spore_stims/complex_04_A_b.gif","","","","",""
"","10956","survey-multi-choice","74","480520","0.0-20.0","SS1618365455295","math_question","","","","","","","","","","","","{""Q0"":""16""}","[0]","16","",""
"","null","html-keyboard-response","75","481579","0.0-21.0-0.0","SS1618365455295","","","null","","","","","","<p><img src= images/blank.png width =""600"" height = ""600"" style=""position:fixed;top:50%; left:50%; transform: translate(-50%, -50%); border:5px solid black"">","","","","","","","",""
"","5682","sequential-stimulus-presentation-old","76","487323","0.0-21.0-1.0","SS1618365455295","trial","","40","500","6182","images/stimuli/spore_stims/simple_04_A_b.gif","images/stimuli/spore_stims/simple_02_A_a.gif","forced_short","","6","simple_dissimilar","images/stimuli/spore_stims/simple_02_A_a.gif","","","","",""
"","null","html-keyboard-response","77","488379","0.0-21.0-0.1","SS1618365455295","","","null","","","","","","<p><img src= images/blank.png width =""600"" height = ""600"" style=""position:fixed;top:50%; left:50%; transform: translate(-50%, -50%); border:5px solid black"">","","","","","","","",""
"","3531","sequential-stimulus-presentation-old","78","492419","0.0-21.0-1.1","SS1618365455295","trial","","40","500","4031","images/stimuli/spore_stims/simple_04_A_b.gif","images/stimuli/spore_stims/simple_02_A_a.gif","forced_short","","6","simple_dissimilar","images/stimuli/spore_stims/simple_02_A_a.gif","","","","",""
"","null","html-keyboard-response","79","493432","0.0-21.0-0.2","SS1618365455295","","","null","","","","","","<p><img src= images/blank.png width =""600"" height = ""600"" style=""position:fixed;top:50%; left:50%; transform: translate(-50%, -50%); border:5px solid black"">","","","","","","","",""
"","5200","sequential-stimulus-presentation-old","80","499141","0.0-21.0-1.2","SS1618365455295","trial","","40","500","5700","images/stimuli/spore_stims/simple_04_A_b.gif","images/stimuli/spore_stims/simple_02_A_a.gif","forced_short","","6","simple_dissimilar","images/stimuli/spore_stims/simple_02_A_a.gif","","","","",""
"","null","html-keyboard-response","81","500180","0.0-21.0-0.3","SS1618365455295","","","null","","","","","","<p><img src= images/blank.png width =""600"" height = ""600"" style=""position:fixed;top:50%; left:50%; transform: translate(-50%, -50%); border:5px solid black"">","","","","","","","",""
"","848","sequential-stimulus-presentation-old","82","501545","0.0-21.0-1.3","SS1618365455295","trial","","40","500","1348","images/stimuli/spore_stims/simple_04_A_b.gif","images/stimuli/spore_stims/simple_02_A_a.gif","forced_short","","6","simple_dissimilar","images/stimuli/spore_stims/simple_02_A_a.gif","","","","",""
"","null","html-keyboard-response","83","502590","0.0-21.0-0.4","SS1618365455295","","","null","","","","","","<p><img src= images/blank.png width =""600"" height = ""600"" style=""position:fixed;top:50%; left:50%; transform: translate(-50%, -50%); border:5px solid black"">","","","","","","","",""
"","1318","sequential-stimulus-presentation-old","84","504422","0.0-21.0-1.4","SS1618365455295","trial","","40","500","1818","images/stimuli/spore_stims/simple_04_A_b.gif","images/stimuli/spore_stims/simple_02_A_a.gif","forced_short","","6","simple_dissimilar","images/stimuli/spore_stims/simple_02_A_a.gif","","","","",""
"","null","html-keyboard-response","85","505429","0.0-21.0-0.5","SS1618365455295","","","null","","","","","","<p><img src= images/blank.png width =""600"" height = ""600"" style=""position:fixed;top:50%; left:50%; transform: translate(-50%, -50%); border:5px solid black"">","","","","","","","",""
"","5876","sequential-stimulus-presentation-old","86","511817","0.0-21.0-1.5","SS1618365455295","trial","","40","500","6376","images/stimuli/spore_stims/simple_04_A_b.gif","images/stimuli/spore_stims/simple_02_A_a.gif","forced_short","","6","simple_dissimilar","images/stimuli/spore_stims/simple_04_A_b.gif","","","","",""
"","4884","survey-multi-choice","87","516704","0.0-22.0","SS1618365455295","math_question","","","","","","","","","","","","{""Q0"":""12""}","[0]","12","",""
"","null","html-keyboard-response","88","517694","0.0-23.0-0.0","SS1618365455295","","","null","","","","","","<p><img src= images/blank.png width =""600"" height = ""600"" style=""position:fixed;top:50%; left:50%; transform: translate(-50%, -50%); border:5px solid black"">","","","","","","","",""
"","3602","sequential-stimulus-presentation-old","89","521804","0.0-23.0-1.0","SS1618365455295","trial","","40","500","4102","images/stimuli/spore_stims/simple_09_A_a.gif","images/stimuli/spore_stims/simple_11_A_b.gif","self_paced","","7","simple_dissimilar","images/stimuli/spore_stims/simple_11_A_b.gif","","","","",""
"","null","html-keyboard-response","90","522889","0.0-23.0-0.1","SS1618365455295","","","null","","","","","","<p><img src= images/blank.png width =""600"" height = ""600"" style=""position:fixed;top:50%; left:50%; transform: translate(-50%, -50%); border:5px solid black"">","","","","","","","",""
"","3995","sequential-stimulus-presentation-old","91","527396","0.0-23.0-1.1","SS1618365455295","trial","","40","500","4495","images/stimuli/spore_stims/simple_09_A_a.gif","images/stimuli/spore_stims/simple_11_A_b.gif","self_paced","","7","simple_dissimilar","images/stimuli/spore_stims/simple_11_A_b.gif","","","","",""
"","null","html-keyboard-response","92","528242","0.0-23.0-0.2","SS1618365455295","","","null","","","","","","<p><img src= images/blank.png width =""600"" height = ""600"" style=""position:fixed;top:50%; left:50%; transform: translate(-50%, -50%); border:5px solid black"">","","","","","","","",""
"","2499","sequential-stimulus-presentation-old","93","531256","0.0-23.0-1.2","SS1618365455295","trial","","40","500","2999","images/stimuli/spore_stims/simple_09_A_a.gif","images/stimuli/spore_stims/simple_11_A_b.gif","self_paced","","7","simple_dissimilar","images/stimuli/spore_stims/simple_11_A_b.gif","","","","",""
"","null","html-keyboard-response","94","532480","0.0-23.0-0.3","SS1618365455295","","","null","","","","","","<p><img src= images/blank.png width =""600"" height = ""600"" style=""position:fixed;top:50%; left:50%; transform: translate(-50%, -50%); border:5px solid black"">","","","","","","","",""
"","5313","sequential-stimulus-presentation-old","95","538306","0.0-23.0-1.3","SS1618365455295","trial","","40","500","5813","images/stimuli/spore_stims/simple_09_A_a.gif","images/stimuli/spore_stims/simple_11_A_b.gif","self_paced","","7","simple_dissimilar","images/stimuli/spore_stims/simple_09_A_a.gif","","","","",""
"","3419","survey-multi-choice","96","541728","0.0-24.0","SS1618365455295","math_question","","","","","","","","","","","","{""Q0"":""4""}","[0]","4","",""
"","null","html-keyboard-response","97","542578","0.0-25.0-0.0","SS1618365455295","","","null","","","","","","<p><img src= images/blank.png width =""600"" height = ""600"" style=""position:fixed;top:50%; left:50%; transform: translate(-50%, -50%); border:5px solid black"">","","","","","","","",""
"","6387","sequential-stimulus-presentation-old","98","549479","0.0-25.0-1.0","SS1618365455295","trial","","40","500","6887","images/stimuli/spore_stims/complex_16_A_b.gif","images/stimuli/spore_stims/complex_05_A_a.gif","self_paced","","8","complex_dissimilar","images/stimuli/spore_stims/complex_05_A_a.gif","","","","",""
"","null","html-keyboard-response","99","550472","0.0-25.0-0.1","SS1618365455295","","","null","","","","","","<p><img src= images/blank.png width =""600"" height = ""600"" style=""position:fixed;top:50%; left:50%; transform: translate(-50%, -50%); border:5px solid black"">","","","","","","","",""
"","3826","sequential-stimulus-presentation-old","100","554809","0.0-25.0-1.1","SS1618365455295","trial","","40","500","4326","images/stimuli/spore_stims/complex_16_A_b.gif","images/stimuli/spore_stims/complex_05_A_a.gif","self_paced","","8","complex_dissimilar","images/stimuli/spore_stims/complex_05_A_a.gif","","","","",""
"","null","html-keyboard-response","101","555918","0.0-25.0-0.2","SS1618365455295","","","null","","","","","","<p><img src= images/blank.png width =""600"" height = ""600"" style=""position:fixed;top:50%; left:50%; transform: translate(-50%, -50%); border:5px solid black"">","","","","","","","",""
"","3393","sequential-stimulus-presentation-old","102","559821","0.0-25.0-1.2","SS1618365455295","trial","","40","500","3893","images/stimuli/spore_stims/complex_16_A_b.gif","images/stimuli/spore_stims/complex_05_A_a.gif","self_paced","","8","complex_dissimilar","images/stimuli/spore_stims/complex_05_A_a.gif","","","","",""
"","null","html-keyboard-response","103","560940","0.0-25.0-0.3","SS1618365455295","","","null","","","","","","<p><img src= images/blank.png width =""600"" height = ""600"" style=""position:fixed;top:50%; left:50%; transform: translate(-50%, -50%); border:5px solid black"">","","","","","","","",""
"","2863","sequential-stimulus-presentation-old","104","564319","0.0-25.0-1.3","SS1618365455295","trial","","40","500","3363","images/stimuli/spore_stims/complex_16_A_b.gif","images/stimuli/spore_stims/complex_05_A_a.gif","self_paced","","8","complex_dissimilar","images/stimuli/spore_stims/complex_05_A_a.gif","","","","",""
"","null","html-keyboard-response","105","565473","0.0-25.0-0.4","SS1618365455295","","","null","","","","","","<p><img src= images/blank.png width =""600"" height = ""600"" style=""position:fixed;top:50%; left:50%; transform: translate(-50%, -50%); border:5px solid black"">","","","","","","","",""
"","2794","sequential-stimulus-presentation-old","106","568777","0.0-25.0-1.4","SS1618365455295","trial","","40","500","3294","images/stimuli/spore_stims/complex_16_A_b.gif","images/stimuli/spore_stims/complex_05_A_a.gif","self_paced","","8","complex_dissimilar","images/stimuli/spore_stims/complex_05_A_a.gif","","","","",""
"","null","html-keyboard-response","107","569621","0.0-25.0-0.5","SS1618365455295","","","null","","","","","","<p><img src= images/blank.png width =""600"" height = ""600"" style=""position:fixed;top:50%; left:50%; transform: translate(-50%, -50%); border:5px solid black"">","","","","","","","",""
"","6946","sequential-stimulus-presentation-old","108","577078","0.0-25.0-1.5","SS1618365455295","trial","","40","500","7446","images/stimuli/spore_stims/complex_16_A_b.gif","images/stimuli/spore_stims/complex_05_A_a.gif","self_paced","","8","complex_dissimilar","images/stimuli/spore_stims/complex_16_A_b.gif","","","","",""
"","5156","survey-multi-choice","109","582240","0.0-26.0","SS1618365455295","math_question","","","","","","","","","","","","{""Q0"":""13""}","[0]","13","",""
"","null","html-keyboard-response","110","583454","0.0-27.0-0.0","SS1618365455295","","","null","","","","","","<p><img src= images/blank.png width =""600"" height = ""600"" style=""position:fixed;top:50%; left:50%; transform: translate(-50%, -50%); border:5px solid black"">","","","","","","","",""
"","5976","sequential-stimulus-presentation-old","111","589935","0.0-27.0-1.0","SS1618365455295","trial","","40","500","6476","images/stimuli/spore_stims/complex_14_A_b.gif","images/stimuli/spore_stims/complex_03_A_a.gif","self_paced","","9","complex_dissimilar","images/stimuli/spore_stims/complex_03_A_a.gif","","","","",""
"","null","html-keyboard-response","112","590791","0.0-27.0-0.1","SS1618365455295","","","null","","","","","","<p><img src= images/blank.png width =""600"" height = ""600"" style=""position:fixed;top:50%; left:50%; transform: translate(-50%, -50%); border:5px solid black"">","","","","","","","",""
"","3966","sequential-stimulus-presentation-old","113","595271","0.0-27.0-1.1","SS1618365455295","trial","","40","500","4466","images/stimuli/spore_stims/complex_14_A_b.gif","images/stimuli/spore_stims/complex_03_A_a.gif","self_paced","","9","complex_dissimilar","images/stimuli/spore_stims/complex_03_A_a.gif","","","","",""
"","null","html-keyboard-response","114","596147","0.0-27.0-0.2","SS1618365455295","","","null","","","","","","<p><img src= images/blank.png width =""600"" height = ""600"" style=""position:fixed;top:50%; left:50%; transform: translate(-50%, -50%); border:5px solid black"">","","","","","","","",""
"","3050","sequential-stimulus-presentation-old","115","599711","0.0-27.0-1.2","SS1618365455295","trial","","40","500","3550","images/stimuli/spore_stims/complex_14_A_b.gif","images/stimuli/spore_stims/complex_03_A_a.gif","self_paced","","9","complex_dissimilar","images/stimuli/spore_stims/complex_03_A_a.gif","","","","",""
"","null","html-keyboard-response","116","600762","0.0-27.0-0.3","SS1618365455295","","","null","","","","","","<p><img src= images/blank.png width =""600"" height = ""600"" style=""position:fixed;top:50%; left:50%; transform: translate(-50%, -50%); border:5px solid black"">","","","","","","","",""
"","868","sequential-stimulus-presentation-old","117","602143","0.0-27.0-1.3","SS1618365455295","trial","","40","500","1368","images/stimuli/spore_stims/complex_14_A_b.gif","images/stimuli/spore_stims/complex_03_A_a.gif","self_paced","","9","complex_dissimilar","images/stimuli/spore_stims/complex_03_A_a.gif","","","","",""
"","null","html-keyboard-response","118","602987","0.0-27.0-0.4","SS1618365455295","","","null","","","","","","<p><img src= images/blank.png width =""600"" height = ""600"" style=""position:fixed;top:50%; left:50%; transform: translate(-50%, -50%); border:5px solid black"">","","","","","","","",""
"","6537","sequential-stimulus-presentation-old","119","610038","0.0-27.0-1.4","SS1618365455295","trial","","40","500","7037","images/stimuli/spore_stims/complex_14_A_b.gif","images/stimuli/spore_stims/complex_03_A_a.gif","self_paced","","9","complex_dissimilar","images/stimuli/spore_stims/complex_14_A_b.gif","","","","",""
"","null","html-keyboard-response","120","611112","0.0-27.0-0.5","SS1618365455295","","","null","","","","","","<p><img src= images/blank.png width =""600"" height = ""600"" style=""position:fixed;top:50%; left:50%; transform: translate(-50%, -50%); border:5px solid black"">","","","","","","","",""
"","477","sequential-stimulus-presentation-old","121","612108","0.0-27.0-1.5","SS1618365455295","trial","","40","500","977","images/stimuli/spore_stims/complex_14_A_b.gif","images/stimuli/spore_stims/complex_03_A_a.gif","self_paced","","9","complex_dissimilar","images/stimuli/spore_stims/complex_14_A_b.gif","","","","",""
"","3279","survey-multi-choice","122","615392","0.0-28.0","SS1618365455295","math_question","","","","","","","","","","","","{""Q0"":""7""}","[0]","7","",""
"","null","html-keyboard-response","123","616476","0.0-29.0-0.0","SS1618365455295","","","null","","","","","","<p><img src= images/blank.png width =""600"" height = ""600"" style=""position:fixed;top:50%; left:50%; transform: translate(-50%, -50%); border:5px solid black"">","","","","","","","",""
"","6533","sequential-stimulus-presentation-old","124","628023","0.0-29.0-1.0","SS1618365455295","trial","","40","500","7033","images/stimuli/spore_stims/simple_03_A_a.gif","images/stimuli/spore_stims/simple_16_A_b.gif","forced_long","","10","simple_dissimilar","images/stimuli/spore_stims/simple_16_A_b.gif","","","","",""
"","null","html-keyboard-response","125","629138","0.0-29.0-0.1","SS1618365455295","","","null","","","","","","<p><img src= images/blank.png width =""600"" height = ""600"" style=""position:fixed;top:50%; left:50%; transform: translate(-50%, -50%); border:5px solid black"">","","","","","","","",""
"","2828","sequential-stimulus-presentation-old","126","632477","0.0-29.0-1.1","SS1618365455295","trial","","40","500","3328","images/stimuli/spore_stims/simple_03_A_a.gif","images/stimuli/spore_stims/simple_16_A_b.gif","forced_long","","10","simple_dissimilar","images/stimuli/spore_stims/simple_16_A_b.gif","","","","",""
"","null","html-keyboard-response","127","633761","0.0-29.0-0.2","SS1618365455295","","","null","","","","","","<p><img src= images/blank.png width =""600"" height = ""600"" style=""position:fixed;top:50%; left:50%; transform: translate(-50%, -50%); border:5px solid black"">","","","","","","","",""
"","3012","sequential-stimulus-presentation-old","128","637286","0.0-29.0-1.2","SS1618365455295","trial","","40","500","3512","images/stimuli/spore_stims/simple_03_A_a.gif","images/stimuli/spore_stims/simple_16_A_b.gif","forced_long","","10","simple_dissimilar","images/stimuli/spore_stims/simple_03_A_a.gif","","","","",""
"","null","html-keyboard-response","129","638170","0.0-29.0-0.3","SS1618365455295","","","null","","","","","","<p><img src= images/blank.png width =""600"" height = ""600"" style=""position:fixed;top:50%; left:50%; transform: translate(-50%, -50%); border:5px solid black"">","","","","","","","",""
"","2651","sequential-stimulus-presentation-old","130","641335","0.0-29.0-1.3","SS1618365455295","trial","","40","500","3151","images/stimuli/spore_stims/simple_03_A_a.gif","images/stimuli/spore_stims/simple_16_A_b.gif","forced_long","","10","simple_dissimilar","images/stimuli/spore_stims/simple_16_A_b.gif","","","","",""
"","null","html-keyboard-response","131","642216","0.0-29.0-0.4","SS1618365455295","","","null","","","","","","<p><img src= images/blank.png width =""600"" height = ""600"" style=""position:fixed;top:50%; left:50%; transform: translate(-50%, -50%); border:5px solid black"">","","","","","","","",""
"","973","sequential-stimulus-presentation-old","132","643699","0.0-29.0-1.4","SS1618365455295","trial","","40","500","1473","images/stimuli/spore_stims/simple_03_A_a.gif","images/stimuli/spore_stims/simple_16_A_b.gif","forced_long","","10","simple_dissimilar","images/stimuli/spore_stims/simple_16_A_b.gif","","","","",""
"","null","html-keyboard-response","133","644768","0.0-29.0-0.5","SS1618365455295","","","null","","","","","","<p><img src= images/blank.png width =""600"" height = ""600"" style=""position:fixed;top:50%; left:50%; transform: translate(-50%, -50%); border:5px solid black"">","","","","","","","",""
"","1037","sequential-stimulus-presentation-old","134","646313","0.0-29.0-1.5","SS1618365455295","trial","","40","500","1537","images/stimuli/spore_stims/simple_03_A_a.gif","images/stimuli/spore_stims/simple_16_A_b.gif","forced_long","","10","simple_dissimilar","images/stimuli/spore_stims/simple_16_A_b.gif","","","","",""
"","4874","survey-multi-choice","135","651192","0.0-30.0","SS1618365455295","math_question","","","","","","","","","","","","{""Q0"":""11""}","[0]","11","",""
"","null","html-keyboard-response","136","652260","0.0-31.0-0.0","SS1618365455295","","","null","","","","","","<p><img src= images/blank.png width =""600"" height = ""600"" style=""position:fixed;top:50%; left:50%; transform: translate(-50%, -50%); border:5px solid black"">","","","","","","","",""
"","2236","sequential-stimulus-presentation-old","137","659514","0.0-31.0-1.0","SS1618365455295","trial","","40","500","2736","images/stimuli/spore_stims/complex_17_A_a.gif","images/stimuli/spore_stims/complex_13_A_b.gif","forced_long","","11","complex_dissimilar","images/stimuli/spore_stims/complex_13_A_b.gif","","","","",""
"","null","html-keyboard-response","138","660332","0.0-31.0-0.1","SS1618365455295","","","null","","","","","","<p><img src= images/blank.png width =""600"" height = ""600"" style=""position:fixed;top:50%; left:50%; transform: translate(-50%, -50%); border:5px solid black"">","","","","","","","",""
"","3273","sequential-stimulus-presentation-old","139","664117","0.0-31.0-1.1","SS1618365455295","trial","","40","500","3773","images/stimuli/spore_stims/complex_17_A_a.gif","images/stimuli/spore_stims/complex_13_A_b.gif","forced_long","","11","complex_dissimilar","images/stimuli/spore_stims/complex_13_A_b.gif","","","","",""
"","null","html-keyboard-response","140","664969","0.0-31.0-0.2","SS1618365455295","","","null","","","","","","<p><img src= images/blank.png width =""600"" height = ""600"" style=""position:fixed;top:50%; left:50%; transform: translate(-50%, -50%); border:5px solid black"">","","","","","","","",""
"","984","sequential-stimulus-presentation-old","141","666467","0.0-31.0-1.2","SS1618365455295","trial","","40","500","1484","images/stimuli/spore_stims/complex_17_A_a.gif","images/stimuli/spore_stims/complex_13_A_b.gif","forced_long","","11","complex_dissimilar","images/stimuli/spore_stims/complex_13_A_b.gif","","","","",""
"","null","html-keyboard-response","142","667676","0.0-31.0-0.3","SS1618365455295","","","null","","","","","","<p><img src= images/blank.png width =""600"" height = ""600"" style=""position:fixed;top:50%; left:50%; transform: translate(-50%, -50%); border:5px solid black"">","","","","","","","",""
"","2324","sequential-stimulus-presentation-old","143","670512","0.0-31.0-1.3","SS1618365455295","trial","","40","500","2824","images/stimuli/spore_stims/complex_17_A_a.gif","images/stimuli/spore_stims/complex_13_A_b.gif","forced_long","","11","complex_dissimilar","images/stimuli/spore_stims/complex_13_A_b.gif","","","","",""
"","null","html-keyboard-response","144","671753","0.0-31.0-0.4","SS1618365455295","","","null","","","","","","<p><img src= images/blank.png width =""600"" height = ""600"" style=""position:fixed;top:50%; left:50%; transform: translate(-50%, -50%); border:5px solid black"">","","","","","","","",""
"","3242","sequential-stimulus-presentation-old","145","675506","0.0-31.0-1.4","SS1618365455295","trial","","40","500","3742","images/stimuli/spore_stims/complex_17_A_a.gif","images/stimuli/spore_stims/complex_13_A_b.gif","forced_long","","11","complex_dissimilar","images/stimuli/spore_stims/complex_13_A_b.gif","","","","",""
"","null","html-keyboard-response","146","676609","0.0-31.0-0.5","SS1618365455295","","","null","","","","","","<p><img src= images/blank.png width =""600"" height = ""600"" style=""position:fixed;top:50%; left:50%; transform: translate(-50%, -50%); border:5px solid black"">","","","","","","","",""
"","3313","sequential-stimulus-presentation-old","147","680434","0.0-31.0-1.5","SS1618365455295","trial","","40","500","3813","images/stimuli/spore_stims/complex_17_A_a.gif","images/stimuli/spore_stims/complex_13_A_b.gif","forced_long","","11","complex_dissimilar","images/stimuli/spore_stims/complex_13_A_b.gif","","","","",""
"[{""page_index"":0,""viewing_time"":9343}]","9344","instructions","148","689782","0.0-32.0","SS1618365455295","instructions","","","","","","","","","","","","","","","",""
"","22514","survey-likert","149","712304","0.0-33.0","SS1618365455295","similarity_question","","","","","","","","","","","","{""Q0"":3}","[0]","","images/stimuli/spore_stims/simple_03_A_b.gif","images/stimuli/spore_stims/simple_20_A_a.gif"
"","4896","survey-likert","150","717208","0.0-34.0","SS1618365455295","similarity_question","","","","","","","","","","","","{""Q0"":2}","[0]","","images/stimuli/spore_stims/simple_09_A_a.gif","images/stimuli/spore_stims/simple_11_A_b.gif"
"","14511","survey-likert","151","731728","0.0-35.0","SS1618365455295","similarity_question","","","","","","","","","","","","{""Q0"":1}","[0]","","images/stimuli/spore_stims/complex_09_A_b.gif","images/stimuli/spore_stims/complex_16_A_a.gif"
"","13561","survey-likert","152","745296","0.0-36.0","SS1618365455295","similarity_question","","","","","","","","","","","","{""Q0"":2}","[0]","","images/stimuli/spore_stims/complex_06_A_a.gif","images/stimuli/spore_stims/complex_04_A_b.gif"
"","4376","survey-likert","153","749680","0.0-37.0","SS1618365455295","similarity_question","","","","","","","","","","","","{""Q0"":2}","[0]","","images/stimuli/spore_stims/simple_03_A_a.gif","images/stimuli/spore_stims/simple_16_A_b.gif"
"","5128","survey-likert","154","754816","0.0-38.0","SS1618365455295","similarity_question","","","","","","","","","","","","{""Q0"":2}","[0]","","images/stimuli/spore_stims/simple_14_A_a.gif","images/stimuli/spore_stims/simple_17_A_b.gif"
"","10392","survey-likert","155","765216","0.0-39.0","SS1618365455295","similarity_question","","","","","","","","","","","","{""Q0"":1}","[0]","","images/stimuli/spore_stims/complex_16_A_b.gif","images/stimuli/spore_stims/complex_05_A_a.gif"
"","6856","survey-likert","156","772080","0.0-40.0","SS1618365455295","similarity_question","","","","","","","","","","","","{""Q0"":4}","[0]","","images/stimuli/spore_stims/simple_04_A_b.gif","images/stimuli/spore_stims/simple_02_A_a.gif"
"","3000","survey-likert","157","775088","0.0-41.0","SS1618365455295","similarity_question","","","","","","","","","","","","{""Q0"":3}","[0]","","images/stimuli/spore_stims/simple_18_A_b.gif","images/stimuli/spore_stims/simple_01_A_a.gif"
"","9056","survey-likert","158","784151","0.0-42.0","SS1618365455295","similarity_question","","","","","","","","","","","","{""Q0"":3}","[0]","","images/stimuli/spore_stims/complex_01_A_a.gif","images/stimuli/spore_stims/complex_05_A_b.gif"
"","7961","survey-likert","159","792119","0.0-43.0","SS1618365455295","similarity_question","","","","","","","","","","","","{""Q0"":0}","[0]","","images/stimuli/spore_stims/complex_14_A_b.gif","images/stimuli/spore_stims/complex_03_A_a.gif"
"","11345","survey-likert","160","803472","0.0-44.0","SS1618365455295","similarity_question","","","","","","","","","","","","{""Q0"":1}","[0]","","images/stimuli/spore_stims/complex_17_A_a.gif","images/stimuli/spore_stims/complex_13_A_b.gif"
"[{""page_index"":0,""viewing_time"":7129}]","7129","instructions","161","810607","0.0-45.0","SS1618365455295","instructions","","","","","","","","","","","","","","","",""
"","4746","survey-likert","162","815360","0.0-46.0","SS1618365455295","","","","","","","","","images/stimuli/spore_stims/complex_05_A_a.gif","","","","{""Q0"":4}","[0]","","",""
"","6377","survey-likert","163","821743","0.0-47.0","SS1618365455295","","","","","","","","","images/stimuli/spore_stims/simple_11_A_b.gif","","","","{""Q0"":1}","[0]","","",""
"","7449","survey-likert","164","829199","0.0-48.0","SS1618365455295","","","","","","","","","images/stimuli/spore_stims/complex_06_A_a.gif","","","","{""Q0"":5}","[0]","","",""
"","7400","survey-likert","165","836607","0.0-49.0","SS1618365455295","","","","","","","","","images/stimuli/spore_stims/simple_14_A_a.gif","","","","{""Q0"":1}","[0]","","",""
"","3008","survey-likert","166","839624","0.0-50.0","SS1618365455295","","","","","","","","","images/stimuli/spore_stims/complex_03_A_a.gif","","","","{""Q0"":4}","[0]","","",""
"","2810","survey-likert","167","842439","0.0-51.0","SS1618365455295","","","","","","","","","images/stimuli/spore_stims/complex_09_A_b.gif","","","","{""Q0"":5}","[0]","","",""
"","2776","survey-likert","168","845224","0.0-52.0","SS1618365455295","","","","","","","","","images/stimuli/spore_stims/complex_01_A_a.gif","","","","{""Q0"":4}","[0]","","",""
"","4249","survey-likert","169","849479","0.0-53.0","SS1618365455295","","","","","","","","","images/stimuli/spore_stims/simple_03_A_a.gif","","","","{""Q0"":2}","[0]","","",""
"","2648","survey-likert","170","852135","0.0-54.0","SS1618365455295","","","","","","","","","images/stimuli/spore_stims/simple_03_A_b.gif","","","","{""Q0"":2}","[0]","","",""
"","5241","survey-likert","171","857383","0.0-55.0","SS1618365455295","","","","","","","","","images/stimuli/spore_stims/complex_17_A_a.gif","","","","{""Q0"":4}","[0]","","",""
"","7417","survey-likert","172","864807","0.0-56.0","SS1618365455295","","","","","","","","","images/stimuli/spore_stims/simple_04_A_b.gif","","","","{""Q0"":1}","[0]","","",""
"","2590","survey-likert","173","867408","0.0-57.0","SS1618365455295","","","","","","","","","images/stimuli/spore_stims/simple_01_A_a.gif","","","","{""Q0"":1}","[0]","","",""
"[{""page_index"":0,""viewing_time"":4049}]","4049","instructions","174","871462","0.0-58.0","SS1618365455295","instructions","","","","","","","","","","","","","","","",""
"","7469","demog-age","175","879041","0.0-59.0","SS1618365455295","","","","","","","","","","","","","{""age"":""34""}","","","",""
"","10996","demog-ethnic-US","176","890049","0.0-60.0","SS1618365455295","","","","","","","","","","","","","{""ethnicity"":[""Hispanic or Latino""]}","[0]","","",""
"","11261","demog-gender-and-education","177","901321","0.0-61.0","SS1618365455295","","","","","","","","","","","","","{""gender"":""Female"",""education"":""High school diploma""}","[0,1]","","",""
"","8325","survey-text","178","909656","0.0-62.0","SS1618365455295","feedback","","","","","","","","","","","","{""Q0"":""no""}","","","",""
"[{""page_index"":0,""viewing_time"":2407}]","2407","instructions","179","912071","0.0-63.0","SS1618365455295","instructions","","","","","","","","","","","","","","","",""
