"view_history","rt","trial_type","trial_index","time_elapsed","internal_node_id","subject","stimulus_type","trial_stimulus","key_press","minimum_viewing_duration","trial_looking_time","block_deviant","block_background","exposure_type","stimulus","block_number","block_type","stimulus_displayed","responses","question_order","math_correct_answer","stimulus_left","stimulus_right"
"[{""page_index"":0,""viewing_time"":11297.915000002831}]","11298.730000038631","instructions","0","11303","0.0-0.0","SS1618368316819","","","","","","","","","","","","","","","","",""
"[{""page_index"":0,""viewing_time"":37972.64500003075},{""page_index"":1,""viewing_time"":7318.845000001602}]","45291.7750000488","instructions","1","58597","0.0-1.0","SS1618368316819","instructions","","","","","","","","","","","","","","","",""
"","7076.545000018086","sequential-stimulus-presentation-old","2","66177","0.0-2.0","SS1618368316819","","","40","500","7576.545000018086","null","null","self_paced","","","","","","","","",""
"","8336.910000012722","sequential-stimulus-presentation-old","3","75021","0.0-3.0","SS1618368316819","","","40","500","8836.910000012722","null","null","self_paced","","","","","","","","",""
"[{""page_index"":0,""viewing_time"":8948.765000037383}]","8949.105000006966","instructions","4","83971","0.0-4.0","SS1618368316819","instructions","","","","","","","","","","","","","","","",""
"","4799.600000027567","sequential-stimulus-presentation-old","5","93773","0.0-5.0","SS1618368316819","","","40","500","5299.600000027567","null","null","forced_long","","","","","","","","",""
"","14131.65499997558","sequential-stimulus-presentation-old","6","107957","0.0-6.0","SS1618368316819","","","40","50","14181.65499997558","null","null","forced_long","","","","","","","","",""
"[{""page_index"":0,""viewing_time"":3584.72000004258}]","3584.99500004109","instructions","7","111543","0.0-7.0","SS1618368316819","instructions","","","","","","","","","","","","","","","",""
"[{""page_index"":0,""viewing_time"":5461.669999989681},{""page_index"":1,""viewing_time"":8786.970000015572},{""page_index"":2,""viewing_time"":3235.790000006091},{""page_index"":3,""viewing_time"":1879.0399999707006},{""page_index"":4,""viewing_time"":2327.0200000260957}]","21690.760000026785","instructions","8","133234","0.0-8.0","SS1618368316819","instructions","","","","","","","","","","","","","","","",""
"","null","html-keyboard-response","9","134337","0.0-9.0-0.0","SS1618368316819","","","null","","","","","","<p><img src= images/blank.png width =""600"" height = ""600"" style=""position:fixed;top:50%; left:50%; transform: translate(-50%, -50%); border:5px solid black"">","","","","","","","",""
"","8531.134999997448","sequential-stimulus-presentation-old","10","143374","0.0-9.0-1.0","SS1618368316819","trial","","40","500","9031.134999997448","images/stimuli/spore_stims/complex_12_A_b.gif","images/stimuli/spore_stims/complex_15_A_a.gif","self_paced","","0","complex_dissimilar","images/stimuli/spore_stims/complex_15_A_a.gif","","","","",""
"","null","html-keyboard-response","11","144386","0.0-9.0-0.1","SS1618368316819","","","null","","","","","","<p><img src= images/blank.png width =""600"" height = ""600"" style=""position:fixed;top:50%; left:50%; transform: translate(-50%, -50%); border:5px solid black"">","","","","","","","",""
"","6948.659999994561","sequential-stimulus-presentation-old","12","151838","0.0-9.0-1.1","SS1618368316819","trial","","40","500","7448.659999994561","images/stimuli/spore_stims/complex_12_A_b.gif","images/stimuli/spore_stims/complex_15_A_a.gif","self_paced","","0","complex_dissimilar","images/stimuli/spore_stims/complex_12_A_b.gif","","","","",""
"","null","html-keyboard-response","13","152732","0.0-9.0-0.2","SS1618368316819","","","null","","","","","","<p><img src= images/blank.png width =""600"" height = ""600"" style=""position:fixed;top:50%; left:50%; transform: translate(-50%, -50%); border:5px solid black"">","","","","","","","",""
"","5650.74499999173","sequential-stimulus-presentation-old","14","158886","0.0-9.0-1.2","SS1618368316819","trial","","40","500","6150.74499999173","images/stimuli/spore_stims/complex_12_A_b.gif","images/stimuli/spore_stims/complex_15_A_a.gif","self_paced","","0","complex_dissimilar","images/stimuli/spore_stims/complex_15_A_a.gif","","","","",""
"","null","html-keyboard-response","15","160044","0.0-9.0-0.3","SS1618368316819","","","null","","","","","","<p><img src= images/blank.png width =""600"" height = ""600"" style=""position:fixed;top:50%; left:50%; transform: translate(-50%, -50%); border:5px solid black"">","","","","","","","",""
"","8154.269999999087","sequential-stimulus-presentation-old","16","168701","0.0-9.0-1.3","SS1618368316819","trial","","40","500","8654.269999999087","images/stimuli/spore_stims/complex_12_A_b.gif","images/stimuli/spore_stims/complex_15_A_a.gif","self_paced","","0","complex_dissimilar","images/stimuli/spore_stims/complex_15_A_a.gif","","","","",""
"","6651.465000002645","survey-multi-choice","17","175356","0.0-10.0","SS1618368316819","math_question","","","","","","","","","","","","{""Q0"":""14""}","[0]","14","",""
"","null","html-keyboard-response","18","176367","0.0-11.0-0.0","SS1618368316819","","","null","","","","","","<p><img src= images/blank.png width =""600"" height = ""600"" style=""position:fixed;top:50%; left:50%; transform: translate(-50%, -50%); border:5px solid black"">","","","","","","","",""
"","6204.919999989215","sequential-stimulus-presentation-old","19","183077","0.0-11.0-1.0","SS1618368316819","trial","","40","500","6704.919999989215","images/stimuli/spore_stims/simple_14_A_b.gif","images/stimuli/spore_stims/simple_06_A_a.gif","self_paced","","1","simple_dissimilar","images/stimuli/spore_stims/simple_06_A_a.gif","","","","",""
"","null","html-keyboard-response","20","184183","0.0-11.0-0.1","SS1618368316819","","","null","","","","","","<p><img src= images/blank.png width =""600"" height = ""600"" style=""position:fixed;top:50%; left:50%; transform: translate(-50%, -50%); border:5px solid black"">","","","","","","","",""
"","7783.67499995511","sequential-stimulus-presentation-old","21","192470","0.0-11.0-1.1","SS1618368316819","trial","","40","500","8283.67499995511","images/stimuli/spore_stims/simple_14_A_b.gif","images/stimuli/spore_stims/simple_06_A_a.gif","self_paced","","1","simple_dissimilar","images/stimuli/spore_stims/simple_06_A_a.gif","","","","",""
"","null","html-keyboard-response","22","193609","0.0-11.0-0.2","SS1618368316819","","","null","","","","","","<p><img src= images/blank.png width =""600"" height = ""600"" style=""position:fixed;top:50%; left:50%; transform: translate(-50%, -50%); border:5px solid black"">","","","","","","","",""
"","6693.3200000203215","sequential-stimulus-presentation-old","23","200807","0.0-11.0-1.2","SS1618368316819","trial","","40","500","7193.3200000203215","images/stimuli/spore_stims/simple_14_A_b.gif","images/stimuli/spore_stims/simple_06_A_a.gif","self_paced","","1","simple_dissimilar","images/stimuli/spore_stims/simple_06_A_a.gif","","","","",""
"","null","html-keyboard-response","24","201894","0.0-11.0-0.3","SS1618368316819","","","null","","","","","","<p><img src= images/blank.png width =""600"" height = ""600"" style=""position:fixed;top:50%; left:50%; transform: translate(-50%, -50%); border:5px solid black"">","","","","","","","",""
"","6210.375000024214","sequential-stimulus-presentation-old","25","208607","0.0-11.0-1.3","SS1618368316819","trial","","40","500","6710.375000024214","images/stimuli/spore_stims/simple_14_A_b.gif","images/stimuli/spore_stims/simple_06_A_a.gif","self_paced","","1","simple_dissimilar","images/stimuli/spore_stims/simple_06_A_a.gif","","","","",""
"","null","html-keyboard-response","26","209887","0.0-11.0-0.4","SS1618368316819","","","null","","","","","","<p><img src= images/blank.png width =""600"" height = ""600"" style=""position:fixed;top:50%; left:50%; transform: translate(-50%, -50%); border:5px solid black"">","","","","","","","",""
"","7736.804999993183","sequential-stimulus-presentation-old","27","218127","0.0-11.0-1.4","SS1618368316819","trial","","40","500","8236.804999993183","images/stimuli/spore_stims/simple_14_A_b.gif","images/stimuli/spore_stims/simple_06_A_a.gif","self_paced","","1","simple_dissimilar","images/stimuli/spore_stims/simple_06_A_a.gif","","","","",""
"","5070.560000021942","survey-multi-choice","28","223200","0.0-12.0","SS1618368316819","math_question","","","","","","","","","","","","{""Q0"":""9""}","[0]","9","",""
"","null","html-keyboard-response","29","224121","0.0-13.0-0.0","SS1618368316819","","","null","","","","","","<p><img src= images/blank.png width =""600"" height = ""600"" style=""position:fixed;top:50%; left:50%; transform: translate(-50%, -50%); border:5px solid black"">","","","","","","","",""
"","5104.460000002291","sequential-stimulus-presentation-old","30","229279","0.0-13.0-1.0","SS1618368316819","trial","","40","500","5604.460000002291","images/stimuli/spore_stims/simple_04_A_b.gif","images/stimuli/spore_stims/simple_10_A_a.gif","forced_short","","2","simple_dissimilar","images/stimuli/spore_stims/simple_10_A_a.gif","","","","",""
"","null","html-keyboard-response","31","230279","0.0-13.0-0.1","SS1618368316819","","","null","","","","","","<p><img src= images/blank.png width =""600"" height = ""600"" style=""position:fixed;top:50%; left:50%; transform: translate(-50%, -50%); border:5px solid black"">","","","","","","","",""
"","7111.819999990985","sequential-stimulus-presentation-old","32","237895","0.0-13.0-1.1","SS1618368316819","trial","","40","500","7611.819999990985","images/stimuli/spore_stims/simple_04_A_b.gif","images/stimuli/spore_stims/simple_10_A_a.gif","forced_short","","2","simple_dissimilar","images/stimuli/spore_stims/simple_10_A_a.gif","","","","",""
"","null","html-keyboard-response","33","238709","0.0-13.0-0.2","SS1618368316819","","","null","","","","","","<p><img src= images/blank.png width =""600"" height = ""600"" style=""position:fixed;top:50%; left:50%; transform: translate(-50%, -50%); border:5px solid black"">","","","","","","","",""
"","6193.2599999709055","sequential-stimulus-presentation-old","34","245406","0.0-13.0-1.2","SS1618368316819","trial","","40","500","6693.2599999709055","images/stimuli/spore_stims/simple_04_A_b.gif","images/stimuli/spore_stims/simple_10_A_a.gif","forced_short","","2","simple_dissimilar","images/stimuli/spore_stims/simple_10_A_a.gif","","","","",""
"","null","html-keyboard-response","35","246301","0.0-13.0-0.3","SS1618368316819","","","null","","","","","","<p><img src= images/blank.png width =""600"" height = ""600"" style=""position:fixed;top:50%; left:50%; transform: translate(-50%, -50%); border:5px solid black"">","","","","","","","",""
"","4474.43000000203","sequential-stimulus-presentation-old","36","251279","0.0-13.0-1.3","SS1618368316819","trial","","40","500","4974.43000000203","images/stimuli/spore_stims/simple_04_A_b.gif","images/stimuli/spore_stims/simple_10_A_a.gif","forced_short","","2","simple_dissimilar","images/stimuli/spore_stims/simple_04_A_b.gif","","","","",""
"","null","html-keyboard-response","37","252295","0.0-13.0-0.4","SS1618368316819","","","null","","","","","","<p><img src= images/blank.png width =""600"" height = ""600"" style=""position:fixed;top:50%; left:50%; transform: translate(-50%, -50%); border:5px solid black"">","","","","","","","",""
"","6776.355000038166","sequential-stimulus-presentation-old","38","259574","0.0-13.0-1.4","SS1618368316819","trial","","40","500","7276.355000038166","images/stimuli/spore_stims/simple_04_A_b.gif","images/stimuli/spore_stims/simple_10_A_a.gif","forced_short","","2","simple_dissimilar","images/stimuli/spore_stims/simple_10_A_a.gif","","","","",""
"","null","html-keyboard-response","39","260575","0.0-13.0-0.5","SS1618368316819","","","null","","","","","","<p><img src= images/blank.png width =""600"" height = ""600"" style=""position:fixed;top:50%; left:50%; transform: translate(-50%, -50%); border:5px solid black"">","","","","","","","",""
"","6031.749999965541","sequential-stimulus-presentation-old","40","267112","0.0-13.0-1.5","SS1618368316819","trial","","40","500","6531.749999965541","images/stimuli/spore_stims/simple_04_A_b.gif","images/stimuli/spore_stims/simple_10_A_a.gif","forced_short","","2","simple_dissimilar","images/stimuli/spore_stims/simple_10_A_a.gif","","","","",""
"","3956.56500000041","survey-multi-choice","41","271070","0.0-14.0","SS1618368316819","math_question","","","","","","","","","","","","{""Q0"":""2""}","[0]","2","",""
"","null","html-keyboard-response","42","272295","0.0-15.0-0.0","SS1618368316819","","","null","","","","","","<p><img src= images/blank.png width =""600"" height = ""600"" style=""position:fixed;top:50%; left:50%; transform: translate(-50%, -50%); border:5px solid black"">","","","","","","","",""
"","3082.8150000306778","sequential-stimulus-presentation-old","43","275431","0.0-15.0-1.0","SS1618368316819","trial","","40","500","3582.8150000306778","images/stimuli/spore_stims/complex_19_A_b.gif","images/stimuli/spore_stims/complex_01_A_a.gif","forced_short","","3","complex_dissimilar","images/stimuli/spore_stims/complex_01_A_a.gif","","","","",""
"","null","html-keyboard-response","44","276668","0.0-15.0-0.1","SS1618368316819","","","null","","","","","","<p><img src= images/blank.png width =""600"" height = ""600"" style=""position:fixed;top:50%; left:50%; transform: translate(-50%, -50%); border:5px solid black"">","","","","","","","",""
"","8091.75999998115","sequential-stimulus-presentation-old","45","285264","0.0-15.0-1.1","SS1618368316819","trial","","40","500","8591.75999998115","images/stimuli/spore_stims/complex_19_A_b.gif","images/stimuli/spore_stims/complex_01_A_a.gif","forced_short","","3","complex_dissimilar","images/stimuli/spore_stims/complex_01_A_a.gif","","","","",""
"","null","html-keyboard-response","46","286373","0.0-15.0-0.2","SS1618368316819","","","null","","","","","","<p><img src= images/blank.png width =""600"" height = ""600"" style=""position:fixed;top:50%; left:50%; transform: translate(-50%, -50%); border:5px solid black"">","","","","","","","",""
"","3826.9199999631383","sequential-stimulus-presentation-old","47","290703","0.0-15.0-1.2","SS1618368316819","trial","","40","500","4326.919999963138","images/stimuli/spore_stims/complex_19_A_b.gif","images/stimuli/spore_stims/complex_01_A_a.gif","forced_short","","3","complex_dissimilar","images/stimuli/spore_stims/complex_01_A_a.gif","","","","",""
"","null","html-keyboard-response","48","291655","0.0-15.0-0.3","SS1618368316819","","","null","","","","","","<p><img src= images/blank.png width =""600"" height = ""600"" style=""position:fixed;top:50%; left:50%; transform: translate(-50%, -50%); border:5px solid black"">","","","","","","","",""
"","4048.624999995809","sequential-stimulus-presentation-old","49","296208","0.0-15.0-1.3","SS1618368316819","trial","","40","500","4548.624999995809","images/stimuli/spore_stims/complex_19_A_b.gif","images/stimuli/spore_stims/complex_01_A_a.gif","forced_short","","3","complex_dissimilar","images/stimuli/spore_stims/complex_01_A_a.gif","","","","",""
"","null","html-keyboard-response","50","297404","0.0-15.0-0.4","SS1618368316819","","","null","","","","","","<p><img src= images/blank.png width =""600"" height = ""600"" style=""position:fixed;top:50%; left:50%; transform: translate(-50%, -50%); border:5px solid black"">","","","","","","","",""
"","5267.16500002658","sequential-stimulus-presentation-old","51","303175","0.0-15.0-1.4","SS1618368316819","trial","","40","500","5767.16500002658","images/stimuli/spore_stims/complex_19_A_b.gif","images/stimuli/spore_stims/complex_01_A_a.gif","forced_short","","3","complex_dissimilar","images/stimuli/spore_stims/complex_01_A_a.gif","","","","",""
"","null","html-keyboard-response","52","304329","0.0-15.0-0.5","SS1618368316819","","","null","","","","","","<p><img src= images/blank.png width =""600"" height = ""600"" style=""position:fixed;top:50%; left:50%; transform: translate(-50%, -50%); border:5px solid black"">","","","","","","","",""
"","6007.274999981746","sequential-stimulus-presentation-old","53","310839","0.0-15.0-1.5","SS1618368316819","trial","","40","500","6507.274999981746","images/stimuli/spore_stims/complex_19_A_b.gif","images/stimuli/spore_stims/complex_01_A_a.gif","forced_short","","3","complex_dissimilar","images/stimuli/spore_stims/complex_19_A_b.gif","","","","",""
"","4608.525000046939","survey-multi-choice","54","315450","0.0-16.0","SS1618368316819","math_question","","","","","","","","","","","","{""Q0"":""6""}","[0]","6","",""
"","null","html-keyboard-response","55","316684","0.0-17.0-0.0","SS1618368316819","","","null","","","","","","<p><img src= images/blank.png width =""600"" height = ""600"" style=""position:fixed;top:50%; left:50%; transform: translate(-50%, -50%); border:5px solid black"">","","","","","","","",""
"","6459.52999999281","sequential-stimulus-presentation-old","56","323649","0.0-17.0-1.0","SS1618368316819","trial","","40","500","6959.52999999281","images/stimuli/spore_stims/simple_02_A_a.gif","images/stimuli/spore_stims/simple_16_A_b.gif","self_paced","","4","simple_dissimilar","images/stimuli/spore_stims/simple_16_A_b.gif","","","","",""
"","null","html-keyboard-response","57","324810","0.0-17.0-0.1","SS1618368316819","","","null","","","","","","<p><img src= images/blank.png width =""600"" height = ""600"" style=""position:fixed;top:50%; left:50%; transform: translate(-50%, -50%); border:5px solid black"">","","","","","","","",""
"","5071.824999991804","sequential-stimulus-presentation-old","58","330385","0.0-17.0-1.1","SS1618368316819","trial","","40","500","5571.824999991804","images/stimuli/spore_stims/simple_02_A_a.gif","images/stimuli/spore_stims/simple_16_A_b.gif","self_paced","","4","simple_dissimilar","images/stimuli/spore_stims/simple_16_A_b.gif","","","","",""
"","null","html-keyboard-response","59","331331","0.0-17.0-0.2","SS1618368316819","","","null","","","","","","<p><img src= images/blank.png width =""600"" height = ""600"" style=""position:fixed;top:50%; left:50%; transform: translate(-50%, -50%); border:5px solid black"">","","","","","","","",""
"","5798.855000000913","sequential-stimulus-presentation-old","60","337633","0.0-17.0-1.2","SS1618368316819","trial","","40","500","6298.855000000913","images/stimuli/spore_stims/simple_02_A_a.gif","images/stimuli/spore_stims/simple_16_A_b.gif","self_paced","","4","simple_dissimilar","images/stimuli/spore_stims/simple_02_A_a.gif","","","","",""
"","null","html-keyboard-response","61","338520","0.0-17.0-0.3","SS1618368316819","","","null","","","","","","<p><img src= images/blank.png width =""600"" height = ""600"" style=""position:fixed;top:50%; left:50%; transform: translate(-50%, -50%); border:5px solid black"">","","","","","","","",""
"","6120.595000043977","sequential-stimulus-presentation-old","62","345144","0.0-17.0-1.3","SS1618368316819","trial","","40","500","6620.595000043977","images/stimuli/spore_stims/simple_02_A_a.gif","images/stimuli/spore_stims/simple_16_A_b.gif","self_paced","","4","simple_dissimilar","images/stimuli/spore_stims/simple_16_A_b.gif","","","","",""
"","null","html-keyboard-response","63","346263","0.0-17.0-0.4","SS1618368316819","","","null","","","","","","<p><img src= images/blank.png width =""600"" height = ""600"" style=""position:fixed;top:50%; left:50%; transform: translate(-50%, -50%); border:5px solid black"">","","","","","","","",""
"","4593.859999964479","sequential-stimulus-presentation-old","64","351361","0.0-17.0-1.4","SS1618368316819","trial","","40","500","5093.859999964479","images/stimuli/spore_stims/simple_02_A_a.gif","images/stimuli/spore_stims/simple_16_A_b.gif","self_paced","","4","simple_dissimilar","images/stimuli/spore_stims/simple_16_A_b.gif","","","","",""
"","null","html-keyboard-response","65","352646","0.0-17.0-0.5","SS1618368316819","","","null","","","","","","<p><img src= images/blank.png width =""600"" height = ""600"" style=""position:fixed;top:50%; left:50%; transform: translate(-50%, -50%); border:5px solid black"">","","","","","","","",""
"","6386.29499997478","sequential-stimulus-presentation-old","66","359536","0.0-17.0-1.5","SS1618368316819","trial","","40","500","6886.29499997478","images/stimuli/spore_stims/simple_02_A_a.gif","images/stimuli/spore_stims/simple_16_A_b.gif","self_paced","","4","simple_dissimilar","images/stimuli/spore_stims/simple_02_A_a.gif","","","","",""
"","3832.6900000101887","survey-multi-choice","67","363371","0.0-18.0","SS1618368316819","math_question","","","","","","","","","","","","{""Q0"":""5""}","[0]","5","",""
"","null","html-keyboard-response","68","364302","0.0-19.0-0.0","SS1618368316819","","","null","","","","","","<p><img src= images/blank.png width =""600"" height = ""600"" style=""position:fixed;top:50%; left:50%; transform: translate(-50%, -50%); border:5px solid black"">","","","","","","","",""
"","13029.544999997597","sequential-stimulus-presentation-old","69","382336","0.0-19.0-1.0","SS1618368316819","trial","","40","500","13529.544999997597","images/stimuli/spore_stims/complex_09_A_b.gif","images/stimuli/spore_stims/complex_06_A_a.gif","forced_long","","5","complex_dissimilar","images/stimuli/spore_stims/complex_06_A_a.gif","","","","",""
"","null","html-keyboard-response","70","383485","0.0-19.0-0.1","SS1618368316819","","","null","","","","","","<p><img src= images/blank.png width =""600"" height = ""600"" style=""position:fixed;top:50%; left:50%; transform: translate(-50%, -50%); border:5px solid black"">","","","","","","","",""
"","5826.560000015888","sequential-stimulus-presentation-old","71","389818","0.0-19.0-1.1","SS1618368316819","trial","","40","500","6326.560000015888","images/stimuli/spore_stims/complex_09_A_b.gif","images/stimuli/spore_stims/complex_06_A_a.gif","forced_long","","5","complex_dissimilar","images/stimuli/spore_stims/complex_09_A_b.gif","","","","",""
"","null","html-keyboard-response","72","390753","0.0-19.0-0.2","SS1618368316819","","","null","","","","","","<p><img src= images/blank.png width =""600"" height = ""600"" style=""position:fixed;top:50%; left:50%; transform: translate(-50%, -50%); border:5px solid black"">","","","","","","","",""
"","4505.784999986645","sequential-stimulus-presentation-old","73","395762","0.0-19.0-1.2","SS1618368316819","trial","","40","500","5005.784999986645","images/stimuli/spore_stims/complex_09_A_b.gif","images/stimuli/spore_stims/complex_06_A_a.gif","forced_long","","5","complex_dissimilar","images/stimuli/spore_stims/complex_09_A_b.gif","","","","",""
"","null","html-keyboard-response","74","396721","0.0-19.0-0.3","SS1618368316819","","","null","","","","","","<p><img src= images/blank.png width =""600"" height = ""600"" style=""position:fixed;top:50%; left:50%; transform: translate(-50%, -50%); border:5px solid black"">","","","","","","","",""
"","3216.4600000251085","sequential-stimulus-presentation-old","75","400442","0.0-19.0-1.3","SS1618368316819","trial","","40","500","3716.4600000251085","images/stimuli/spore_stims/complex_09_A_b.gif","images/stimuli/spore_stims/complex_06_A_a.gif","forced_long","","5","complex_dissimilar","images/stimuli/spore_stims/complex_06_A_a.gif","","","","",""
"","3587.6400000415742","survey-multi-choice","76","404032","0.0-20.0","SS1618368316819","math_question","","","","","","","","","","","","{""Q0"":""10""}","[0]","10","",""
"","null","html-keyboard-response","77","405068","0.0-21.0-0.0","SS1618368316819","","","null","","","","","","<p><img src= images/blank.png width =""600"" height = ""600"" style=""position:fixed;top:50%; left:50%; transform: translate(-50%, -50%); border:5px solid black"">","","","","","","","",""
"","8637.805000005756","sequential-stimulus-presentation-old","78","414210","0.0-21.0-1.0","SS1618368316819","trial","","40","500","9137.805000005756","images/stimuli/spore_stims/complex_09_A_a.gif","images/stimuli/spore_stims/complex_18_A_b.gif","self_paced","","6","complex_dissimilar","images/stimuli/spore_stims/complex_18_A_b.gif","","","","",""
"","null","html-keyboard-response","79","415072","0.0-21.0-0.1","SS1618368316819","","","null","","","","","","<p><img src= images/blank.png width =""600"" height = ""600"" style=""position:fixed;top:50%; left:50%; transform: translate(-50%, -50%); border:5px solid black"">","","","","","","","",""
"","2392.634999996517","sequential-stimulus-presentation-old","80","417970","0.0-21.0-1.1","SS1618368316819","trial","","40","500","2892.634999996517","images/stimuli/spore_stims/complex_09_A_a.gif","images/stimuli/spore_stims/complex_18_A_b.gif","self_paced","","6","complex_dissimilar","images/stimuli/spore_stims/complex_18_A_b.gif","","","","",""
"","null","html-keyboard-response","81","418947","0.0-21.0-0.2","SS1618368316819","","","null","","","","","","<p><img src= images/blank.png width =""600"" height = ""600"" style=""position:fixed;top:50%; left:50%; transform: translate(-50%, -50%); border:5px solid black"">","","","","","","","",""
"","2639.020000002347","sequential-stimulus-presentation-old","82","422090","0.0-21.0-1.2","SS1618368316819","trial","","40","500","3139.020000002347","images/stimuli/spore_stims/complex_09_A_a.gif","images/stimuli/spore_stims/complex_18_A_b.gif","self_paced","","6","complex_dissimilar","images/stimuli/spore_stims/complex_18_A_b.gif","","","","",""
"","null","html-keyboard-response","83","423193","0.0-21.0-0.3","SS1618368316819","","","null","","","","","","<p><img src= images/blank.png width =""600"" height = ""600"" style=""position:fixed;top:50%; left:50%; transform: translate(-50%, -50%); border:5px solid black"">","","","","","","","",""
"","3369.5949999964796","sequential-stimulus-presentation-old","84","427066","0.0-21.0-1.3","SS1618368316819","trial","","40","500","3869.5949999964796","images/stimuli/spore_stims/complex_09_A_a.gif","images/stimuli/spore_stims/complex_18_A_b.gif","self_paced","","6","complex_dissimilar","images/stimuli/spore_stims/complex_18_A_b.gif","","","","",""
"","null","html-keyboard-response","85","428202","0.0-21.0-0.4","SS1618368316819","","","null","","","","","","<p><img src= images/blank.png width =""600"" height = ""600"" style=""position:fixed;top:50%; left:50%; transform: translate(-50%, -50%); border:5px solid black"">","","","","","","","",""
"","2856.7499999771826","sequential-stimulus-presentation-old","86","431562","0.0-21.0-1.4","SS1618368316819","trial","","40","500","3356.7499999771826","images/stimuli/spore_stims/complex_09_A_a.gif","images/stimuli/spore_stims/complex_18_A_b.gif","self_paced","","6","complex_dissimilar","images/stimuli/spore_stims/complex_09_A_a.gif","","","","",""
"","null","html-keyboard-response","87","432762","0.0-21.0-0.5","SS1618368316819","","","null","","","","","","<p><img src= images/blank.png width =""600"" height = ""600"" style=""position:fixed;top:50%; left:50%; transform: translate(-50%, -50%); border:5px solid black"">","","","","","","","",""
"","4264.150000002701","sequential-stimulus-presentation-old","88","437530","0.0-21.0-1.5","SS1618368316819","trial","","40","500","4764.150000002701","images/stimuli/spore_stims/complex_09_A_a.gif","images/stimuli/spore_stims/complex_18_A_b.gif","self_paced","","6","complex_dissimilar","images/stimuli/spore_stims/complex_18_A_b.gif","","","","",""
"","4376.920000009704","survey-multi-choice","89","441909","0.0-22.0","SS1618368316819","math_question","","","","","","","","","","","","{""Q0"":""8""}","[0]","8","",""
"","null","html-keyboard-response","90","443100","0.0-23.0-0.0","SS1618368316819","","","null","","","","","","<p><img src= images/blank.png width =""600"" height = ""600"" style=""position:fixed;top:50%; left:50%; transform: translate(-50%, -50%); border:5px solid black"">","","","","","","","",""
"","8064.075000002049","sequential-stimulus-presentation-old","91","451219","0.0-23.0-1.0","SS1618368316819","trial","","40","500","8564.075000002049","images/stimuli/spore_stims/complex_01_A_b.gif","images/stimuli/spore_stims/complex_12_A_a.gif","forced_short","","7","complex_dissimilar","images/stimuli/spore_stims/complex_12_A_a.gif","","","","",""
"","null","html-keyboard-response","92","452093","0.0-23.0-0.1","SS1618368316819","","","null","","","","","","<p><img src= images/blank.png width =""600"" height = ""600"" style=""position:fixed;top:50%; left:50%; transform: translate(-50%, -50%); border:5px solid black"">","","","","","","","",""
"","12172.989999991842","sequential-stimulus-presentation-old","93","464771","0.0-23.0-1.1","SS1618368316819","trial","","40","500","12672.989999991842","images/stimuli/spore_stims/complex_01_A_b.gif","images/stimuli/spore_stims/complex_12_A_a.gif","forced_short","","7","complex_dissimilar","images/stimuli/spore_stims/complex_12_A_a.gif","","","","",""
"","null","html-keyboard-response","94","465606","0.0-23.0-0.2","SS1618368316819","","","null","","","","","","<p><img src= images/blank.png width =""600"" height = ""600"" style=""position:fixed;top:50%; left:50%; transform: translate(-50%, -50%); border:5px solid black"">","","","","","","","",""
"","25516.294999979436","sequential-stimulus-presentation-old","95","491627","0.0-23.0-1.2","SS1618368316819","trial","","40","500","26016.294999979436","images/stimuli/spore_stims/complex_01_A_b.gif","images/stimuli/spore_stims/complex_12_A_a.gif","forced_short","","7","complex_dissimilar","images/stimuli/spore_stims/complex_01_A_b.gif","","","","",""
"","null","html-keyboard-response","96","492653","0.0-23.0-0.3","SS1618368316819","","","null","","","","","","<p><img src= images/blank.png width =""600"" height = ""600"" style=""position:fixed;top:50%; left:50%; transform: translate(-50%, -50%); border:5px solid black"">","","","","","","","",""
"","3564.8400000063702","sequential-stimulus-presentation-old","97","496723","0.0-23.0-1.3","SS1618368316819","trial","","40","500","4064.8400000063702","images/stimuli/spore_stims/complex_01_A_b.gif","images/stimuli/spore_stims/complex_12_A_a.gif","forced_short","","7","complex_dissimilar","images/stimuli/spore_stims/complex_12_A_a.gif","","","","",""
"","null","html-keyboard-response","98","497579","0.0-23.0-0.4","SS1618368316819","","","null","","","","","","<p><img src= images/blank.png width =""600"" height = ""600"" style=""position:fixed;top:50%; left:50%; transform: translate(-50%, -50%); border:5px solid black"">","","","","","","","",""
"","1224.3000000016764","sequential-stimulus-presentation-old","99","499307","0.0-23.0-1.4","SS1618368316819","trial","","40","500","1724.3000000016764","images/stimuli/spore_stims/complex_01_A_b.gif","images/stimuli/spore_stims/complex_12_A_a.gif","forced_short","","7","complex_dissimilar","images/stimuli/spore_stims/complex_12_A_a.gif","","","","",""
"","null","html-keyboard-response","100","500434","0.0-23.0-0.5","SS1618368316819","","","null","","","","","","<p><img src= images/blank.png width =""600"" height = ""600"" style=""position:fixed;top:50%; left:50%; transform: translate(-50%, -50%); border:5px solid black"">","","","","","","","",""
"","1824.0900000091642","sequential-stimulus-presentation-old","101","502763","0.0-23.0-1.5","SS1618368316819","trial","","40","500","2324.090000009164","images/stimuli/spore_stims/complex_01_A_b.gif","images/stimuli/spore_stims/complex_12_A_a.gif","forced_short","","7","complex_dissimilar","images/stimuli/spore_stims/complex_12_A_a.gif","","","","",""
"","2585.049999994226","survey-multi-choice","102","505350","0.0-24.0","SS1618368316819","math_question","","","","","","","","","","","","{""Q0"":""9""}","[0]","9","",""
"","null","html-keyboard-response","103","506177","0.0-25.0-0.0","SS1618368316819","","","null","","","","","","<p><img src= images/blank.png width =""600"" height = ""600"" style=""position:fixed;top:50%; left:50%; transform: translate(-50%, -50%); border:5px solid black"">","","","","","","","",""
"","773.7900000065565","sequential-stimulus-presentation-old","104","511956","0.0-25.0-1.0","SS1618368316819","trial","","40","500","1273.7900000065565","images/stimuli/spore_stims/complex_08_A_b.gif","images/stimuli/spore_stims/complex_14_A_a.gif","forced_long","","8","complex_dissimilar","images/stimuli/spore_stims/complex_14_A_a.gif","","","","",""
"","null","html-keyboard-response","105","513009","0.0-25.0-0.1","SS1618368316819","","","null","","","","","","<p><img src= images/blank.png width =""600"" height = ""600"" style=""position:fixed;top:50%; left:50%; transform: translate(-50%, -50%); border:5px solid black"">","","","","","","","",""
"","21467.299999960233","sequential-stimulus-presentation-old","106","534979","0.0-25.0-1.1","SS1618368316819","trial","","40","500","21967.299999960233","images/stimuli/spore_stims/complex_08_A_b.gif","images/stimuli/spore_stims/complex_14_A_a.gif","forced_long","","8","complex_dissimilar","images/stimuli/spore_stims/complex_08_A_b.gif","","","","",""
"","null","html-keyboard-response","107","536226","0.0-25.0-0.2","SS1618368316819","","","null","","","","","","<p><img src= images/blank.png width =""600"" height = ""600"" style=""position:fixed;top:50%; left:50%; transform: translate(-50%, -50%); border:5px solid black"">","","","","","","","",""
"","3097.300000023097","sequential-stimulus-presentation-old","108","539828","0.0-25.0-1.2","SS1618368316819","trial","","40","500","3597.300000023097","images/stimuli/spore_stims/complex_08_A_b.gif","images/stimuli/spore_stims/complex_14_A_a.gif","forced_long","","8","complex_dissimilar","images/stimuli/spore_stims/complex_14_A_a.gif","","","","",""
"","null","html-keyboard-response","109","541088","0.0-25.0-0.3","SS1618368316819","","","null","","","","","","<p><img src= images/blank.png width =""600"" height = ""600"" style=""position:fixed;top:50%; left:50%; transform: translate(-50%, -50%); border:5px solid black"">","","","","","","","",""
"","3154.969999974128","sequential-stimulus-presentation-old","110","544747","0.0-25.0-1.3","SS1618368316819","trial","","40","500","3654.969999974128","images/stimuli/spore_stims/complex_08_A_b.gif","images/stimuli/spore_stims/complex_14_A_a.gif","forced_long","","8","complex_dissimilar","images/stimuli/spore_stims/complex_14_A_a.gif","","","","",""
"","null","html-keyboard-response","111","545650","0.0-25.0-0.4","SS1618368316819","","","null","","","","","","<p><img src= images/blank.png width =""600"" height = ""600"" style=""position:fixed;top:50%; left:50%; transform: translate(-50%, -50%); border:5px solid black"">","","","","","","","",""
"","2024.9300000141375","sequential-stimulus-presentation-old","112","548179","0.0-25.0-1.4","SS1618368316819","trial","","40","500","2524.9300000141375","images/stimuli/spore_stims/complex_08_A_b.gif","images/stimuli/spore_stims/complex_14_A_a.gif","forced_long","","8","complex_dissimilar","images/stimuli/spore_stims/complex_14_A_a.gif","","","","",""
"","null","html-keyboard-response","113","549446","0.0-25.0-0.5","SS1618368316819","","","null","","","","","","<p><img src= images/blank.png width =""600"" height = ""600"" style=""position:fixed;top:50%; left:50%; transform: translate(-50%, -50%); border:5px solid black"">","","","","","","","",""
"","2429.870000050869","sequential-stimulus-presentation-old","114","552380","0.0-25.0-1.5","SS1618368316819","trial","","40","500","2929.870000050869","images/stimuli/spore_stims/complex_08_A_b.gif","images/stimuli/spore_stims/complex_14_A_a.gif","forced_long","","8","complex_dissimilar","images/stimuli/spore_stims/complex_14_A_a.gif","","","","",""
"","2171.100000035949","survey-multi-choice","115","554554","0.0-26.0","SS1618368316819","math_question","","","","","","","","","","","","{""Q0"":""16""}","[0]","16","",""
"","null","html-keyboard-response","116","555536","0.0-27.0-0.0","SS1618368316819","","","null","","","","","","<p><img src= images/blank.png width =""600"" height = ""600"" style=""position:fixed;top:50%; left:50%; transform: translate(-50%, -50%); border:5px solid black"">","","","","","","","",""
"","3685.239999962505","sequential-stimulus-presentation-old","117","559275","0.0-27.0-1.0","SS1618368316819","trial","","40","500","4185.239999962505","images/stimuli/spore_stims/simple_08_A_b.gif","images/stimuli/spore_stims/simple_15_A_a.gif","forced_short","","9","simple_dissimilar","images/stimuli/spore_stims/simple_15_A_a.gif","","","","",""
"","null","html-keyboard-response","118","560153","0.0-27.0-0.1","SS1618368316819","","","null","","","","","","<p><img src= images/blank.png width =""600"" height = ""600"" style=""position:fixed;top:50%; left:50%; transform: translate(-50%, -50%); border:5px solid black"">","","","","","","","",""
"","6506.03999994928","sequential-stimulus-presentation-old","119","567163","0.0-27.0-1.1","SS1618368316819","trial","","40","500","7006.03999994928","images/stimuli/spore_stims/simple_08_A_b.gif","images/stimuli/spore_stims/simple_15_A_a.gif","forced_short","","9","simple_dissimilar","images/stimuli/spore_stims/simple_15_A_a.gif","","","","",""
"","null","html-keyboard-response","120","568440","0.0-27.0-0.2","SS1618368316819","","","null","","","","","","<p><img src= images/blank.png width =""600"" height = ""600"" style=""position:fixed;top:50%; left:50%; transform: translate(-50%, -50%); border:5px solid black"">","","","","","","","",""
"","17298.89999999432","sequential-stimulus-presentation-old","121","586245","0.0-27.0-1.2","SS1618368316819","trial","","40","500","17798.89999999432","images/stimuli/spore_stims/simple_08_A_b.gif","images/stimuli/spore_stims/simple_15_A_a.gif","forced_short","","9","simple_dissimilar","images/stimuli/spore_stims/simple_15_A_a.gif","","","","",""
"","null","html-keyboard-response","122","587513","0.0-27.0-0.3","SS1618368316819","","","null","","","","","","<p><img src= images/blank.png width =""600"" height = ""600"" style=""position:fixed;top:50%; left:50%; transform: translate(-50%, -50%); border:5px solid black"">","","","","","","","",""
"","3307.474999979604","sequential-stimulus-presentation-old","123","591325","0.0-27.0-1.3","SS1618368316819","trial","","40","500","3807.474999979604","images/stimuli/spore_stims/simple_08_A_b.gif","images/stimuli/spore_stims/simple_15_A_a.gif","forced_short","","9","simple_dissimilar","images/stimuli/spore_stims/simple_15_A_a.gif","","","","",""
"","3754.1799999889918","survey-multi-choice","124","595082","0.0-28.0","SS1618368316819","math_question","","","","","","","","","","","","{""Q0"":""7""}","[0]","7","",""
"","null","html-keyboard-response","125","596262","0.0-29.0-0.0","SS1618368316819","","","null","","","","","","<p><img src= images/blank.png width =""600"" height = ""600"" style=""position:fixed;top:50%; left:50%; transform: translate(-50%, -50%); border:5px solid black"">","","","","","","","",""
"","5017.494999978226","sequential-stimulus-presentation-old","126","606285","0.0-29.0-1.0","SS1618368316819","trial","","40","500","5517.494999978226","images/stimuli/spore_stims/simple_11_A_a.gif","images/stimuli/spore_stims/simple_05_A_b.gif","forced_long","","10","simple_dissimilar","images/stimuli/spore_stims/simple_05_A_b.gif","","","","",""
"","null","html-keyboard-response","127","607177","0.0-29.0-0.1","SS1618368316819","","","null","","","","","","<p><img src= images/blank.png width =""600"" height = ""600"" style=""position:fixed;top:50%; left:50%; transform: translate(-50%, -50%); border:5px solid black"">","","","","","","","",""
"","36274.88500002073","sequential-stimulus-presentation-old","128","643958","0.0-29.0-1.1","SS1618368316819","trial","","40","500","36774.88500002073","images/stimuli/spore_stims/simple_11_A_a.gif","images/stimuli/spore_stims/simple_05_A_b.gif","forced_long","","10","simple_dissimilar","images/stimuli/spore_stims/simple_05_A_b.gif","","","","",""
"","null","html-keyboard-response","129","645034","0.0-29.0-0.2","SS1618368316819","","","null","","","","","","<p><img src= images/blank.png width =""600"" height = ""600"" style=""position:fixed;top:50%; left:50%; transform: translate(-50%, -50%); border:5px solid black"">","","","","","","","",""
"","2428.0499999877065","sequential-stimulus-presentation-old","130","647966","0.0-29.0-1.2","SS1618368316819","trial","","40","500","2928.0499999877065","images/stimuli/spore_stims/simple_11_A_a.gif","images/stimuli/spore_stims/simple_05_A_b.gif","forced_long","","10","simple_dissimilar","images/stimuli/spore_stims/simple_05_A_b.gif","","","","",""
"","null","html-keyboard-response","131","648973","0.0-29.0-0.3","SS1618368316819","","","null","","","","","","<p><img src= images/blank.png width =""600"" height = ""600"" style=""position:fixed;top:50%; left:50%; transform: translate(-50%, -50%); border:5px solid black"">","","","","","","","",""
"","2505.055000016","sequential-stimulus-presentation-old","132","651982","0.0-29.0-1.3","SS1618368316819","trial","","40","500","3005.055000016","images/stimuli/spore_stims/simple_11_A_a.gif","images/stimuli/spore_stims/simple_05_A_b.gif","forced_long","","10","simple_dissimilar","images/stimuli/spore_stims/simple_05_A_b.gif","","","","",""
"","null","html-keyboard-response","133","653072","0.0-29.0-0.4","SS1618368316819","","","null","","","","","","<p><img src= images/blank.png width =""600"" height = ""600"" style=""position:fixed;top:50%; left:50%; transform: translate(-50%, -50%); border:5px solid black"">","","","","","","","",""
"","8662.194999982603","sequential-stimulus-presentation-old","134","662238","0.0-29.0-1.4","SS1618368316819","trial","","40","500","9162.194999982603","images/stimuli/spore_stims/simple_11_A_a.gif","images/stimuli/spore_stims/simple_05_A_b.gif","forced_long","","10","simple_dissimilar","images/stimuli/spore_stims/simple_11_A_a.gif","","","","",""
"","3217.2549999668263","survey-multi-choice","135","665459","0.0-30.0","SS1618368316819","math_question","","","","","","","","","","","","{""Q0"":""7""}","[0]","7","",""
"","null","html-keyboard-response","136","666331","0.0-31.0-0.0","SS1618368316819","","","null","","","","","","<p><img src= images/blank.png width =""600"" height = ""600"" style=""position:fixed;top:50%; left:50%; transform: translate(-50%, -50%); border:5px solid black"">","","","","","","","",""
"","11061.60999997519","sequential-stimulus-presentation-old","137","682398","0.0-31.0-1.0","SS1618368316819","trial","","40","500","11561.60999997519","images/stimuli/spore_stims/simple_19_A_a.gif","images/stimuli/spore_stims/simple_20_A_b.gif","forced_long","","11","simple_dissimilar","images/stimuli/spore_stims/simple_20_A_b.gif","","","","",""
"","null","html-keyboard-response","138","683573","0.0-31.0-0.1","SS1618368316819","","","null","","","","","","<p><img src= images/blank.png width =""600"" height = ""600"" style=""position:fixed;top:50%; left:50%; transform: translate(-50%, -50%); border:5px solid black"">","","","","","","","",""
"","17487.569999997504","sequential-stimulus-presentation-old","139","701567","0.0-31.0-1.1","SS1618368316819","trial","","40","500","17987.569999997504","images/stimuli/spore_stims/simple_19_A_a.gif","images/stimuli/spore_stims/simple_20_A_b.gif","forced_long","","11","simple_dissimilar","images/stimuli/spore_stims/simple_20_A_b.gif","","","","",""
"","null","html-keyboard-response","140","702540","0.0-31.0-0.2","SS1618368316819","","","null","","","","","","<p><img src= images/blank.png width =""600"" height = ""600"" style=""position:fixed;top:50%; left:50%; transform: translate(-50%, -50%); border:5px solid black"">","","","","","","","",""
"","3234.6699999761768","sequential-stimulus-presentation-old","141","706280","0.0-31.0-1.2","SS1618368316819","trial","","40","500","3734.6699999761768","images/stimuli/spore_stims/simple_19_A_a.gif","images/stimuli/spore_stims/simple_20_A_b.gif","forced_long","","11","simple_dissimilar","images/stimuli/spore_stims/simple_20_A_b.gif","","","","",""
"","null","html-keyboard-response","142","707311","0.0-31.0-0.3","SS1618368316819","","","null","","","","","","<p><img src= images/blank.png width =""600"" height = ""600"" style=""position:fixed;top:50%; left:50%; transform: translate(-50%, -50%); border:5px solid black"">","","","","","","","",""
"","46256.099999998696","sequential-stimulus-presentation-old","143","754071","0.0-31.0-1.3","SS1618368316819","trial","","40","500","46756.099999998696","images/stimuli/spore_stims/simple_19_A_a.gif","images/stimuli/spore_stims/simple_20_A_b.gif","forced_long","","11","simple_dissimilar","images/stimuli/spore_stims/simple_20_A_b.gif","","","","",""
"","null","html-keyboard-response","144","755172","0.0-31.0-0.4","SS1618368316819","","","null","","","","","","<p><img src= images/blank.png width =""600"" height = ""600"" style=""position:fixed;top:50%; left:50%; transform: translate(-50%, -50%); border:5px solid black"">","","","","","","","",""
"","3138.8199999928474","sequential-stimulus-presentation-old","145","758815","0.0-31.0-1.4","SS1618368316819","trial","","40","500","3638.8199999928474","images/stimuli/spore_stims/simple_19_A_a.gif","images/stimuli/spore_stims/simple_20_A_b.gif","forced_long","","11","simple_dissimilar","images/stimuli/spore_stims/simple_20_A_b.gif","","","","",""
"[{""page_index"":0,""viewing_time"":4457.920000015292}]","4458.229999989271","instructions","146","763278","0.0-32.0","SS1618368316819","instructions","","","","","","","","","","","","","","","",""
"","74301.81500001345","survey-likert","147","837586","0.0-33.0","SS1618368316819","similarity_question","","","","","","","","","","","","{""Q0"":5}","[0]","","images/stimuli/spore_stims/simple_08_A_b.gif","images/stimuli/spore_stims/simple_15_A_a.gif"
"","37913.83000003407","survey-likert","148","875504","0.0-34.0","SS1618368316819","similarity_question","","","","","","","","","","","","{""Q0"":2}","[0]","","images/stimuli/spore_stims/simple_11_A_a.gif","images/stimuli/spore_stims/simple_05_A_b.gif"
"","5550.28999998467","survey-likert","149","881059","0.0-35.0","SS1618368316819","similarity_question","","","","","","","","","","","","{""Q0"":3}","[0]","","images/stimuli/spore_stims/complex_01_A_a.gif","images/stimuli/spore_stims/complex_19_A_b.gif"
"","4826.065000030212","survey-likert","150","885889","0.0-36.0","SS1618368316819","similarity_question","","","","","","","","","","","","{""Q0"":0}","[0]","","images/stimuli/spore_stims/complex_15_A_a.gif","images/stimuli/spore_stims/complex_12_A_b.gif"
"","4728.449999995064","survey-likert","151","890623","0.0-37.0","SS1618368316819","similarity_question","","","","","","","","","","","","{""Q0"":1}","[0]","","images/stimuli/spore_stims/complex_01_A_b.gif","images/stimuli/spore_stims/complex_12_A_a.gif"
"","4227.649999957066","survey-likert","152","894855","0.0-38.0","SS1618368316819","similarity_question","","","","","","","","","","","","{""Q0"":6}","[0]","","images/stimuli/spore_stims/simple_19_A_a.gif","images/stimuli/spore_stims/simple_20_A_b.gif"
"","3850.1300000352785","survey-likert","153","898709","0.0-39.0","SS1618368316819","similarity_question","","","","","","","","","","","","{""Q0"":4}","[0]","","images/stimuli/spore_stims/simple_02_A_a.gif","images/stimuli/spore_stims/simple_16_A_b.gif"
"","10473.690000013448","survey-likert","154","909187","0.0-40.0","SS1618368316819","similarity_question","","","","","","","","","","","","{""Q0"":4}","[0]","","images/stimuli/spore_stims/simple_06_A_a.gif","images/stimuli/spore_stims/simple_14_A_b.gif"
"","42996.995000052266","survey-likert","155","952190","0.0-41.0","SS1618368316819","similarity_question","","","","","","","","","","","","{""Q0"":4}","[0]","","images/stimuli/spore_stims/complex_18_A_b.gif","images/stimuli/spore_stims/complex_09_A_a.gif"
"","3622.0699999830686","survey-likert","156","955816","0.0-42.0","SS1618368316819","similarity_question","","","","","","","","","","","","{""Q0"":5}","[0]","","images/stimuli/spore_stims/simple_04_A_b.gif","images/stimuli/spore_stims/simple_10_A_a.gif"
"","4294.229999999516","survey-likert","157","960115","0.0-43.0","SS1618368316819","similarity_question","","","","","","","","","","","","{""Q0"":2}","[0]","","images/stimuli/spore_stims/complex_08_A_b.gif","images/stimuli/spore_stims/complex_14_A_a.gif"
"","4869.4699999759905","survey-likert","158","964988","0.0-44.0","SS1618368316819","similarity_question","","","","","","","","","","","","{""Q0"":1}","[0]","","images/stimuli/spore_stims/complex_09_A_b.gif","images/stimuli/spore_stims/complex_06_A_a.gif"
"[{""page_index"":0,""viewing_time"":4134.58500005072}]","4134.925000020303","instructions","159","969126","0.0-45.0","SS1618368316819","instructions","","","","","","","","","","","","","","","",""
"","3385.1100000320002","survey-likert","160","972515","0.0-46.0","SS1618368316819","","","","","","","","","images/stimuli/spore_stims/complex_12_A_b.gif","","","","{""Q0"":5}","[0]","","",""
"","7150.145000021439","survey-likert","161","979671","0.0-47.0","SS1618368316819","","","","","","","","","images/stimuli/spore_stims/simple_08_A_b.gif","","","","{""Q0"":0}","[0]","","",""
"","5564.575000025798","survey-likert","162","985239","0.0-48.0","SS1618368316819","","","","","","","","","images/stimuli/spore_stims/simple_20_A_b.gif","","","","{""Q0"":1}","[0]","","",""
"","29072.20499997493","survey-likert","163","1014318","0.0-49.0","SS1618368316819","","","","","","","","","images/stimuli/spore_stims/simple_16_A_b.gif","","","","{""Q0"":2}","[0]","","",""
"","2634.7999999998137","survey-likert","164","1016957","0.0-50.0","SS1618368316819","","","","","","","","","images/stimuli/spore_stims/complex_09_A_a.gif","","","","{""Q0"":3}","[0]","","",""
"","5108.505000011064","survey-likert","165","1022070","0.0-51.0","SS1618368316819","","","","","","","","","images/stimuli/spore_stims/simple_06_A_a.gif","","","","{""Q0"":0}","[0]","","",""
"","4263.719999988098","survey-likert","166","1026338","0.0-52.0","SS1618368316819","","","","","","","","","images/stimuli/spore_stims/complex_01_A_b.gif","","","","{""Q0"":2}","[0]","","",""
"","2885.130000009667","survey-likert","167","1029227","0.0-53.0","SS1618368316819","","","","","","","","","images/stimuli/spore_stims/complex_09_A_b.gif","","","","{""Q0"":3}","[0]","","",""
"","7004.875000042375","survey-likert","168","1036236","0.0-54.0","SS1618368316819","","","","","","","","","images/stimuli/spore_stims/complex_01_A_a.gif","","","","{""Q0"":2}","[0]","","",""
"","24936.235000030138","survey-likert","169","1061176","0.0-55.0","SS1618368316819","","","","","","","","","images/stimuli/spore_stims/simple_05_A_b.gif","","","","{""Q0"":0}","[0]","","",""
"","2016.5899999556132","survey-likert","170","1063197","0.0-56.0","SS1618368316819","","","","","","","","","images/stimuli/spore_stims/simple_04_A_b.gif","","","","{""Q0"":1}","[0]","","",""
"","2360.2950000204146","survey-likert","171","1065562","0.0-57.0","SS1618368316819","","","","","","","","","images/stimuli/spore_stims/complex_14_A_a.gif","","","","{""Q0"":4}","[0]","","",""
"[{""page_index"":0,""viewing_time"":2633.4050000295974}]","2633.7200000416487","instructions","172","1068200","0.0-58.0","SS1618368316819","instructions","","","","","","","","","","","","","","","",""
"","3171.1850000428967","demog-age","173","1071380","0.0-59.0","SS1618368316819","","","","","","","","","","","","","{""age"":""27""}","","","",""
"","3019.6499999728985","demog-ethnic-US","174","1074406","0.0-60.0","SS1618368316819","","","","","","","","","","","","","{""ethnicity"":[""White""]}","[0]","","",""
"","7936.654999968596","demog-gender-and-education","175","1082348","0.0-61.0","SS1618368316819","","","","","","","","","","","","","{""gender"":""Male"",""education"":""Bachelor's Degree""}","[0,1]","","",""
"","38881.475000001956","survey-text","176","1121236","0.0-62.0","SS1618368316819","feedback","","","","","","","","","","","","{""Q0"":""Some animations were laggy, aside from that the experience went smoothly""}","","","",""
"[{""page_index"":0,""viewing_time"":1638.6700000148267}]","1638.924999977462","instructions","177","1122879","0.0-63.0","SS1618368316819","instructions","","","","","","","","","","","","","","","",""
