"view_history","rt","trial_type","trial_index","time_elapsed","internal_node_id","subject","stimulus_type","trial_stimulus","key_press","minimum_viewing_duration","trial_looking_time","block_deviant","block_background","exposure_type","stimulus","block_number","block_type","stimulus_displayed","responses","question_order","math_correct_answer","stimulus_left","stimulus_right"
"[{""page_index"":0,""viewing_time"":17460.324999992736}]","17461.2449999986","instructions","0","17465","0.0-0.0","SS1618365452216","","","","","","","","","","","","","","","","",""
"[{""page_index"":0,""viewing_time"":55280.04000001238},{""page_index"":1,""viewing_time"":6931.539999990491}]","62212.24500000244","instructions","1","81682","0.0-1.0","SS1618365452216","instructions","","","","","","","","","","","","","","","",""
"","8761.16500000353","sequential-stimulus-presentation-old","2","90951","0.0-2.0","SS1618365452216","","","40","500","9261.16500000353","null","null","self_paced","","","","","","","","",""
"","8493.824999997742","sequential-stimulus-presentation-old","3","99947","0.0-3.0","SS1618365452216","","","40","500","8993.824999997742","null","null","self_paced","","","","","","","","",""
"[{""page_index"":0,""viewing_time"":46312.27999999828}]","46312.999999994645","instructions","4","146263","0.0-4.0","SS1618365452216","instructions","","","","","","","","","","","","","","","",""
"","3373.5750000050757","sequential-stimulus-presentation-old","5","154641","0.0-5.0","SS1618365452216","","","40","500","3873.5750000050757","null","null","forced_long","","","","","","","","",""
"","8411.514999999781","sequential-stimulus-presentation-old","6","163108","0.0-6.0","SS1618365452216","","","40","50","8461.514999999781","null","null","forced_long","","","","","","","","",""
"[{""page_index"":0,""viewing_time"":10361.24500000733}]","10361.669999998412","instructions","7","173580","0.0-7.0","SS1618365452216","instructions","","","","","","","","","","","","","","","",""
"[{""page_index"":0,""viewing_time"":25257.56499999261},{""page_index"":1,""viewing_time"":36247.81500000972},{""page_index"":2,""viewing_time"":8570.739999995567},{""page_index"":3,""viewing_time"":1812.3049999994691},{""page_index"":4,""viewing_time"":1622.4050000018906}]","73511.50999999663","instructions","8","247095","0.0-8.0","SS1618365452216","instructions","","","","","","","","","","","","","","","",""
"","null","html-keyboard-response","9","248204","0.0-9.0-0.0","SS1618365452216","","","null","","","","","","<p><img src= images/blank.png width =""600"" height = ""600"" style=""position:fixed;top:50%; left:50%; transform: translate(-50%, -50%); border:5px solid black"">","","","","","","","",""
"","545.445000010659","sequential-stimulus-presentation-old","10","248805","0.0-9.0-1.0","SS1618365452216","trial","","40","500","1045.445000010659","images/stimuli/spore_stims/simple_08_A_b.gif","images/stimuli/spore_stims/simple_07_A_a.gif","forced_short","","0","simple_dissimilar","images/stimuli/spore_stims/simple_07_A_a.gif","","","","",""
"","null","html-keyboard-response","11","249993","0.0-9.0-0.1","SS1618365452216","","","null","","","","","","<p><img src= images/blank.png width =""600"" height = ""600"" style=""position:fixed;top:50%; left:50%; transform: translate(-50%, -50%); border:5px solid black"">","","","","","","","",""
"","48897.64500000456","sequential-stimulus-presentation-old","12","299396","0.0-9.0-1.1","SS1618365452216","trial","","40","500","49397.64500000456","images/stimuli/spore_stims/simple_08_A_b.gif","images/stimuli/spore_stims/simple_07_A_a.gif","forced_short","","0","simple_dissimilar","images/stimuli/spore_stims/simple_07_A_a.gif","","","","",""
"","null","html-keyboard-response","13","300295","0.0-9.0-0.2","SS1618365452216","","","null","","","","","","<p><img src= images/blank.png width =""600"" height = ""600"" style=""position:fixed;top:50%; left:50%; transform: translate(-50%, -50%); border:5px solid black"">","","","","","","","",""
"","17153.470000004745","sequential-stimulus-presentation-old","14","317954","0.0-9.0-1.2","SS1618365452216","trial","","40","500","17653.470000004745","images/stimuli/spore_stims/simple_08_A_b.gif","images/stimuli/spore_stims/simple_07_A_a.gif","forced_short","","0","simple_dissimilar","images/stimuli/spore_stims/simple_07_A_a.gif","","","","",""
"","null","html-keyboard-response","15","319092","0.0-9.0-0.3","SS1618365452216","","","null","","","","","","<p><img src= images/blank.png width =""600"" height = ""600"" style=""position:fixed;top:50%; left:50%; transform: translate(-50%, -50%); border:5px solid black"">","","","","","","","",""
"","9416.884999998729","sequential-stimulus-presentation-old","16","329014","0.0-9.0-1.3","SS1618365452216","trial","","40","500","9916.884999998729","images/stimuli/spore_stims/simple_08_A_b.gif","images/stimuli/spore_stims/simple_07_A_a.gif","forced_short","","0","simple_dissimilar","images/stimuli/spore_stims/simple_07_A_a.gif","","","","",""
"","null","html-keyboard-response","17","330276","0.0-9.0-0.4","SS1618365452216","","","null","","","","","","<p><img src= images/blank.png width =""600"" height = ""600"" style=""position:fixed;top:50%; left:50%; transform: translate(-50%, -50%); border:5px solid black"">","","","","","","","",""
"","13708.835000012186","sequential-stimulus-presentation-old","18","344490","0.0-9.0-1.4","SS1618365452216","trial","","40","500","14208.835000012186","images/stimuli/spore_stims/simple_08_A_b.gif","images/stimuli/spore_stims/simple_07_A_a.gif","forced_short","","0","simple_dissimilar","images/stimuli/spore_stims/simple_07_A_a.gif","","","","",""
"","6093.695000003208","survey-multi-choice","19","350590","0.0-10.0","SS1618365452216","math_question","","","","","","","","","","","","{""Q0"":""10""}","[0]","10","",""
"","null","html-keyboard-response","20","351675","0.0-11.0-0.0","SS1618365452216","","","null","","","","","","<p><img src= images/blank.png width =""600"" height = ""600"" style=""position:fixed;top:50%; left:50%; transform: translate(-50%, -50%); border:5px solid black"">","","","","","","","",""
"","12864.660000006552","sequential-stimulus-presentation-old","21","365045","0.0-11.0-1.0","SS1618365452216","trial","","40","500","13364.660000006552","images/stimuli/spore_stims/complex_01_A_a.gif","images/stimuli/spore_stims/complex_18_A_b.gif","self_paced","","1","complex_dissimilar","images/stimuli/spore_stims/complex_18_A_b.gif","","","","",""
"","null","html-keyboard-response","22","366292","0.0-11.0-0.1","SS1618365452216","","","null","","","","","","<p><img src= images/blank.png width =""600"" height = ""600"" style=""position:fixed;top:50%; left:50%; transform: translate(-50%, -50%); border:5px solid black"">","","","","","","","",""
"","8898.66500000062","sequential-stimulus-presentation-old","23","375696","0.0-11.0-1.1","SS1618365452216","trial","","40","500","9398.66500000062","images/stimuli/spore_stims/complex_01_A_a.gif","images/stimuli/spore_stims/complex_18_A_b.gif","self_paced","","1","complex_dissimilar","images/stimuli/spore_stims/complex_01_A_a.gif","","","","",""
"","null","html-keyboard-response","24","376884","0.0-11.0-0.2","SS1618365452216","","","null","","","","","","<p><img src= images/blank.png width =""600"" height = ""600"" style=""position:fixed;top:50%; left:50%; transform: translate(-50%, -50%); border:5px solid black"">","","","","","","","",""
"","2184.6150000055786","sequential-stimulus-presentation-old","25","379573","0.0-11.0-1.2","SS1618365452216","trial","","40","500","2684.6150000055786","images/stimuli/spore_stims/complex_01_A_a.gif","images/stimuli/spore_stims/complex_18_A_b.gif","self_paced","","1","complex_dissimilar","images/stimuli/spore_stims/complex_18_A_b.gif","","","","",""
"","null","html-keyboard-response","26","380581","0.0-11.0-0.3","SS1618365452216","","","null","","","","","","<p><img src= images/blank.png width =""600"" height = ""600"" style=""position:fixed;top:50%; left:50%; transform: translate(-50%, -50%); border:5px solid black"">","","","","","","","",""
"","7990.850000001956","sequential-stimulus-presentation-old","27","389077","0.0-11.0-1.3","SS1618365452216","trial","","40","500","8490.850000001956","images/stimuli/spore_stims/complex_01_A_a.gif","images/stimuli/spore_stims/complex_18_A_b.gif","self_paced","","1","complex_dissimilar","images/stimuli/spore_stims/complex_01_A_a.gif","","","","",""
"","5369.764999995823","survey-multi-choice","28","394450","0.0-12.0","SS1618365452216","math_question","","","","","","","","","","","","{""Q0"":""12""}","[0]","12","",""
"","null","html-keyboard-response","29","395568","0.0-13.0-0.0","SS1618365452216","","","null","","","","","","<p><img src= images/blank.png width =""600"" height = ""600"" style=""position:fixed;top:50%; left:50%; transform: translate(-50%, -50%); border:5px solid black"">","","","","","","","",""
"","927.5699999998324","sequential-stimulus-presentation-old","30","401501","0.0-13.0-1.0","SS1618365452216","trial","","40","500","1427.5699999998324","images/stimuli/spore_stims/complex_08_A_b.gif","images/stimuli/spore_stims/complex_19_A_a.gif","forced_long","","2","complex_dissimilar","images/stimuli/spore_stims/complex_19_A_a.gif","","","","",""
"","null","html-keyboard-response","31","402399","0.0-13.0-0.1","SS1618365452216","","","null","","","","","","<p><img src= images/blank.png width =""600"" height = ""600"" style=""position:fixed;top:50%; left:50%; transform: translate(-50%, -50%); border:5px solid black"">","","","","","","","",""
"","14638.040000005276","sequential-stimulus-presentation-old","32","417542","0.0-13.0-1.1","SS1618365452216","trial","","40","500","15138.040000005276","images/stimuli/spore_stims/complex_08_A_b.gif","images/stimuli/spore_stims/complex_19_A_a.gif","forced_long","","2","complex_dissimilar","images/stimuli/spore_stims/complex_08_A_b.gif","","","","",""
"","null","html-keyboard-response","33","418670","0.0-13.0-0.2","SS1618365452216","","","null","","","","","","<p><img src= images/blank.png width =""600"" height = ""600"" style=""position:fixed;top:50%; left:50%; transform: translate(-50%, -50%); border:5px solid black"">","","","","","","","",""
"","12785.954999999376","sequential-stimulus-presentation-old","34","431961","0.0-13.0-1.2","SS1618365452216","trial","","40","500","13285.954999999376","images/stimuli/spore_stims/complex_08_A_b.gif","images/stimuli/spore_stims/complex_19_A_a.gif","forced_long","","2","complex_dissimilar","images/stimuli/spore_stims/complex_19_A_a.gif","","","","",""
"","null","html-keyboard-response","35","432873","0.0-13.0-0.3","SS1618365452216","","","null","","","","","","<p><img src= images/blank.png width =""600"" height = ""600"" style=""position:fixed;top:50%; left:50%; transform: translate(-50%, -50%); border:5px solid black"">","","","","","","","",""
"","25287.355000007665","sequential-stimulus-presentation-old","36","458666","0.0-13.0-1.3","SS1618365452216","trial","","40","500","25787.355000007665","images/stimuli/spore_stims/complex_08_A_b.gif","images/stimuli/spore_stims/complex_19_A_a.gif","forced_long","","2","complex_dissimilar","images/stimuli/spore_stims/complex_19_A_a.gif","","","","",""
"","3897.4400000006426","survey-multi-choice","37","462567","0.0-14.0","SS1618365452216","math_question","","","","","","","","","","","","{""Q0"":""8""}","[0]","8","",""
"","null","html-keyboard-response","38","463417","0.0-15.0-0.0","SS1618365452216","","","null","","","","","","<p><img src= images/blank.png width =""600"" height = ""600"" style=""position:fixed;top:50%; left:50%; transform: translate(-50%, -50%); border:5px solid black"">","","","","","","","",""
"","9985.76999999932","sequential-stimulus-presentation-old","39","473913","0.0-15.0-1.0","SS1618365452216","trial","","40","500","10485.76999999932","images/stimuli/spore_stims/complex_20_A_a.gif","images/stimuli/spore_stims/complex_02_A_b.gif","self_paced","","3","complex_dissimilar","images/stimuli/spore_stims/complex_02_A_b.gif","","","","",""
"","null","html-keyboard-response","40","475142","0.0-15.0-0.1","SS1618365452216","","","null","","","","","","<p><img src= images/blank.png width =""600"" height = ""600"" style=""position:fixed;top:50%; left:50%; transform: translate(-50%, -50%); border:5px solid black"">","","","","","","","",""
"","11640.605000007781","sequential-stimulus-presentation-old","41","487288","0.0-15.0-1.1","SS1618365452216","trial","","40","500","12140.605000007781","images/stimuli/spore_stims/complex_20_A_a.gif","images/stimuli/spore_stims/complex_02_A_b.gif","self_paced","","3","complex_dissimilar","images/stimuli/spore_stims/complex_20_A_a.gif","","","","",""
"","null","html-keyboard-response","42","488194","0.0-15.0-0.2","SS1618365452216","","","null","","","","","","<p><img src= images/blank.png width =""600"" height = ""600"" style=""position:fixed;top:50%; left:50%; transform: translate(-50%, -50%); border:5px solid black"">","","","","","","","",""
"","11720.52000000258","sequential-stimulus-presentation-old","43","500419","0.0-15.0-1.2","SS1618365452216","trial","","40","500","12220.52000000258","images/stimuli/spore_stims/complex_20_A_a.gif","images/stimuli/spore_stims/complex_02_A_b.gif","self_paced","","3","complex_dissimilar","images/stimuli/spore_stims/complex_02_A_b.gif","","","","",""
"","null","html-keyboard-response","44","501504","0.0-15.0-0.3","SS1618365452216","","","null","","","","","","<p><img src= images/blank.png width =""600"" height = ""600"" style=""position:fixed;top:50%; left:50%; transform: translate(-50%, -50%); border:5px solid black"">","","","","","","","",""
"","9661.390000008396","sequential-stimulus-presentation-old","45","511673","0.0-15.0-1.3","SS1618365452216","trial","","40","500","10161.390000008396","images/stimuli/spore_stims/complex_20_A_a.gif","images/stimuli/spore_stims/complex_02_A_b.gif","self_paced","","3","complex_dissimilar","images/stimuli/spore_stims/complex_02_A_b.gif","","","","",""
"","3649.5599999907427","survey-multi-choice","46","515325","0.0-16.0","SS1618365452216","math_question","","","","","","","","","","","","{""Q0"":""8""}","[0]","8","",""
"","null","html-keyboard-response","47","516146","0.0-17.0-0.0","SS1618365452216","","","null","","","","","","<p><img src= images/blank.png width =""600"" height = ""600"" style=""position:fixed;top:50%; left:50%; transform: translate(-50%, -50%); border:5px solid black"">","","","","","","","",""
"","1806.6249999974389","sequential-stimulus-presentation-old","48","522959","0.0-17.0-1.0","SS1618365452216","trial","","40","500","2306.624999997439","images/stimuli/spore_stims/complex_09_A_a.gif","images/stimuli/spore_stims/complex_12_A_b.gif","forced_long","","4","complex_dissimilar","images/stimuli/spore_stims/complex_12_A_b.gif","","","","",""
"","null","html-keyboard-response","49","524029","0.0-17.0-0.1","SS1618365452216","","","null","","","","","","<p><img src= images/blank.png width =""600"" height = ""600"" style=""position:fixed;top:50%; left:50%; transform: translate(-50%, -50%); border:5px solid black"">","","","","","","","",""
"","10080.174999995506","sequential-stimulus-presentation-old","50","534614","0.0-17.0-1.1","SS1618365452216","trial","","40","500","10580.174999995506","images/stimuli/spore_stims/complex_09_A_a.gif","images/stimuli/spore_stims/complex_12_A_b.gif","forced_long","","4","complex_dissimilar","images/stimuli/spore_stims/complex_12_A_b.gif","","","","",""
"","null","html-keyboard-response","51","535727","0.0-17.0-0.2","SS1618365452216","","","null","","","","","","<p><img src= images/blank.png width =""600"" height = ""600"" style=""position:fixed;top:50%; left:50%; transform: translate(-50%, -50%); border:5px solid black"">","","","","","","","",""
"","13140.375000002678","sequential-stimulus-presentation-old","52","549374","0.0-17.0-1.2","SS1618365452216","trial","","40","500","13640.375000002678","images/stimuli/spore_stims/complex_09_A_a.gif","images/stimuli/spore_stims/complex_12_A_b.gif","forced_long","","4","complex_dissimilar","images/stimuli/spore_stims/complex_12_A_b.gif","","","","",""
"","null","html-keyboard-response","53","550545","0.0-17.0-0.3","SS1618365452216","","","null","","","","","","<p><img src= images/blank.png width =""600"" height = ""600"" style=""position:fixed;top:50%; left:50%; transform: translate(-50%, -50%); border:5px solid black"">","","","","","","","",""
"","10290.864999988116","sequential-stimulus-presentation-old","54","561343","0.0-17.0-1.3","SS1618365452216","trial","","40","500","10790.864999988116","images/stimuli/spore_stims/complex_09_A_a.gif","images/stimuli/spore_stims/complex_12_A_b.gif","forced_long","","4","complex_dissimilar","images/stimuli/spore_stims/complex_09_A_a.gif","","","","",""
"","3545.5349999974715","survey-multi-choice","55","564892","0.0-18.0","SS1618365452216","math_question","","","","","","","","","","","","{""Q0"":""14""}","[0]","14","",""
"","null","html-keyboard-response","56","565743","0.0-19.0-0.0","SS1618365452216","","","null","","","","","","<p><img src= images/blank.png width =""600"" height = ""600"" style=""position:fixed;top:50%; left:50%; transform: translate(-50%, -50%); border:5px solid black"">","","","","","","","",""
"","1145.5249999999069","sequential-stimulus-presentation-old","57","566946","0.0-19.0-1.0","SS1618365452216","trial","","40","500","1645.5249999999069","images/stimuli/spore_stims/complex_15_A_b.gif","images/stimuli/spore_stims/complex_17_A_a.gif","forced_short","","5","complex_dissimilar","images/stimuli/spore_stims/complex_17_A_a.gif","","","","",""
"","null","html-keyboard-response","58","567853","0.0-19.0-0.1","SS1618365452216","","","null","","","","","","<p><img src= images/blank.png width =""600"" height = ""600"" style=""position:fixed;top:50%; left:50%; transform: translate(-50%, -50%); border:5px solid black"">","","","","","","","",""
"","11829.104999997071","sequential-stimulus-presentation-old","59","580187","0.0-19.0-1.1","SS1618365452216","trial","","40","500","12329.104999997071","images/stimuli/spore_stims/complex_15_A_b.gif","images/stimuli/spore_stims/complex_17_A_a.gif","forced_short","","5","complex_dissimilar","images/stimuli/spore_stims/complex_17_A_a.gif","","","","",""
"","null","html-keyboard-response","60","581192","0.0-19.0-0.2","SS1618365452216","","","null","","","","","","<p><img src= images/blank.png width =""600"" height = ""600"" style=""position:fixed;top:50%; left:50%; transform: translate(-50%, -50%); border:5px solid black"">","","","","","","","",""
"","12945.194999992964","sequential-stimulus-presentation-old","61","594644","0.0-19.0-1.2","SS1618365452216","trial","","40","500","13445.194999992964","images/stimuli/spore_stims/complex_15_A_b.gif","images/stimuli/spore_stims/complex_17_A_a.gif","forced_short","","5","complex_dissimilar","images/stimuli/spore_stims/complex_17_A_a.gif","","","","",""
"","null","html-keyboard-response","62","595511","0.0-19.0-0.3","SS1618365452216","","","null","","","","","","<p><img src= images/blank.png width =""600"" height = ""600"" style=""position:fixed;top:50%; left:50%; transform: translate(-50%, -50%); border:5px solid black"">","","","","","","","",""
"","15391.65000000503","sequential-stimulus-presentation-old","63","611411","0.0-19.0-1.3","SS1618365452216","trial","","40","500","15891.65000000503","images/stimuli/spore_stims/complex_15_A_b.gif","images/stimuli/spore_stims/complex_17_A_a.gif","forced_short","","5","complex_dissimilar","images/stimuli/spore_stims/complex_17_A_a.gif","","","","",""
"","null","html-keyboard-response","64","612250","0.0-19.0-0.4","SS1618365452216","","","null","","","","","","<p><img src= images/blank.png width =""600"" height = ""600"" style=""position:fixed;top:50%; left:50%; transform: translate(-50%, -50%); border:5px solid black"">","","","","","","","",""
"","18410.74999999546","sequential-stimulus-presentation-old","65","631169","0.0-19.0-1.4","SS1618365452216","trial","","40","500","18910.74999999546","images/stimuli/spore_stims/complex_15_A_b.gif","images/stimuli/spore_stims/complex_17_A_a.gif","forced_short","","5","complex_dissimilar","images/stimuli/spore_stims/complex_15_A_b.gif","","","","",""
"","null","html-keyboard-response","66","632370","0.0-19.0-0.5","SS1618365452216","","","null","","","","","","<p><img src= images/blank.png width =""600"" height = ""600"" style=""position:fixed;top:50%; left:50%; transform: translate(-50%, -50%); border:5px solid black"">","","","","","","","",""
"","7375.1200000115205","sequential-stimulus-presentation-old","67","640251","0.0-19.0-1.5","SS1618365452216","trial","","40","500","7875.1200000115205","images/stimuli/spore_stims/complex_15_A_b.gif","images/stimuli/spore_stims/complex_17_A_a.gif","forced_short","","5","complex_dissimilar","images/stimuli/spore_stims/complex_15_A_b.gif","","","","",""
"","3811.790000007022","survey-multi-choice","68","644065","0.0-20.0","SS1618365452216","math_question","","","","","","","","","","","","{""Q0"":""12""}","[0]","12","",""
"","null","html-keyboard-response","69","645204","0.0-21.0-0.0","SS1618365452216","","","null","","","","","","<p><img src= images/blank.png width =""600"" height = ""600"" style=""position:fixed;top:50%; left:50%; transform: translate(-50%, -50%); border:5px solid black"">","","","","","","","",""
"","887.7899999934016","sequential-stimulus-presentation-old","70","646146","0.0-21.0-1.0","SS1618365452216","trial","","40","500","1387.7899999934016","images/stimuli/spore_stims/simple_14_A_a.gif","images/stimuli/spore_stims/simple_04_A_b.gif","forced_short","","6","simple_dissimilar","images/stimuli/spore_stims/simple_04_A_b.gif","","","","",""
"","null","html-keyboard-response","71","647144","0.0-21.0-0.1","SS1618365452216","","","null","","","","","","<p><img src= images/blank.png width =""600"" height = ""600"" style=""position:fixed;top:50%; left:50%; transform: translate(-50%, -50%); border:5px solid black"">","","","","","","","",""
"","9287.884999997914","sequential-stimulus-presentation-old","72","656936","0.0-21.0-1.1","SS1618365452216","trial","","40","500","9787.884999997914","images/stimuli/spore_stims/simple_14_A_a.gif","images/stimuli/spore_stims/simple_04_A_b.gif","forced_short","","6","simple_dissimilar","images/stimuli/spore_stims/simple_04_A_b.gif","","","","",""
"","null","html-keyboard-response","73","657807","0.0-21.0-0.2","SS1618365452216","","","null","","","","","","<p><img src= images/blank.png width =""600"" height = ""600"" style=""position:fixed;top:50%; left:50%; transform: translate(-50%, -50%); border:5px solid black"">","","","","","","","",""
"","10692.50999999349","sequential-stimulus-presentation-old","74","669005","0.0-21.0-1.2","SS1618365452216","trial","","40","500","11192.50999999349","images/stimuli/spore_stims/simple_14_A_a.gif","images/stimuli/spore_stims/simple_04_A_b.gif","forced_short","","6","simple_dissimilar","images/stimuli/spore_stims/simple_04_A_b.gif","","","","",""
"","null","html-keyboard-response","75","670198","0.0-21.0-0.3","SS1618365452216","","","null","","","","","","<p><img src= images/blank.png width =""600"" height = ""600"" style=""position:fixed;top:50%; left:50%; transform: translate(-50%, -50%); border:5px solid black"">","","","","","","","",""
"","9803.3199999918","sequential-stimulus-presentation-old","76","680508","0.0-21.0-1.3","SS1618365452216","trial","","40","500","10303.3199999918","images/stimuli/spore_stims/simple_14_A_a.gif","images/stimuli/spore_stims/simple_04_A_b.gif","forced_short","","6","simple_dissimilar","images/stimuli/spore_stims/simple_04_A_b.gif","","","","",""
"","null","html-keyboard-response","77","681629","0.0-21.0-0.4","SS1618365452216","","","null","","","","","","<p><img src= images/blank.png width =""600"" height = ""600"" style=""position:fixed;top:50%; left:50%; transform: translate(-50%, -50%); border:5px solid black"">","","","","","","","",""
"","6823.804999992717","sequential-stimulus-presentation-old","78","688960","0.0-21.0-1.4","SS1618365452216","trial","","40","500","7323.804999992717","images/stimuli/spore_stims/simple_14_A_a.gif","images/stimuli/spore_stims/simple_04_A_b.gif","forced_short","","6","simple_dissimilar","images/stimuli/spore_stims/simple_04_A_b.gif","","","","",""
"","3723.4800000005635","survey-multi-choice","79","692689","0.0-22.0","SS1618365452216","math_question","","","","","","","","","","","","{""Q0"":""11""}","[0]","11","",""
"","null","html-keyboard-response","80","693883","0.0-23.0-0.0","SS1618365452216","","","null","","","","","","<p><img src= images/blank.png width =""600"" height = ""600"" style=""position:fixed;top:50%; left:50%; transform: translate(-50%, -50%); border:5px solid black"">","","","","","","","",""
"","8595.914999998058","sequential-stimulus-presentation-old","81","702987","0.0-23.0-1.0","SS1618365452216","trial","","40","500","9095.914999998058","images/stimuli/spore_stims/simple_13_A_b.gif","images/stimuli/spore_stims/simple_06_A_a.gif","self_paced","","7","simple_dissimilar","images/stimuli/spore_stims/simple_06_A_a.gif","","","","",""
"","null","html-keyboard-response","82","704081","0.0-23.0-0.1","SS1618365452216","","","null","","","","","","<p><img src= images/blank.png width =""600"" height = ""600"" style=""position:fixed;top:50%; left:50%; transform: translate(-50%, -50%); border:5px solid black"">","","","","","","","",""
"","6936.684999993304","sequential-stimulus-presentation-old","83","711523","0.0-23.0-1.1","SS1618365452216","trial","","40","500","7436.684999993304","images/stimuli/spore_stims/simple_13_A_b.gif","images/stimuli/spore_stims/simple_06_A_a.gif","self_paced","","7","simple_dissimilar","images/stimuli/spore_stims/simple_06_A_a.gif","","","","",""
"","null","html-keyboard-response","84","712399","0.0-23.0-0.2","SS1618365452216","","","null","","","","","","<p><img src= images/blank.png width =""600"" height = ""600"" style=""position:fixed;top:50%; left:50%; transform: translate(-50%, -50%); border:5px solid black"">","","","","","","","",""
"","10437.505000008969","sequential-stimulus-presentation-old","85","723343","0.0-23.0-1.2","SS1618365452216","trial","","40","500","10937.505000008969","images/stimuli/spore_stims/simple_13_A_b.gif","images/stimuli/spore_stims/simple_06_A_a.gif","self_paced","","7","simple_dissimilar","images/stimuli/spore_stims/simple_13_A_b.gif","","","","",""
"","null","html-keyboard-response","86","724610","0.0-23.0-0.3","SS1618365452216","","","null","","","","","","<p><img src= images/blank.png width =""600"" height = ""600"" style=""position:fixed;top:50%; left:50%; transform: translate(-50%, -50%); border:5px solid black"">","","","","","","","",""
"","18707.93999999296","sequential-stimulus-presentation-old","87","743825","0.0-23.0-1.3","SS1618365452216","trial","","40","500","19207.93999999296","images/stimuli/spore_stims/simple_13_A_b.gif","images/stimuli/spore_stims/simple_06_A_a.gif","self_paced","","7","simple_dissimilar","images/stimuli/spore_stims/simple_06_A_a.gif","","","","",""
"","null","html-keyboard-response","88","745090","0.0-23.0-0.4","SS1618365452216","","","null","","","","","","<p><img src= images/blank.png width =""600"" height = ""600"" style=""position:fixed;top:50%; left:50%; transform: translate(-50%, -50%); border:5px solid black"">","","","","","","","",""
"","6894.074999989243","sequential-stimulus-presentation-old","89","752493","0.0-23.0-1.4","SS1618365452216","trial","","40","500","7394.074999989243","images/stimuli/spore_stims/simple_13_A_b.gif","images/stimuli/spore_stims/simple_06_A_a.gif","self_paced","","7","simple_dissimilar","images/stimuli/spore_stims/simple_13_A_b.gif","","","","",""
"","null","html-keyboard-response","90","753364","0.0-23.0-0.5","SS1618365452216","","","null","","","","","","<p><img src= images/blank.png width =""600"" height = ""600"" style=""position:fixed;top:50%; left:50%; transform: translate(-50%, -50%); border:5px solid black"">","","","","","","","",""
"","3784.5700000034412","sequential-stimulus-presentation-old","91","757654","0.0-23.0-1.5","SS1618365452216","trial","","40","500","4284.570000003441","images/stimuli/spore_stims/simple_13_A_b.gif","images/stimuli/spore_stims/simple_06_A_a.gif","self_paced","","7","simple_dissimilar","images/stimuli/spore_stims/simple_06_A_a.gif","","","","",""
"","6023.220000002766","survey-multi-choice","92","763682","0.0-24.0","SS1618365452216","math_question","","","","","","","","","","","","{""Q0"":""7""}","[0]","7","",""
"","null","html-keyboard-response","93","764633","0.0-25.0-0.0","SS1618365452216","","","null","","","","","","<p><img src= images/blank.png width =""600"" height = ""600"" style=""position:fixed;top:50%; left:50%; transform: translate(-50%, -50%); border:5px solid black"">","","","","","","","",""
"","1066.755000007106","sequential-stimulus-presentation-old","94","770710","0.0-25.0-1.0","SS1618365452216","trial","","40","500","1566.755000007106","images/stimuli/spore_stims/simple_09_A_b.gif","images/stimuli/spore_stims/simple_05_A_a.gif","forced_long","","8","simple_dissimilar","images/stimuli/spore_stims/simple_05_A_a.gif","","","","",""
"","null","html-keyboard-response","95","771546","0.0-25.0-0.1","SS1618365452216","","","null","","","","","","<p><img src= images/blank.png width =""600"" height = ""600"" style=""position:fixed;top:50%; left:50%; transform: translate(-50%, -50%); border:5px solid black"">","","","","","","","",""
"","13097.89499999897","sequential-stimulus-presentation-old","96","785152","0.0-25.0-1.1","SS1618365452216","trial","","40","500","13597.89499999897","images/stimuli/spore_stims/simple_09_A_b.gif","images/stimuli/spore_stims/simple_05_A_a.gif","forced_long","","8","simple_dissimilar","images/stimuli/spore_stims/simple_05_A_a.gif","","","","",""
"","null","html-keyboard-response","97","786222","0.0-25.0-0.2","SS1618365452216","","","null","","","","","","<p><img src= images/blank.png width =""600"" height = ""600"" style=""position:fixed;top:50%; left:50%; transform: translate(-50%, -50%); border:5px solid black"">","","","","","","","",""
"","12871.484999996028","sequential-stimulus-presentation-old","98","799599","0.0-25.0-1.2","SS1618365452216","trial","","40","500","13371.484999996028","images/stimuli/spore_stims/simple_09_A_b.gif","images/stimuli/spore_stims/simple_05_A_a.gif","forced_long","","8","simple_dissimilar","images/stimuli/spore_stims/simple_09_A_b.gif","","","","",""
"","null","html-keyboard-response","99","800613","0.0-25.0-0.3","SS1618365452216","","","null","","","","","","<p><img src= images/blank.png width =""600"" height = ""600"" style=""position:fixed;top:50%; left:50%; transform: translate(-50%, -50%); border:5px solid black"">","","","","","","","",""
"","9817.860000010114","sequential-stimulus-presentation-old","100","810937","0.0-25.0-1.3","SS1618365452216","trial","","40","500","10317.860000010114","images/stimuli/spore_stims/simple_09_A_b.gif","images/stimuli/spore_stims/simple_05_A_a.gif","forced_long","","8","simple_dissimilar","images/stimuli/spore_stims/simple_05_A_a.gif","","","","",""
"","null","html-keyboard-response","101","811893","0.0-25.0-0.4","SS1618365452216","","","null","","","","","","<p><img src= images/blank.png width =""600"" height = ""600"" style=""position:fixed;top:50%; left:50%; transform: translate(-50%, -50%); border:5px solid black"">","","","","","","","",""
"","9702.955000000657","sequential-stimulus-presentation-old","102","822102","0.0-25.0-1.4","SS1618365452216","trial","","40","500","10202.955000000657","images/stimuli/spore_stims/simple_09_A_b.gif","images/stimuli/spore_stims/simple_05_A_a.gif","forced_long","","8","simple_dissimilar","images/stimuli/spore_stims/simple_05_A_a.gif","","","","",""
"","3068.8999999983935","survey-multi-choice","103","825176","0.0-26.0","SS1618365452216","math_question","","","","","","","","","","","","{""Q0"":""11""}","[0]","11","",""
"","null","html-keyboard-response","104","826092","0.0-27.0-0.0","SS1618365452216","","","null","","","","","","<p><img src= images/blank.png width =""600"" height = ""600"" style=""position:fixed;top:50%; left:50%; transform: translate(-50%, -50%); border:5px solid black"">","","","","","","","",""
"","12544.030000004568","sequential-stimulus-presentation-old","105","838700","0.0-27.0-1.0","SS1618365452216","trial","","40","500","13044.030000004568","images/stimuli/spore_stims/complex_18_A_a.gif","images/stimuli/spore_stims/complex_13_A_b.gif","forced_short","","9","complex_dissimilar","images/stimuli/spore_stims/complex_13_A_b.gif","","","","",""
"","null","html-keyboard-response","106","839609","0.0-27.0-0.1","SS1618365452216","","","null","","","","","","<p><img src= images/blank.png width =""600"" height = ""600"" style=""position:fixed;top:50%; left:50%; transform: translate(-50%, -50%); border:5px solid black"">","","","","","","","",""
"","5205.610000004526","sequential-stimulus-presentation-old","107","845321","0.0-27.0-1.1","SS1618365452216","trial","","40","500","5705.610000004526","images/stimuli/spore_stims/complex_18_A_a.gif","images/stimuli/spore_stims/complex_13_A_b.gif","forced_short","","9","complex_dissimilar","images/stimuli/spore_stims/complex_13_A_b.gif","","","","",""
"","null","html-keyboard-response","108","846317","0.0-27.0-0.2","SS1618365452216","","","null","","","","","","<p><img src= images/blank.png width =""600"" height = ""600"" style=""position:fixed;top:50%; left:50%; transform: translate(-50%, -50%); border:5px solid black"">","","","","","","","",""
"","13282.7249999973","sequential-stimulus-presentation-old","109","860108","0.0-27.0-1.2","SS1618365452216","trial","","40","500","13782.7249999973","images/stimuli/spore_stims/complex_18_A_a.gif","images/stimuli/spore_stims/complex_13_A_b.gif","forced_short","","9","complex_dissimilar","images/stimuli/spore_stims/complex_13_A_b.gif","","","","",""
"","null","html-keyboard-response","110","861199","0.0-27.0-0.3","SS1618365452216","","","null","","","","","","<p><img src= images/blank.png width =""600"" height = ""600"" style=""position:fixed;top:50%; left:50%; transform: translate(-50%, -50%); border:5px solid black"">","","","","","","","",""
"","10289.63999998814","sequential-stimulus-presentation-old","111","871997","0.0-27.0-1.3","SS1618365452216","trial","","40","500","10789.63999998814","images/stimuli/spore_stims/complex_18_A_a.gif","images/stimuli/spore_stims/complex_13_A_b.gif","forced_short","","9","complex_dissimilar","images/stimuli/spore_stims/complex_13_A_b.gif","","","","",""
"","null","html-keyboard-response","112","873132","0.0-27.0-0.4","SS1618365452216","","","null","","","","","","<p><img src= images/blank.png width =""600"" height = ""600"" style=""position:fixed;top:50%; left:50%; transform: translate(-50%, -50%); border:5px solid black"">","","","","","","","",""
"","4992.664999997942","sequential-stimulus-presentation-old","113","878632","0.0-27.0-1.4","SS1618365452216","trial","","40","500","5492.664999997942","images/stimuli/spore_stims/complex_18_A_a.gif","images/stimuli/spore_stims/complex_13_A_b.gif","forced_short","","9","complex_dissimilar","images/stimuli/spore_stims/complex_18_A_a.gif","","","","",""
"","null","html-keyboard-response","114","879920","0.0-27.0-0.5","SS1618365452216","","","null","","","","","","<p><img src= images/blank.png width =""600"" height = ""600"" style=""position:fixed;top:50%; left:50%; transform: translate(-50%, -50%); border:5px solid black"">","","","","","","","",""
"","24125.205000003916","sequential-stimulus-presentation-old","115","904553","0.0-27.0-1.5","SS1618365452216","trial","","40","500","24625.205000003916","images/stimuli/spore_stims/complex_18_A_a.gif","images/stimuli/spore_stims/complex_13_A_b.gif","forced_short","","9","complex_dissimilar","images/stimuli/spore_stims/complex_13_A_b.gif","","","","",""
"","7612.20499999763","survey-multi-choice","116","912170","0.0-28.0","SS1618365452216","math_question","","","","","","","","","","","","{""Q0"":""12""}","[0]","12","",""
"","null","html-keyboard-response","117","913315","0.0-29.0-0.0","SS1618365452216","","","null","","","","","","<p><img src= images/blank.png width =""600"" height = ""600"" style=""position:fixed;top:50%; left:50%; transform: translate(-50%, -50%); border:5px solid black"">","","","","","","","",""
"","13367.480000000796","sequential-stimulus-presentation-old","118","927190","0.0-29.0-1.0","SS1618365452216","trial","","40","500","13867.480000000796","images/stimuli/spore_stims/simple_17_A_a.gif","images/stimuli/spore_stims/simple_18_A_b.gif","self_paced","","10","simple_dissimilar","images/stimuli/spore_stims/simple_18_A_b.gif","","","","",""
"","null","html-keyboard-response","119","928385","0.0-29.0-0.1","SS1618365452216","","","null","","","","","","<p><img src= images/blank.png width =""600"" height = ""600"" style=""position:fixed;top:50%; left:50%; transform: translate(-50%, -50%); border:5px solid black"">","","","","","","","",""
"","11624.079999994137","sequential-stimulus-presentation-old","120","940515","0.0-29.0-1.1","SS1618365452216","trial","","40","500","12124.079999994137","images/stimuli/spore_stims/simple_17_A_a.gif","images/stimuli/spore_stims/simple_18_A_b.gif","self_paced","","10","simple_dissimilar","images/stimuli/spore_stims/simple_18_A_b.gif","","","","",""
"","null","html-keyboard-response","121","941770","0.0-29.0-0.2","SS1618365452216","","","null","","","","","","<p><img src= images/blank.png width =""600"" height = ""600"" style=""position:fixed;top:50%; left:50%; transform: translate(-50%, -50%); border:5px solid black"">","","","","","","","",""
"","26043.074999994133","sequential-stimulus-presentation-old","122","968321","0.0-29.0-1.2","SS1618365452216","trial","","40","500","26543.074999994133","images/stimuli/spore_stims/simple_17_A_a.gif","images/stimuli/spore_stims/simple_18_A_b.gif","self_paced","","10","simple_dissimilar","images/stimuli/spore_stims/simple_18_A_b.gif","","","","",""
"","null","html-keyboard-response","123","969496","0.0-29.0-0.3","SS1618365452216","","","null","","","","","","<p><img src= images/blank.png width =""600"" height = ""600"" style=""position:fixed;top:50%; left:50%; transform: translate(-50%, -50%); border:5px solid black"">","","","","","","","",""
"","5113.100000002305","sequential-stimulus-presentation-old","124","975116","0.0-29.0-1.3","SS1618365452216","trial","","40","500","5613.100000002305","images/stimuli/spore_stims/simple_17_A_a.gif","images/stimuli/spore_stims/simple_18_A_b.gif","self_paced","","10","simple_dissimilar","images/stimuli/spore_stims/simple_18_A_b.gif","","","","",""
"","6190.595000007306","survey-multi-choice","125","981310","0.0-30.0","SS1618365452216","math_question","","","","","","","","","","","","{""Q0"":""10""}","[0]","10","",""
"","null","html-keyboard-response","126","982291","0.0-31.0-0.0","SS1618365452216","","","null","","","","","","<p><img src= images/blank.png width =""600"" height = ""600"" style=""position:fixed;top:50%; left:50%; transform: translate(-50%, -50%); border:5px solid black"">","","","","","","","",""
"","682.2699999902397","sequential-stimulus-presentation-old","127","987980","0.0-31.0-1.0","SS1618365452216","trial","","40","500","1182.2699999902397","images/stimuli/spore_stims/simple_07_A_b.gif","images/stimuli/spore_stims/simple_15_A_a.gif","forced_long","","11","simple_dissimilar","images/stimuli/spore_stims/simple_15_A_a.gif","","","","",""
"","null","html-keyboard-response","128","988911","0.0-31.0-0.1","SS1618365452216","","","null","","","","","","<p><img src= images/blank.png width =""600"" height = ""600"" style=""position:fixed;top:50%; left:50%; transform: translate(-50%, -50%); border:5px solid black"">","","","","","","","",""
"","8092.275000002701","sequential-stimulus-presentation-old","129","997511","0.0-31.0-1.1","SS1618365452216","trial","","40","500","8592.2750000027","images/stimuli/spore_stims/simple_07_A_b.gif","images/stimuli/spore_stims/simple_15_A_a.gif","forced_long","","11","simple_dissimilar","images/stimuli/spore_stims/simple_07_A_b.gif","","","","",""
"","null","html-keyboard-response","130","998513","0.0-31.0-0.2","SS1618365452216","","","null","","","","","","<p><img src= images/blank.png width =""600"" height = ""600"" style=""position:fixed;top:50%; left:50%; transform: translate(-50%, -50%); border:5px solid black"">","","","","","","","",""
"","17780.905000006896","sequential-stimulus-presentation-old","131","1016802","0.0-31.0-1.2","SS1618365452216","trial","","40","500","18280.905000006896","images/stimuli/spore_stims/simple_07_A_b.gif","images/stimuli/spore_stims/simple_15_A_a.gif","forced_long","","11","simple_dissimilar","images/stimuli/spore_stims/simple_15_A_a.gif","","","","",""
"","null","html-keyboard-response","132","1017687","0.0-31.0-0.3","SS1618365452216","","","null","","","","","","<p><img src= images/blank.png width =""600"" height = ""600"" style=""position:fixed;top:50%; left:50%; transform: translate(-50%, -50%); border:5px solid black"">","","","","","","","",""
"","13143.315000008442","sequential-stimulus-presentation-old","133","1031339","0.0-31.0-1.3","SS1618365452216","trial","","40","500","13643.315000008442","images/stimuli/spore_stims/simple_07_A_b.gif","images/stimuli/spore_stims/simple_15_A_a.gif","forced_long","","11","simple_dissimilar","images/stimuli/spore_stims/simple_07_A_b.gif","","","","",""
"","null","html-keyboard-response","134","1032345","0.0-31.0-0.4","SS1618365452216","","","null","","","","","","<p><img src= images/blank.png width =""600"" height = ""600"" style=""position:fixed;top:50%; left:50%; transform: translate(-50%, -50%); border:5px solid black"">","","","","","","","",""
"","9166.93999999552","sequential-stimulus-presentation-old","135","1042020","0.0-31.0-1.4","SS1618365452216","trial","","40","500","9666.93999999552","images/stimuli/spore_stims/simple_07_A_b.gif","images/stimuli/spore_stims/simple_15_A_a.gif","forced_long","","11","simple_dissimilar","images/stimuli/spore_stims/simple_15_A_a.gif","","","","",""
"","null","html-keyboard-response","136","1043005","0.0-31.0-0.5","SS1618365452216","","","null","","","","","","<p><img src= images/blank.png width =""600"" height = ""600"" style=""position:fixed;top:50%; left:50%; transform: translate(-50%, -50%); border:5px solid black"">","","","","","","","",""
"","9909.275000012713","sequential-stimulus-presentation-old","137","1053423","0.0-31.0-1.5","SS1618365452216","trial","","40","500","10409.275000012713","images/stimuli/spore_stims/simple_07_A_b.gif","images/stimuli/spore_stims/simple_15_A_a.gif","forced_long","","11","simple_dissimilar","images/stimuli/spore_stims/simple_15_A_a.gif","","","","",""
"[{""page_index"":0,""viewing_time"":8280.494999998948}]","8281.92000000854","instructions","138","1061708","0.0-32.0","SS1618365452216","instructions","","","","","","","","","","","","","","","",""
"","249866.81000000658","survey-likert","139","1311579","0.0-33.0","SS1618365452216","similarity_question","","","","","","","","","","","","{""Q0"":3}","[0]","","images/stimuli/spore_stims/simple_08_A_b.gif","images/stimuli/spore_stims/simple_07_A_a.gif"
"","5882.3800000099","survey-likert","140","1317472","0.0-34.0","SS1618365452216","similarity_question","","","","","","","","","","","","{""Q0"":4}","[0]","","images/stimuli/spore_stims/complex_12_A_b.gif","images/stimuli/spore_stims/complex_09_A_a.gif"
"","3823.789999994915","survey-likert","141","1321306","0.0-35.0","SS1618365452216","similarity_question","","","","","","","","","","","","{""Q0"":4}","[0]","","images/stimuli/spore_stims/complex_08_A_b.gif","images/stimuli/spore_stims/complex_19_A_a.gif"
"","4530.254999990575","survey-likert","142","1325845","0.0-36.0","SS1618365452216","similarity_question","","","","","","","","","","","","{""Q0"":4}","[0]","","images/stimuli/spore_stims/complex_15_A_b.gif","images/stimuli/spore_stims/complex_17_A_a.gif"
"","3438.4500000015832","survey-likert","143","1329294","0.0-37.0","SS1618365452216","similarity_question","","","","","","","","","","","","{""Q0"":4}","[0]","","images/stimuli/spore_stims/simple_05_A_a.gif","images/stimuli/spore_stims/simple_09_A_b.gif"
"","3793.864999999525","survey-likert","144","1333102","0.0-38.0","SS1618365452216","similarity_question","","","","","","","","","","","","{""Q0"":2}","[0]","","images/stimuli/spore_stims/simple_14_A_a.gif","images/stimuli/spore_stims/simple_04_A_b.gif"
"","2761.5599999988917","survey-likert","145","1335874","0.0-39.0","SS1618365452216","similarity_question","","","","","","","","","","","","{""Q0"":4}","[0]","","images/stimuli/spore_stims/simple_13_A_b.gif","images/stimuli/spore_stims/simple_06_A_a.gif"
"","2230.615000007674","survey-likert","146","1338114","0.0-40.0","SS1618365452216","similarity_question","","","","","","","","","","","","{""Q0"":3}","[0]","","images/stimuli/spore_stims/simple_15_A_a.gif","images/stimuli/spore_stims/simple_07_A_b.gif"
"","3249.3850000025705","survey-likert","147","1341376","0.0-41.0","SS1618365452216","similarity_question","","","","","","","","","","","","{""Q0"":2}","[0]","","images/stimuli/spore_stims/complex_20_A_a.gif","images/stimuli/spore_stims/complex_02_A_b.gif"
"","3815.130000002682","survey-likert","148","1345203","0.0-42.0","SS1618365452216","similarity_question","","","","","","","","","","","","{""Q0"":2}","[0]","","images/stimuli/spore_stims/simple_18_A_b.gif","images/stimuli/spore_stims/simple_17_A_a.gif"
"","4063.625000009779","survey-likert","149","1349277","0.0-43.0","SS1618365452216","similarity_question","","","","","","","","","","","","{""Q0"":2}","[0]","","images/stimuli/spore_stims/complex_18_A_b.gif","images/stimuli/spore_stims/complex_01_A_a.gif"
"","5380.065000004601","survey-likert","150","1354666","0.0-44.0","SS1618365452216","similarity_question","","","","","","","","","","","","{""Q0"":2}","[0]","","images/stimuli/spore_stims/complex_13_A_b.gif","images/stimuli/spore_stims/complex_18_A_a.gif"
"[{""page_index"":0,""viewing_time"":5806.124999988126}]","5806.805000000168","instructions","151","1360483","0.0-45.0","SS1618365452216","instructions","","","","","","","","","","","","","","","",""
"","3215.2799999893177","survey-likert","152","1363705","0.0-46.0","SS1618365452216","","","","","","","","","images/stimuli/spore_stims/complex_17_A_a.gif","","","","{""Q0"":4}","[0]","","",""
"","3591.895000005141","survey-likert","153","1367306","0.0-47.0","SS1618365452216","","","","","","","","","images/stimuli/spore_stims/simple_15_A_a.gif","","","","{""Q0"":2}","[0]","","",""
"","3783.3200000023935","survey-likert","154","1371099","0.0-48.0","SS1618365452216","","","","","","","","","images/stimuli/spore_stims/complex_19_A_a.gif","","","","{""Q0"":5}","[0]","","",""
"","2757.6299999929033","survey-likert","155","1373868","0.0-49.0","SS1618365452216","","","","","","","","","images/stimuli/spore_stims/simple_05_A_a.gif","","","","{""Q0"":1}","[0]","","",""
"","2658.719999992056","survey-likert","156","1376538","0.0-50.0","SS1618365452216","","","","","","","","","images/stimuli/spore_stims/simple_14_A_a.gif","","","","{""Q0"":1}","[0]","","",""
"","3201.625000001397","survey-likert","157","1379750","0.0-51.0","SS1618365452216","","","","","","","","","images/stimuli/spore_stims/simple_18_A_b.gif","","","","{""Q0"":1}","[0]","","",""
"","2573.0749999932013","survey-likert","158","1382334","0.0-52.0","SS1618365452216","","","","","","","","","images/stimuli/spore_stims/complex_09_A_a.gif","","","","{""Q0"":5}","[0]","","",""
"","2810.170000011567","survey-likert","159","1385157","0.0-53.0","SS1618365452216","","","","","","","","","images/stimuli/spore_stims/simple_13_A_b.gif","","","","{""Q0"":1}","[0]","","",""
"","1974.835000000894","survey-likert","160","1387144","0.0-54.0","SS1618365452216","","","","","","","","","images/stimuli/spore_stims/simple_08_A_b.gif","","","","{""Q0"":1}","[0]","","",""
"","2186.7800000035204","survey-likert","161","1389344","0.0-55.0","SS1618365452216","","","","","","","","","images/stimuli/spore_stims/complex_02_A_b.gif","","","","{""Q0"":4}","[0]","","",""
"","2244.7099999990314","survey-likert","162","1391598","0.0-56.0","SS1618365452216","","","","","","","","","images/stimuli/spore_stims/complex_18_A_a.gif","","","","{""Q0"":4}","[0]","","",""
"","4014.9749999982305","survey-likert","163","1395626","0.0-57.0","SS1618365452216","","","","","","","","","images/stimuli/spore_stims/complex_01_A_a.gif","","","","{""Q0"":5}","[0]","","",""
"[{""page_index"":0,""viewing_time"":3134.2300000106916}]","3134.8850000067614","instructions","164","1398769","0.0-58.0","SS1618365452216","instructions","","","","","","","","","","","","","","","",""
"","3240.565000000177","demog-age","165","1402020","0.0-59.0","SS1618365452216","","","","","","","","","","","","","{""age"":""24""}","","","",""
"","6180.919999998994","demog-ethnic-US","166","1408212","0.0-60.0","SS1618365452216","","","","","","","","","","","","","{""ethnicity"":[""Hispanic or Latino""]}","[0]","","",""
"","8815.354999998817","demog-gender-and-education","167","1417041","0.0-61.0","SS1618365452216","","","","","","","","","","","","","{""gender"":""Male"",""education"":""Bachelor's Degree""}","[0,1]","","",""
"","17398.20000001043","survey-text","168","1434452","0.0-62.0","SS1618365452216","feedback","","","","","","","","","","","","{""Q0"":""it's ok. thank you ""}","","","",""
"[{""page_index"":0,""viewing_time"":9122.95000000461}]","9123.60000000638","instructions","169","1443583","0.0-63.0","SS1618365452216","instructions","","","","","","","","","","","","","","","",""
