"view_history","rt","trial_type","trial_index","time_elapsed","internal_node_id","subject","stimulus_type","trial_stimulus","key_press","minimum_viewing_duration","trial_looking_time","block_deviant","block_background","exposure_type","stimulus","block_number","block_type","stimulus_displayed","responses","question_order","math_correct_answer","stimulus_left","stimulus_right"
"[{""page_index"":0,""viewing_time"":16518.32000000286}]","16520.690000004834","instructions","0","16534","0.0-0.0","SS1618365883719","","","","","","","","","","","","","","","","",""
"[{""page_index"":0,""viewing_time"":30302.774999989197},{""page_index"":1,""viewing_time"":12755.320000011125}]","43059.009999997215","instructions","1","61616","0.0-1.0","SS1618365883719","instructions","","","","","","","","","","","","","","","",""
"","31506.534999993164","sequential-stimulus-presentation-old","2","93647","0.0-2.0","SS1618365883719","","","40","500","32006.534999993164","null","null","self_paced","","","","","","","","",""
"","11017.449999999371","sequential-stimulus-presentation-old","3","105185","0.0-3.0","SS1618365883719","","","40","500","11517.449999999371","null","null","self_paced","","","","","","","","",""
"[{""page_index"":0,""viewing_time"":72004.35999999172}]","72005.83999999799","instructions","4","177196","0.0-4.0","SS1618365883719","instructions","","","","","","","","","","","","","","","",""
"","5076.9600000057835","sequential-stimulus-presentation-old","5","187284","0.0-5.0","SS1618365883719","","","40","500","5576.9600000057835","null","null","forced_long","","","","","","","","",""
"","7775.995000003604","sequential-stimulus-presentation-old","6","195140","0.0-6.0","SS1618365883719","","","40","50","7825.995000003604","null","null","forced_long","","","","","","","","",""
"[{""page_index"":0,""viewing_time"":7976.110000003246}]","7977.255000005243","instructions","7","203131","0.0-7.0","SS1618365883719","instructions","","","","","","","","","","","","","","","",""
"[{""page_index"":0,""viewing_time"":16556.500000006054},{""page_index"":1,""viewing_time"":19617.78499999491},{""page_index"":2,""viewing_time"":9418.350000007194},{""page_index"":3,""viewing_time"":1931.5999999962514},{""page_index"":4,""viewing_time"":1726.3499999971827}]","49251.740000006976","instructions","8","252390","0.0-8.0","SS1618365883719","instructions","","","","","","","","","","","","","","","",""
"","null","html-keyboard-response","9","253603","0.0-9.0-0.0","SS1618365883719","","","null","","","","","","<p><img src= images/blank.png width =""600"" height = ""600"" style=""position:fixed;top:50%; left:50%; transform: translate(-50%, -50%); border:5px solid black"">","","","","","","","",""
"","466.56000000075437","sequential-stimulus-presentation-old","10","254163","0.0-9.0-1.0","SS1618365883719","trial","","40","500","966.5600000007544","images/stimuli/spore_stims/complex_19_A_a.gif","images/stimuli/spore_stims/complex_16_A_b.gif","forced_short","","0","complex_dissimilar","images/stimuli/spore_stims/complex_16_A_b.gif","","","","",""
"","null","html-keyboard-response","11","255246","0.0-9.0-0.1","SS1618365883719","","","null","","","","","","<p><img src= images/blank.png width =""600"" height = ""600"" style=""position:fixed;top:50%; left:50%; transform: translate(-50%, -50%); border:5px solid black"">","","","","","","","",""
"","41389.63000000513","sequential-stimulus-presentation-old","12","297161","0.0-9.0-1.1","SS1618365883719","trial","","40","500","41889.63000000513","images/stimuli/spore_stims/complex_19_A_a.gif","images/stimuli/spore_stims/complex_16_A_b.gif","forced_short","","0","complex_dissimilar","images/stimuli/spore_stims/complex_16_A_b.gif","","","","",""
"","null","html-keyboard-response","13","298326","0.0-9.0-0.2","SS1618365883719","","","null","","","","","","<p><img src= images/blank.png width =""600"" height = ""600"" style=""position:fixed;top:50%; left:50%; transform: translate(-50%, -50%); border:5px solid black"">","","","","","","","",""
"","21849.594999992405","sequential-stimulus-presentation-old","14","320733","0.0-9.0-1.2","SS1618365883719","trial","","40","500","22349.594999992405","images/stimuli/spore_stims/complex_19_A_a.gif","images/stimuli/spore_stims/complex_16_A_b.gif","forced_short","","0","complex_dissimilar","images/stimuli/spore_stims/complex_16_A_b.gif","","","","",""
"","null","html-keyboard-response","15","321579","0.0-9.0-0.3","SS1618365883719","","","null","","","","","","<p><img src= images/blank.png width =""600"" height = ""600"" style=""position:fixed;top:50%; left:50%; transform: translate(-50%, -50%); border:5px solid black"">","","","","","","","",""
"","11894.604999994044","sequential-stimulus-presentation-old","16","334011","0.0-9.0-1.3","SS1618365883719","trial","","40","500","12394.604999994044","images/stimuli/spore_stims/complex_19_A_a.gif","images/stimuli/spore_stims/complex_16_A_b.gif","forced_short","","0","complex_dissimilar","images/stimuli/spore_stims/complex_19_A_a.gif","","","","",""
"","null","html-keyboard-response","17","335052","0.0-9.0-0.4","SS1618365883719","","","null","","","","","","<p><img src= images/blank.png width =""600"" height = ""600"" style=""position:fixed;top:50%; left:50%; transform: translate(-50%, -50%); border:5px solid black"">","","","","","","","",""
"","1882.2150000050897","sequential-stimulus-presentation-old","18","337483","0.0-9.0-1.4","SS1618365883719","trial","","40","500","2382.2150000050897","images/stimuli/spore_stims/complex_19_A_a.gif","images/stimuli/spore_stims/complex_16_A_b.gif","forced_short","","0","complex_dissimilar","images/stimuli/spore_stims/complex_16_A_b.gif","","","","",""
"","null","html-keyboard-response","19","338771","0.0-9.0-0.5","SS1618365883719","","","null","","","","","","<p><img src= images/blank.png width =""600"" height = ""600"" style=""position:fixed;top:50%; left:50%; transform: translate(-50%, -50%); border:5px solid black"">","","","","","","","",""
"","5967.279999997118","sequential-stimulus-presentation-old","20","345280","0.0-9.0-1.5","SS1618365883719","trial","","40","500","6467.279999997118","images/stimuli/spore_stims/complex_19_A_a.gif","images/stimuli/spore_stims/complex_16_A_b.gif","forced_short","","0","complex_dissimilar","images/stimuli/spore_stims/complex_16_A_b.gif","","","","",""
"","9701.73000000068","survey-multi-choice","21","355008","0.0-10.0","SS1618365883719","math_question","","","","","","","","","","","","{""Q0"":""11""}","[0]","11","",""
"","null","html-keyboard-response","22","355957","0.0-11.0-0.0","SS1618365883719","","","null","","","","","","<p><img src= images/blank.png width =""600"" height = ""600"" style=""position:fixed;top:50%; left:50%; transform: translate(-50%, -50%); border:5px solid black"">","","","","","","","",""
"","680.3750000108266","sequential-stimulus-presentation-old","23","356731","0.0-11.0-1.0","SS1618365883719","trial","","40","500","1180.3750000108266","images/stimuli/spore_stims/simple_11_A_a.gif","images/stimuli/spore_stims/simple_18_A_b.gif","forced_short","","1","simple_dissimilar","images/stimuli/spore_stims/simple_18_A_b.gif","","","","",""
"","null","html-keyboard-response","24","357892","0.0-11.0-0.1","SS1618365883719","","","null","","","","","","<p><img src= images/blank.png width =""600"" height = ""600"" style=""position:fixed;top:50%; left:50%; transform: translate(-50%, -50%); border:5px solid black"">","","","","","","","",""
"","7596.044999998412","sequential-stimulus-presentation-old","25","366018","0.0-11.0-1.1","SS1618365883719","trial","","40","500","8096.044999998412","images/stimuli/spore_stims/simple_11_A_a.gif","images/stimuli/spore_stims/simple_18_A_b.gif","forced_short","","1","simple_dissimilar","images/stimuli/spore_stims/simple_18_A_b.gif","","","","",""
"","null","html-keyboard-response","26","367132","0.0-11.0-0.2","SS1618365883719","","","null","","","","","","<p><img src= images/blank.png width =""600"" height = ""600"" style=""position:fixed;top:50%; left:50%; transform: translate(-50%, -50%); border:5px solid black"">","","","","","","","",""
"","6649.8050000082","sequential-stimulus-presentation-old","27","374313","0.0-11.0-1.2","SS1618365883719","trial","","40","500","7149.8050000082","images/stimuli/spore_stims/simple_11_A_a.gif","images/stimuli/spore_stims/simple_18_A_b.gif","forced_short","","1","simple_dissimilar","images/stimuli/spore_stims/simple_18_A_b.gif","","","","",""
"","null","html-keyboard-response","28","375211","0.0-11.0-0.3","SS1618365883719","","","null","","","","","","<p><img src= images/blank.png width =""600"" height = ""600"" style=""position:fixed;top:50%; left:50%; transform: translate(-50%, -50%); border:5px solid black"">","","","","","","","",""
"","1772.7600000071106","sequential-stimulus-presentation-old","29","377512","0.0-11.0-1.3","SS1618365883719","trial","","40","500","2272.7600000071106","images/stimuli/spore_stims/simple_11_A_a.gif","images/stimuli/spore_stims/simple_18_A_b.gif","forced_short","","1","simple_dissimilar","images/stimuli/spore_stims/simple_18_A_b.gif","","","","",""
"","null","html-keyboard-response","30","378599","0.0-11.0-0.4","SS1618365883719","","","null","","","","","","<p><img src= images/blank.png width =""600"" height = ""600"" style=""position:fixed;top:50%; left:50%; transform: translate(-50%, -50%); border:5px solid black"">","","","","","","","",""
"","6022.495000011986","sequential-stimulus-presentation-old","31","385157","0.0-11.0-1.4","SS1618365883719","trial","","40","500","6522.495000011986","images/stimuli/spore_stims/simple_11_A_a.gif","images/stimuli/spore_stims/simple_18_A_b.gif","forced_short","","1","simple_dissimilar","images/stimuli/spore_stims/simple_18_A_b.gif","","","","",""
"","5525.185000005877","survey-multi-choice","32","390692","0.0-12.0","SS1618365883719","math_question","","","","","","","","","","","","{""Q0"":""8""}","[0]","8","",""
"","null","html-keyboard-response","33","391875","0.0-13.0-0.0","SS1618365883719","","","null","","","","","","<p><img src= images/blank.png width =""600"" height = ""600"" style=""position:fixed;top:50%; left:50%; transform: translate(-50%, -50%); border:5px solid black"">","","","","","","","",""
"","11051.745000004303","sequential-stimulus-presentation-old","34","403461","0.0-13.0-1.0","SS1618365883719","trial","","40","500","11551.745000004303","images/stimuli/spore_stims/complex_17_A_b.gif","images/stimuli/spore_stims/complex_06_A_a.gif","self_paced","","2","complex_dissimilar","images/stimuli/spore_stims/complex_06_A_a.gif","","","","",""
"","null","html-keyboard-response","35","404721","0.0-13.0-0.1","SS1618365883719","","","null","","","","","","<p><img src= images/blank.png width =""600"" height = ""600"" style=""position:fixed;top:50%; left:50%; transform: translate(-50%, -50%); border:5px solid black"">","","","","","","","",""
"","5707.535000008647","sequential-stimulus-presentation-old","36","410941","0.0-13.0-1.1","SS1618365883719","trial","","40","500","6207.535000008647","images/stimuli/spore_stims/complex_17_A_b.gif","images/stimuli/spore_stims/complex_06_A_a.gif","self_paced","","2","complex_dissimilar","images/stimuli/spore_stims/complex_17_A_b.gif","","","","",""
"","null","html-keyboard-response","37","411973","0.0-13.0-0.2","SS1618365883719","","","null","","","","","","<p><img src= images/blank.png width =""600"" height = ""600"" style=""position:fixed;top:50%; left:50%; transform: translate(-50%, -50%); border:5px solid black"">","","","","","","","",""
"","1028.874999989057","sequential-stimulus-presentation-old","38","413541","0.0-13.0-1.2","SS1618365883719","trial","","40","500","1528.874999989057","images/stimuli/spore_stims/complex_17_A_b.gif","images/stimuli/spore_stims/complex_06_A_a.gif","self_paced","","2","complex_dissimilar","images/stimuli/spore_stims/complex_06_A_a.gif","","","","",""
"","null","html-keyboard-response","39","414805","0.0-13.0-0.3","SS1618365883719","","","null","","","","","","<p><img src= images/blank.png width =""600"" height = ""600"" style=""position:fixed;top:50%; left:50%; transform: translate(-50%, -50%); border:5px solid black"">","","","","","","","",""
"","4900.714999996126","sequential-stimulus-presentation-old","40","420246","0.0-13.0-1.3","SS1618365883719","trial","","40","500","5400.714999996126","images/stimuli/spore_stims/complex_17_A_b.gif","images/stimuli/spore_stims/complex_06_A_a.gif","self_paced","","2","complex_dissimilar","images/stimuli/spore_stims/complex_06_A_a.gif","","","","",""
"","null","html-keyboard-response","41","421347","0.0-13.0-0.4","SS1618365883719","","","null","","","","","","<p><img src= images/blank.png width =""600"" height = ""600"" style=""position:fixed;top:50%; left:50%; transform: translate(-50%, -50%); border:5px solid black"">","","","","","","","",""
"","4334.855000008247","sequential-stimulus-presentation-old","42","426236","0.0-13.0-1.4","SS1618365883719","trial","","40","500","4834.855000008247","images/stimuli/spore_stims/complex_17_A_b.gif","images/stimuli/spore_stims/complex_06_A_a.gif","self_paced","","2","complex_dissimilar","images/stimuli/spore_stims/complex_06_A_a.gif","","","","",""
"","null","html-keyboard-response","43","427133","0.0-13.0-0.5","SS1618365883719","","","null","","","","","","<p><img src= images/blank.png width =""600"" height = ""600"" style=""position:fixed;top:50%; left:50%; transform: translate(-50%, -50%); border:5px solid black"">","","","","","","","",""
"","3058.2050000084564","sequential-stimulus-presentation-old","44","430725","0.0-13.0-1.5","SS1618365883719","trial","","40","500","3558.2050000084564","images/stimuli/spore_stims/complex_17_A_b.gif","images/stimuli/spore_stims/complex_06_A_a.gif","self_paced","","2","complex_dissimilar","images/stimuli/spore_stims/complex_06_A_a.gif","","","","",""
"","7336.645000003045","survey-multi-choice","45","438088","0.0-14.0","SS1618365883719","math_question","","","","","","","","","","","","{""Q0"":""13""}","[0]","13","",""
"","null","html-keyboard-response","46","439192","0.0-15.0-0.0","SS1618365883719","","","null","","","","","","<p><img src= images/blank.png width =""600"" height = ""600"" style=""position:fixed;top:50%; left:50%; transform: translate(-50%, -50%); border:5px solid black"">","","","","","","","",""
"","5428.4999999945285","sequential-stimulus-presentation-old","47","444724","0.0-15.0-1.0","SS1618365883719","trial","","40","500","5928.4999999945285","images/stimuli/spore_stims/complex_03_A_a.gif","images/stimuli/spore_stims/complex_11_A_b.gif","forced_short","","3","complex_dissimilar","images/stimuli/spore_stims/complex_11_A_b.gif","","","","",""
"","null","html-keyboard-response","48","445703","0.0-15.0-0.1","SS1618365883719","","","null","","","","","","<p><img src= images/blank.png width =""600"" height = ""600"" style=""position:fixed;top:50%; left:50%; transform: translate(-50%, -50%); border:5px solid black"">","","","","","","","",""
"","7395.550000001094","sequential-stimulus-presentation-old","49","453636","0.0-15.0-1.1","SS1618365883719","trial","","40","500","7895.550000001094","images/stimuli/spore_stims/complex_03_A_a.gif","images/stimuli/spore_stims/complex_11_A_b.gif","forced_short","","3","complex_dissimilar","images/stimuli/spore_stims/complex_11_A_b.gif","","","","",""
"","null","html-keyboard-response","50","454637","0.0-15.0-0.2","SS1618365883719","","","null","","","","","","<p><img src= images/blank.png width =""600"" height = ""600"" style=""position:fixed;top:50%; left:50%; transform: translate(-50%, -50%); border:5px solid black"">","","","","","","","",""
"","4595.394999996643","sequential-stimulus-presentation-old","51","459775","0.0-15.0-1.2","SS1618365883719","trial","","40","500","5095.394999996643","images/stimuli/spore_stims/complex_03_A_a.gif","images/stimuli/spore_stims/complex_11_A_b.gif","forced_short","","3","complex_dissimilar","images/stimuli/spore_stims/complex_11_A_b.gif","","","","",""
"","null","html-keyboard-response","52","460759","0.0-15.0-0.3","SS1618365883719","","","null","","","","","","<p><img src= images/blank.png width =""600"" height = ""600"" style=""position:fixed;top:50%; left:50%; transform: translate(-50%, -50%); border:5px solid black"">","","","","","","","",""
"","3294.9700000026496","sequential-stimulus-presentation-old","53","464585","0.0-15.0-1.3","SS1618365883719","trial","","40","500","3794.9700000026496","images/stimuli/spore_stims/complex_03_A_a.gif","images/stimuli/spore_stims/complex_11_A_b.gif","forced_short","","3","complex_dissimilar","images/stimuli/spore_stims/complex_11_A_b.gif","","","","",""
"","5682.035000005271","survey-multi-choice","54","470282","0.0-16.0","SS1618365883719","math_question","","","","","","","","","","","","{""Q0"":""5""}","[0]","5","",""
"","null","html-keyboard-response","55","471580","0.0-17.0-0.0","SS1618365883719","","","null","","","","","","<p><img src= images/blank.png width =""600"" height = ""600"" style=""position:fixed;top:50%; left:50%; transform: translate(-50%, -50%); border:5px solid black"">","","","","","","","",""
"","4857.454999990296","sequential-stimulus-presentation-old","56","476972","0.0-17.0-1.0","SS1618365883719","trial","","40","500","5357.454999990296","images/stimuli/spore_stims/simple_03_A_a.gif","images/stimuli/spore_stims/simple_04_A_b.gif","self_paced","","4","simple_dissimilar","images/stimuli/spore_stims/simple_04_A_b.gif","","","","",""
"","null","html-keyboard-response","57","478019","0.0-17.0-0.1","SS1618365883719","","","null","","","","","","<p><img src= images/blank.png width =""600"" height = ""600"" style=""position:fixed;top:50%; left:50%; transform: translate(-50%, -50%); border:5px solid black"">","","","","","","","",""
"","3474.1650000069058","sequential-stimulus-presentation-old","58","482033","0.0-17.0-1.1","SS1618365883719","trial","","40","500","3974.1650000069058","images/stimuli/spore_stims/simple_03_A_a.gif","images/stimuli/spore_stims/simple_04_A_b.gif","self_paced","","4","simple_dissimilar","images/stimuli/spore_stims/simple_04_A_b.gif","","","","",""
"","null","html-keyboard-response","59","483307","0.0-17.0-0.2","SS1618365883719","","","null","","","","","","<p><img src= images/blank.png width =""600"" height = ""600"" style=""position:fixed;top:50%; left:50%; transform: translate(-50%, -50%); border:5px solid black"">","","","","","","","",""
"","763.7649999960558","sequential-stimulus-presentation-old","60","484616","0.0-17.0-1.2","SS1618365883719","trial","","40","500","1263.7649999960558","images/stimuli/spore_stims/simple_03_A_a.gif","images/stimuli/spore_stims/simple_04_A_b.gif","self_paced","","4","simple_dissimilar","images/stimuli/spore_stims/simple_04_A_b.gif","","","","",""
"","null","html-keyboard-response","61","485874","0.0-17.0-0.3","SS1618365883719","","","null","","","","","","<p><img src= images/blank.png width =""600"" height = ""600"" style=""position:fixed;top:50%; left:50%; transform: translate(-50%, -50%); border:5px solid black"">","","","","","","","",""
"","1032.4950000067474","sequential-stimulus-presentation-old","62","487439","0.0-17.0-1.3","SS1618365883719","trial","","40","500","1532.4950000067474","images/stimuli/spore_stims/simple_03_A_a.gif","images/stimuli/spore_stims/simple_04_A_b.gif","self_paced","","4","simple_dissimilar","images/stimuli/spore_stims/simple_04_A_b.gif","","","","",""
"","5848.529999988386","survey-multi-choice","63","493320","0.0-18.0","SS1618365883719","math_question","","","","","","","","","","","","{""Q0"":""17""}","[0]","17","",""
"","null","html-keyboard-response","64","494227","0.0-19.0-0.0","SS1618365883719","","","null","","","","","","<p><img src= images/blank.png width =""600"" height = ""600"" style=""position:fixed;top:50%; left:50%; transform: translate(-50%, -50%); border:5px solid black"">","","","","","","","",""
"","69.17499999690335","sequential-stimulus-presentation-old","65","499339","0.0-19.0-1.0","SS1618365883719","trial","","40","500","569.1749999969034","images/stimuli/spore_stims/complex_17_A_a.gif","images/stimuli/spore_stims/complex_13_A_b.gif","forced_long","","5","complex_dissimilar","images/stimuli/spore_stims/complex_13_A_b.gif","","","","",""
"","null","html-keyboard-response","66","500667","0.0-19.0-0.1","SS1618365883719","","","null","","","","","","<p><img src= images/blank.png width =""600"" height = ""600"" style=""position:fixed;top:50%; left:50%; transform: translate(-50%, -50%); border:5px solid black"">","","","","","","","",""
"","8811.984999993001","sequential-stimulus-presentation-old","67","510015","0.0-19.0-1.1","SS1618365883719","trial","","40","500","9311.984999993001","images/stimuli/spore_stims/complex_17_A_a.gif","images/stimuli/spore_stims/complex_13_A_b.gif","forced_long","","5","complex_dissimilar","images/stimuli/spore_stims/complex_13_A_b.gif","","","","",""
"","null","html-keyboard-response","68","511259","0.0-19.0-0.2","SS1618365883719","","","null","","","","","","<p><img src= images/blank.png width =""600"" height = ""600"" style=""position:fixed;top:50%; left:50%; transform: translate(-50%, -50%); border:5px solid black"">","","","","","","","",""
"","3476.0399999941","sequential-stimulus-presentation-old","69","515295","0.0-19.0-1.2","SS1618365883719","trial","","40","500","3976.0399999941","images/stimuli/spore_stims/complex_17_A_a.gif","images/stimuli/spore_stims/complex_13_A_b.gif","forced_long","","5","complex_dissimilar","images/stimuli/spore_stims/complex_13_A_b.gif","","","","",""
"","null","html-keyboard-response","70","516171","0.0-19.0-0.3","SS1618365883719","","","null","","","","","","<p><img src= images/blank.png width =""600"" height = ""600"" style=""position:fixed;top:50%; left:50%; transform: translate(-50%, -50%); border:5px solid black"">","","","","","","","",""
"","791.6250000125729","sequential-stimulus-presentation-old","71","517507","0.0-19.0-1.3","SS1618365883719","trial","","40","500","1291.6250000125729","images/stimuli/spore_stims/complex_17_A_a.gif","images/stimuli/spore_stims/complex_13_A_b.gif","forced_long","","5","complex_dissimilar","images/stimuli/spore_stims/complex_13_A_b.gif","","","","",""
"","7359.58999999275","survey-multi-choice","72","524901","0.0-20.0","SS1618365883719","math_question","","","","","","","","","","","","{""Q0"":""13""}","[0]","13","",""
"","null","html-keyboard-response","73","525810","0.0-21.0-0.0","SS1618365883719","","","null","","","","","","<p><img src= images/blank.png width =""600"" height = ""600"" style=""position:fixed;top:50%; left:50%; transform: translate(-50%, -50%); border:5px solid black"">","","","","","","","",""
"","4871.785000010277","sequential-stimulus-presentation-old","74","531222","0.0-21.0-1.0","SS1618365883719","trial","","40","500","5371.785000010277","images/stimuli/spore_stims/complex_20_A_b.gif","images/stimuli/spore_stims/complex_15_A_a.gif","self_paced","","6","complex_dissimilar","images/stimuli/spore_stims/complex_15_A_a.gif","","","","",""
"","null","html-keyboard-response","75","532554","0.0-21.0-0.1","SS1618365883719","","","null","","","","","","<p><img src= images/blank.png width =""600"" height = ""600"" style=""position:fixed;top:50%; left:50%; transform: translate(-50%, -50%); border:5px solid black"">","","","","","","","",""
"","1393.9600000012433","sequential-stimulus-presentation-old","76","534474","0.0-21.0-1.1","SS1618365883719","trial","","40","500","1893.9600000012433","images/stimuli/spore_stims/complex_20_A_b.gif","images/stimuli/spore_stims/complex_15_A_a.gif","self_paced","","6","complex_dissimilar","images/stimuli/spore_stims/complex_15_A_a.gif","","","","",""
"","null","html-keyboard-response","77","535365","0.0-21.0-0.2","SS1618365883719","","","null","","","","","","<p><img src= images/blank.png width =""600"" height = ""600"" style=""position:fixed;top:50%; left:50%; transform: translate(-50%, -50%); border:5px solid black"">","","","","","","","",""
"","1994.6449999988545","sequential-stimulus-presentation-old","78","537912","0.0-21.0-1.2","SS1618365883719","trial","","40","500","2494.6449999988545","images/stimuli/spore_stims/complex_20_A_b.gif","images/stimuli/spore_stims/complex_15_A_a.gif","self_paced","","6","complex_dissimilar","images/stimuli/spore_stims/complex_15_A_a.gif","","","","",""
"","null","html-keyboard-response","79","539017","0.0-21.0-0.3","SS1618365883719","","","null","","","","","","<p><img src= images/blank.png width =""600"" height = ""600"" style=""position:fixed;top:50%; left:50%; transform: translate(-50%, -50%); border:5px solid black"">","","","","","","","",""
"","3237.429999993765","sequential-stimulus-presentation-old","80","542801","0.0-21.0-1.3","SS1618365883719","trial","","40","500","3737.429999993765","images/stimuli/spore_stims/complex_20_A_b.gif","images/stimuli/spore_stims/complex_15_A_a.gif","self_paced","","6","complex_dissimilar","images/stimuli/spore_stims/complex_20_A_b.gif","","","","",""
"","null","html-keyboard-response","81","543699","0.0-21.0-0.4","SS1618365883719","","","null","","","","","","<p><img src= images/blank.png width =""600"" height = ""600"" style=""position:fixed;top:50%; left:50%; transform: translate(-50%, -50%); border:5px solid black"">","","","","","","","",""
"","2960.449999998673","sequential-stimulus-presentation-old","82","547206","0.0-21.0-1.4","SS1618365883719","trial","","40","500","3460.449999998673","images/stimuli/spore_stims/complex_20_A_b.gif","images/stimuli/spore_stims/complex_15_A_a.gif","self_paced","","6","complex_dissimilar","images/stimuli/spore_stims/complex_20_A_b.gif","","","","",""
"","4124.27500000922","survey-multi-choice","83","551349","0.0-22.0","SS1618365883719","math_question","","","","","","","","","","","","{""Q0"":""14""}","[0]","14","",""
"","null","html-keyboard-response","84","552462","0.0-23.0-0.0","SS1618365883719","","","null","","","","","","<p><img src= images/blank.png width =""600"" height = ""600"" style=""position:fixed;top:50%; left:50%; transform: translate(-50%, -50%); border:5px solid black"">","","","","","","","",""
"","6406.510000000708","sequential-stimulus-presentation-old","85","558972","0.0-23.0-1.0","SS1618365883719","trial","","40","500","6906.510000000708","images/stimuli/spore_stims/simple_03_A_b.gif","images/stimuli/spore_stims/simple_01_A_a.gif","forced_short","","7","simple_dissimilar","images/stimuli/spore_stims/simple_01_A_a.gif","","","","",""
"","null","html-keyboard-response","86","560018","0.0-23.0-0.1","SS1618365883719","","","null","","","","","","<p><img src= images/blank.png width =""600"" height = ""600"" style=""position:fixed;top:50%; left:50%; transform: translate(-50%, -50%); border:5px solid black"">","","","","","","","",""
"","3931.475000004866","sequential-stimulus-presentation-old","87","564493","0.0-23.0-1.1","SS1618365883719","trial","","40","500","4431.475000004866","images/stimuli/spore_stims/simple_03_A_b.gif","images/stimuli/spore_stims/simple_01_A_a.gif","forced_short","","7","simple_dissimilar","images/stimuli/spore_stims/simple_01_A_a.gif","","","","",""
"","null","html-keyboard-response","88","565774","0.0-23.0-0.2","SS1618365883719","","","null","","","","","","<p><img src= images/blank.png width =""600"" height = ""600"" style=""position:fixed;top:50%; left:50%; transform: translate(-50%, -50%); border:5px solid black"">","","","","","","","",""
"","2825.2550000033807","sequential-stimulus-presentation-old","89","569120","0.0-23.0-1.2","SS1618365883719","trial","","40","500","3325.2550000033807","images/stimuli/spore_stims/simple_03_A_b.gif","images/stimuli/spore_stims/simple_01_A_a.gif","forced_short","","7","simple_dissimilar","images/stimuli/spore_stims/simple_03_A_b.gif","","","","",""
"","null","html-keyboard-response","90","570157","0.0-23.0-0.3","SS1618365883719","","","null","","","","","","<p><img src= images/blank.png width =""600"" height = ""600"" style=""position:fixed;top:50%; left:50%; transform: translate(-50%, -50%); border:5px solid black"">","","","","","","","",""
"","712.8999999986263","sequential-stimulus-presentation-old","91","571401","0.0-23.0-1.3","SS1618365883719","trial","","40","500","1212.8999999986263","images/stimuli/spore_stims/simple_03_A_b.gif","images/stimuli/spore_stims/simple_01_A_a.gif","forced_short","","7","simple_dissimilar","images/stimuli/spore_stims/simple_01_A_a.gif","","","","",""
"","null","html-keyboard-response","92","572641","0.0-23.0-0.4","SS1618365883719","","","null","","","","","","<p><img src= images/blank.png width =""600"" height = ""600"" style=""position:fixed;top:50%; left:50%; transform: translate(-50%, -50%); border:5px solid black"">","","","","","","","",""
"","216.99499999522232","sequential-stimulus-presentation-old","93","573389","0.0-23.0-1.4","SS1618365883719","trial","","40","500","716.9949999952223","images/stimuli/spore_stims/simple_03_A_b.gif","images/stimuli/spore_stims/simple_01_A_a.gif","forced_short","","7","simple_dissimilar","images/stimuli/spore_stims/simple_03_A_b.gif","","","","",""
"","5892.5750000053085","survey-multi-choice","94","579306","0.0-24.0","SS1618365883719","math_question","","","","","","","","","","","","{""Q0"":""9""}","[0]","9","",""
"","null","html-keyboard-response","95","580565","0.0-25.0-0.0","SS1618365883719","","","null","","","","","","<p><img src= images/blank.png width =""600"" height = ""600"" style=""position:fixed;top:50%; left:50%; transform: translate(-50%, -50%); border:5px solid black"">","","","","","","","",""
"","5635.099999999511","sequential-stimulus-presentation-old","96","591248","0.0-25.0-1.0","SS1618365883719","trial","","40","500","6135.099999999511","images/stimuli/spore_stims/simple_02_A_a.gif","images/stimuli/spore_stims/simple_06_A_b.gif","forced_long","","8","simple_dissimilar","images/stimuli/spore_stims/simple_06_A_b.gif","","","","",""
"","null","html-keyboard-response","97","592100","0.0-25.0-0.1","SS1618365883719","","","null","","","","","","<p><img src= images/blank.png width =""600"" height = ""600"" style=""position:fixed;top:50%; left:50%; transform: translate(-50%, -50%); border:5px solid black"">","","","","","","","",""
"","1645.7849999860628","sequential-stimulus-presentation-old","98","594287","0.0-25.0-1.1","SS1618365883719","trial","","40","500","2145.7849999860628","images/stimuli/spore_stims/simple_02_A_a.gif","images/stimuli/spore_stims/simple_06_A_b.gif","forced_long","","8","simple_dissimilar","images/stimuli/spore_stims/simple_06_A_b.gif","","","","",""
"","null","html-keyboard-response","99","595213","0.0-25.0-0.2","SS1618365883719","","","null","","","","","","<p><img src= images/blank.png width =""600"" height = ""600"" style=""position:fixed;top:50%; left:50%; transform: translate(-50%, -50%); border:5px solid black"">","","","","","","","",""
"","1135.6349999987287","sequential-stimulus-presentation-old","100","596887","0.0-25.0-1.2","SS1618365883719","trial","","40","500","1635.6349999987287","images/stimuli/spore_stims/simple_02_A_a.gif","images/stimuli/spore_stims/simple_06_A_b.gif","forced_long","","8","simple_dissimilar","images/stimuli/spore_stims/simple_06_A_b.gif","","","","",""
"","null","html-keyboard-response","101","598127","0.0-25.0-0.3","SS1618365883719","","","null","","","","","","<p><img src= images/blank.png width =""600"" height = ""600"" style=""position:fixed;top:50%; left:50%; transform: translate(-50%, -50%); border:5px solid black"">","","","","","","","",""
"","834.5600000029663","sequential-stimulus-presentation-old","102","599501","0.0-25.0-1.3","SS1618365883719","trial","","40","500","1334.5600000029663","images/stimuli/spore_stims/simple_02_A_a.gif","images/stimuli/spore_stims/simple_06_A_b.gif","forced_long","","8","simple_dissimilar","images/stimuli/spore_stims/simple_06_A_b.gif","","","","",""
"","null","html-keyboard-response","103","600805","0.0-25.0-0.4","SS1618365883719","","","null","","","","","","<p><img src= images/blank.png width =""600"" height = ""600"" style=""position:fixed;top:50%; left:50%; transform: translate(-50%, -50%); border:5px solid black"">","","","","","","","",""
"","879.8549999919487","sequential-stimulus-presentation-old","104","602241","0.0-25.0-1.4","SS1618365883719","trial","","40","500","1379.8549999919487","images/stimuli/spore_stims/simple_02_A_a.gif","images/stimuli/spore_stims/simple_06_A_b.gif","forced_long","","8","simple_dissimilar","images/stimuli/spore_stims/simple_06_A_b.gif","","","","",""
"","null","html-keyboard-response","105","603553","0.0-25.0-0.5","SS1618365883719","","","null","","","","","","<p><img src= images/blank.png width =""600"" height = ""600"" style=""position:fixed;top:50%; left:50%; transform: translate(-50%, -50%); border:5px solid black"">","","","","","","","",""
"","1769.190000006347","sequential-stimulus-presentation-old","106","605854","0.0-25.0-1.5","SS1618365883719","trial","","40","500","2269.190000006347","images/stimuli/spore_stims/simple_02_A_a.gif","images/stimuli/spore_stims/simple_06_A_b.gif","forced_long","","8","simple_dissimilar","images/stimuli/spore_stims/simple_02_A_a.gif","","","","",""
"","4579.58000000508","survey-multi-choice","107","610453","0.0-26.0","SS1618365883719","math_question","","","","","","","","","","","","{""Q0"":""8""}","[0]","8","",""
"","null","html-keyboard-response","108","611657","0.0-27.0-0.0","SS1618365883719","","","null","","","","","","<p><img src= images/blank.png width =""600"" height = ""600"" style=""position:fixed;top:50%; left:50%; transform: translate(-50%, -50%); border:5px solid black"">","","","","","","","",""
"","1511.2650000082795","sequential-stimulus-presentation-old","109","618222","0.0-27.0-1.0","SS1618365883719","trial","","40","500","2011.2650000082795","images/stimuli/spore_stims/complex_19_A_b.gif","images/stimuli/spore_stims/complex_01_A_a.gif","forced_long","","9","complex_dissimilar","images/stimuli/spore_stims/complex_01_A_a.gif","","","","",""
"","null","html-keyboard-response","110","619473","0.0-27.0-0.1","SS1618365883719","","","null","","","","","","<p><img src= images/blank.png width =""600"" height = ""600"" style=""position:fixed;top:50%; left:50%; transform: translate(-50%, -50%); border:5px solid black"">","","","","","","","",""
"","711.7450000077952","sequential-stimulus-presentation-old","111","620729","0.0-27.0-1.1","SS1618365883719","trial","","40","500","1211.7450000077952","images/stimuli/spore_stims/complex_19_A_b.gif","images/stimuli/spore_stims/complex_01_A_a.gif","forced_long","","9","complex_dissimilar","images/stimuli/spore_stims/complex_01_A_a.gif","","","","",""
"","null","html-keyboard-response","112","622022","0.0-27.0-0.2","SS1618365883719","","","null","","","","","","<p><img src= images/blank.png width =""600"" height = ""600"" style=""position:fixed;top:50%; left:50%; transform: translate(-50%, -50%); border:5px solid black"">","","","","","","","",""
"","147.38999999826774","sequential-stimulus-presentation-old","113","622714","0.0-27.0-1.2","SS1618365883719","trial","","40","500","647.3899999982677","images/stimuli/spore_stims/complex_19_A_b.gif","images/stimuli/spore_stims/complex_01_A_a.gif","forced_long","","9","complex_dissimilar","images/stimuli/spore_stims/complex_01_A_a.gif","","","","",""
"","null","html-keyboard-response","114","623706","0.0-27.0-0.3","SS1618365883719","","","null","","","","","","<p><img src= images/blank.png width =""600"" height = ""600"" style=""position:fixed;top:50%; left:50%; transform: translate(-50%, -50%); border:5px solid black"">","","","","","","","",""
"","1338.6999999929685","sequential-stimulus-presentation-old","115","625585","0.0-27.0-1.3","SS1618365883719","trial","","40","500","1838.6999999929685","images/stimuli/spore_stims/complex_19_A_b.gif","images/stimuli/spore_stims/complex_01_A_a.gif","forced_long","","9","complex_dissimilar","images/stimuli/spore_stims/complex_01_A_a.gif","","","","",""
"","null","html-keyboard-response","116","626836","0.0-27.0-0.4","SS1618365883719","","","null","","","","","","<p><img src= images/blank.png width =""600"" height = ""600"" style=""position:fixed;top:50%; left:50%; transform: translate(-50%, -50%); border:5px solid black"">","","","","","","","",""
"","506.070000003092","sequential-stimulus-presentation-old","117","627856","0.0-27.0-1.4","SS1618365883719","trial","","40","500","1006.070000003092","images/stimuli/spore_stims/complex_19_A_b.gif","images/stimuli/spore_stims/complex_01_A_a.gif","forced_long","","9","complex_dissimilar","images/stimuli/spore_stims/complex_01_A_a.gif","","","","",""
"","null","html-keyboard-response","118","628830","0.0-27.0-0.5","SS1618365883719","","","null","","","","","","<p><img src= images/blank.png width =""600"" height = ""600"" style=""position:fixed;top:50%; left:50%; transform: translate(-50%, -50%); border:5px solid black"">","","","","","","","",""
"","1552.5199999974575","sequential-stimulus-presentation-old","119","630926","0.0-27.0-1.5","SS1618365883719","trial","","40","500","2052.5199999974575","images/stimuli/spore_stims/complex_19_A_b.gif","images/stimuli/spore_stims/complex_01_A_a.gif","forced_long","","9","complex_dissimilar","images/stimuli/spore_stims/complex_01_A_a.gif","","","","",""
"","5567.2449999983655","survey-multi-choice","120","636511","0.0-28.0","SS1618365883719","math_question","","","","","","","","","","","","{""Q0"":""13""}","[0]","13","",""
"","null","html-keyboard-response","121","637473","0.0-29.0-0.0","SS1618365883719","","","null","","","","","","<p><img src= images/blank.png width =""600"" height = ""600"" style=""position:fixed;top:50%; left:50%; transform: translate(-50%, -50%); border:5px solid black"">","","","","","","","",""
"","1157.7499999984866","sequential-stimulus-presentation-old","122","643679","0.0-29.0-1.0","SS1618365883719","trial","","40","500","1657.7499999984866","images/stimuli/spore_stims/simple_20_A_b.gif","images/stimuli/spore_stims/simple_15_A_a.gif","forced_long","","10","simple_dissimilar","images/stimuli/spore_stims/simple_15_A_a.gif","","","","",""
"","null","html-keyboard-response","123","644830","0.0-29.0-0.1","SS1618365883719","","","null","","","","","","<p><img src= images/blank.png width =""600"" height = ""600"" style=""position:fixed;top:50%; left:50%; transform: translate(-50%, -50%); border:5px solid black"">","","","","","","","",""
"","451.9199999922421","sequential-stimulus-presentation-old","124","645844","0.0-29.0-1.1","SS1618365883719","trial","","40","500","951.9199999922421","images/stimuli/spore_stims/simple_20_A_b.gif","images/stimuli/spore_stims/simple_15_A_a.gif","forced_long","","10","simple_dissimilar","images/stimuli/spore_stims/simple_15_A_a.gif","","","","",""
"","null","html-keyboard-response","125","647016","0.0-29.0-0.2","SS1618365883719","","","null","","","","","","<p><img src= images/blank.png width =""600"" height = ""600"" style=""position:fixed;top:50%; left:50%; transform: translate(-50%, -50%); border:5px solid black"">","","","","","","","",""
"","561.0699999961071","sequential-stimulus-presentation-old","126","648113","0.0-29.0-1.2","SS1618365883719","trial","","40","500","1061.069999996107","images/stimuli/spore_stims/simple_20_A_b.gif","images/stimuli/spore_stims/simple_15_A_a.gif","forced_long","","10","simple_dissimilar","images/stimuli/spore_stims/simple_15_A_a.gif","","","","",""
"","null","html-keyboard-response","127","649406","0.0-29.0-0.3","SS1618365883719","","","null","","","","","","<p><img src= images/blank.png width =""600"" height = ""600"" style=""position:fixed;top:50%; left:50%; transform: translate(-50%, -50%); border:5px solid black"">","","","","","","","",""
"","762.0200000092154","sequential-stimulus-presentation-old","128","650708","0.0-29.0-1.3","SS1618365883719","trial","","40","500","1262.0200000092154","images/stimuli/spore_stims/simple_20_A_b.gif","images/stimuli/spore_stims/simple_15_A_a.gif","forced_long","","10","simple_dissimilar","images/stimuli/spore_stims/simple_15_A_a.gif","","","","",""
"","null","html-keyboard-response","129","651612","0.0-29.0-0.4","SS1618365883719","","","null","","","","","","<p><img src= images/blank.png width =""600"" height = ""600"" style=""position:fixed;top:50%; left:50%; transform: translate(-50%, -50%); border:5px solid black"">","","","","","","","",""
"","557.8850000019884","sequential-stimulus-presentation-old","130","652691","0.0-29.0-1.4","SS1618365883719","trial","","40","500","1057.8850000019884","images/stimuli/spore_stims/simple_20_A_b.gif","images/stimuli/spore_stims/simple_15_A_a.gif","forced_long","","10","simple_dissimilar","images/stimuli/spore_stims/simple_15_A_a.gif","","","","",""
"","4062.1749999991152","survey-multi-choice","131","656784","0.0-30.0","SS1618365883719","math_question","","","","","","","","","","","","{""Q0"":""12""}","[0]","12","",""
"","null","html-keyboard-response","132","657897","0.0-31.0-0.0","SS1618365883719","","","null","","","","","","<p><img src= images/blank.png width =""600"" height = ""600"" style=""position:fixed;top:50%; left:50%; transform: translate(-50%, -50%); border:5px solid black"">","","","","","","","",""
"","6060.554999989108","sequential-stimulus-presentation-old","133","664512","0.0-31.0-1.0","SS1618365883719","trial","","40","500","6560.554999989108","images/stimuli/spore_stims/simple_09_A_b.gif","images/stimuli/spore_stims/simple_10_A_a.gif","self_paced","","11","simple_dissimilar","images/stimuli/spore_stims/simple_10_A_a.gif","","","","",""
"","null","html-keyboard-response","134","665729","0.0-31.0-0.1","SS1618365883719","","","null","","","","","","<p><img src= images/blank.png width =""600"" height = ""600"" style=""position:fixed;top:50%; left:50%; transform: translate(-50%, -50%); border:5px solid black"">","","","","","","","",""
"","52.97999999311287","sequential-stimulus-presentation-old","135","666316","0.0-31.0-1.1","SS1618365883719","trial","","40","500","552.9799999931129","images/stimuli/spore_stims/simple_09_A_b.gif","images/stimuli/spore_stims/simple_10_A_a.gif","self_paced","","11","simple_dissimilar","images/stimuli/spore_stims/simple_10_A_a.gif","","","","",""
"","null","html-keyboard-response","136","667328","0.0-31.0-0.2","SS1618365883719","","","null","","","","","","<p><img src= images/blank.png width =""600"" height = ""600"" style=""position:fixed;top:50%; left:50%; transform: translate(-50%, -50%); border:5px solid black"">","","","","","","","",""
"","2265.6649999989895","sequential-stimulus-presentation-old","137","670150","0.0-31.0-1.2","SS1618365883719","trial","","40","500","2765.6649999989895","images/stimuli/spore_stims/simple_09_A_b.gif","images/stimuli/spore_stims/simple_10_A_a.gif","self_paced","","11","simple_dissimilar","images/stimuli/spore_stims/simple_09_A_b.gif","","","","",""
"","null","html-keyboard-response","138","671332","0.0-31.0-0.3","SS1618365883719","","","null","","","","","","<p><img src= images/blank.png width =""600"" height = ""600"" style=""position:fixed;top:50%; left:50%; transform: translate(-50%, -50%); border:5px solid black"">","","","","","","","",""
"","2291.2300000025425","sequential-stimulus-presentation-old","139","674177","0.0-31.0-1.3","SS1618365883719","trial","","40","500","2791.2300000025425","images/stimuli/spore_stims/simple_09_A_b.gif","images/stimuli/spore_stims/simple_10_A_a.gif","self_paced","","11","simple_dissimilar","images/stimuli/spore_stims/simple_10_A_a.gif","","","","",""
"[{""page_index"":0,""viewing_time"":7366.645000001881}]","7367.440000001807","instructions","140","681578","0.0-32.0","SS1618365883719","instructions","","","","","","","","","","","","","","","",""
"","8440.245000005234","survey-likert","141","690046","0.0-33.0","SS1618365883719","similarity_question","","","","","","","","","","","","{""Q0"":1}","[0]","","images/stimuli/spore_stims/simple_01_A_a.gif","images/stimuli/spore_stims/simple_03_A_b.gif"
"","7607.43000000366","survey-likert","142","697681","0.0-34.0","SS1618365883719","similarity_question","","","","","","","","","","","","{""Q0"":2}","[0]","","images/stimuli/spore_stims/simple_06_A_b.gif","images/stimuli/spore_stims/simple_02_A_a.gif"
"","6999.794999996084","survey-likert","143","704710","0.0-35.0","SS1618365883719","similarity_question","","","","","","","","","","","","{""Q0"":1}","[0]","","images/stimuli/spore_stims/complex_17_A_a.gif","images/stimuli/spore_stims/complex_13_A_b.gif"
"","5704.189999989467","survey-likert","144","710442","0.0-36.0","SS1618365883719","similarity_question","","","","","","","","","","","","{""Q0"":0}","[0]","","images/stimuli/spore_stims/complex_20_A_b.gif","images/stimuli/spore_stims/complex_15_A_a.gif"
"","4179.275000002235","survey-likert","145","714644","0.0-37.0","SS1618365883719","similarity_question","","","","","","","","","","","","{""Q0"":0}","[0]","","images/stimuli/spore_stims/simple_09_A_b.gif","images/stimuli/spore_stims/simple_10_A_a.gif"
"","4020.990000004531","survey-likert","146","718690","0.0-38.0","SS1618365883719","similarity_question","","","","","","","","","","","","{""Q0"":0}","[0]","","images/stimuli/spore_stims/simple_03_A_a.gif","images/stimuli/spore_stims/simple_04_A_b.gif"
"","4931.50500000047","survey-likert","147","723648","0.0-39.0","SS1618365883719","similarity_question","","","","","","","","","","","","{""Q0"":4}","[0]","","images/stimuli/spore_stims/complex_01_A_a.gif","images/stimuli/spore_stims/complex_19_A_b.gif"
"","4187.755000006291","survey-likert","148","727860","0.0-40.0","SS1618365883719","similarity_question","","","","","","","","","","","","{""Q0"":0}","[0]","","images/stimuli/spore_stims/complex_19_A_a.gif","images/stimuli/spore_stims/complex_16_A_b.gif"
"","5011.314999996102","survey-likert","149","732895","0.0-41.0","SS1618365883719","similarity_question","","","","","","","","","","","","{""Q0"":1}","[0]","","images/stimuli/spore_stims/simple_15_A_a.gif","images/stimuli/spore_stims/simple_20_A_b.gif"
"","6317.714999997406","survey-likert","150","739240","0.0-42.0","SS1618365883719","similarity_question","","","","","","","","","","","","{""Q0"":0}","[0]","","images/stimuli/spore_stims/complex_11_A_b.gif","images/stimuli/spore_stims/complex_03_A_a.gif"
"","4419.80999999214","survey-likert","151","743687","0.0-43.0","SS1618365883719","similarity_question","","","","","","","","","","","","{""Q0"":0}","[0]","","images/stimuli/spore_stims/simple_18_A_b.gif","images/stimuli/spore_stims/simple_11_A_a.gif"
"","4649.750000011409","survey-likert","152","748363","0.0-44.0","SS1618365883719","similarity_question","","","","","","","","","","","","{""Q0"":4}","[0]","","images/stimuli/spore_stims/complex_17_A_b.gif","images/stimuli/spore_stims/complex_06_A_a.gif"
"[{""page_index"":0,""viewing_time"":7250.079999997979}]","7251.640000002226","instructions","153","755637","0.0-45.0","SS1618365883719","instructions","","","","","","","","","","","","","","","",""
"","8479.359999997541","survey-likert","154","764130","0.0-46.0","SS1618365883719","","","","","","","","","images/stimuli/spore_stims/complex_17_A_a.gif","","","","{""Q0"":4}","[0]","","",""
"","2940.3199999942444","survey-likert","155","767090","0.0-47.0","SS1618365883719","","","","","","","","","images/stimuli/spore_stims/simple_03_A_a.gif","","","","{""Q0"":0}","[0]","","",""
"","3029.2500000068685","survey-likert","156","770154","0.0-48.0","SS1618365883719","","","","","","","","","images/stimuli/spore_stims/simple_10_A_a.gif","","","","{""Q0"":0}","[0]","","",""
"","6984.014999994542","survey-likert","157","777161","0.0-49.0","SS1618365883719","","","","","","","","","images/stimuli/spore_stims/complex_19_A_b.gif","","","","{""Q0"":5}","[0]","","",""
"","3749.065000010887","survey-likert","158","780933","0.0-50.0","SS1618365883719","","","","","","","","","images/stimuli/spore_stims/simple_06_A_b.gif","","","","{""Q0"":1}","[0]","","",""
"","2920.924999998533","survey-likert","159","783882","0.0-51.0","SS1618365883719","","","","","","","","","images/stimuli/spore_stims/simple_01_A_a.gif","","","","{""Q0"":0}","[0]","","",""
"","3595.4449999990175","survey-likert","160","787502","0.0-52.0","SS1618365883719","","","","","","","","","images/stimuli/spore_stims/complex_06_A_a.gif","","","","{""Q0"":6}","[0]","","",""
"","3736.8399999977555","survey-likert","161","791264","0.0-53.0","SS1618365883719","","","","","","","","","images/stimuli/spore_stims/complex_19_A_a.gif","","","","{""Q0"":5}","[0]","","",""
"","2874.500000005355","survey-likert","162","794165","0.0-54.0","SS1618365883719","","","","","","","","","images/stimuli/spore_stims/simple_11_A_a.gif","","","","{""Q0"":0}","[0]","","",""
"","4055.945000000065","survey-likert","163","798248","0.0-55.0","SS1618365883719","","","","","","","","","images/stimuli/spore_stims/complex_15_A_a.gif","","","","{""Q0"":4}","[0]","","",""
"","3070.2299999975367","survey-likert","164","801356","0.0-56.0","SS1618365883719","","","","","","","","","images/stimuli/spore_stims/complex_11_A_b.gif","","","","{""Q0"":5}","[0]","","",""
"","3063.4550000104355","survey-likert","165","804437","0.0-57.0","SS1618365883719","","","","","","","","","images/stimuli/spore_stims/simple_20_A_b.gif","","","","{""Q0"":0}","[0]","","",""
"[{""page_index"":0,""viewing_time"":2980.6400000088615}]","2981.5850000013597","instructions","166","807443","0.0-58.0","SS1618365883719","instructions","","","","","","","","","","","","","","","",""
"","3664.4450000021607","demog-age","167","811147","0.0-59.0","SS1618365883719","","","","","","","","","","","","","{""age"":""23""}","","","",""
"","5957.244999997783","demog-ethnic-US","168","817146","0.0-60.0","SS1618365883719","","","","","","","","","","","","","{""ethnicity"":[""Hispanic or Latino""]}","[0]","","",""
"","5591.619999991963","demog-gender-and-education","169","822762","0.0-61.0","SS1618365883719","","","","","","","","","","","","","{""gender"":""Female"",""education"":""High school diploma""}","[0,1]","","",""
"","77701.48999999219","survey-text","170","900505","0.0-62.0","SS1618365883719","feedback","","","","","","","","","","","","{""Q0"":""the creatures are very rare or babys""}","","","",""
"[{""page_index"":0,""viewing_time"":2665.2200000098674}]","2666.3300000072923","instructions","171","903189","0.0-63.0","SS1618365883719","instructions","","","","","","","","","","","","","","","",""
