"view_history","rt","trial_type","trial_index","time_elapsed","internal_node_id","subject","stimulus_type","trial_stimulus","key_press","minimum_viewing_duration","trial_looking_time","block_deviant","block_background","exposure_type","stimulus","block_number","block_type","stimulus_displayed","responses","question_order","math_correct_answer","stimulus_left","stimulus_right"
"[{""page_index"":0,""viewing_time"":28449.255000101402}]","28451.295000035316","instructions","0","28455","0.0-0.0","SS1618435635621","","","","","","","","","","","","","","","","",""
"[{""page_index"":0,""viewing_time"":17532.619999954477},{""page_index"":1,""viewing_time"":7478.9899999741465}]","25012.115000048652","instructions","1","55476","0.0-1.0","SS1618435635621","instructions","","","","","","","","","","","","","","","",""
"","8509.684999939054","sequential-stimulus-presentation-old","2","64505","0.0-2.0","SS1618435635621","","","40","500","9009.684999939054","null","null","self_paced","","","","","","","","",""
"","7348.340000025928","sequential-stimulus-presentation-old","3","72366","0.0-3.0","SS1618435635621","","","40","500","7848.340000025928","null","null","self_paced","","","","","","","","",""
"[{""page_index"":0,""viewing_time"":23630.0199998077}]","23630.519999889657","instructions","4","95998","0.0-4.0","SS1618435635621","instructions","","","","","","","","","","","","","","","",""
"","8031.500000040978","sequential-stimulus-presentation-old","5","109036","0.0-5.0","SS1618435635621","","","40","500","8531.500000040978","null","null","forced_long","","","","","","","","",""
"","6530.160000082105","sequential-stimulus-presentation-old","6","115628","0.0-6.0","SS1618435635621","","","40","50","6580.160000082105","null","null","forced_long","","","","","","","","",""
"[{""page_index"":0,""viewing_time"":3411.220000125468}]","3411.67000005953","instructions","7","119042","0.0-7.0","SS1618435635621","instructions","","","","","","","","","","","","","","","",""
"[{""page_index"":0,""viewing_time"":13727.204999886453},{""page_index"":1,""viewing_time"":12321.849999949336},{""page_index"":2,""viewing_time"":8529.950000112876},{""page_index"":3,""viewing_time"":1833.8399999774992},{""page_index"":4,""viewing_time"":1548.5350000672042}]","37961.944999871776","instructions","8","157006","0.0-8.0","SS1618435635621","instructions","","","","","","","","","","","","","","","",""
"","null","html-keyboard-response","9","158145","0.0-9.0-0.0","SS1618435635621","","","null","","","","","","<p><img src= images/blank.png width =""600"" height = ""600"" style=""position:fixed;top:50%; left:50%; transform: translate(-50%, -50%); border:5px solid black"">","","","","","","","",""
"","3856.870000017807","sequential-stimulus-presentation-old","10","162061","0.0-9.0-1.0","SS1618435635621","trial","","40","500","4356.870000017807","images/stimuli/spore_stims/simple_07_A_a.gif","images/stimuli/spore_stims/simple_03_A_b.gif","forced_short","","0","simple_dissimilar","images/stimuli/spore_stims/simple_03_A_b.gif","","","","",""
"","null","html-keyboard-response","11","162877","0.0-9.0-0.1","SS1618435635621","","","null","","","","","","<p><img src= images/blank.png width =""600"" height = ""600"" style=""position:fixed;top:50%; left:50%; transform: translate(-50%, -50%); border:5px solid black"">","","","","","","","",""
"","26209.535000147298","sequential-stimulus-presentation-old","12","189604","0.0-9.0-1.1","SS1618435635621","trial","","40","500","26709.535000147298","images/stimuli/spore_stims/simple_07_A_a.gif","images/stimuli/spore_stims/simple_03_A_b.gif","forced_short","","0","simple_dissimilar","images/stimuli/spore_stims/simple_03_A_b.gif","","","","",""
"","null","html-keyboard-response","13","190841","0.0-9.0-0.2","SS1618435635621","","","null","","","","","","<p><img src= images/blank.png width =""600"" height = ""600"" style=""position:fixed;top:50%; left:50%; transform: translate(-50%, -50%); border:5px solid black"">","","","","","","","",""
"","6646.554999984801","sequential-stimulus-presentation-old","14","198000","0.0-9.0-1.2","SS1618435635621","trial","","40","500","7146.554999984801","images/stimuli/spore_stims/simple_07_A_a.gif","images/stimuli/spore_stims/simple_03_A_b.gif","forced_short","","0","simple_dissimilar","images/stimuli/spore_stims/simple_03_A_b.gif","","","","",""
"","null","html-keyboard-response","15","199312","0.0-9.0-0.3","SS1618435635621","","","null","","","","","","<p><img src= images/blank.png width =""600"" height = ""600"" style=""position:fixed;top:50%; left:50%; transform: translate(-50%, -50%); border:5px solid black"">","","","","","","","",""
"","9277.770000044256","sequential-stimulus-presentation-old","16","209099","0.0-9.0-1.3","SS1618435635621","trial","","40","500","9777.770000044256","images/stimuli/spore_stims/simple_07_A_a.gif","images/stimuli/spore_stims/simple_03_A_b.gif","forced_short","","0","simple_dissimilar","images/stimuli/spore_stims/simple_03_A_b.gif","","","","",""
"","null","html-keyboard-response","17","210087","0.0-9.0-0.4","SS1618435635621","","","null","","","","","","<p><img src= images/blank.png width =""600"" height = ""600"" style=""position:fixed;top:50%; left:50%; transform: translate(-50%, -50%); border:5px solid black"">","","","","","","","",""
"","6034.224999835715","sequential-stimulus-presentation-old","18","216631","0.0-9.0-1.4","SS1618435635621","trial","","40","500","6534.224999835715","images/stimuli/spore_stims/simple_07_A_a.gif","images/stimuli/spore_stims/simple_03_A_b.gif","forced_short","","0","simple_dissimilar","images/stimuli/spore_stims/simple_03_A_b.gif","","","","",""
"","4458.4399999585","survey-multi-choice","19","221096","0.0-10.0","SS1618435635621","math_question","","","","","","","","","","","","{""Q0"":""10""}","[0]","10","",""
"","null","html-keyboard-response","20","222253","0.0-11.0-0.0","SS1618435635621","","","null","","","","","","<p><img src= images/blank.png width =""600"" height = ""600"" style=""position:fixed;top:50%; left:50%; transform: translate(-50%, -50%); border:5px solid black"">","","","","","","","",""
"","21214.630000060424","sequential-stimulus-presentation-old","21","243979","0.0-11.0-1.0","SS1618435635621","trial","","40","500","21714.630000060424","images/stimuli/spore_stims/complex_09_A_a.gif","images/stimuli/spore_stims/complex_02_A_b.gif","self_paced","","1","complex_dissimilar","images/stimuli/spore_stims/complex_02_A_b.gif","","","","",""
"","null","html-keyboard-response","22","245083","0.0-11.0-0.1","SS1618435635621","","","null","","","","","","<p><img src= images/blank.png width =""600"" height = ""600"" style=""position:fixed;top:50%; left:50%; transform: translate(-50%, -50%); border:5px solid black"">","","","","","","","",""
"","6132.484999950975","sequential-stimulus-presentation-old","23","251726","0.0-11.0-1.1","SS1618435635621","trial","","40","500","6632.484999950975","images/stimuli/spore_stims/complex_09_A_a.gif","images/stimuli/spore_stims/complex_02_A_b.gif","self_paced","","1","complex_dissimilar","images/stimuli/spore_stims/complex_09_A_a.gif","","","","",""
"","null","html-keyboard-response","24","252991","0.0-11.0-0.2","SS1618435635621","","","null","","","","","","<p><img src= images/blank.png width =""600"" height = ""600"" style=""position:fixed;top:50%; left:50%; transform: translate(-50%, -50%); border:5px solid black"">","","","","","","","",""
"","5777.800000039861","sequential-stimulus-presentation-old","25","259283","0.0-11.0-1.2","SS1618435635621","trial","","40","500","6277.800000039861","images/stimuli/spore_stims/complex_09_A_a.gif","images/stimuli/spore_stims/complex_02_A_b.gif","self_paced","","1","complex_dissimilar","images/stimuli/spore_stims/complex_02_A_b.gif","","","","",""
"","null","html-keyboard-response","26","260335","0.0-11.0-0.3","SS1618435635621","","","null","","","","","","<p><img src= images/blank.png width =""600"" height = ""600"" style=""position:fixed;top:50%; left:50%; transform: translate(-50%, -50%); border:5px solid black"">","","","","","","","",""
"","13632.974999956787","sequential-stimulus-presentation-old","27","274484","0.0-11.0-1.3","SS1618435635621","trial","","40","500","14132.974999956787","images/stimuli/spore_stims/complex_09_A_a.gif","images/stimuli/spore_stims/complex_02_A_b.gif","self_paced","","1","complex_dissimilar","images/stimuli/spore_stims/complex_02_A_b.gif","","","","",""
"","null","html-keyboard-response","28","275577","0.0-11.0-0.4","SS1618435635621","","","null","","","","","","<p><img src= images/blank.png width =""600"" height = ""600"" style=""position:fixed;top:50%; left:50%; transform: translate(-50%, -50%); border:5px solid black"">","","","","","","","",""
"","4446.020000148565","sequential-stimulus-presentation-old","29","280541","0.0-11.0-1.4","SS1618435635621","trial","","40","500","4946.020000148565","images/stimuli/spore_stims/complex_09_A_a.gif","images/stimuli/spore_stims/complex_02_A_b.gif","self_paced","","1","complex_dissimilar","images/stimuli/spore_stims/complex_02_A_b.gif","","","","",""
"","4097.485000034794","survey-multi-choice","30","284642","0.0-12.0","SS1618435635621","math_question","","","","","","","","","","","","{""Q0"":""15""}","[0]","15","",""
"","null","html-keyboard-response","31","285753","0.0-13.0-0.0","SS1618435635621","","","null","","","","","","<p><img src= images/blank.png width =""600"" height = ""600"" style=""position:fixed;top:50%; left:50%; transform: translate(-50%, -50%); border:5px solid black"">","","","","","","","",""
"","1382.41000007838","sequential-stimulus-presentation-old","32","287193","0.0-13.0-1.0","SS1618435635621","trial","","40","500","1882.41000007838","images/stimuli/spore_stims/complex_08_A_b.gif","images/stimuli/spore_stims/complex_02_A_a.gif","forced_short","","2","complex_dissimilar","images/stimuli/spore_stims/complex_02_A_a.gif","","","","",""
"","null","html-keyboard-response","33","288188","0.0-13.0-0.1","SS1618435635621","","","null","","","","","","<p><img src= images/blank.png width =""600"" height = ""600"" style=""position:fixed;top:50%; left:50%; transform: translate(-50%, -50%); border:5px solid black"">","","","","","","","",""
"","7374.560000142083","sequential-stimulus-presentation-old","34","296069","0.0-13.0-1.1","SS1618435635621","trial","","40","500","7874.560000142083","images/stimuli/spore_stims/complex_08_A_b.gif","images/stimuli/spore_stims/complex_02_A_a.gif","forced_short","","2","complex_dissimilar","images/stimuli/spore_stims/complex_02_A_a.gif","","","","",""
"","null","html-keyboard-response","35","297285","0.0-13.0-0.2","SS1618435635621","","","null","","","","","","<p><img src= images/blank.png width =""600"" height = ""600"" style=""position:fixed;top:50%; left:50%; transform: translate(-50%, -50%); border:5px solid black"">","","","","","","","",""
"","4198.6750001087785","sequential-stimulus-presentation-old","36","301997","0.0-13.0-1.2","SS1618435635621","trial","","40","500","4698.6750001087785","images/stimuli/spore_stims/complex_08_A_b.gif","images/stimuli/spore_stims/complex_02_A_a.gif","forced_short","","2","complex_dissimilar","images/stimuli/spore_stims/complex_02_A_a.gif","","","","",""
"","null","html-keyboard-response","37","302949","0.0-13.0-0.3","SS1618435635621","","","null","","","","","","<p><img src= images/blank.png width =""600"" height = ""600"" style=""position:fixed;top:50%; left:50%; transform: translate(-50%, -50%); border:5px solid black"">","","","","","","","",""
"","6418.839999940246","sequential-stimulus-presentation-old","38","309878","0.0-13.0-1.3","SS1618435635621","trial","","40","500","6918.839999940246","images/stimuli/spore_stims/complex_08_A_b.gif","images/stimuli/spore_stims/complex_02_A_a.gif","forced_short","","2","complex_dissimilar","images/stimuli/spore_stims/complex_08_A_b.gif","","","","",""
"","null","html-keyboard-response","39","311143","0.0-13.0-0.4","SS1618435635621","","","null","","","","","","<p><img src= images/blank.png width =""600"" height = ""600"" style=""position:fixed;top:50%; left:50%; transform: translate(-50%, -50%); border:5px solid black"">","","","","","","","",""
"","3536.854999838397","sequential-stimulus-presentation-old","40","315192","0.0-13.0-1.4","SS1618435635621","trial","","40","500","4036.854999838397","images/stimuli/spore_stims/complex_08_A_b.gif","images/stimuli/spore_stims/complex_02_A_a.gif","forced_short","","2","complex_dissimilar","images/stimuli/spore_stims/complex_02_A_a.gif","","","","",""
"","3477.1900000050664","survey-multi-choice","41","318674","0.0-14.0","SS1618435635621","math_question","","","","","","","","","","","","{""Q0"":""10""}","[0]","10","",""
"","null","html-keyboard-response","42","319577","0.0-15.0-0.0","SS1618435635621","","","null","","","","","","<p><img src= images/blank.png width =""600"" height = ""600"" style=""position:fixed;top:50%; left:50%; transform: translate(-50%, -50%); border:5px solid black"">","","","","","","","",""
"","1102.540000109002","sequential-stimulus-presentation-old","43","320741","0.0-15.0-1.0","SS1618435635621","trial","","40","500","1602.540000109002","images/stimuli/spore_stims/complex_09_A_b.gif","images/stimuli/spore_stims/complex_17_A_a.gif","forced_short","","3","complex_dissimilar","images/stimuli/spore_stims/complex_17_A_a.gif","","","","",""
"","null","html-keyboard-response","44","321984","0.0-15.0-0.1","SS1618435635621","","","null","","","","","","<p><img src= images/blank.png width =""600"" height = ""600"" style=""position:fixed;top:50%; left:50%; transform: translate(-50%, -50%); border:5px solid black"">","","","","","","","",""
"","11040.385000174865","sequential-stimulus-presentation-old","45","333538","0.0-15.0-1.1","SS1618435635621","trial","","40","500","11540.385000174865","images/stimuli/spore_stims/complex_09_A_b.gif","images/stimuli/spore_stims/complex_17_A_a.gif","forced_short","","3","complex_dissimilar","images/stimuli/spore_stims/complex_17_A_a.gif","","","","",""
"","null","html-keyboard-response","46","334378","0.0-15.0-0.2","SS1618435635621","","","null","","","","","","<p><img src= images/blank.png width =""600"" height = ""600"" style=""position:fixed;top:50%; left:50%; transform: translate(-50%, -50%); border:5px solid black"">","","","","","","","",""
"","6416.274999966845","sequential-stimulus-presentation-old","47","341305","0.0-15.0-1.2","SS1618435635621","trial","","40","500","6916.274999966845","images/stimuli/spore_stims/complex_09_A_b.gif","images/stimuli/spore_stims/complex_17_A_a.gif","forced_short","","3","complex_dissimilar","images/stimuli/spore_stims/complex_17_A_a.gif","","","","",""
"","null","html-keyboard-response","48","342526","0.0-15.0-0.3","SS1618435635621","","","null","","","","","","<p><img src= images/blank.png width =""600"" height = ""600"" style=""position:fixed;top:50%; left:50%; transform: translate(-50%, -50%); border:5px solid black"">","","","","","","","",""
"","7079.444999806583","sequential-stimulus-presentation-old","49","350113","0.0-15.0-1.3","SS1618435635621","trial","","40","500","7579.444999806583","images/stimuli/spore_stims/complex_09_A_b.gif","images/stimuli/spore_stims/complex_17_A_a.gif","forced_short","","3","complex_dissimilar","images/stimuli/spore_stims/complex_17_A_a.gif","","","","",""
"","null","html-keyboard-response","50","351127","0.0-15.0-0.4","SS1618435635621","","","null","","","","","","<p><img src= images/blank.png width =""600"" height = ""600"" style=""position:fixed;top:50%; left:50%; transform: translate(-50%, -50%); border:5px solid black"">","","","","","","","",""
"","2780.839999904856","sequential-stimulus-presentation-old","51","354415","0.0-15.0-1.4","SS1618435635621","trial","","40","500","3280.839999904856","images/stimuli/spore_stims/complex_09_A_b.gif","images/stimuli/spore_stims/complex_17_A_a.gif","forced_short","","3","complex_dissimilar","images/stimuli/spore_stims/complex_17_A_a.gif","","","","",""
"","null","html-keyboard-response","52","355501","0.0-15.0-0.5","SS1618435635621","","","null","","","","","","<p><img src= images/blank.png width =""600"" height = ""600"" style=""position:fixed;top:50%; left:50%; transform: translate(-50%, -50%); border:5px solid black"">","","","","","","","",""
"","4039.2150001134723","sequential-stimulus-presentation-old","53","360048","0.0-15.0-1.5","SS1618435635621","trial","","40","500","4539.215000113472","images/stimuli/spore_stims/complex_09_A_b.gif","images/stimuli/spore_stims/complex_17_A_a.gif","forced_short","","3","complex_dissimilar","images/stimuli/spore_stims/complex_09_A_b.gif","","","","",""
"","3383.0449997913092","survey-multi-choice","54","363436","0.0-16.0","SS1618435635621","math_question","","","","","","","","","","","","{""Q0"":""11""}","[0]","11","",""
"","null","html-keyboard-response","55","364462","0.0-17.0-0.0","SS1618435635621","","","null","","","","","","<p><img src= images/blank.png width =""600"" height = ""600"" style=""position:fixed;top:50%; left:50%; transform: translate(-50%, -50%); border:5px solid black"">","","","","","","","",""
"","7461.834999965504","sequential-stimulus-presentation-old","56","372432","0.0-17.0-1.0","SS1618435635621","trial","","40","500","7961.834999965504","images/stimuli/spore_stims/complex_03_A_b.gif","images/stimuli/spore_stims/complex_20_A_a.gif","self_paced","","4","complex_dissimilar","images/stimuli/spore_stims/complex_20_A_a.gif","","","","",""
"","null","html-keyboard-response","57","373639","0.0-17.0-0.1","SS1618435635621","","","null","","","","","","<p><img src= images/blank.png width =""600"" height = ""600"" style=""position:fixed;top:50%; left:50%; transform: translate(-50%, -50%); border:5px solid black"">","","","","","","","",""
"","3825.8999998215586","sequential-stimulus-presentation-old","58","377972","0.0-17.0-1.1","SS1618435635621","trial","","40","500","4325.899999821559","images/stimuli/spore_stims/complex_03_A_b.gif","images/stimuli/spore_stims/complex_20_A_a.gif","self_paced","","4","complex_dissimilar","images/stimuli/spore_stims/complex_20_A_a.gif","","","","",""
"","null","html-keyboard-response","59","378946","0.0-17.0-0.2","SS1618435635621","","","null","","","","","","<p><img src= images/blank.png width =""600"" height = ""600"" style=""position:fixed;top:50%; left:50%; transform: translate(-50%, -50%); border:5px solid black"">","","","","","","","",""
"","4264.0299999620765","sequential-stimulus-presentation-old","60","383727","0.0-17.0-1.2","SS1618435635621","trial","","40","500","4764.0299999620765","images/stimuli/spore_stims/complex_03_A_b.gif","images/stimuli/spore_stims/complex_20_A_a.gif","self_paced","","4","complex_dissimilar","images/stimuli/spore_stims/complex_20_A_a.gif","","","","",""
"","null","html-keyboard-response","61","384658","0.0-17.0-0.3","SS1618435635621","","","null","","","","","","<p><img src= images/blank.png width =""600"" height = ""600"" style=""position:fixed;top:50%; left:50%; transform: translate(-50%, -50%); border:5px solid black"">","","","","","","","",""
"","836.0350001603365","sequential-stimulus-presentation-old","62","386007","0.0-17.0-1.3","SS1618435635621","trial","","40","500","1336.0350001603365","images/stimuli/spore_stims/complex_03_A_b.gif","images/stimuli/spore_stims/complex_20_A_a.gif","self_paced","","4","complex_dissimilar","images/stimuli/spore_stims/complex_20_A_a.gif","","","","",""
"","null","html-keyboard-response","63","387294","0.0-17.0-0.4","SS1618435635621","","","null","","","","","","<p><img src= images/blank.png width =""600"" height = ""600"" style=""position:fixed;top:50%; left:50%; transform: translate(-50%, -50%); border:5px solid black"">","","","","","","","",""
"","5089.57999991253","sequential-stimulus-presentation-old","64","392897","0.0-17.0-1.4","SS1618435635621","trial","","40","500","5589.57999991253","images/stimuli/spore_stims/complex_03_A_b.gif","images/stimuli/spore_stims/complex_20_A_a.gif","self_paced","","4","complex_dissimilar","images/stimuli/spore_stims/complex_20_A_a.gif","","","","",""
"","3305.309999966994","survey-multi-choice","65","396207","0.0-18.0","SS1618435635621","math_question","","","","","","","","","","","","{""Q0"":""11""}","[0]","11","",""
"","null","html-keyboard-response","66","397281","0.0-19.0-0.0","SS1618435635621","","","null","","","","","","<p><img src= images/blank.png width =""600"" height = ""600"" style=""position:fixed;top:50%; left:50%; transform: translate(-50%, -50%); border:5px solid black"">","","","","","","","",""
"","7214.575000107288","sequential-stimulus-presentation-old","67","405014","0.0-19.0-1.0","SS1618435635621","trial","","40","500","7714.575000107288","images/stimuli/spore_stims/simple_01_A_a.gif","images/stimuli/spore_stims/simple_19_A_b.gif","self_paced","","5","simple_dissimilar","images/stimuli/spore_stims/simple_19_A_b.gif","","","","",""
"","null","html-keyboard-response","68","406211","0.0-19.0-0.1","SS1618435635621","","","null","","","","","","<p><img src= images/blank.png width =""600"" height = ""600"" style=""position:fixed;top:50%; left:50%; transform: translate(-50%, -50%); border:5px solid black"">","","","","","","","",""
"","51167.679999955","sequential-stimulus-presentation-old","69","457888","0.0-19.0-1.1","SS1618435635621","trial","","40","500","51667.679999955","images/stimuli/spore_stims/simple_01_A_a.gif","images/stimuli/spore_stims/simple_19_A_b.gif","self_paced","","5","simple_dissimilar","images/stimuli/spore_stims/simple_19_A_b.gif","","","","",""
"","null","html-keyboard-response","70","459045","0.0-19.0-0.2","SS1618435635621","","","null","","","","","","<p><img src= images/blank.png width =""600"" height = ""600"" style=""position:fixed;top:50%; left:50%; transform: translate(-50%, -50%); border:5px solid black"">","","","","","","","",""
"","4575.905000092462","sequential-stimulus-presentation-old","71","464128","0.0-19.0-1.2","SS1618435635621","trial","","40","500","5075.905000092462","images/stimuli/spore_stims/simple_01_A_a.gif","images/stimuli/spore_stims/simple_19_A_b.gif","self_paced","","5","simple_dissimilar","images/stimuli/spore_stims/simple_19_A_b.gif","","","","",""
"","null","html-keyboard-response","72","465071","0.0-19.0-0.3","SS1618435635621","","","null","","","","","","<p><img src= images/blank.png width =""600"" height = ""600"" style=""position:fixed;top:50%; left:50%; transform: translate(-50%, -50%); border:5px solid black"">","","","","","","","",""
"","4024.555000010878","sequential-stimulus-presentation-old","73","469607","0.0-19.0-1.3","SS1618435635621","trial","","40","500","4524.555000010878","images/stimuli/spore_stims/simple_01_A_a.gif","images/stimuli/spore_stims/simple_19_A_b.gif","self_paced","","5","simple_dissimilar","images/stimuli/spore_stims/simple_19_A_b.gif","","","","",""
"","3523.985000094399","survey-multi-choice","74","473137","0.0-20.0","SS1618435635621","math_question","","","","","","","","","","","","{""Q0"":""13""}","[0]","13","",""
"","null","html-keyboard-response","75","474226","0.0-21.0-0.0","SS1618435635621","","","null","","","","","","<p><img src= images/blank.png width =""600"" height = ""600"" style=""position:fixed;top:50%; left:50%; transform: translate(-50%, -50%); border:5px solid black"">","","","","","","","",""
"","2252.009999938309","sequential-stimulus-presentation-old","76","481487","0.0-21.0-1.0","SS1618435635621","trial","","40","500","2752.009999938309","images/stimuli/spore_stims/complex_05_A_b.gif","images/stimuli/spore_stims/complex_06_A_a.gif","forced_long","","6","complex_dissimilar","images/stimuli/spore_stims/complex_06_A_a.gif","","","","",""
"","null","html-keyboard-response","77","482468","0.0-21.0-0.1","SS1618435635621","","","null","","","","","","<p><img src= images/blank.png width =""600"" height = ""600"" style=""position:fixed;top:50%; left:50%; transform: translate(-50%, -50%); border:5px solid black"">","","","","","","","",""
"","8781.859999988228","sequential-stimulus-presentation-old","78","491768","0.0-21.0-1.1","SS1618435635621","trial","","40","500","9281.859999988228","images/stimuli/spore_stims/complex_05_A_b.gif","images/stimuli/spore_stims/complex_06_A_a.gif","forced_long","","6","complex_dissimilar","images/stimuli/spore_stims/complex_06_A_a.gif","","","","",""
"","null","html-keyboard-response","79","493002","0.0-21.0-0.2","SS1618435635621","","","null","","","","","","<p><img src= images/blank.png width =""600"" height = ""600"" style=""position:fixed;top:50%; left:50%; transform: translate(-50%, -50%); border:5px solid black"">","","","","","","","",""
"","8599.010000005364","sequential-stimulus-presentation-old","80","502113","0.0-21.0-1.2","SS1618435635621","trial","","40","500","9099.010000005364","images/stimuli/spore_stims/complex_05_A_b.gif","images/stimuli/spore_stims/complex_06_A_a.gif","forced_long","","6","complex_dissimilar","images/stimuli/spore_stims/complex_06_A_a.gif","","","","",""
"","null","html-keyboard-response","81","503080","0.0-21.0-0.3","SS1618435635621","","","null","","","","","","<p><img src= images/blank.png width =""600"" height = ""600"" style=""position:fixed;top:50%; left:50%; transform: translate(-50%, -50%); border:5px solid black"">","","","","","","","",""
"","6122.655000071973","sequential-stimulus-presentation-old","82","509716","0.0-21.0-1.3","SS1618435635621","trial","","40","500","6622.655000071973","images/stimuli/spore_stims/complex_05_A_b.gif","images/stimuli/spore_stims/complex_06_A_a.gif","forced_long","","6","complex_dissimilar","images/stimuli/spore_stims/complex_06_A_a.gif","","","","",""
"","3082.939999876544","survey-multi-choice","83","512805","0.0-22.0","SS1618435635621","math_question","","","","","","","","","","","","{""Q0"":""7""}","[0]","7","",""
"","null","html-keyboard-response","84","513904","0.0-23.0-0.0","SS1618435635621","","","null","","","","","","<p><img src= images/blank.png width =""600"" height = ""600"" style=""position:fixed;top:50%; left:50%; transform: translate(-50%, -50%); border:5px solid black"">","","","","","","","",""
"","1077.1850000601262","sequential-stimulus-presentation-old","85","515046","0.0-23.0-1.0","SS1618435635621","trial","","40","500","1577.1850000601262","images/stimuli/spore_stims/simple_07_A_b.gif","images/stimuli/spore_stims/simple_03_A_a.gif","forced_short","","7","simple_dissimilar","images/stimuli/spore_stims/simple_03_A_a.gif","","","","",""
"","null","html-keyboard-response","86","515968","0.0-23.0-0.1","SS1618435635621","","","null","","","","","","<p><img src= images/blank.png width =""600"" height = ""600"" style=""position:fixed;top:50%; left:50%; transform: translate(-50%, -50%); border:5px solid black"">","","","","","","","",""
"","3882.9000000841916","sequential-stimulus-presentation-old","87","520360","0.0-23.0-1.1","SS1618435635621","trial","","40","500","4382.900000084192","images/stimuli/spore_stims/simple_07_A_b.gif","images/stimuli/spore_stims/simple_03_A_a.gif","forced_short","","7","simple_dissimilar","images/stimuli/spore_stims/simple_03_A_a.gif","","","","",""
"","null","html-keyboard-response","88","521424","0.0-23.0-0.2","SS1618435635621","","","null","","","","","","<p><img src= images/blank.png width =""600"" height = ""600"" style=""position:fixed;top:50%; left:50%; transform: translate(-50%, -50%); border:5px solid black"">","","","","","","","",""
"","5939.529999857768","sequential-stimulus-presentation-old","89","527870","0.0-23.0-1.2","SS1618435635621","trial","","40","500","6439.529999857768","images/stimuli/spore_stims/simple_07_A_b.gif","images/stimuli/spore_stims/simple_03_A_a.gif","forced_short","","7","simple_dissimilar","images/stimuli/spore_stims/simple_03_A_a.gif","","","","",""
"","null","html-keyboard-response","90","528804","0.0-23.0-0.3","SS1618435635621","","","null","","","","","","<p><img src= images/blank.png width =""600"" height = ""600"" style=""position:fixed;top:50%; left:50%; transform: translate(-50%, -50%); border:5px solid black"">","","","","","","","",""
"","2830.9649999719113","sequential-stimulus-presentation-old","91","532148","0.0-23.0-1.3","SS1618435635621","trial","","40","500","3330.9649999719113","images/stimuli/spore_stims/simple_07_A_b.gif","images/stimuli/spore_stims/simple_03_A_a.gif","forced_short","","7","simple_dissimilar","images/stimuli/spore_stims/simple_03_A_a.gif","","","","",""
"","null","html-keyboard-response","92","533336","0.0-23.0-0.4","SS1618435635621","","","null","","","","","","<p><img src= images/blank.png width =""600"" height = ""600"" style=""position:fixed;top:50%; left:50%; transform: translate(-50%, -50%); border:5px solid black"">","","","","","","","",""
"","1085.8400000724941","sequential-stimulus-presentation-old","93","534933","0.0-23.0-1.4","SS1618435635621","trial","","40","500","1585.8400000724941","images/stimuli/spore_stims/simple_07_A_b.gif","images/stimuli/spore_stims/simple_03_A_a.gif","forced_short","","7","simple_dissimilar","images/stimuli/spore_stims/simple_03_A_a.gif","","","","",""
"","3703.910000156611","survey-multi-choice","94","538642","0.0-24.0","SS1618435635621","math_question","","","","","","","","","","","","{""Q0"":""8""}","[0]","8","",""
"","null","html-keyboard-response","95","539513","0.0-25.0-0.0","SS1618435635621","","","null","","","","","","<p><img src= images/blank.png width =""600"" height = ""600"" style=""position:fixed;top:50%; left:50%; transform: translate(-50%, -50%); border:5px solid black"">","","","","","","","",""
"","3058.8250001892447","sequential-stimulus-presentation-old","96","547587","0.0-25.0-1.0","SS1618435635621","trial","","40","500","3558.8250001892447","images/stimuli/spore_stims/complex_11_A_a.gif","images/stimuli/spore_stims/complex_04_A_b.gif","forced_long","","8","complex_dissimilar","images/stimuli/spore_stims/complex_04_A_b.gif","","","","",""
"","null","html-keyboard-response","97","548658","0.0-25.0-0.1","SS1618435635621","","","null","","","","","","<p><img src= images/blank.png width =""600"" height = ""600"" style=""position:fixed;top:50%; left:50%; transform: translate(-50%, -50%); border:5px solid black"">","","","","","","","",""
"","10424.739999929443","sequential-stimulus-presentation-old","98","559599","0.0-25.0-1.1","SS1618435635621","trial","","40","500","10924.739999929443","images/stimuli/spore_stims/complex_11_A_a.gif","images/stimuli/spore_stims/complex_04_A_b.gif","forced_long","","8","complex_dissimilar","images/stimuli/spore_stims/complex_04_A_b.gif","","","","",""
"","null","html-keyboard-response","99","560660","0.0-25.0-0.2","SS1618435635621","","","null","","","","","","<p><img src= images/blank.png width =""600"" height = ""600"" style=""position:fixed;top:50%; left:50%; transform: translate(-50%, -50%); border:5px solid black"">","","","","","","","",""
"","5212.870000163093","sequential-stimulus-presentation-old","100","566383","0.0-25.0-1.2","SS1618435635621","trial","","40","500","5712.870000163093","images/stimuli/spore_stims/complex_11_A_a.gif","images/stimuli/spore_stims/complex_04_A_b.gif","forced_long","","8","complex_dissimilar","images/stimuli/spore_stims/complex_11_A_a.gif","","","","",""
"","null","html-keyboard-response","101","567254","0.0-25.0-0.3","SS1618435635621","","","null","","","","","","<p><img src= images/blank.png width =""600"" height = ""600"" style=""position:fixed;top:50%; left:50%; transform: translate(-50%, -50%); border:5px solid black"">","","","","","","","",""
"","4299.905000021681","sequential-stimulus-presentation-old","102","572062","0.0-25.0-1.3","SS1618435635621","trial","","40","500","4799.905000021681","images/stimuli/spore_stims/complex_11_A_a.gif","images/stimuli/spore_stims/complex_04_A_b.gif","forced_long","","8","complex_dissimilar","images/stimuli/spore_stims/complex_04_A_b.gif","","","","",""
"","3339.1650000121444","survey-multi-choice","103","575405","0.0-26.0","SS1618435635621","math_question","","","","","","","","","","","","{""Q0"":""9""}","[0]","9","",""
"","null","html-keyboard-response","104","576260","0.0-27.0-0.0","SS1618435635621","","","null","","","","","","<p><img src= images/blank.png width =""600"" height = ""600"" style=""position:fixed;top:50%; left:50%; transform: translate(-50%, -50%); border:5px solid black"">","","","","","","","",""
"","4244.274999946356","sequential-stimulus-presentation-old","105","585513","0.0-27.0-1.0","SS1618435635621","trial","","40","500","4744.274999946356","images/stimuli/spore_stims/simple_09_A_b.gif","images/stimuli/spore_stims/simple_14_A_a.gif","forced_long","","9","simple_dissimilar","images/stimuli/spore_stims/simple_14_A_a.gif","","","","",""
"","null","html-keyboard-response","106","586406","0.0-27.0-0.1","SS1618435635621","","","null","","","","","","<p><img src= images/blank.png width =""600"" height = ""600"" style=""position:fixed;top:50%; left:50%; transform: translate(-50%, -50%); border:5px solid black"">","","","","","","","",""
"","9403.780000051484","sequential-stimulus-presentation-old","107","596320","0.0-27.0-1.1","SS1618435635621","trial","","40","500","9903.780000051484","images/stimuli/spore_stims/simple_09_A_b.gif","images/stimuli/spore_stims/simple_14_A_a.gif","forced_long","","9","simple_dissimilar","images/stimuli/spore_stims/simple_14_A_a.gif","","","","",""
"","null","html-keyboard-response","108","597321","0.0-27.0-0.2","SS1618435635621","","","null","","","","","","<p><img src= images/blank.png width =""600"" height = ""600"" style=""position:fixed;top:50%; left:50%; transform: translate(-50%, -50%); border:5px solid black"">","","","","","","","",""
"","4848.754999926314","sequential-stimulus-presentation-old","109","602677","0.0-27.0-1.2","SS1618435635621","trial","","40","500","5348.754999926314","images/stimuli/spore_stims/simple_09_A_b.gif","images/stimuli/spore_stims/simple_14_A_a.gif","forced_long","","9","simple_dissimilar","images/stimuli/spore_stims/simple_14_A_a.gif","","","","",""
"","null","html-keyboard-response","110","603501","0.0-27.0-0.3","SS1618435635621","","","null","","","","","","<p><img src= images/blank.png width =""600"" height = ""600"" style=""position:fixed;top:50%; left:50%; transform: translate(-50%, -50%); border:5px solid black"">","","","","","","","",""
"","3601.574999978766","sequential-stimulus-presentation-old","111","607616","0.0-27.0-1.3","SS1618435635621","trial","","40","500","4101.574999978766","images/stimuli/spore_stims/simple_09_A_b.gif","images/stimuli/spore_stims/simple_14_A_a.gif","forced_long","","9","simple_dissimilar","images/stimuli/spore_stims/simple_14_A_a.gif","","","","",""
"","null","html-keyboard-response","112","608614","0.0-27.0-0.4","SS1618435635621","","","null","","","","","","<p><img src= images/blank.png width =""600"" height = ""600"" style=""position:fixed;top:50%; left:50%; transform: translate(-50%, -50%); border:5px solid black"">","","","","","","","",""
"","9004.604999907315","sequential-stimulus-presentation-old","113","618130","0.0-27.0-1.4","SS1618435635621","trial","","40","500","9504.604999907315","images/stimuli/spore_stims/simple_09_A_b.gif","images/stimuli/spore_stims/simple_14_A_a.gif","forced_long","","9","simple_dissimilar","images/stimuli/spore_stims/simple_14_A_a.gif","","","","",""
"","null","html-keyboard-response","114","619367","0.0-27.0-0.5","SS1618435635621","","","null","","","","","","<p><img src= images/blank.png width =""600"" height = ""600"" style=""position:fixed;top:50%; left:50%; transform: translate(-50%, -50%); border:5px solid black"">","","","","","","","",""
"","4158.104999922216","sequential-stimulus-presentation-old","115","624038","0.0-27.0-1.5","SS1618435635621","trial","","40","500","4658.104999922216","images/stimuli/spore_stims/simple_09_A_b.gif","images/stimuli/spore_stims/simple_14_A_a.gif","forced_long","","9","simple_dissimilar","images/stimuli/spore_stims/simple_09_A_b.gif","","","","",""
"","2977.8549999464303","survey-multi-choice","116","627023","0.0-28.0","SS1618435635621","math_question","","","","","","","","","","","","{""Q0"":""4""}","[0]","4","",""
"","null","html-keyboard-response","117","628098","0.0-29.0-0.0","SS1618435635621","","","null","","","","","","<p><img src= images/blank.png width =""600"" height = ""600"" style=""position:fixed;top:50%; left:50%; transform: translate(-50%, -50%); border:5px solid black"">","","","","","","","",""
"","4123.55999997817","sequential-stimulus-presentation-old","118","632730","0.0-29.0-1.0","SS1618435635621","trial","","40","500","4623.55999997817","images/stimuli/spore_stims/simple_08_A_a.gif","images/stimuli/spore_stims/simple_14_A_b.gif","self_paced","","10","simple_dissimilar","images/stimuli/spore_stims/simple_14_A_b.gif","","","","",""
"","null","html-keyboard-response","119","633747","0.0-29.0-0.1","SS1618435635621","","","null","","","","","","<p><img src= images/blank.png width =""600"" height = ""600"" style=""position:fixed;top:50%; left:50%; transform: translate(-50%, -50%); border:5px solid black"">","","","","","","","",""
"","2350.7799999788404","sequential-stimulus-presentation-old","120","636608","0.0-29.0-1.1","SS1618435635621","trial","","40","500","2850.7799999788404","images/stimuli/spore_stims/simple_08_A_a.gif","images/stimuli/spore_stims/simple_14_A_b.gif","self_paced","","10","simple_dissimilar","images/stimuli/spore_stims/simple_14_A_b.gif","","","","",""
"","null","html-keyboard-response","121","637907","0.0-29.0-0.2","SS1618435635621","","","null","","","","","","<p><img src= images/blank.png width =""600"" height = ""600"" style=""position:fixed;top:50%; left:50%; transform: translate(-50%, -50%); border:5px solid black"">","","","","","","","",""
"","867.5549998879433","sequential-stimulus-presentation-old","122","639292","0.0-29.0-1.2","SS1618435635621","trial","","40","500","1367.5549998879433","images/stimuli/spore_stims/simple_08_A_a.gif","images/stimuli/spore_stims/simple_14_A_b.gif","self_paced","","10","simple_dissimilar","images/stimuli/spore_stims/simple_08_A_a.gif","","","","",""
"","null","html-keyboard-response","123","640583","0.0-29.0-0.3","SS1618435635621","","","null","","","","","","<p><img src= images/blank.png width =""600"" height = ""600"" style=""position:fixed;top:50%; left:50%; transform: translate(-50%, -50%); border:5px solid black"">","","","","","","","",""
"","752.5400000158697","sequential-stimulus-presentation-old","124","641843","0.0-29.0-1.3","SS1618435635621","trial","","40","500","1252.5400000158697","images/stimuli/spore_stims/simple_08_A_a.gif","images/stimuli/spore_stims/simple_14_A_b.gif","self_paced","","10","simple_dissimilar","images/stimuli/spore_stims/simple_14_A_b.gif","","","","",""
"","null","html-keyboard-response","125","642811","0.0-29.0-0.4","SS1618435635621","","","null","","","","","","<p><img src= images/blank.png width =""600"" height = ""600"" style=""position:fixed;top:50%; left:50%; transform: translate(-50%, -50%); border:5px solid black"">","","","","","","","",""
"","764.7000001743436","sequential-stimulus-presentation-old","126","644096","0.0-29.0-1.4","SS1618435635621","trial","","40","500","1264.7000001743436","images/stimuli/spore_stims/simple_08_A_a.gif","images/stimuli/spore_stims/simple_14_A_b.gif","self_paced","","10","simple_dissimilar","images/stimuli/spore_stims/simple_08_A_a.gif","","","","",""
"","4291.735000209883","survey-multi-choice","127","648394","0.0-30.0","SS1618435635621","math_question","","","","","","","","","","","","{""Q0"":""14""}","[0]","14","",""
"","null","html-keyboard-response","128","649284","0.0-31.0-0.0","SS1618435635621","","","null","","","","","","<p><img src= images/blank.png width =""600"" height = ""600"" style=""position:fixed;top:50%; left:50%; transform: translate(-50%, -50%); border:5px solid black"">","","","","","","","",""
"","3038.5549999773502","sequential-stimulus-presentation-old","129","657331","0.0-31.0-1.0","SS1618435635621","trial","","40","500","3538.5549999773502","images/stimuli/spore_stims/simple_06_A_a.gif","images/stimuli/spore_stims/simple_05_A_b.gif","forced_long","","11","simple_dissimilar","images/stimuli/spore_stims/simple_05_A_b.gif","","","","",""
"","null","html-keyboard-response","130","658452","0.0-31.0-0.1","SS1618435635621","","","null","","","","","","<p><img src= images/blank.png width =""600"" height = ""600"" style=""position:fixed;top:50%; left:50%; transform: translate(-50%, -50%); border:5px solid black"">","","","","","","","",""
"","3102.299999911338","sequential-stimulus-presentation-old","131","662061","0.0-31.0-1.1","SS1618435635621","trial","","40","500","3602.299999911338","images/stimuli/spore_stims/simple_06_A_a.gif","images/stimuli/spore_stims/simple_05_A_b.gif","forced_long","","11","simple_dissimilar","images/stimuli/spore_stims/simple_06_A_a.gif","","","","",""
"","null","html-keyboard-response","132","663174","0.0-31.0-0.2","SS1618435635621","","","null","","","","","","<p><img src= images/blank.png width =""600"" height = ""600"" style=""position:fixed;top:50%; left:50%; transform: translate(-50%, -50%); border:5px solid black"">","","","","","","","",""
"","4517.659999895841","sequential-stimulus-presentation-old","133","668204","0.0-31.0-1.2","SS1618435635621","trial","","40","500","5017.659999895841","images/stimuli/spore_stims/simple_06_A_a.gif","images/stimuli/spore_stims/simple_05_A_b.gif","forced_long","","11","simple_dissimilar","images/stimuli/spore_stims/simple_05_A_b.gif","","","","",""
"","null","html-keyboard-response","134","669121","0.0-31.0-0.3","SS1618435635621","","","null","","","","","","<p><img src= images/blank.png width =""600"" height = ""600"" style=""position:fixed;top:50%; left:50%; transform: translate(-50%, -50%); border:5px solid black"">","","","","","","","",""
"","1879.7649999614805","sequential-stimulus-presentation-old","135","671511","0.0-31.0-1.3","SS1618435635621","trial","","40","500","2379.7649999614805","images/stimuli/spore_stims/simple_06_A_a.gif","images/stimuli/spore_stims/simple_05_A_b.gif","forced_long","","11","simple_dissimilar","images/stimuli/spore_stims/simple_05_A_b.gif","","","","",""
"","null","html-keyboard-response","136","672750","0.0-31.0-0.4","SS1618435635621","","","null","","","","","","<p><img src= images/blank.png width =""600"" height = ""600"" style=""position:fixed;top:50%; left:50%; transform: translate(-50%, -50%); border:5px solid black"">","","","","","","","",""
"","1203.355000121519","sequential-stimulus-presentation-old","137","674467","0.0-31.0-1.4","SS1618435635621","trial","","40","500","1703.355000121519","images/stimuli/spore_stims/simple_06_A_a.gif","images/stimuli/spore_stims/simple_05_A_b.gif","forced_long","","11","simple_dissimilar","images/stimuli/spore_stims/simple_05_A_b.gif","","","","",""
"","null","html-keyboard-response","138","675510","0.0-31.0-0.5","SS1618435635621","","","null","","","","","","<p><img src= images/blank.png width =""600"" height = ""600"" style=""position:fixed;top:50%; left:50%; transform: translate(-50%, -50%); border:5px solid black"">","","","","","","","",""
"","566.5949999820441","sequential-stimulus-presentation-old","139","676594","0.0-31.0-1.5","SS1618435635621","trial","","40","500","1066.594999982044","images/stimuli/spore_stims/simple_06_A_a.gif","images/stimuli/spore_stims/simple_05_A_b.gif","forced_long","","11","simple_dissimilar","images/stimuli/spore_stims/simple_06_A_a.gif","","","","",""
"[{""page_index"":0,""viewing_time"":4933.549999957904}]","4934.034999925643","instructions","140","681533","0.0-32.0","SS1618435635621","instructions","","","","","","","","","","","","","","","",""
"","12065.745000028983","survey-likert","141","693606","0.0-33.0","SS1618435635621","similarity_question","","","","","","","","","","","","{""Q0"":2}","[0]","","images/stimuli/spore_stims/simple_01_A_a.gif","images/stimuli/spore_stims/simple_19_A_b.gif"
"","4569.469999987632","survey-likert","142","698185","0.0-34.0","SS1618435635621","similarity_question","","","","","","","","","","","","{""Q0"":0}","[0]","","images/stimuli/spore_stims/simple_03_A_a.gif","images/stimuli/spore_stims/simple_07_A_b.gif"
"","7716.275000013411","survey-likert","143","705912","0.0-35.0","SS1618435635621","similarity_question","","","","","","","","","","","","{""Q0"":0}","[0]","","images/stimuli/spore_stims/complex_02_A_a.gif","images/stimuli/spore_stims/complex_08_A_b.gif"
"","8102.975000161678","survey-likert","144","714025","0.0-36.0","SS1618435635621","similarity_question","","","","","","","","","","","","{""Q0"":1}","[0]","","images/stimuli/spore_stims/complex_02_A_b.gif","images/stimuli/spore_stims/complex_09_A_a.gif"
"","8716.705000028014","survey-likert","145","722754","0.0-37.0","SS1618435635621","similarity_question","","","","","","","","","","","","{""Q0"":2}","[0]","","images/stimuli/spore_stims/complex_04_A_b.gif","images/stimuli/spore_stims/complex_11_A_a.gif"
"","10286.18499985896","survey-likert","146","733051","0.0-38.0","SS1618435635621","similarity_question","","","","","","","","","","","","{""Q0"":4}","[0]","","images/stimuli/spore_stims/complex_05_A_b.gif","images/stimuli/spore_stims/complex_06_A_a.gif"
"","8587.76000002399","survey-likert","147","741649","0.0-39.0","SS1618435635621","similarity_question","","","","","","","","","","","","{""Q0"":4}","[0]","","images/stimuli/spore_stims/simple_14_A_b.gif","images/stimuli/spore_stims/simple_08_A_a.gif"
"","5093.764999881387","survey-likert","148","746754","0.0-40.0","SS1618435635621","similarity_question","","","","","","","","","","","","{""Q0"":5}","[0]","","images/stimuli/spore_stims/simple_05_A_b.gif","images/stimuli/spore_stims/simple_06_A_a.gif"
"","7084.294999949634","survey-likert","149","753850","0.0-41.0","SS1618435635621","similarity_question","","","","","","","","","","","","{""Q0"":5}","[0]","","images/stimuli/spore_stims/complex_17_A_a.gif","images/stimuli/spore_stims/complex_09_A_b.gif"
"","7053.509999997914","survey-likert","150","760914","0.0-42.0","SS1618435635621","similarity_question","","","","","","","","","","","","{""Q0"":1}","[0]","","images/stimuli/spore_stims/complex_03_A_b.gif","images/stimuli/spore_stims/complex_20_A_a.gif"
"","6452.935000183061","survey-likert","151","767379","0.0-43.0","SS1618435635621","similarity_question","","","","","","","","","","","","{""Q0"":6}","[0]","","images/stimuli/spore_stims/simple_09_A_b.gif","images/stimuli/spore_stims/simple_14_A_a.gif"
"","4020.6050002016127","survey-likert","152","771410","0.0-44.0","SS1618435635621","similarity_question","","","","","","","","","","","","{""Q0"":2}","[0]","","images/stimuli/spore_stims/simple_03_A_b.gif","images/stimuli/spore_stims/simple_07_A_a.gif"
"[{""page_index"":0,""viewing_time"":5142.475000116974}]","5142.960000084713","instructions","153","776561","0.0-45.0","SS1618435635621","instructions","","","","","","","","","","","","","","","",""
"","5998.360000085086","survey-likert","154","782569","0.0-46.0","SS1618435635621","","","","","","","","","images/stimuli/spore_stims/simple_07_A_b.gif","","","","{""Q0"":0}","[0]","","",""
"","4083.3400001283735","survey-likert","155","786664","0.0-47.0","SS1618435635621","","","","","","","","","images/stimuli/spore_stims/simple_19_A_b.gif","","","","{""Q0"":2}","[0]","","",""
"","8585.900000063702","survey-likert","156","795260","0.0-48.0","SS1618435635621","","","","","","","","","images/stimuli/spore_stims/complex_02_A_b.gif","","","","{""Q0"":5}","[0]","","",""
"","3573.6049998085946","survey-likert","157","798844","0.0-49.0","SS1618435635621","","","","","","","","","images/stimuli/spore_stims/simple_07_A_a.gif","","","","{""Q0"":0}","[0]","","",""
"","5913.695000112057","survey-likert","158","804768","0.0-50.0","SS1618435635621","","","","","","","","","images/stimuli/spore_stims/complex_05_A_b.gif","","","","{""Q0"":4}","[0]","","",""
"","7203.429999994114","survey-likert","159","811980","0.0-51.0","SS1618435635621","","","","","","","","","images/stimuli/spore_stims/simple_14_A_b.gif","","","","{""Q0"":1}","[0]","","",""
"","7026.374999899417","survey-likert","160","819016","0.0-52.0","SS1618435635621","","","","","","","","","images/stimuli/spore_stims/complex_17_A_a.gif","","","","{""Q0"":2}","[0]","","",""
"","4764.435000019148","survey-likert","161","823789","0.0-53.0","SS1618435635621","","","","","","","","","images/stimuli/spore_stims/simple_06_A_a.gif","","","","{""Q0"":1}","[0]","","",""
"","3953.694999916479","survey-likert","162","827752","0.0-54.0","SS1618435635621","","","","","","","","","images/stimuli/spore_stims/simple_09_A_b.gif","","","","{""Q0"":1}","[0]","","",""
"","4576.044999994338","survey-likert","163","832339","0.0-55.0","SS1618435635621","","","","","","","","","images/stimuli/spore_stims/complex_11_A_a.gif","","","","{""Q0"":4}","[0]","","",""
"","4736.395000014454","survey-likert","164","837086","0.0-56.0","SS1618435635621","","","","","","","","","images/stimuli/spore_stims/complex_02_A_a.gif","","","","{""Q0"":5}","[0]","","",""
"","4540.680000092834","survey-likert","165","841638","0.0-57.0","SS1618435635621","","","","","","","","","images/stimuli/spore_stims/complex_20_A_a.gif","","","","{""Q0"":6}","[0]","","",""
"[{""page_index"":0,""viewing_time"":2356.904999818653}]","2357.3600000236183","instructions","166","844003","0.0-58.0","SS1618435635621","instructions","","","","","","","","","","","","","","","",""
"","2947.2000000532717","demog-age","167","846961","0.0-59.0","SS1618435635621","","","","","","","","","","","","","{""age"":""21""}","","","",""
"","5851.22499987483","demog-ethnic-US","168","852822","0.0-60.0","SS1618435635621","","","","","","","","","","","","","{""ethnicity"":[""Asian""]}","[0]","","",""
"","20507.225000066683","demog-gender-and-education","169","873336","0.0-61.0","SS1618435635621","","","","","","","","","","","","","{""gender"":""Female"",""education"":""Bachelor's Degree""}","[0,1]","","",""
"","38528.824999928474","survey-text","170","911877","0.0-62.0","SS1618435635621","feedback","","","","","","","","","","","","{""Q0"":""The animation was not laggy and there were any issues with this experiment""}","","","",""
"[{""page_index"":0,""viewing_time"":2821.2749999947846}]","2821.830000029877","instructions","171","914707","0.0-63.0","SS1618435635621","instructions","","","","","","","","","","","","","","","",""
