"view_history","rt","trial_type","trial_index","time_elapsed","internal_node_id","subject","stimulus_type","trial_stimulus","key_press","minimum_viewing_duration","trial_looking_time","block_deviant","block_background","exposure_type","stimulus","block_number","block_type","stimulus_displayed","responses","question_order","math_correct_answer","stimulus_left","stimulus_right"
"[{""page_index"":0,""viewing_time"":3614.220000046771}]","3614.575000014156","instructions","0","3617","0.0-0.0","SS1618365848596","","","","","","","","","","","","","","","","",""
"[{""page_index"":0,""viewing_time"":90286.35999996914},{""page_index"":1,""viewing_time"":3497.7550000185147}]","93784.40999996383","instructions","1","99406","0.0-1.0","SS1618365848596","instructions","","","","","","","","","","","","","","","",""
"","2911.320000013802","sequential-stimulus-presentation-old","2","102823","0.0-2.0","SS1618365848596","","","40","500","3411.320000013802","null","null","self_paced","","","","","","","","",""
"","3043.275000003632","sequential-stimulus-presentation-old","3","106371","0.0-3.0","SS1618365848596","","","40","500","3543.275000003632","null","null","self_paced","","","","","","","","",""
"[{""page_index"":0,""viewing_time"":6459.150000009686}]","6459.399999992456","instructions","4","112831","0.0-4.0","SS1618365848596","instructions","","","","","","","","","","","","","","","",""
"","1724.419999984093","sequential-stimulus-presentation-old","5","119559","0.0-5.0","SS1618365848596","","","40","500","2224.419999984093","null","null","forced_long","","","","","","","","",""
"","2249.0250000264496","sequential-stimulus-presentation-old","6","121864","0.0-6.0","SS1618365848596","","","40","50","2299.0250000264496","null","null","forced_long","","","","","","","","",""
"[{""page_index"":0,""viewing_time"":1270.3150000306778}]","1270.5150000401773","instructions","7","123135","0.0-7.0","SS1618365848596","instructions","","","","","","","","","","","","","","","",""
"[{""page_index"":0,""viewing_time"":5779.099999985192},{""page_index"":1,""viewing_time"":3922.8649999713525},{""page_index"":2,""viewing_time"":3250.54000003729},{""page_index"":3,""viewing_time"":1016.6249999892898},{""page_index"":4,""viewing_time"":881.1349999741651}]","14850.50499998033","instructions","8","137987","0.0-8.0","SS1618365848596","instructions","","","","","","","","","","","","","","","",""
"","null","html-keyboard-response","9","138896","0.0-9.0-0.0","SS1618365848596","","","null","","","","","","<p><img src= images/blank.png width =""600"" height = ""600"" style=""position:fixed;top:50%; left:50%; transform: translate(-50%, -50%); border:5px solid black"">","","","","","","","",""
"","418.7800000072457","sequential-stimulus-presentation-old","10","139371","0.0-9.0-1.0","SS1618365848596","trial","","40","500","918.7800000072457","images/stimuli/spore_stims/simple_12_A_b.gif","images/stimuli/spore_stims/simple_10_A_a.gif","forced_short","","0","simple_dissimilar","images/stimuli/spore_stims/simple_10_A_a.gif","","","","",""
"","null","html-keyboard-response","11","140444","0.0-9.0-0.1","SS1618365848596","","","null","","","","","","<p><img src= images/blank.png width =""600"" height = ""600"" style=""position:fixed;top:50%; left:50%; transform: translate(-50%, -50%); border:5px solid black"">","","","","","","","",""
"","101.29000002052635","sequential-stimulus-presentation-old","12","141053","0.0-9.0-1.1","SS1618365848596","trial","","40","500","601.2900000205263","images/stimuli/spore_stims/simple_12_A_b.gif","images/stimuli/spore_stims/simple_10_A_a.gif","forced_short","","0","simple_dissimilar","images/stimuli/spore_stims/simple_10_A_a.gif","","","","",""
"","null","html-keyboard-response","13","141930","0.0-9.0-0.2","SS1618365848596","","","null","","","","","","<p><img src= images/blank.png width =""600"" height = ""600"" style=""position:fixed;top:50%; left:50%; transform: translate(-50%, -50%); border:5px solid black"">","","","","","","","",""
"","1170.9699999773875","sequential-stimulus-presentation-old","14","143606","0.0-9.0-1.2","SS1618365848596","trial","","40","500","1670.9699999773875","images/stimuli/spore_stims/simple_12_A_b.gif","images/stimuli/spore_stims/simple_10_A_a.gif","forced_short","","0","simple_dissimilar","images/stimuli/spore_stims/simple_12_A_b.gif","","","","",""
"","null","html-keyboard-response","15","144448","0.0-9.0-0.3","SS1618365848596","","","null","","","","","","<p><img src= images/blank.png width =""600"" height = ""600"" style=""position:fixed;top:50%; left:50%; transform: translate(-50%, -50%); border:5px solid black"">","","","","","","","",""
"","6475.674999994226","sequential-stimulus-presentation-old","16","151428","0.0-9.0-1.3","SS1618365848596","trial","","40","500","6975.674999994226","images/stimuli/spore_stims/simple_12_A_b.gif","images/stimuli/spore_stims/simple_10_A_a.gif","forced_short","","0","simple_dissimilar","images/stimuli/spore_stims/simple_10_A_a.gif","","","","",""
"","null","html-keyboard-response","17","152689","0.0-9.0-0.4","SS1618365848596","","","null","","","","","","<p><img src= images/blank.png width =""600"" height = ""600"" style=""position:fixed;top:50%; left:50%; transform: translate(-50%, -50%); border:5px solid black"">","","","","","","","",""
"","21669.15999999037","sequential-stimulus-presentation-old","18","174861","0.0-9.0-1.4","SS1618365848596","trial","","40","500","22169.15999999037","images/stimuli/spore_stims/simple_12_A_b.gif","images/stimuli/spore_stims/simple_10_A_a.gif","forced_short","","0","simple_dissimilar","images/stimuli/spore_stims/simple_12_A_b.gif","","","","",""
"","null","html-keyboard-response","19","175979","0.0-9.0-0.5","SS1618365848596","","","null","","","","","","<p><img src= images/blank.png width =""600"" height = ""600"" style=""position:fixed;top:50%; left:50%; transform: translate(-50%, -50%); border:5px solid black"">","","","","","","","",""
"","1708.3350000320934","sequential-stimulus-presentation-old","20","178195","0.0-9.0-1.5","SS1618365848596","trial","","40","500","2208.3350000320934","images/stimuli/spore_stims/simple_12_A_b.gif","images/stimuli/spore_stims/simple_10_A_a.gif","forced_short","","0","simple_dissimilar","images/stimuli/spore_stims/simple_10_A_a.gif","","","","",""
"","3173.460000019986","survey-multi-choice","21","181371","0.0-10.0","SS1618365848596","math_question","","","","","","","","","","","","{""Q0"":""9""}","[0]","9","",""
"","null","html-keyboard-response","22","182327","0.0-11.0-0.0","SS1618365848596","","","null","","","","","","<p><img src= images/blank.png width =""600"" height = ""600"" style=""position:fixed;top:50%; left:50%; transform: translate(-50%, -50%); border:5px solid black"">","","","","","","","",""
"","469.150000018999","sequential-stimulus-presentation-old","23","182853","0.0-11.0-1.0","SS1618365848596","trial","","40","500","969.150000018999","images/stimuli/spore_stims/complex_12_A_b.gif","images/stimuli/spore_stims/complex_14_A_a.gif","forced_short","","1","complex_dissimilar","images/stimuli/spore_stims/complex_14_A_a.gif","","","","",""
"","null","html-keyboard-response","24","184080","0.0-11.0-0.1","SS1618365848596","","","null","","","","","","<p><img src= images/blank.png width =""600"" height = ""600"" style=""position:fixed;top:50%; left:50%; transform: translate(-50%, -50%); border:5px solid black"">","","","","","","","",""
"","215.25500004645437","sequential-stimulus-presentation-old","25","184799","0.0-11.0-1.1","SS1618365848596","trial","","40","500","715.2550000464544","images/stimuli/spore_stims/complex_12_A_b.gif","images/stimuli/spore_stims/complex_14_A_a.gif","forced_short","","1","complex_dissimilar","images/stimuli/spore_stims/complex_14_A_a.gif","","","","",""
"","null","html-keyboard-response","26","185770","0.0-11.0-0.2","SS1618365848596","","","null","","","","","","<p><img src= images/blank.png width =""600"" height = ""600"" style=""position:fixed;top:50%; left:50%; transform: translate(-50%, -50%); border:5px solid black"">","","","","","","","",""
"","2790.1999999885447","sequential-stimulus-presentation-old","27","189065","0.0-11.0-1.2","SS1618365848596","trial","","40","500","3290.1999999885447","images/stimuli/spore_stims/complex_12_A_b.gif","images/stimuli/spore_stims/complex_14_A_a.gif","forced_short","","1","complex_dissimilar","images/stimuli/spore_stims/complex_14_A_a.gif","","","","",""
"","null","html-keyboard-response","28","190013","0.0-11.0-0.3","SS1618365848596","","","null","","","","","","<p><img src= images/blank.png width =""600"" height = ""600"" style=""position:fixed;top:50%; left:50%; transform: translate(-50%, -50%); border:5px solid black"">","","","","","","","",""
"","1327.8099999879487","sequential-stimulus-presentation-old","29","191848","0.0-11.0-1.3","SS1618365848596","trial","","40","500","1827.8099999879487","images/stimuli/spore_stims/complex_12_A_b.gif","images/stimuli/spore_stims/complex_14_A_a.gif","forced_short","","1","complex_dissimilar","images/stimuli/spore_stims/complex_14_A_a.gif","","","","",""
"","2617.5100000109524","survey-multi-choice","30","194467","0.0-12.0","SS1618365848596","math_question","","","","","","","","","","","","{""Q0"":""4""}","[0]","4","",""
"","null","html-keyboard-response","31","195592","0.0-13.0-0.0","SS1618365848596","","","null","","","","","","<p><img src= images/blank.png width =""600"" height = ""600"" style=""position:fixed;top:50%; left:50%; transform: translate(-50%, -50%); border:5px solid black"">","","","","","","","",""
"","591.9499999727122","sequential-stimulus-presentation-old","32","201190","0.0-13.0-1.0","SS1618365848596","trial","","40","500","1091.9499999727122","images/stimuli/spore_stims/complex_07_A_a.gif","images/stimuli/spore_stims/complex_08_A_b.gif","forced_long","","2","complex_dissimilar","images/stimuli/spore_stims/complex_08_A_b.gif","","","","",""
"","null","html-keyboard-response","33","202100","0.0-13.0-0.1","SS1618365848596","","","null","","","","","","<p><img src= images/blank.png width =""600"" height = ""600"" style=""position:fixed;top:50%; left:50%; transform: translate(-50%, -50%); border:5px solid black"">","","","","","","","",""
"","1765.4700000421144","sequential-stimulus-presentation-old","34","204370","0.0-13.0-1.1","SS1618365848596","trial","","40","500","2265.4700000421144","images/stimuli/spore_stims/complex_07_A_a.gif","images/stimuli/spore_stims/complex_08_A_b.gif","forced_long","","2","complex_dissimilar","images/stimuli/spore_stims/complex_08_A_b.gif","","","","",""
"","null","html-keyboard-response","35","205631","0.0-13.0-0.2","SS1618365848596","","","null","","","","","","<p><img src= images/blank.png width =""600"" height = ""600"" style=""position:fixed;top:50%; left:50%; transform: translate(-50%, -50%); border:5px solid black"">","","","","","","","",""
"","290.8449999522418","sequential-stimulus-presentation-old","36","206426","0.0-13.0-1.2","SS1618365848596","trial","","40","500","790.8449999522418","images/stimuli/spore_stims/complex_07_A_a.gif","images/stimuli/spore_stims/complex_08_A_b.gif","forced_long","","2","complex_dissimilar","images/stimuli/spore_stims/complex_08_A_b.gif","","","","",""
"","null","html-keyboard-response","37","207580","0.0-13.0-0.3","SS1618365848596","","","null","","","","","","<p><img src= images/blank.png width =""600"" height = ""600"" style=""position:fixed;top:50%; left:50%; transform: translate(-50%, -50%); border:5px solid black"">","","","","","","","",""
"","73.5149999964051","sequential-stimulus-presentation-old","38","208158","0.0-13.0-1.3","SS1618365848596","trial","","40","500","573.5149999964051","images/stimuli/spore_stims/complex_07_A_a.gif","images/stimuli/spore_stims/complex_08_A_b.gif","forced_long","","2","complex_dissimilar","images/stimuli/spore_stims/complex_07_A_a.gif","","","","",""
"","null","html-keyboard-response","39","209300","0.0-13.0-0.4","SS1618365848596","","","null","","","","","","<p><img src= images/blank.png width =""600"" height = ""600"" style=""position:fixed;top:50%; left:50%; transform: translate(-50%, -50%); border:5px solid black"">","","","","","","","",""
"","354.27000001072884","sequential-stimulus-presentation-old","40","210157","0.0-13.0-1.4","SS1618365848596","trial","","40","500","854.2700000107288","images/stimuli/spore_stims/complex_07_A_a.gif","images/stimuli/spore_stims/complex_08_A_b.gif","forced_long","","2","complex_dissimilar","images/stimuli/spore_stims/complex_08_A_b.gif","","","","",""
"","2417.0399999711663","survey-multi-choice","41","212575","0.0-14.0","SS1618365848596","math_question","","","","","","","","","","","","{""Q0"":""6""}","[0]","6","",""
"","null","html-keyboard-response","42","213872","0.0-15.0-0.0","SS1618365848596","","","null","","","","","","<p><img src= images/blank.png width =""600"" height = ""600"" style=""position:fixed;top:50%; left:50%; transform: translate(-50%, -50%); border:5px solid black"">","","","","","","","",""
"","21.290000004228204","sequential-stimulus-presentation-old","43","214398","0.0-15.0-1.0","SS1618365848596","trial","","40","500","521.2900000042282","images/stimuli/spore_stims/simple_04_A_a.gif","images/stimuli/spore_stims/simple_05_A_b.gif","self_paced","","3","simple_dissimilar","images/stimuli/spore_stims/simple_05_A_b.gif","","","","",""
"","null","html-keyboard-response","44","215622","0.0-15.0-0.1","SS1618365848596","","","null","","","","","","<p><img src= images/blank.png width =""600"" height = ""600"" style=""position:fixed;top:50%; left:50%; transform: translate(-50%, -50%); border:5px solid black"">","","","","","","","",""
"","295.769999967888","sequential-stimulus-presentation-old","45","216420","0.0-15.0-1.1","SS1618365848596","trial","","40","500","795.769999967888","images/stimuli/spore_stims/simple_04_A_a.gif","images/stimuli/spore_stims/simple_05_A_b.gif","self_paced","","3","simple_dissimilar","images/stimuli/spore_stims/simple_05_A_b.gif","","","","",""
"","null","html-keyboard-response","46","217277","0.0-15.0-0.2","SS1618365848596","","","null","","","","","","<p><img src= images/blank.png width =""600"" height = ""600"" style=""position:fixed;top:50%; left:50%; transform: translate(-50%, -50%); border:5px solid black"">","","","","","","","",""
"","325.1549999695271","sequential-stimulus-presentation-old","47","218105","0.0-15.0-1.2","SS1618365848596","trial","","40","500","825.1549999695271","images/stimuli/spore_stims/simple_04_A_a.gif","images/stimuli/spore_stims/simple_05_A_b.gif","self_paced","","3","simple_dissimilar","images/stimuli/spore_stims/simple_05_A_b.gif","","","","",""
"","null","html-keyboard-response","48","219368","0.0-15.0-0.3","SS1618365848596","","","null","","","","","","<p><img src= images/blank.png width =""600"" height = ""600"" style=""position:fixed;top:50%; left:50%; transform: translate(-50%, -50%); border:5px solid black"">","","","","","","","",""
"","716.7849999968894","sequential-stimulus-presentation-old","49","220592","0.0-15.0-1.3","SS1618365848596","trial","","40","500","1216.7849999968894","images/stimuli/spore_stims/simple_04_A_a.gif","images/stimuli/spore_stims/simple_05_A_b.gif","self_paced","","3","simple_dissimilar","images/stimuli/spore_stims/simple_05_A_b.gif","","","","",""
"","null","html-keyboard-response","50","221538","0.0-15.0-0.4","SS1618365848596","","","null","","","","","","<p><img src= images/blank.png width =""600"" height = ""600"" style=""position:fixed;top:50%; left:50%; transform: translate(-50%, -50%); border:5px solid black"">","","","","","","","",""
"","845.9600000060163","sequential-stimulus-presentation-old","51","222886","0.0-15.0-1.4","SS1618365848596","trial","","40","500","1345.9600000060163","images/stimuli/spore_stims/simple_04_A_a.gif","images/stimuli/spore_stims/simple_05_A_b.gif","self_paced","","3","simple_dissimilar","images/stimuli/spore_stims/simple_05_A_b.gif","","","","",""
"","null","html-keyboard-response","52","224090","0.0-15.0-0.5","SS1618365848596","","","null","","","","","","<p><img src= images/blank.png width =""600"" height = ""600"" style=""position:fixed;top:50%; left:50%; transform: translate(-50%, -50%); border:5px solid black"">","","","","","","","",""
"","423.6500000115484","sequential-stimulus-presentation-old","53","225018","0.0-15.0-1.5","SS1618365848596","trial","","40","500","923.6500000115484","images/stimuli/spore_stims/simple_04_A_a.gif","images/stimuli/spore_stims/simple_05_A_b.gif","self_paced","","3","simple_dissimilar","images/stimuli/spore_stims/simple_05_A_b.gif","","","","",""
"","2300.3700000117533","survey-multi-choice","54","227321","0.0-16.0","SS1618365848596","math_question","","","","","","","","","","","","{""Q0"":""6""}","[0]","6","",""
"","null","html-keyboard-response","55","228452","0.0-17.0-0.0","SS1618365848596","","","null","","","","","","<p><img src= images/blank.png width =""600"" height = ""600"" style=""position:fixed;top:50%; left:50%; transform: translate(-50%, -50%); border:5px solid black"">","","","","","","","",""
"","318.12000001082197","sequential-stimulus-presentation-old","56","228828","0.0-17.0-1.0","SS1618365848596","trial","","40","500","818.120000010822","images/stimuli/spore_stims/simple_08_A_b.gif","images/stimuli/spore_stims/simple_05_A_a.gif","forced_short","","4","simple_dissimilar","images/stimuli/spore_stims/simple_05_A_a.gif","","","","",""
"","null","html-keyboard-response","57","229753","0.0-17.0-0.1","SS1618365848596","","","null","","","","","","<p><img src= images/blank.png width =""600"" height = ""600"" style=""position:fixed;top:50%; left:50%; transform: translate(-50%, -50%); border:5px solid black"">","","","","","","","",""
"","150.3299999749288","sequential-stimulus-presentation-old","58","230412","0.0-17.0-1.1","SS1618365848596","trial","","40","500","650.3299999749288","images/stimuli/spore_stims/simple_08_A_b.gif","images/stimuli/spore_stims/simple_05_A_a.gif","forced_short","","4","simple_dissimilar","images/stimuli/spore_stims/simple_05_A_a.gif","","","","",""
"","null","html-keyboard-response","59","231400","0.0-17.0-0.2","SS1618365848596","","","null","","","","","","<p><img src= images/blank.png width =""600"" height = ""600"" style=""position:fixed;top:50%; left:50%; transform: translate(-50%, -50%); border:5px solid black"">","","","","","","","",""
"","228.68000000016764","sequential-stimulus-presentation-old","60","232131","0.0-17.0-1.2","SS1618365848596","trial","","40","500","728.6800000001676","images/stimuli/spore_stims/simple_08_A_b.gif","images/stimuli/spore_stims/simple_05_A_a.gif","forced_short","","4","simple_dissimilar","images/stimuli/spore_stims/simple_08_A_b.gif","","","","",""
"","null","html-keyboard-response","61","233281","0.0-17.0-0.3","SS1618365848596","","","null","","","","","","<p><img src= images/blank.png width =""600"" height = ""600"" style=""position:fixed;top:50%; left:50%; transform: translate(-50%, -50%); border:5px solid black"">","","","","","","","",""
"","151.27000003121793","sequential-stimulus-presentation-old","62","233936","0.0-17.0-1.3","SS1618365848596","trial","","40","500","651.2700000312179","images/stimuli/spore_stims/simple_08_A_b.gif","images/stimuli/spore_stims/simple_05_A_a.gif","forced_short","","4","simple_dissimilar","images/stimuli/spore_stims/simple_05_A_a.gif","","","","",""
"","null","html-keyboard-response","63","235058","0.0-17.0-0.4","SS1618365848596","","","null","","","","","","<p><img src= images/blank.png width =""600"" height = ""600"" style=""position:fixed;top:50%; left:50%; transform: translate(-50%, -50%); border:5px solid black"">","","","","","","","",""
"","109.50999998021871","sequential-stimulus-presentation-old","64","235674","0.0-17.0-1.4","SS1618365848596","trial","","40","500","609.5099999802187","images/stimuli/spore_stims/simple_08_A_b.gif","images/stimuli/spore_stims/simple_05_A_a.gif","forced_short","","4","simple_dissimilar","images/stimuli/spore_stims/simple_05_A_a.gif","","","","",""
"","null","html-keyboard-response","65","236836","0.0-17.0-0.5","SS1618365848596","","","null","","","","","","<p><img src= images/blank.png width =""600"" height = ""600"" style=""position:fixed;top:50%; left:50%; transform: translate(-50%, -50%); border:5px solid black"">","","","","","","","",""
"","79.8499999800697","sequential-stimulus-presentation-old","66","237419","0.0-17.0-1.5","SS1618365848596","trial","","40","500","579.8499999800697","images/stimuli/spore_stims/simple_08_A_b.gif","images/stimuli/spore_stims/simple_05_A_a.gif","forced_short","","4","simple_dissimilar","images/stimuli/spore_stims/simple_08_A_b.gif","","","","",""
"","2019.5900000398979","survey-multi-choice","67","239441","0.0-18.0","SS1618365848596","math_question","","","","","","","","","","","","{""Q0"":""4""}","[0]","4","",""
"","null","html-keyboard-response","68","240611","0.0-19.0-0.0","SS1618365848596","","","null","","","","","","<p><img src= images/blank.png width =""600"" height = ""600"" style=""position:fixed;top:50%; left:50%; transform: translate(-50%, -50%); border:5px solid black"">","","","","","","","",""
"","3383.1699999864213","sequential-stimulus-presentation-old","69","249001","0.0-19.0-1.0","SS1618365848596","trial","","40","500","3883.1699999864213","images/stimuli/spore_stims/complex_19_A_b.gif","images/stimuli/spore_stims/complex_05_A_a.gif","forced_long","","5","complex_dissimilar","images/stimuli/spore_stims/complex_05_A_a.gif","","","","",""
"","null","html-keyboard-response","70","250007","0.0-19.0-0.1","SS1618365848596","","","null","","","","","","<p><img src= images/blank.png width =""600"" height = ""600"" style=""position:fixed;top:50%; left:50%; transform: translate(-50%, -50%); border:5px solid black"">","","","","","","","",""
"","6818.524999951478","sequential-stimulus-presentation-old","71","257332","0.0-19.0-1.1","SS1618365848596","trial","","40","500","7318.524999951478","images/stimuli/spore_stims/complex_19_A_b.gif","images/stimuli/spore_stims/complex_05_A_a.gif","forced_long","","5","complex_dissimilar","images/stimuli/spore_stims/complex_05_A_a.gif","","","","",""
"","null","html-keyboard-response","72","258631","0.0-19.0-0.2","SS1618365848596","","","null","","","","","","<p><img src= images/blank.png width =""600"" height = ""600"" style=""position:fixed;top:50%; left:50%; transform: translate(-50%, -50%); border:5px solid black"">","","","","","","","",""
"","72.7199999964796","sequential-stimulus-presentation-old","73","259208","0.0-19.0-1.2","SS1618365848596","trial","","40","500","572.7199999964796","images/stimuli/spore_stims/complex_19_A_b.gif","images/stimuli/spore_stims/complex_05_A_a.gif","forced_long","","5","complex_dissimilar","images/stimuli/spore_stims/complex_05_A_a.gif","","","","",""
"","null","html-keyboard-response","74","260061","0.0-19.0-0.3","SS1618365848596","","","null","","","","","","<p><img src= images/blank.png width =""600"" height = ""600"" style=""position:fixed;top:50%; left:50%; transform: translate(-50%, -50%); border:5px solid black"">","","","","","","","",""
"","1091.9849999481812","sequential-stimulus-presentation-old","75","261656","0.0-19.0-1.3","SS1618365848596","trial","","40","500","1591.9849999481812","images/stimuli/spore_stims/complex_19_A_b.gif","images/stimuli/spore_stims/complex_05_A_a.gif","forced_long","","5","complex_dissimilar","images/stimuli/spore_stims/complex_05_A_a.gif","","","","",""
"","null","html-keyboard-response","76","262826","0.0-19.0-0.4","SS1618365848596","","","null","","","","","","<p><img src= images/blank.png width =""600"" height = ""600"" style=""position:fixed;top:50%; left:50%; transform: translate(-50%, -50%); border:5px solid black"">","","","","","","","",""
"","780.9499999857508","sequential-stimulus-presentation-old","77","264111","0.0-19.0-1.4","SS1618365848596","trial","","40","500","1280.9499999857508","images/stimuli/spore_stims/complex_19_A_b.gif","images/stimuli/spore_stims/complex_05_A_a.gif","forced_long","","5","complex_dissimilar","images/stimuli/spore_stims/complex_19_A_b.gif","","","","",""
"","55745.18500000704","survey-multi-choice","78","319859","0.0-20.0","SS1618365848596","math_question","","","","","","","","","","","","{""Q0"":""12""}","[0]","12","",""
"","null","html-keyboard-response","79","320759","0.0-21.0-0.0","SS1618365848596","","","null","","","","","","<p><img src= images/blank.png width =""600"" height = ""600"" style=""position:fixed;top:50%; left:50%; transform: translate(-50%, -50%); border:5px solid black"">","","","","","","","",""
"","1550.1550000044517","sequential-stimulus-presentation-old","80","327316","0.0-21.0-1.0","SS1618365848596","trial","","40","500","2050.1550000044517","images/stimuli/spore_stims/simple_10_A_b.gif","images/stimuli/spore_stims/simple_01_A_a.gif","forced_long","","6","simple_dissimilar","images/stimuli/spore_stims/simple_01_A_a.gif","","","","",""
"","null","html-keyboard-response","81","328157","0.0-21.0-0.1","SS1618365848596","","","null","","","","","","<p><img src= images/blank.png width =""600"" height = ""600"" style=""position:fixed;top:50%; left:50%; transform: translate(-50%, -50%); border:5px solid black"">","","","","","","","",""
"","5027.024999959394","sequential-stimulus-presentation-old","82","333692","0.0-21.0-1.1","SS1618365848596","trial","","40","500","5527.024999959394","images/stimuli/spore_stims/simple_10_A_b.gif","images/stimuli/spore_stims/simple_01_A_a.gif","forced_long","","6","simple_dissimilar","images/stimuli/spore_stims/simple_01_A_a.gif","","","","",""
"","null","html-keyboard-response","83","334855","0.0-21.0-0.2","SS1618365848596","","","null","","","","","","<p><img src= images/blank.png width =""600"" height = ""600"" style=""position:fixed;top:50%; left:50%; transform: translate(-50%, -50%); border:5px solid black"">","","","","","","","",""
"","1827.434999984689","sequential-stimulus-presentation-old","84","337188","0.0-21.0-1.2","SS1618365848596","trial","","40","500","2327.434999984689","images/stimuli/spore_stims/simple_10_A_b.gif","images/stimuli/spore_stims/simple_01_A_a.gif","forced_long","","6","simple_dissimilar","images/stimuli/spore_stims/simple_10_A_b.gif","","","","",""
"","null","html-keyboard-response","85","338325","0.0-21.0-0.3","SS1618365848596","","","null","","","","","","<p><img src= images/blank.png width =""600"" height = ""600"" style=""position:fixed;top:50%; left:50%; transform: translate(-50%, -50%); border:5px solid black"">","","","","","","","",""
"","3110.1400000043213","sequential-stimulus-presentation-old","86","341941","0.0-21.0-1.3","SS1618365848596","trial","","40","500","3610.1400000043213","images/stimuli/spore_stims/simple_10_A_b.gif","images/stimuli/spore_stims/simple_01_A_a.gif","forced_long","","6","simple_dissimilar","images/stimuli/spore_stims/simple_10_A_b.gif","","","","",""
"","11147.939999995288","survey-multi-choice","87","353091","0.0-22.0","SS1618365848596","math_question","","","","","","","","","","","","{""Q0"":""9""}","[0]","9","",""
"","null","html-keyboard-response","88","354097","0.0-23.0-0.0","SS1618365848596","","","null","","","","","","<p><img src= images/blank.png width =""600"" height = ""600"" style=""position:fixed;top:50%; left:50%; transform: translate(-50%, -50%); border:5px solid black"">","","","","","","","",""
"","5740.619999996852","sequential-stimulus-presentation-old","89","360343","0.0-23.0-1.0","SS1618365848596","trial","","40","500","6240.619999996852","images/stimuli/spore_stims/complex_16_A_b.gif","images/stimuli/spore_stims/complex_04_A_a.gif","self_paced","","7","complex_dissimilar","images/stimuli/spore_stims/complex_04_A_a.gif","","","","",""
"","null","html-keyboard-response","90","361378","0.0-23.0-0.1","SS1618365848596","","","null","","","","","","<p><img src= images/blank.png width =""600"" height = ""600"" style=""position:fixed;top:50%; left:50%; transform: translate(-50%, -50%); border:5px solid black"">","","","","","","","",""
"","300.58000003919005","sequential-stimulus-presentation-old","91","362185","0.0-23.0-1.1","SS1618365848596","trial","","40","500","800.58000003919","images/stimuli/spore_stims/complex_16_A_b.gif","images/stimuli/spore_stims/complex_04_A_a.gif","self_paced","","7","complex_dissimilar","images/stimuli/spore_stims/complex_04_A_a.gif","","","","",""
"","null","html-keyboard-response","92","363423","0.0-23.0-0.2","SS1618365848596","","","null","","","","","","<p><img src= images/blank.png width =""600"" height = ""600"" style=""position:fixed;top:50%; left:50%; transform: translate(-50%, -50%); border:5px solid black"">","","","","","","","",""
"","724.1100000101142","sequential-stimulus-presentation-old","93","364650","0.0-23.0-1.2","SS1618365848596","trial","","40","500","1224.1100000101142","images/stimuli/spore_stims/complex_16_A_b.gif","images/stimuli/spore_stims/complex_04_A_a.gif","self_paced","","7","complex_dissimilar","images/stimuli/spore_stims/complex_16_A_b.gif","","","","",""
"","null","html-keyboard-response","94","365854","0.0-23.0-0.3","SS1618365848596","","","null","","","","","","<p><img src= images/blank.png width =""600"" height = ""600"" style=""position:fixed;top:50%; left:50%; transform: translate(-50%, -50%); border:5px solid black"">","","","","","","","",""
"","217.59499999461696","sequential-stimulus-presentation-old","95","366575","0.0-23.0-1.3","SS1618365848596","trial","","40","500","717.594999994617","images/stimuli/spore_stims/complex_16_A_b.gif","images/stimuli/spore_stims/complex_04_A_a.gif","self_paced","","7","complex_dissimilar","images/stimuli/spore_stims/complex_16_A_b.gif","","","","",""
"","2162.6699999906123","survey-multi-choice","96","368740","0.0-24.0","SS1618365848596","math_question","","","","","","","","","","","","{""Q0"":""10""}","[0]","10","",""
"","null","html-keyboard-response","97","369952","0.0-25.0-0.0","SS1618365848596","","","null","","","","","","<p><img src= images/blank.png width =""600"" height = ""600"" style=""position:fixed;top:50%; left:50%; transform: translate(-50%, -50%); border:5px solid black"">","","","","","","","",""
"","4720.810000027996","sequential-stimulus-presentation-old","98","379681","0.0-25.0-1.0","SS1618365848596","trial","","40","500","5220.810000027996","images/stimuli/spore_stims/simple_18_A_a.gif","images/stimuli/spore_stims/simple_09_A_b.gif","forced_long","","8","simple_dissimilar","images/stimuli/spore_stims/simple_09_A_b.gif","","","","",""
"","null","html-keyboard-response","99","380931","0.0-25.0-0.1","SS1618365848596","","","null","","","","","","<p><img src= images/blank.png width =""600"" height = ""600"" style=""position:fixed;top:50%; left:50%; transform: translate(-50%, -50%); border:5px solid black"">","","","","","","","",""
"","271.3400000357069","sequential-stimulus-presentation-old","100","381706","0.0-25.0-1.1","SS1618365848596","trial","","40","500","771.3400000357069","images/stimuli/spore_stims/simple_18_A_a.gif","images/stimuli/spore_stims/simple_09_A_b.gif","forced_long","","8","simple_dissimilar","images/stimuli/spore_stims/simple_09_A_b.gif","","","","",""
"","null","html-keyboard-response","101","382721","0.0-25.0-0.2","SS1618365848596","","","null","","","","","","<p><img src= images/blank.png width =""600"" height = ""600"" style=""position:fixed;top:50%; left:50%; transform: translate(-50%, -50%); border:5px solid black"">","","","","","","","",""
"","1523.9099999889731","sequential-stimulus-presentation-old","102","384753","0.0-25.0-1.2","SS1618365848596","trial","","40","500","2023.9099999889731","images/stimuli/spore_stims/simple_18_A_a.gif","images/stimuli/spore_stims/simple_09_A_b.gif","forced_long","","8","simple_dissimilar","images/stimuli/spore_stims/simple_09_A_b.gif","","","","",""
"","null","html-keyboard-response","103","385888","0.0-25.0-0.3","SS1618365848596","","","null","","","","","","<p><img src= images/blank.png width =""600"" height = ""600"" style=""position:fixed;top:50%; left:50%; transform: translate(-50%, -50%); border:5px solid black"">","","","","","","","",""
"","52.060000016354024","sequential-stimulus-presentation-old","104","386444","0.0-25.0-1.3","SS1618365848596","trial","","40","500","552.060000016354","images/stimuli/spore_stims/simple_18_A_a.gif","images/stimuli/spore_stims/simple_09_A_b.gif","forced_long","","8","simple_dissimilar","images/stimuli/spore_stims/simple_09_A_b.gif","","","","",""
"","null","html-keyboard-response","105","387575","0.0-25.0-0.4","SS1618365848596","","","null","","","","","","<p><img src= images/blank.png width =""600"" height = ""600"" style=""position:fixed;top:50%; left:50%; transform: translate(-50%, -50%); border:5px solid black"">","","","","","","","",""
"","3.1850000377744436","sequential-stimulus-presentation-old","106","388081","0.0-25.0-1.4","SS1618365848596","trial","","40","500","503.18500003777444","images/stimuli/spore_stims/simple_18_A_a.gif","images/stimuli/spore_stims/simple_09_A_b.gif","forced_long","","8","simple_dissimilar","images/stimuli/spore_stims/simple_18_A_a.gif","","","","",""
"","7783.159999991767","survey-multi-choice","107","395867","0.0-26.0","SS1618365848596","math_question","","","","","","","","","","","","{""Q0"":""17""}","[0]","17","",""
"","null","html-keyboard-response","108","396725","0.0-27.0-0.0","SS1618365848596","","","null","","","","","","<p><img src= images/blank.png width =""600"" height = ""600"" style=""position:fixed;top:50%; left:50%; transform: translate(-50%, -50%); border:5px solid black"">","","","","","","","",""
"","700.3049999475479","sequential-stimulus-presentation-old","109","397929","0.0-27.0-1.0","SS1618365848596","trial","","40","500","1200.304999947548","images/stimuli/spore_stims/simple_14_A_a.gif","images/stimuli/spore_stims/simple_20_A_b.gif","self_paced","","9","simple_dissimilar","images/stimuli/spore_stims/simple_20_A_b.gif","","","","",""
"","null","html-keyboard-response","110","398798","0.0-27.0-0.1","SS1618365848596","","","null","","","","","","<p><img src= images/blank.png width =""600"" height = ""600"" style=""position:fixed;top:50%; left:50%; transform: translate(-50%, -50%); border:5px solid black"">","","","","","","","",""
"","843.4300000080839","sequential-stimulus-presentation-old","111","400146","0.0-27.0-1.1","SS1618365848596","trial","","40","500","1343.4300000080839","images/stimuli/spore_stims/simple_14_A_a.gif","images/stimuli/spore_stims/simple_20_A_b.gif","self_paced","","9","simple_dissimilar","images/stimuli/spore_stims/simple_14_A_a.gif","","","","",""
"","null","html-keyboard-response","112","401082","0.0-27.0-0.2","SS1618365848596","","","null","","","","","","<p><img src= images/blank.png width =""600"" height = ""600"" style=""position:fixed;top:50%; left:50%; transform: translate(-50%, -50%); border:5px solid black"">","","","","","","","",""
"","421.0750000202097","sequential-stimulus-presentation-old","113","402007","0.0-27.0-1.2","SS1618365848596","trial","","40","500","921.0750000202097","images/stimuli/spore_stims/simple_14_A_a.gif","images/stimuli/spore_stims/simple_20_A_b.gif","self_paced","","9","simple_dissimilar","images/stimuli/spore_stims/simple_20_A_b.gif","","","","",""
"","null","html-keyboard-response","114","402813","0.0-27.0-0.3","SS1618365848596","","","null","","","","","","<p><img src= images/blank.png width =""600"" height = ""600"" style=""position:fixed;top:50%; left:50%; transform: translate(-50%, -50%); border:5px solid black"">","","","","","","","",""
"","92.73500001290813","sequential-stimulus-presentation-old","115","403412","0.0-27.0-1.3","SS1618365848596","trial","","40","500","592.7350000129081","images/stimuli/spore_stims/simple_14_A_a.gif","images/stimuli/spore_stims/simple_20_A_b.gif","self_paced","","9","simple_dissimilar","images/stimuli/spore_stims/simple_20_A_b.gif","","","","",""
"","null","html-keyboard-response","116","404632","0.0-27.0-0.4","SS1618365848596","","","null","","","","","","<p><img src= images/blank.png width =""600"" height = ""600"" style=""position:fixed;top:50%; left:50%; transform: translate(-50%, -50%); border:5px solid black"">","","","","","","","",""
"","185.7750000199303","sequential-stimulus-presentation-old","117","405323","0.0-27.0-1.4","SS1618365848596","trial","","40","500","685.7750000199303","images/stimuli/spore_stims/simple_14_A_a.gif","images/stimuli/spore_stims/simple_20_A_b.gif","self_paced","","9","simple_dissimilar","images/stimuli/spore_stims/simple_20_A_b.gif","","","","",""
"","1767.1099999570288","survey-multi-choice","118","407093","0.0-28.0","SS1618365848596","math_question","","","","","","","","","","","","{""Q0"":""10""}","[0]","10","",""
"","null","html-keyboard-response","119","408302","0.0-29.0-0.0","SS1618365848596","","","null","","","","","","<p><img src= images/blank.png width =""600"" height = ""600"" style=""position:fixed;top:50%; left:50%; transform: translate(-50%, -50%); border:5px solid black"">","","","","","","","",""
"","191.03500002529472","sequential-stimulus-presentation-old","120","408552","0.0-29.0-1.0","SS1618365848596","trial","","40","500","691.0350000252947","images/stimuli/spore_stims/complex_15_A_b.gif","images/stimuli/spore_stims/complex_18_A_a.gif","forced_short","","10","complex_dissimilar","images/stimuli/spore_stims/complex_18_A_a.gif","","","","",""
"","null","html-keyboard-response","121","409355","0.0-29.0-0.1","SS1618365848596","","","null","","","","","","<p><img src= images/blank.png width =""600"" height = ""600"" style=""position:fixed;top:50%; left:50%; transform: translate(-50%, -50%); border:5px solid black"">","","","","","","","",""
"","109.10999996121973","sequential-stimulus-presentation-old","122","409970","0.0-29.0-1.1","SS1618365848596","trial","","40","500","609.1099999612197","images/stimuli/spore_stims/complex_15_A_b.gif","images/stimuli/spore_stims/complex_18_A_a.gif","forced_short","","10","complex_dissimilar","images/stimuli/spore_stims/complex_18_A_a.gif","","","","",""
"","null","html-keyboard-response","123","411157","0.0-29.0-0.2","SS1618365848596","","","null","","","","","","<p><img src= images/blank.png width =""600"" height = ""600"" style=""position:fixed;top:50%; left:50%; transform: translate(-50%, -50%); border:5px solid black"">","","","","","","","",""
"","79.91500000935048","sequential-stimulus-presentation-old","124","411742","0.0-29.0-1.2","SS1618365848596","trial","","40","500","579.9150000093505","images/stimuli/spore_stims/complex_15_A_b.gif","images/stimuli/spore_stims/complex_18_A_a.gif","forced_short","","10","complex_dissimilar","images/stimuli/spore_stims/complex_18_A_a.gif","","","","",""
"","null","html-keyboard-response","125","412836","0.0-29.0-0.3","SS1618365848596","","","null","","","","","","<p><img src= images/blank.png width =""600"" height = ""600"" style=""position:fixed;top:50%; left:50%; transform: translate(-50%, -50%); border:5px solid black"">","","","","","","","",""
"","11.830000032205135","sequential-stimulus-presentation-old","126","413354","0.0-29.0-1.3","SS1618365848596","trial","","40","500","511.83000003220513","images/stimuli/spore_stims/complex_15_A_b.gif","images/stimuli/spore_stims/complex_18_A_a.gif","forced_short","","10","complex_dissimilar","images/stimuli/spore_stims/complex_18_A_a.gif","","","","",""
"","null","html-keyboard-response","127","414264","0.0-29.0-0.4","SS1618365848596","","","null","","","","","","<p><img src= images/blank.png width =""600"" height = ""600"" style=""position:fixed;top:50%; left:50%; transform: translate(-50%, -50%); border:5px solid black"">","","","","","","","",""
"","120.54500001249835","sequential-stimulus-presentation-old","128","414889","0.0-29.0-1.4","SS1618365848596","trial","","40","500","620.5450000124983","images/stimuli/spore_stims/complex_15_A_b.gif","images/stimuli/spore_stims/complex_18_A_a.gif","forced_short","","10","complex_dissimilar","images/stimuli/spore_stims/complex_15_A_b.gif","","","","",""
"","null","html-keyboard-response","129","415758","0.0-29.0-0.5","SS1618365848596","","","null","","","","","","<p><img src= images/blank.png width =""600"" height = ""600"" style=""position:fixed;top:50%; left:50%; transform: translate(-50%, -50%); border:5px solid black"">","","","","","","","",""
"","290.16000003321096","sequential-stimulus-presentation-old","130","416556","0.0-29.0-1.5","SS1618365848596","trial","","40","500","790.160000033211","images/stimuli/spore_stims/complex_15_A_b.gif","images/stimuli/spore_stims/complex_18_A_a.gif","forced_short","","10","complex_dissimilar","images/stimuli/spore_stims/complex_15_A_b.gif","","","","",""
"","2619.5650000008754","survey-multi-choice","131","419178","0.0-30.0","SS1618365848596","math_question","","","","","","","","","","","","{""Q0"":""9""}","[0]","9","",""
"","null","html-keyboard-response","132","420251","0.0-31.0-0.0","SS1618365848596","","","null","","","","","","<p><img src= images/blank.png width =""600"" height = ""600"" style=""position:fixed;top:50%; left:50%; transform: translate(-50%, -50%); border:5px solid black"">","","","","","","","",""
"","194.44000005023554","sequential-stimulus-presentation-old","133","420952","0.0-31.0-1.0","SS1618365848596","trial","","40","500","694.4400000502355","images/stimuli/spore_stims/complex_13_A_a.gif","images/stimuli/spore_stims/complex_01_A_b.gif","self_paced","","11","complex_dissimilar","images/stimuli/spore_stims/complex_01_A_b.gif","","","","",""
"","null","html-keyboard-response","134","422153","0.0-31.0-0.1","SS1618365848596","","","null","","","","","","<p><img src= images/blank.png width =""600"" height = ""600"" style=""position:fixed;top:50%; left:50%; transform: translate(-50%, -50%); border:5px solid black"">","","","","","","","",""
"","754.9650000291876","sequential-stimulus-presentation-old","135","423415","0.0-31.0-1.1","SS1618365848596","trial","","40","500","1254.9650000291876","images/stimuli/spore_stims/complex_13_A_a.gif","images/stimuli/spore_stims/complex_01_A_b.gif","self_paced","","11","complex_dissimilar","images/stimuli/spore_stims/complex_13_A_a.gif","","","","",""
"","null","html-keyboard-response","136","424637","0.0-31.0-0.2","SS1618365848596","","","null","","","","","","<p><img src= images/blank.png width =""600"" height = ""600"" style=""position:fixed;top:50%; left:50%; transform: translate(-50%, -50%); border:5px solid black"">","","","","","","","",""
"","483.69999998249114","sequential-stimulus-presentation-old","137","425626","0.0-31.0-1.2","SS1618365848596","trial","","40","500","983.6999999824911","images/stimuli/spore_stims/complex_13_A_a.gif","images/stimuli/spore_stims/complex_01_A_b.gif","self_paced","","11","complex_dissimilar","images/stimuli/spore_stims/complex_01_A_b.gif","","","","",""
"","null","html-keyboard-response","138","426522","0.0-31.0-0.3","SS1618365848596","","","null","","","","","","<p><img src= images/blank.png width =""600"" height = ""600"" style=""position:fixed;top:50%; left:50%; transform: translate(-50%, -50%); border:5px solid black"">","","","","","","","",""
"","2219.435000035446","sequential-stimulus-presentation-old","139","429245","0.0-31.0-1.3","SS1618365848596","trial","","40","500","2719.435000035446","images/stimuli/spore_stims/complex_13_A_a.gif","images/stimuli/spore_stims/complex_01_A_b.gif","self_paced","","11","complex_dissimilar","images/stimuli/spore_stims/complex_01_A_b.gif","","","","",""
"","null","html-keyboard-response","140","430475","0.0-31.0-0.4","SS1618365848596","","","null","","","","","","<p><img src= images/blank.png width =""600"" height = ""600"" style=""position:fixed;top:50%; left:50%; transform: translate(-50%, -50%); border:5px solid black"">","","","","","","","",""
"","433.12499998137355","sequential-stimulus-presentation-old","141","431415","0.0-31.0-1.4","SS1618365848596","trial","","40","500","933.1249999813735","images/stimuli/spore_stims/complex_13_A_a.gif","images/stimuli/spore_stims/complex_01_A_b.gif","self_paced","","11","complex_dissimilar","images/stimuli/spore_stims/complex_13_A_a.gif","","","","",""
"[{""page_index"":0,""viewing_time"":2794.5099999778904}]","2794.7750000166707","instructions","142","434212","0.0-32.0","SS1618365848596","instructions","","","","","","","","","","","","","","","",""
"","7997.20000004163","survey-likert","143","442214","0.0-33.0","SS1618365848596","similarity_question","","","","","","","","","","","","{""Q0"":2}","[0]","","images/stimuli/spore_stims/complex_04_A_a.gif","images/stimuli/spore_stims/complex_16_A_b.gif"
"","2980.9949999907985","survey-likert","144","445201","0.0-34.0","SS1618365848596","similarity_question","","","","","","","","","","","","{""Q0"":4}","[0]","","images/stimuli/spore_stims/simple_08_A_b.gif","images/stimuli/spore_stims/simple_05_A_a.gif"
"","6236.205000022892","survey-likert","145","451445","0.0-35.0","SS1618365848596","similarity_question","","","","","","","","","","","","{""Q0"":4}","[0]","","images/stimuli/spore_stims/complex_12_A_b.gif","images/stimuli/spore_stims/complex_14_A_a.gif"
"","7516.690000018571","survey-likert","146","458969","0.0-36.0","SS1618365848596","similarity_question","","","","","","","","","","","","{""Q0"":1}","[0]","","images/stimuli/spore_stims/complex_08_A_b.gif","images/stimuli/spore_stims/complex_07_A_a.gif"
"","4458.5450000013225","survey-likert","147","463436","0.0-37.0","SS1618365848596","similarity_question","","","","","","","","","","","","{""Q0"":4}","[0]","","images/stimuli/spore_stims/simple_09_A_b.gif","images/stimuli/spore_stims/simple_18_A_a.gif"
"","2865.6150000169873","survey-likert","148","466309","0.0-38.0","SS1618365848596","similarity_question","","","","","","","","","","","","{""Q0"":4}","[0]","","images/stimuli/spore_stims/complex_15_A_b.gif","images/stimuli/spore_stims/complex_18_A_a.gif"
"","3939.3099999870174","survey-likert","149","470255","0.0-39.0","SS1618365848596","similarity_question","","","","","","","","","","","","{""Q0"":1}","[0]","","images/stimuli/spore_stims/complex_19_A_b.gif","images/stimuli/spore_stims/complex_05_A_a.gif"
"","3081.5549999824725","survey-likert","150","473345","0.0-40.0","SS1618365848596","similarity_question","","","","","","","","","","","","{""Q0"":4}","[0]","","images/stimuli/spore_stims/simple_14_A_a.gif","images/stimuli/spore_stims/simple_20_A_b.gif"
"","7299.579999991693","survey-likert","151","480652","0.0-41.0","SS1618365848596","similarity_question","","","","","","","","","","","","{""Q0"":4}","[0]","","images/stimuli/spore_stims/simple_10_A_b.gif","images/stimuli/spore_stims/simple_01_A_a.gif"
"","2210.305000015069","survey-likert","152","482869","0.0-42.0","SS1618365848596","similarity_question","","","","","","","","","","","","{""Q0"":4}","[0]","","images/stimuli/spore_stims/simple_05_A_b.gif","images/stimuli/spore_stims/simple_04_A_a.gif"
"","3106.274999969173","survey-likert","153","485983","0.0-43.0","SS1618365848596","similarity_question","","","","","","","","","","","","{""Q0"":1}","[0]","","images/stimuli/spore_stims/complex_13_A_a.gif","images/stimuli/spore_stims/complex_01_A_b.gif"
"","3513.2849999936298","survey-likert","154","489504","0.0-44.0","SS1618365848596","similarity_question","","","","","","","","","","","","{""Q0"":4}","[0]","","images/stimuli/spore_stims/simple_12_A_b.gif","images/stimuli/spore_stims/simple_10_A_a.gif"
"[{""page_index"":0,""viewing_time"":1290.6099999672733}]","1290.8599999500439","instructions","155","490801","0.0-45.0","SS1618365848596","instructions","","","","","","","","","","","","","","","",""
"","6103.189999994356","survey-likert","156","496908","0.0-46.0","SS1618365848596","","","","","","","","","images/stimuli/spore_stims/complex_15_A_b.gif","","","","{""Q0"":4}","[0]","","",""
"","2242.6850000047125","survey-likert","157","499157","0.0-47.0","SS1618365848596","","","","","","","","","images/stimuli/spore_stims/simple_08_A_b.gif","","","","{""Q0"":2}","[0]","","",""
"","1985.0299999816343","survey-likert","158","501150","0.0-48.0","SS1618365848596","","","","","","","","","images/stimuli/spore_stims/simple_14_A_a.gif","","","","{""Q0"":2}","[0]","","",""
"","1681.4000000013039","survey-likert","159","502839","0.0-49.0","SS1618365848596","","","","","","","","","images/stimuli/spore_stims/complex_13_A_a.gif","","","","{""Q0"":4}","[0]","","",""
"","4162.705000024289","survey-likert","160","507009","0.0-50.0","SS1618365848596","","","","","","","","","images/stimuli/spore_stims/complex_19_A_b.gif","","","","{""Q0"":5}","[0]","","",""
"","2921.2449999758974","survey-likert","161","509938","0.0-51.0","SS1618365848596","","","","","","","","","images/stimuli/spore_stims/complex_12_A_b.gif","","","","{""Q0"":5}","[0]","","",""
"","1761.129999998957","survey-likert","162","511707","0.0-52.0","SS1618365848596","","","","","","","","","images/stimuli/spore_stims/simple_18_A_a.gif","","","","{""Q0"":2}","[0]","","",""
"","1936.2850000034086","survey-likert","163","513651","0.0-53.0","SS1618365848596","","","","","","","","","images/stimuli/spore_stims/simple_04_A_a.gif","","","","{""Q0"":2}","[0]","","",""
"","1508.8899999973364","survey-likert","164","515165","0.0-54.0","SS1618365848596","","","","","","","","","images/stimuli/spore_stims/simple_12_A_b.gif","","","","{""Q0"":2}","[0]","","",""
"","3426.514999999199","survey-likert","165","518599","0.0-55.0","SS1618365848596","","","","","","","","","images/stimuli/spore_stims/complex_04_A_a.gif","","","","{""Q0"":5}","[0]","","",""
"","1976.265000004787","survey-likert","166","520583","0.0-56.0","SS1618365848596","","","","","","","","","images/stimuli/spore_stims/complex_07_A_a.gif","","","","{""Q0"":5}","[0]","","",""
"","2048.9700000034645","survey-likert","167","522640","0.0-57.0","SS1618365848596","","","","","","","","","images/stimuli/spore_stims/simple_01_A_a.gif","","","","{""Q0"":2}","[0]","","",""
"[{""page_index"":0,""viewing_time"":992.4599999794737}]","992.7099999622442","instructions","168","523641","0.0-58.0","SS1618365848596","instructions","","","","","","","","","","","","","","","",""
"","1675.4100000252947","demog-age","169","525322","0.0-59.0","SS1618365848596","","","","","","","","","","","","","{""age"":""21""}","","","",""
"","1858.1450000056066","demog-ethnic-US","170","527186","0.0-60.0","SS1618365848596","","","","","","","","","","","","","{""ethnicity"":[""Asian""]}","[0]","","",""
"","4217.735000012908","demog-gender-and-education","171","531412","0.0-61.0","SS1618365848596","","","","","","","","","","","","","{""gender"":""Female"",""education"":""Bachelor's Degree""}","[0,1]","","",""
"","3280.70999996271","survey-text","172","534702","0.0-62.0","SS1618365848596","feedback","","","","","","","","","","","","{""Q0"":""no""}","","","",""
"[{""page_index"":0,""viewing_time"":845.035000005737}]","845.2699999907054","instructions","173","535550","0.0-63.0","SS1618365848596","instructions","","","","","","","","","","","","","","","",""
