"view_history","rt","trial_type","trial_index","time_elapsed","internal_node_id","subject","stimulus_type","trial_stimulus","key_press","minimum_viewing_duration","trial_looking_time","block_deviant","block_background","exposure_type","stimulus","block_number","block_type","stimulus_displayed","responses","question_order","math_correct_answer","stimulus_left","stimulus_right"
"[{""page_index"":0,""viewing_time"":27098.054999998567}]","27099.075000001903","instructions","0","27104","0.0-0.0","SS1618438051145","","","","","","","","","","","","","","","","",""
"[{""page_index"":0,""viewing_time"":16813.31499999942},{""page_index"":1,""viewing_time"":5884.219999999914}]","22697.89999999921","instructions","1","51806","0.0-1.0","SS1618438051145","instructions","","","","","","","","","","","","","","","",""
"","14727.039999997942","sequential-stimulus-presentation-old","2","67043","0.0-2.0","SS1618438051145","","","40","500","15227.039999997942","null","null","self_paced","","","","","","","","",""
"","11030.210000000807","sequential-stimulus-presentation-old","3","78575","0.0-3.0","SS1618438051145","","","40","500","11530.210000000807","null","null","self_paced","","","","","","","","",""
"[{""page_index"":0,""viewing_time"":19998.67499999891}]","19999.009999999544","instructions","4","98575","0.0-4.0","SS1618438051145","instructions","","","","","","","","","","","","","","","",""
"","1775.405000000319","sequential-stimulus-presentation-old","5","105361","0.0-5.0","SS1618438051145","","","40","500","2275.405000000319","null","null","forced_long","","","","","","","","",""
"","4215.700000000652","sequential-stimulus-presentation-old","6","109629","0.0-6.0","SS1618438051145","","","40","50","4265.700000000652","null","null","forced_long","","","","","","","","",""
"[{""page_index"":0,""viewing_time"":7392.689999996946}]","7392.984999998589","instructions","7","117022","0.0-7.0","SS1618438051145","instructions","","","","","","","","","","","","","","","",""
"[{""page_index"":0,""viewing_time"":9376.615000001038},{""page_index"":1,""viewing_time"":14063.679999999295},{""page_index"":2,""viewing_time"":7342.294999998558},{""page_index"":3,""viewing_time"":3046.00500000015},{""page_index"":4,""viewing_time"":1482.0050000016636}]","35310.945000001084","instructions","8","152334","0.0-8.0","SS1618438051145","instructions","","","","","","","","","","","","","","","",""
"","null","html-keyboard-response","9","153491","0.0-9.0-0.0","SS1618438051145","","","null","","","","","","<p><img src= images/blank.png width =""600"" height = ""600"" style=""position:fixed;top:50%; left:50%; transform: translate(-50%, -50%); border:5px solid black"">","","","","","","","",""
"","563.4099999988393","sequential-stimulus-presentation-old","10","159061","0.0-9.0-1.0","SS1618438051145","trial","","40","500","1063.4099999988393","images/stimuli/spore_stims/complex_16_A_b.gif","images/stimuli/spore_stims/complex_02_A_a.gif","forced_long","","0","complex_dissimilar","images/stimuli/spore_stims/complex_02_A_a.gif","","","","",""
"","null","html-keyboard-response","11","160026","0.0-9.0-0.1","SS1618438051145","","","null","","","","","","<p><img src= images/blank.png width =""600"" height = ""600"" style=""position:fixed;top:50%; left:50%; transform: translate(-50%, -50%); border:5px solid black"">","","","","","","","",""
"","9576.310000000376","sequential-stimulus-presentation-old","12","170109","0.0-9.0-1.1","SS1618438051145","trial","","40","500","10076.310000000376","images/stimuli/spore_stims/complex_16_A_b.gif","images/stimuli/spore_stims/complex_02_A_a.gif","forced_long","","0","complex_dissimilar","images/stimuli/spore_stims/complex_02_A_a.gif","","","","",""
"","null","html-keyboard-response","13","171233","0.0-9.0-0.2","SS1618438051145","","","null","","","","","","<p><img src= images/blank.png width =""600"" height = ""600"" style=""position:fixed;top:50%; left:50%; transform: translate(-50%, -50%); border:5px solid black"">","","","","","","","",""
"","7149.604999998701","sequential-stimulus-presentation-old","14","178889","0.0-9.0-1.2","SS1618438051145","trial","","40","500","7649.604999998701","images/stimuli/spore_stims/complex_16_A_b.gif","images/stimuli/spore_stims/complex_02_A_a.gif","forced_long","","0","complex_dissimilar","images/stimuli/spore_stims/complex_02_A_a.gif","","","","",""
"","null","html-keyboard-response","15","179974","0.0-9.0-0.3","SS1618438051145","","","null","","","","","","<p><img src= images/blank.png width =""600"" height = ""600"" style=""position:fixed;top:50%; left:50%; transform: translate(-50%, -50%); border:5px solid black"">","","","","","","","",""
"","8093.945000000531","sequential-stimulus-presentation-old","16","188573","0.0-9.0-1.3","SS1618438051145","trial","","40","500","8593.94500000053","images/stimuli/spore_stims/complex_16_A_b.gif","images/stimuli/spore_stims/complex_02_A_a.gif","forced_long","","0","complex_dissimilar","images/stimuli/spore_stims/complex_02_A_a.gif","","","","",""
"","null","html-keyboard-response","17","189561","0.0-9.0-0.4","SS1618438051145","","","null","","","","","","<p><img src= images/blank.png width =""600"" height = ""600"" style=""position:fixed;top:50%; left:50%; transform: translate(-50%, -50%); border:5px solid black"">","","","","","","","",""
"","10361.064999997325","sequential-stimulus-presentation-old","18","200426","0.0-9.0-1.4","SS1618438051145","trial","","40","500","10861.064999997325","images/stimuli/spore_stims/complex_16_A_b.gif","images/stimuli/spore_stims/complex_02_A_a.gif","forced_long","","0","complex_dissimilar","images/stimuli/spore_stims/complex_16_A_b.gif","","","","",""
"","23207.275000000664","survey-multi-choice","19","223651","0.0-10.0","SS1618438051145","math_question","","","","","","","","","","","","{""Q0"":""15""}","[0]","15","",""
"","null","html-keyboard-response","20","224838","0.0-11.0-0.0","SS1618438051145","","","null","","","","","","<p><img src= images/blank.png width =""600"" height = ""600"" style=""position:fixed;top:50%; left:50%; transform: translate(-50%, -50%); border:5px solid black"">","","","","","","","",""
"","6453.63499999803","sequential-stimulus-presentation-old","21","231798","0.0-11.0-1.0","SS1618438051145","trial","","40","500","6953.63499999803","images/stimuli/spore_stims/complex_07_A_b.gif","images/stimuli/spore_stims/complex_11_A_a.gif","self_paced","","1","complex_dissimilar","images/stimuli/spore_stims/complex_11_A_a.gif","","","","",""
"","null","html-keyboard-response","22","233076","0.0-11.0-0.1","SS1618438051145","","","null","","","","","","<p><img src= images/blank.png width =""600"" height = ""600"" style=""position:fixed;top:50%; left:50%; transform: translate(-50%, -50%); border:5px solid black"">","","","","","","","",""
"","6162.910000002739","sequential-stimulus-presentation-old","23","239747","0.0-11.0-1.1","SS1618438051145","trial","","40","500","6662.910000002739","images/stimuli/spore_stims/complex_07_A_b.gif","images/stimuli/spore_stims/complex_11_A_a.gif","self_paced","","1","complex_dissimilar","images/stimuli/spore_stims/complex_11_A_a.gif","","","","",""
"","null","html-keyboard-response","24","240872","0.0-11.0-0.2","SS1618438051145","","","null","","","","","","<p><img src= images/blank.png width =""600"" height = ""600"" style=""position:fixed;top:50%; left:50%; transform: translate(-50%, -50%); border:5px solid black"">","","","","","","","",""
"","13481.864999997924","sequential-stimulus-presentation-old","25","254857","0.0-11.0-1.2","SS1618438051145","trial","","40","500","13981.864999997924","images/stimuli/spore_stims/complex_07_A_b.gif","images/stimuli/spore_stims/complex_11_A_a.gif","self_paced","","1","complex_dissimilar","images/stimuli/spore_stims/complex_11_A_a.gif","","","","",""
"","null","html-keyboard-response","26","256154","0.0-11.0-0.3","SS1618438051145","","","null","","","","","","<p><img src= images/blank.png width =""600"" height = ""600"" style=""position:fixed;top:50%; left:50%; transform: translate(-50%, -50%); border:5px solid black"">","","","","","","","",""
"","10760.879999997967","sequential-stimulus-presentation-old","27","267419","0.0-11.0-1.3","SS1618438051145","trial","","40","500","11260.879999997967","images/stimuli/spore_stims/complex_07_A_b.gif","images/stimuli/spore_stims/complex_11_A_a.gif","self_paced","","1","complex_dissimilar","images/stimuli/spore_stims/complex_07_A_b.gif","","","","",""
"","null","html-keyboard-response","28","268294","0.0-11.0-0.4","SS1618438051145","","","null","","","","","","<p><img src= images/blank.png width =""600"" height = ""600"" style=""position:fixed;top:50%; left:50%; transform: translate(-50%, -50%); border:5px solid black"">","","","","","","","",""
"","7790.61499999807","sequential-stimulus-presentation-old","29","276588","0.0-11.0-1.4","SS1618438051145","trial","","40","500","8290.61499999807","images/stimuli/spore_stims/complex_07_A_b.gif","images/stimuli/spore_stims/complex_11_A_a.gif","self_paced","","1","complex_dissimilar","images/stimuli/spore_stims/complex_11_A_a.gif","","","","",""
"","null","html-keyboard-response","30","277405","0.0-11.0-0.5","SS1618438051145","","","null","","","","","","<p><img src= images/blank.png width =""600"" height = ""600"" style=""position:fixed;top:50%; left:50%; transform: translate(-50%, -50%); border:5px solid black"">","","","","","","","",""
"","5867.829999999201","sequential-stimulus-presentation-old","31","283777","0.0-11.0-1.5","SS1618438051145","trial","","40","500","6367.829999999201","images/stimuli/spore_stims/complex_07_A_b.gif","images/stimuli/spore_stims/complex_11_A_a.gif","self_paced","","1","complex_dissimilar","images/stimuli/spore_stims/complex_11_A_a.gif","","","","",""
"","6827.979999998177","survey-multi-choice","32","290607","0.0-12.0","SS1618438051145","math_question","","","","","","","","","","","","{""Q0"":""17""}","[0]","17","",""
"","null","html-keyboard-response","33","291420","0.0-13.0-0.0","SS1618438051145","","","null","","","","","","<p><img src= images/blank.png width =""600"" height = ""600"" style=""position:fixed;top:50%; left:50%; transform: translate(-50%, -50%); border:5px solid black"">","","","","","","","",""
"","2372.879999998957","sequential-stimulus-presentation-old","34","293848","0.0-13.0-1.0","SS1618438051145","trial","","40","500","2872.879999998957","images/stimuli/spore_stims/complex_10_A_a.gif","images/stimuli/spore_stims/complex_08_A_b.gif","forced_short","","2","complex_dissimilar","images/stimuli/spore_stims/complex_08_A_b.gif","","","","",""
"","null","html-keyboard-response","35","294760","0.0-13.0-0.1","SS1618438051145","","","null","","","","","","<p><img src= images/blank.png width =""600"" height = ""600"" style=""position:fixed;top:50%; left:50%; transform: translate(-50%, -50%); border:5px solid black"">","","","","","","","",""
"","8371.805000002496","sequential-stimulus-presentation-old","36","303635","0.0-13.0-1.1","SS1618438051145","trial","","40","500","8871.805000002496","images/stimuli/spore_stims/complex_10_A_a.gif","images/stimuli/spore_stims/complex_08_A_b.gif","forced_short","","2","complex_dissimilar","images/stimuli/spore_stims/complex_10_A_a.gif","","","","",""
"","null","html-keyboard-response","37","304835","0.0-13.0-0.2","SS1618438051145","","","null","","","","","","<p><img src= images/blank.png width =""600"" height = ""600"" style=""position:fixed;top:50%; left:50%; transform: translate(-50%, -50%); border:5px solid black"">","","","","","","","",""
"","4223.784999998345","sequential-stimulus-presentation-old","38","309563","0.0-13.0-1.2","SS1618438051145","trial","","40","500","4723.784999998345","images/stimuli/spore_stims/complex_10_A_a.gif","images/stimuli/spore_stims/complex_08_A_b.gif","forced_short","","2","complex_dissimilar","images/stimuli/spore_stims/complex_08_A_b.gif","","","","",""
"","null","html-keyboard-response","39","310398","0.0-13.0-0.3","SS1618438051145","","","null","","","","","","<p><img src= images/blank.png width =""600"" height = ""600"" style=""position:fixed;top:50%; left:50%; transform: translate(-50%, -50%); border:5px solid black"">","","","","","","","",""
"","3879.4850000012666","sequential-stimulus-presentation-old","40","314782","0.0-13.0-1.3","SS1618438051145","trial","","40","500","4379.485000001267","images/stimuli/spore_stims/complex_10_A_a.gif","images/stimuli/spore_stims/complex_08_A_b.gif","forced_short","","2","complex_dissimilar","images/stimuli/spore_stims/complex_10_A_a.gif","","","","",""
"","null","html-keyboard-response","41","315762","0.0-13.0-0.4","SS1618438051145","","","null","","","","","","<p><img src= images/blank.png width =""600"" height = ""600"" style=""position:fixed;top:50%; left:50%; transform: translate(-50%, -50%); border:5px solid black"">","","","","","","","",""
"","3192.3600000009174","sequential-stimulus-presentation-old","42","319458","0.0-13.0-1.4","SS1618438051145","trial","","40","500","3692.3600000009174","images/stimuli/spore_stims/complex_10_A_a.gif","images/stimuli/spore_stims/complex_08_A_b.gif","forced_short","","2","complex_dissimilar","images/stimuli/spore_stims/complex_08_A_b.gif","","","","",""
"","null","html-keyboard-response","43","320427","0.0-13.0-0.5","SS1618438051145","","","null","","","","","","<p><img src= images/blank.png width =""600"" height = ""600"" style=""position:fixed;top:50%; left:50%; transform: translate(-50%, -50%); border:5px solid black"">","","","","","","","",""
"","2745.5300000001444","sequential-stimulus-presentation-old","44","323679","0.0-13.0-1.5","SS1618438051145","trial","","40","500","3245.5300000001444","images/stimuli/spore_stims/complex_10_A_a.gif","images/stimuli/spore_stims/complex_08_A_b.gif","forced_short","","2","complex_dissimilar","images/stimuli/spore_stims/complex_08_A_b.gif","","","","",""
"","5991.454999999434","survey-multi-choice","45","329673","0.0-14.0","SS1618438051145","math_question","","","","","","","","","","","","{""Q0"":""8""}","[0]","8","",""
"","null","html-keyboard-response","46","330732","0.0-15.0-0.0","SS1618438051145","","","null","","","","","","<p><img src= images/blank.png width =""600"" height = ""600"" style=""position:fixed;top:50%; left:50%; transform: translate(-50%, -50%); border:5px solid black"">","","","","","","","",""
"","4938.3400000005495","sequential-stimulus-presentation-old","47","336176","0.0-15.0-1.0","SS1618438051145","trial","","40","500","5438.3400000005495","images/stimuli/spore_stims/complex_04_A_b.gif","images/stimuli/spore_stims/complex_03_A_a.gif","self_paced","","3","complex_dissimilar","images/stimuli/spore_stims/complex_03_A_a.gif","","","","",""
"","null","html-keyboard-response","48","337157","0.0-15.0-0.1","SS1618438051145","","","null","","","","","","<p><img src= images/blank.png width =""600"" height = ""600"" style=""position:fixed;top:50%; left:50%; transform: translate(-50%, -50%); border:5px solid black"">","","","","","","","",""
"","4627.649999998568","sequential-stimulus-presentation-old","49","342288","0.0-15.0-1.1","SS1618438051145","trial","","40","500","5127.649999998568","images/stimuli/spore_stims/complex_04_A_b.gif","images/stimuli/spore_stims/complex_03_A_a.gif","self_paced","","3","complex_dissimilar","images/stimuli/spore_stims/complex_03_A_a.gif","","","","",""
"","null","html-keyboard-response","50","343508","0.0-15.0-0.2","SS1618438051145","","","null","","","","","","<p><img src= images/blank.png width =""600"" height = ""600"" style=""position:fixed;top:50%; left:50%; transform: translate(-50%, -50%); border:5px solid black"">","","","","","","","",""
"","6083.295000000391","sequential-stimulus-presentation-old","51","350097","0.0-15.0-1.2","SS1618438051145","trial","","40","500","6583.295000000391","images/stimuli/spore_stims/complex_04_A_b.gif","images/stimuli/spore_stims/complex_03_A_a.gif","self_paced","","3","complex_dissimilar","images/stimuli/spore_stims/complex_04_A_b.gif","","","","",""
"","null","html-keyboard-response","52","351328","0.0-15.0-0.3","SS1618438051145","","","null","","","","","","<p><img src= images/blank.png width =""600"" height = ""600"" style=""position:fixed;top:50%; left:50%; transform: translate(-50%, -50%); border:5px solid black"">","","","","","","","",""
"","6582.460000001476","sequential-stimulus-presentation-old","53","358418","0.0-15.0-1.3","SS1618438051145","trial","","40","500","7082.460000001476","images/stimuli/spore_stims/complex_04_A_b.gif","images/stimuli/spore_stims/complex_03_A_a.gif","self_paced","","3","complex_dissimilar","images/stimuli/spore_stims/complex_03_A_a.gif","","","","",""
"","null","html-keyboard-response","54","359570","0.0-15.0-0.4","SS1618438051145","","","null","","","","","","<p><img src= images/blank.png width =""600"" height = ""600"" style=""position:fixed;top:50%; left:50%; transform: translate(-50%, -50%); border:5px solid black"">","","","","","","","",""
"","2131.245000000461","sequential-stimulus-presentation-old","55","362206","0.0-15.0-1.4","SS1618438051145","trial","","40","500","2631.245000000461","images/stimuli/spore_stims/complex_04_A_b.gif","images/stimuli/spore_stims/complex_03_A_a.gif","self_paced","","3","complex_dissimilar","images/stimuli/spore_stims/complex_03_A_a.gif","","","","",""
"","null","html-keyboard-response","56","363315","0.0-15.0-0.5","SS1618438051145","","","null","","","","","","<p><img src= images/blank.png width =""600"" height = ""600"" style=""position:fixed;top:50%; left:50%; transform: translate(-50%, -50%); border:5px solid black"">","","","","","","","",""
"","3916.540000001958","sequential-stimulus-presentation-old","57","367738","0.0-15.0-1.5","SS1618438051145","trial","","40","500","4416.540000001958","images/stimuli/spore_stims/complex_04_A_b.gif","images/stimuli/spore_stims/complex_03_A_a.gif","self_paced","","3","complex_dissimilar","images/stimuli/spore_stims/complex_03_A_a.gif","","","","",""
"","7868.660000000091","survey-multi-choice","58","375609","0.0-16.0","SS1618438051145","math_question","","","","","","","","","","","","{""Q0"":""14""}","[0]","14","",""
"","null","html-keyboard-response","59","376501","0.0-17.0-0.0","SS1618438051145","","","null","","","","","","<p><img src= images/blank.png width =""600"" height = ""600"" style=""position:fixed;top:50%; left:50%; transform: translate(-50%, -50%); border:5px solid black"">","","","","","","","",""
"","11269.889999999548","sequential-stimulus-presentation-old","60","388275","0.0-17.0-1.0","SS1618438051145","trial","","40","500","11769.889999999548","images/stimuli/spore_stims/simple_18_A_b.gif","images/stimuli/spore_stims/simple_16_A_a.gif","self_paced","","4","simple_dissimilar","images/stimuli/spore_stims/simple_16_A_a.gif","","","","",""
"","null","html-keyboard-response","61","389154","0.0-17.0-0.1","SS1618438051145","","","null","","","","","","<p><img src= images/blank.png width =""600"" height = ""600"" style=""position:fixed;top:50%; left:50%; transform: translate(-50%, -50%); border:5px solid black"">","","","","","","","",""
"","5931.984999999229","sequential-stimulus-presentation-old","62","395590","0.0-17.0-1.1","SS1618438051145","trial","","40","500","6431.984999999229","images/stimuli/spore_stims/simple_18_A_b.gif","images/stimuli/spore_stims/simple_16_A_a.gif","self_paced","","4","simple_dissimilar","images/stimuli/spore_stims/simple_18_A_b.gif","","","","",""
"","null","html-keyboard-response","63","396720","0.0-17.0-0.2","SS1618438051145","","","null","","","","","","<p><img src= images/blank.png width =""600"" height = ""600"" style=""position:fixed;top:50%; left:50%; transform: translate(-50%, -50%); border:5px solid black"">","","","","","","","",""
"","5916.789999999339","sequential-stimulus-presentation-old","64","403141","0.0-17.0-1.2","SS1618438051145","trial","","40","500","6416.789999999339","images/stimuli/spore_stims/simple_18_A_b.gif","images/stimuli/spore_stims/simple_16_A_a.gif","self_paced","","4","simple_dissimilar","images/stimuli/spore_stims/simple_18_A_b.gif","","","","",""
"","null","html-keyboard-response","65","404141","0.0-17.0-0.3","SS1618438051145","","","null","","","","","","<p><img src= images/blank.png width =""600"" height = ""600"" style=""position:fixed;top:50%; left:50%; transform: translate(-50%, -50%); border:5px solid black"">","","","","","","","",""
"","9168.384999997215","sequential-stimulus-presentation-old","66","413819","0.0-17.0-1.3","SS1618438051145","trial","","40","500","9668.384999997215","images/stimuli/spore_stims/simple_18_A_b.gif","images/stimuli/spore_stims/simple_16_A_a.gif","self_paced","","4","simple_dissimilar","images/stimuli/spore_stims/simple_16_A_a.gif","","","","",""
"","null","html-keyboard-response","67","414938","0.0-17.0-0.4","SS1618438051145","","","null","","","","","","<p><img src= images/blank.png width =""600"" height = ""600"" style=""position:fixed;top:50%; left:50%; transform: translate(-50%, -50%); border:5px solid black"">","","","","","","","",""
"","5348.079999999725","sequential-stimulus-presentation-old","68","420790","0.0-17.0-1.4","SS1618438051145","trial","","40","500","5848.079999999725","images/stimuli/spore_stims/simple_18_A_b.gif","images/stimuli/spore_stims/simple_16_A_a.gif","self_paced","","4","simple_dissimilar","images/stimuli/spore_stims/simple_16_A_a.gif","","","","",""
"","null","html-keyboard-response","69","422042","0.0-17.0-0.5","SS1618438051145","","","null","","","","","","<p><img src= images/blank.png width =""600"" height = ""600"" style=""position:fixed;top:50%; left:50%; transform: translate(-50%, -50%); border:5px solid black"">","","","","","","","",""
"","4635.074999998324","sequential-stimulus-presentation-old","70","427183","0.0-17.0-1.5","SS1618438051145","trial","","40","500","5135.074999998324","images/stimuli/spore_stims/simple_18_A_b.gif","images/stimuli/spore_stims/simple_16_A_a.gif","self_paced","","4","simple_dissimilar","images/stimuli/spore_stims/simple_16_A_a.gif","","","","",""
"","25016.13499999803","survey-multi-choice","71","452202","0.0-18.0","SS1618438051145","math_question","","","","","","","","","","","","{""Q0"":""14""}","[0]","14","",""
"","null","html-keyboard-response","72","453297","0.0-19.0-0.0","SS1618438051145","","","null","","","","","","<p><img src= images/blank.png width =""600"" height = ""600"" style=""position:fixed;top:50%; left:50%; transform: translate(-50%, -50%); border:5px solid black"">","","","","","","","",""
"","904.9699999996228","sequential-stimulus-presentation-old","73","459210","0.0-19.0-1.0","SS1618438051145","trial","","40","500","1404.9699999996228","images/stimuli/spore_stims/complex_15_A_b.gif","images/stimuli/spore_stims/complex_16_A_a.gif","forced_long","","5","complex_dissimilar","images/stimuli/spore_stims/complex_16_A_a.gif","","","","",""
"","null","html-keyboard-response","74","460308","0.0-19.0-0.1","SS1618438051145","","","null","","","","","","<p><img src= images/blank.png width =""600"" height = ""600"" style=""position:fixed;top:50%; left:50%; transform: translate(-50%, -50%); border:5px solid black"">","","","","","","","",""
"","8288.519999998272","sequential-stimulus-presentation-old","75","469101","0.0-19.0-1.1","SS1618438051145","trial","","40","500","8788.519999998272","images/stimuli/spore_stims/complex_15_A_b.gif","images/stimuli/spore_stims/complex_16_A_a.gif","forced_long","","5","complex_dissimilar","images/stimuli/spore_stims/complex_15_A_b.gif","","","","",""
"","null","html-keyboard-response","76","470096","0.0-19.0-0.2","SS1618438051145","","","null","","","","","","<p><img src= images/blank.png width =""600"" height = ""600"" style=""position:fixed;top:50%; left:50%; transform: translate(-50%, -50%); border:5px solid black"">","","","","","","","",""
"","6678.354999999981","sequential-stimulus-presentation-old","77","477278","0.0-19.0-1.2","SS1618438051145","trial","","40","500","7178.354999999981","images/stimuli/spore_stims/complex_15_A_b.gif","images/stimuli/spore_stims/complex_16_A_a.gif","forced_long","","5","complex_dissimilar","images/stimuli/spore_stims/complex_16_A_a.gif","","","","",""
"","null","html-keyboard-response","78","478175","0.0-19.0-0.3","SS1618438051145","","","null","","","","","","<p><img src= images/blank.png width =""600"" height = ""600"" style=""position:fixed;top:50%; left:50%; transform: translate(-50%, -50%); border:5px solid black"">","","","","","","","",""
"","5542.270000001707","sequential-stimulus-presentation-old","79","484226","0.0-19.0-1.3","SS1618438051145","trial","","40","500","6042.270000001707","images/stimuli/spore_stims/complex_15_A_b.gif","images/stimuli/spore_stims/complex_16_A_a.gif","forced_long","","5","complex_dissimilar","images/stimuli/spore_stims/complex_16_A_a.gif","","","","",""
"","null","html-keyboard-response","80","485040","0.0-19.0-0.4","SS1618438051145","","","null","","","","","","<p><img src= images/blank.png width =""600"" height = ""600"" style=""position:fixed;top:50%; left:50%; transform: translate(-50%, -50%); border:5px solid black"">","","","","","","","",""
"","4346.849999998056","sequential-stimulus-presentation-old","81","489892","0.0-19.0-1.4","SS1618438051145","trial","","40","500","4846.849999998056","images/stimuli/spore_stims/complex_15_A_b.gif","images/stimuli/spore_stims/complex_16_A_a.gif","forced_long","","5","complex_dissimilar","images/stimuli/spore_stims/complex_15_A_b.gif","","","","",""
"","4179.5750000019325","survey-multi-choice","82","494074","0.0-20.0","SS1618438051145","math_question","","","","","","","","","","","","{""Q0"":""5""}","[0]","5","",""
"","null","html-keyboard-response","83","495323","0.0-21.0-0.0","SS1618438051145","","","null","","","","","","<p><img src= images/blank.png width =""600"" height = ""600"" style=""position:fixed;top:50%; left:50%; transform: translate(-50%, -50%); border:5px solid black"">","","","","","","","",""
"","3502.345000000787","sequential-stimulus-presentation-old","84","503833","0.0-21.0-1.0","SS1618438051145","trial","","40","500","4002.345000000787","images/stimuli/spore_stims/simple_10_A_a.gif","images/stimuli/spore_stims/simple_03_A_b.gif","forced_long","","6","simple_dissimilar","images/stimuli/spore_stims/simple_03_A_b.gif","","","","",""
"","null","html-keyboard-response","85","504684","0.0-21.0-0.1","SS1618438051145","","","null","","","","","","<p><img src= images/blank.png width =""600"" height = ""600"" style=""position:fixed;top:50%; left:50%; transform: translate(-50%, -50%); border:5px solid black"">","","","","","","","",""
"","4562.899999997171","sequential-stimulus-presentation-old","86","509752","0.0-21.0-1.1","SS1618438051145","trial","","40","500","5062.899999997171","images/stimuli/spore_stims/simple_10_A_a.gif","images/stimuli/spore_stims/simple_03_A_b.gif","forced_long","","6","simple_dissimilar","images/stimuli/spore_stims/simple_10_A_a.gif","","","","",""
"","null","html-keyboard-response","87","510988","0.0-21.0-0.2","SS1618438051145","","","null","","","","","","<p><img src= images/blank.png width =""600"" height = ""600"" style=""position:fixed;top:50%; left:50%; transform: translate(-50%, -50%); border:5px solid black"">","","","","","","","",""
"","6309.86000000115","sequential-stimulus-presentation-old","88","517804","0.0-21.0-1.2","SS1618438051145","trial","","40","500","6809.86000000115","images/stimuli/spore_stims/simple_10_A_a.gif","images/stimuli/spore_stims/simple_03_A_b.gif","forced_long","","6","simple_dissimilar","images/stimuli/spore_stims/simple_03_A_b.gif","","","","",""
"","null","html-keyboard-response","89","518622","0.0-21.0-0.3","SS1618438051145","","","null","","","","","","<p><img src= images/blank.png width =""600"" height = ""600"" style=""position:fixed;top:50%; left:50%; transform: translate(-50%, -50%); border:5px solid black"">","","","","","","","",""
"","6612.699999997858","sequential-stimulus-presentation-old","90","525740","0.0-21.0-1.3","SS1618438051145","trial","","40","500","7112.699999997858","images/stimuli/spore_stims/simple_10_A_a.gif","images/stimuli/spore_stims/simple_03_A_b.gif","forced_long","","6","simple_dissimilar","images/stimuli/spore_stims/simple_10_A_a.gif","","","","",""
"","null","html-keyboard-response","91","526819","0.0-21.0-0.4","SS1618438051145","","","null","","","","","","<p><img src= images/blank.png width =""600"" height = ""600"" style=""position:fixed;top:50%; left:50%; transform: translate(-50%, -50%); border:5px solid black"">","","","","","","","",""
"","4832.72500000021","sequential-stimulus-presentation-old","92","532156","0.0-21.0-1.4","SS1618438051145","trial","","40","500","5332.72500000021","images/stimuli/spore_stims/simple_10_A_a.gif","images/stimuli/spore_stims/simple_03_A_b.gif","forced_long","","6","simple_dissimilar","images/stimuli/spore_stims/simple_03_A_b.gif","","","","",""
"","14235.630000002799","survey-multi-choice","93","546394","0.0-22.0","SS1618438051145","math_question","","","","","","","","","","","","{""Q0"":""15""}","[0]","15","",""
"","null","html-keyboard-response","94","547245","0.0-23.0-0.0","SS1618438051145","","","null","","","","","","<p><img src= images/blank.png width =""600"" height = ""600"" style=""position:fixed;top:50%; left:50%; transform: translate(-50%, -50%); border:5px solid black"">","","","","","","","",""
"","1454.3599999997532","sequential-stimulus-presentation-old","95","548757","0.0-23.0-1.0","SS1618438051145","trial","","40","500","1954.3599999997532","images/stimuli/spore_stims/simple_20_A_a.gif","images/stimuli/spore_stims/simple_17_A_b.gif","forced_short","","7","simple_dissimilar","images/stimuli/spore_stims/simple_17_A_b.gif","","","","",""
"","null","html-keyboard-response","96","549565","0.0-23.0-0.1","SS1618438051145","","","null","","","","","","<p><img src= images/blank.png width =""600"" height = ""600"" style=""position:fixed;top:50%; left:50%; transform: translate(-50%, -50%); border:5px solid black"">","","","","","","","",""
"","5301.090000000899","sequential-stimulus-presentation-old","97","555370","0.0-23.0-1.1","SS1618438051145","trial","","40","500","5801.090000000899","images/stimuli/spore_stims/simple_20_A_a.gif","images/stimuli/spore_stims/simple_17_A_b.gif","forced_short","","7","simple_dissimilar","images/stimuli/spore_stims/simple_17_A_b.gif","","","","",""
"","null","html-keyboard-response","98","556663","0.0-23.0-0.2","SS1618438051145","","","null","","","","","","<p><img src= images/blank.png width =""600"" height = ""600"" style=""position:fixed;top:50%; left:50%; transform: translate(-50%, -50%); border:5px solid black"">","","","","","","","",""
"","2208.5000000006985","sequential-stimulus-presentation-old","99","559376","0.0-23.0-1.2","SS1618438051145","trial","","40","500","2708.5000000006985","images/stimuli/spore_stims/simple_20_A_a.gif","images/stimuli/spore_stims/simple_17_A_b.gif","forced_short","","7","simple_dissimilar","images/stimuli/spore_stims/simple_17_A_b.gif","","","","",""
"","null","html-keyboard-response","100","560409","0.0-23.0-0.3","SS1618438051145","","","null","","","","","","<p><img src= images/blank.png width =""600"" height = ""600"" style=""position:fixed;top:50%; left:50%; transform: translate(-50%, -50%); border:5px solid black"">","","","","","","","",""
"","5263.774999999441","sequential-stimulus-presentation-old","101","566176","0.0-23.0-1.3","SS1618438051145","trial","","40","500","5763.774999999441","images/stimuli/spore_stims/simple_20_A_a.gif","images/stimuli/spore_stims/simple_17_A_b.gif","forced_short","","7","simple_dissimilar","images/stimuli/spore_stims/simple_17_A_b.gif","","","","",""
"","3420.479999997071","survey-multi-choice","102","569600","0.0-24.0","SS1618438051145","math_question","","","","","","","","","","","","{""Q0"":""9""}","[0]","9","",""
"","null","html-keyboard-response","103","570440","0.0-25.0-0.0","SS1618438051145","","","null","","","","","","<p><img src= images/blank.png width =""600"" height = ""600"" style=""position:fixed;top:50%; left:50%; transform: translate(-50%, -50%); border:5px solid black"">","","","","","","","",""
"","736.0950000002049","sequential-stimulus-presentation-old","104","571237","0.0-25.0-1.0","SS1618438051145","trial","","40","500","1236.095000000205","images/stimuli/spore_stims/simple_02_A_a.gif","images/stimuli/spore_stims/simple_07_A_b.gif","forced_short","","8","simple_dissimilar","images/stimuli/spore_stims/simple_07_A_b.gif","","","","",""
"","null","html-keyboard-response","105","572236","0.0-25.0-0.1","SS1618438051145","","","null","","","","","","<p><img src= images/blank.png width =""600"" height = ""600"" style=""position:fixed;top:50%; left:50%; transform: translate(-50%, -50%); border:5px solid black"">","","","","","","","",""
"","3341.730000000098","sequential-stimulus-presentation-old","106","576086","0.0-25.0-1.1","SS1618438051145","trial","","40","500","3841.730000000098","images/stimuli/spore_stims/simple_02_A_a.gif","images/stimuli/spore_stims/simple_07_A_b.gif","forced_short","","8","simple_dissimilar","images/stimuli/spore_stims/simple_07_A_b.gif","","","","",""
"","null","html-keyboard-response","107","577378","0.0-25.0-0.2","SS1618438051145","","","null","","","","","","<p><img src= images/blank.png width =""600"" height = ""600"" style=""position:fixed;top:50%; left:50%; transform: translate(-50%, -50%); border:5px solid black"">","","","","","","","",""
"","3918.574999999604","sequential-stimulus-presentation-old","108","581803","0.0-25.0-1.2","SS1618438051145","trial","","40","500","4418.574999999604","images/stimuli/spore_stims/simple_02_A_a.gif","images/stimuli/spore_stims/simple_07_A_b.gif","forced_short","","8","simple_dissimilar","images/stimuli/spore_stims/simple_07_A_b.gif","","","","",""
"","null","html-keyboard-response","109","582970","0.0-25.0-0.3","SS1618438051145","","","null","","","","","","<p><img src= images/blank.png width =""600"" height = ""600"" style=""position:fixed;top:50%; left:50%; transform: translate(-50%, -50%); border:5px solid black"">","","","","","","","",""
"","3167.9549999970477","sequential-stimulus-presentation-old","110","586643","0.0-25.0-1.3","SS1618438051145","trial","","40","500","3667.9549999970477","images/stimuli/spore_stims/simple_02_A_a.gif","images/stimuli/spore_stims/simple_07_A_b.gif","forced_short","","8","simple_dissimilar","images/stimuli/spore_stims/simple_07_A_b.gif","","","","",""
"","null","html-keyboard-response","111","587720","0.0-25.0-0.4","SS1618438051145","","","null","","","","","","<p><img src= images/blank.png width =""600"" height = ""600"" style=""position:fixed;top:50%; left:50%; transform: translate(-50%, -50%); border:5px solid black"">","","","","","","","",""
"","4663.714999998803","sequential-stimulus-presentation-old","112","592891","0.0-25.0-1.4","SS1618438051145","trial","","40","500","5163.714999998803","images/stimuli/spore_stims/simple_02_A_a.gif","images/stimuli/spore_stims/simple_07_A_b.gif","forced_short","","8","simple_dissimilar","images/stimuli/spore_stims/simple_07_A_b.gif","","","","",""
"","null","html-keyboard-response","113","593835","0.0-25.0-0.5","SS1618438051145","","","null","","","","","","<p><img src= images/blank.png width =""600"" height = ""600"" style=""position:fixed;top:50%; left:50%; transform: translate(-50%, -50%); border:5px solid black"">","","","","","","","",""
"","4860.889999999898","sequential-stimulus-presentation-old","114","599200","0.0-25.0-1.5","SS1618438051145","trial","","40","500","5360.889999999898","images/stimuli/spore_stims/simple_02_A_a.gif","images/stimuli/spore_stims/simple_07_A_b.gif","forced_short","","8","simple_dissimilar","images/stimuli/spore_stims/simple_07_A_b.gif","","","","",""
"","7168.090000002761","survey-multi-choice","115","606371","0.0-26.0","SS1618438051145","math_question","","","","","","","","","","","","{""Q0"":""12""}","[0]","12","",""
"","null","html-keyboard-response","116","607178","0.0-27.0-0.0","SS1618438051145","","","null","","","","","","<p><img src= images/blank.png width =""600"" height = ""600"" style=""position:fixed;top:50%; left:50%; transform: translate(-50%, -50%); border:5px solid black"">","","","","","","","",""
"","1037.8600000004517","sequential-stimulus-presentation-old","117","608276","0.0-27.0-1.0","SS1618438051145","trial","","40","500","1537.8600000004517","images/stimuli/spore_stims/complex_14_A_a.gif","images/stimuli/spore_stims/complex_18_A_b.gif","forced_short","","9","complex_dissimilar","images/stimuli/spore_stims/complex_18_A_b.gif","","","","",""
"","null","html-keyboard-response","118","609122","0.0-27.0-0.1","SS1618438051145","","","null","","","","","","<p><img src= images/blank.png width =""600"" height = ""600"" style=""position:fixed;top:50%; left:50%; transform: translate(-50%, -50%); border:5px solid black"">","","","","","","","",""
"","3419.0400000006193","sequential-stimulus-presentation-old","119","613045","0.0-27.0-1.1","SS1618438051145","trial","","40","500","3919.0400000006193","images/stimuli/spore_stims/complex_14_A_a.gif","images/stimuli/spore_stims/complex_18_A_b.gif","forced_short","","9","complex_dissimilar","images/stimuli/spore_stims/complex_14_A_a.gif","","","","",""
"","null","html-keyboard-response","120","613863","0.0-27.0-0.2","SS1618438051145","","","null","","","","","","<p><img src= images/blank.png width =""600"" height = ""600"" style=""position:fixed;top:50%; left:50%; transform: translate(-50%, -50%); border:5px solid black"">","","","","","","","",""
"","2194.939999997616","sequential-stimulus-presentation-old","121","616563","0.0-27.0-1.2","SS1618438051145","trial","","40","500","2694.939999997616","images/stimuli/spore_stims/complex_14_A_a.gif","images/stimuli/spore_stims/complex_18_A_b.gif","forced_short","","9","complex_dissimilar","images/stimuli/spore_stims/complex_18_A_b.gif","","","","",""
"","null","html-keyboard-response","122","617807","0.0-27.0-0.3","SS1618438051145","","","null","","","","","","<p><img src= images/blank.png width =""600"" height = ""600"" style=""position:fixed;top:50%; left:50%; transform: translate(-50%, -50%); border:5px solid black"">","","","","","","","",""
"","2911.925000000396","sequential-stimulus-presentation-old","123","621226","0.0-27.0-1.3","SS1618438051145","trial","","40","500","3411.925000000396","images/stimuli/spore_stims/complex_14_A_a.gif","images/stimuli/spore_stims/complex_18_A_b.gif","forced_short","","9","complex_dissimilar","images/stimuli/spore_stims/complex_14_A_a.gif","","","","",""
"","null","html-keyboard-response","124","622069","0.0-27.0-0.4","SS1618438051145","","","null","","","","","","<p><img src= images/blank.png width =""600"" height = ""600"" style=""position:fixed;top:50%; left:50%; transform: translate(-50%, -50%); border:5px solid black"">","","","","","","","",""
"","1447.5399999974761","sequential-stimulus-presentation-old","125","624023","0.0-27.0-1.4","SS1618438051145","trial","","40","500","1947.5399999974761","images/stimuli/spore_stims/complex_14_A_a.gif","images/stimuli/spore_stims/complex_18_A_b.gif","forced_short","","9","complex_dissimilar","images/stimuli/spore_stims/complex_18_A_b.gif","","","","",""
"","null","html-keyboard-response","126","625146","0.0-27.0-0.5","SS1618438051145","","","null","","","","","","<p><img src= images/blank.png width =""600"" height = ""600"" style=""position:fixed;top:50%; left:50%; transform: translate(-50%, -50%); border:5px solid black"">","","","","","","","",""
"","4009.985000000568","sequential-stimulus-presentation-old","127","629667","0.0-27.0-1.5","SS1618438051145","trial","","40","500","4509.985000000568","images/stimuli/spore_stims/complex_14_A_a.gif","images/stimuli/spore_stims/complex_18_A_b.gif","forced_short","","9","complex_dissimilar","images/stimuli/spore_stims/complex_18_A_b.gif","","","","",""
"","4709.820000000065","survey-multi-choice","128","634380","0.0-28.0","SS1618438051145","math_question","","","","","","","","","","","","{""Q0"":""16""}","[0]","16","",""
"","null","html-keyboard-response","129","635681","0.0-29.0-0.0","SS1618438051145","","","null","","","","","","<p><img src= images/blank.png width =""600"" height = ""600"" style=""position:fixed;top:50%; left:50%; transform: translate(-50%, -50%); border:5px solid black"">","","","","","","","",""
"","3673.2950000005076","sequential-stimulus-presentation-old","130","639859","0.0-29.0-1.0","SS1618438051145","trial","","40","500","4173.295000000508","images/stimuli/spore_stims/simple_18_A_a.gif","images/stimuli/spore_stims/simple_06_A_b.gif","self_paced","","10","simple_dissimilar","images/stimuli/spore_stims/simple_06_A_b.gif","","","","",""
"","null","html-keyboard-response","131","640685","0.0-29.0-0.1","SS1618438051145","","","null","","","","","","<p><img src= images/blank.png width =""600"" height = ""600"" style=""position:fixed;top:50%; left:50%; transform: translate(-50%, -50%); border:5px solid black"">","","","","","","","",""
"","4527.815000001341","sequential-stimulus-presentation-old","132","645719","0.0-29.0-1.1","SS1618438051145","trial","","40","500","5027.815000001341","images/stimuli/spore_stims/simple_18_A_a.gif","images/stimuli/spore_stims/simple_06_A_b.gif","self_paced","","10","simple_dissimilar","images/stimuli/spore_stims/simple_18_A_a.gif","","","","",""
"","null","html-keyboard-response","133","646655","0.0-29.0-0.2","SS1618438051145","","","null","","","","","","<p><img src= images/blank.png width =""600"" height = ""600"" style=""position:fixed;top:50%; left:50%; transform: translate(-50%, -50%); border:5px solid black"">","","","","","","","",""
"","5489.905000002123","sequential-stimulus-presentation-old","134","652651","0.0-29.0-1.2","SS1618438051145","trial","","40","500","5989.905000002123","images/stimuli/spore_stims/simple_18_A_a.gif","images/stimuli/spore_stims/simple_06_A_b.gif","self_paced","","10","simple_dissimilar","images/stimuli/spore_stims/simple_06_A_b.gif","","","","",""
"","null","html-keyboard-response","135","653662","0.0-29.0-0.3","SS1618438051145","","","null","","","","","","<p><img src= images/blank.png width =""600"" height = ""600"" style=""position:fixed;top:50%; left:50%; transform: translate(-50%, -50%); border:5px solid black"">","","","","","","","",""
"","4772.725000002538","sequential-stimulus-presentation-old","136","658943","0.0-29.0-1.3","SS1618438051145","trial","","40","500","5272.725000002538","images/stimuli/spore_stims/simple_18_A_a.gif","images/stimuli/spore_stims/simple_06_A_b.gif","self_paced","","10","simple_dissimilar","images/stimuli/spore_stims/simple_06_A_b.gif","","","","",""
"","null","html-keyboard-response","137","660232","0.0-29.0-0.4","SS1618438051145","","","null","","","","","","<p><img src= images/blank.png width =""600"" height = ""600"" style=""position:fixed;top:50%; left:50%; transform: translate(-50%, -50%); border:5px solid black"">","","","","","","","",""
"","6426.140000003274","sequential-stimulus-presentation-old","138","667166","0.0-29.0-1.4","SS1618438051145","trial","","40","500","6926.140000003274","images/stimuli/spore_stims/simple_18_A_a.gif","images/stimuli/spore_stims/simple_06_A_b.gif","self_paced","","10","simple_dissimilar","images/stimuli/spore_stims/simple_18_A_a.gif","","","","",""
"","4538.629999999073","survey-multi-choice","139","671707","0.0-30.0","SS1618438051145","math_question","","","","","","","","","","","","{""Q0"":""12""}","[0]","12","",""
"","null","html-keyboard-response","140","672793","0.0-31.0-0.0","SS1618438051145","","","null","","","","","","<p><img src= images/blank.png width =""600"" height = ""600"" style=""position:fixed;top:50%; left:50%; transform: translate(-50%, -50%); border:5px solid black"">","","","","","","","",""
"","2656.119999999646","sequential-stimulus-presentation-old","141","680455","0.0-31.0-1.0","SS1618438051145","trial","","40","500","3156.119999999646","images/stimuli/spore_stims/simple_13_A_a.gif","images/stimuli/spore_stims/simple_09_A_b.gif","forced_long","","11","simple_dissimilar","images/stimuli/spore_stims/simple_09_A_b.gif","","","","",""
"","null","html-keyboard-response","142","681704","0.0-31.0-0.1","SS1618438051145","","","null","","","","","","<p><img src= images/blank.png width =""600"" height = ""600"" style=""position:fixed;top:50%; left:50%; transform: translate(-50%, -50%); border:5px solid black"">","","","","","","","",""
"","2857.254999998957","sequential-stimulus-presentation-old","143","685067","0.0-31.0-1.1","SS1618438051145","trial","","40","500","3357.254999998957","images/stimuli/spore_stims/simple_13_A_a.gif","images/stimuli/spore_stims/simple_09_A_b.gif","forced_long","","11","simple_dissimilar","images/stimuli/spore_stims/simple_09_A_b.gif","","","","",""
"","null","html-keyboard-response","144","686366","0.0-31.0-0.2","SS1618438051145","","","null","","","","","","<p><img src= images/blank.png width =""600"" height = ""600"" style=""position:fixed;top:50%; left:50%; transform: translate(-50%, -50%); border:5px solid black"">","","","","","","","",""
"","2888.135000001057","sequential-stimulus-presentation-old","145","689761","0.0-31.0-1.2","SS1618438051145","trial","","40","500","3388.135000001057","images/stimuli/spore_stims/simple_13_A_a.gif","images/stimuli/spore_stims/simple_09_A_b.gif","forced_long","","11","simple_dissimilar","images/stimuli/spore_stims/simple_09_A_b.gif","","","","",""
"","null","html-keyboard-response","146","690973","0.0-31.0-0.3","SS1618438051145","","","null","","","","","","<p><img src= images/blank.png width =""600"" height = ""600"" style=""position:fixed;top:50%; left:50%; transform: translate(-50%, -50%); border:5px solid black"">","","","","","","","",""
"","2978.764999999781","sequential-stimulus-presentation-old","147","694459","0.0-31.0-1.3","SS1618438051145","trial","","40","500","3478.764999999781","images/stimuli/spore_stims/simple_13_A_a.gif","images/stimuli/spore_stims/simple_09_A_b.gif","forced_long","","11","simple_dissimilar","images/stimuli/spore_stims/simple_09_A_b.gif","","","","",""
"[{""page_index"":0,""viewing_time"":6104.260000000126}]","6104.644999999553","instructions","148","700566","0.0-32.0","SS1618438051145","instructions","","","","","","","","","","","","","","","",""
"","12965.795000000158","survey-likert","149","713542","0.0-33.0","SS1618438051145","similarity_question","","","","","","","","","","","","{""Q0"":5}","[0]","","images/stimuli/spore_stims/simple_13_A_a.gif","images/stimuli/spore_stims/simple_09_A_b.gif"
"","9732.430000000051","survey-likert","150","723280","0.0-34.0","SS1618438051145","similarity_question","","","","","","","","","","","","{""Q0"":5}","[0]","","images/stimuli/spore_stims/simple_10_A_a.gif","images/stimuli/spore_stims/simple_03_A_b.gif"
"","7589.524999999441","survey-likert","151","730874","0.0-35.0","SS1618438051145","similarity_question","","","","","","","","","","","","{""Q0"":0}","[0]","","images/stimuli/spore_stims/complex_07_A_b.gif","images/stimuli/spore_stims/complex_11_A_a.gif"
"","10635.550000002608","survey-likert","152","741514","0.0-36.0","SS1618438051145","similarity_question","","","","","","","","","","","","{""Q0"":0}","[0]","","images/stimuli/spore_stims/complex_14_A_a.gif","images/stimuli/spore_stims/complex_18_A_b.gif"
"","4521.150000000605","survey-likert","153","746040","0.0-37.0","SS1618438051145","similarity_question","","","","","","","","","","","","{""Q0"":1}","[0]","","images/stimuli/spore_stims/simple_07_A_b.gif","images/stimuli/spore_stims/simple_02_A_a.gif"
"","6804.294999998063","survey-likert","154","752850","0.0-38.0","SS1618438051145","similarity_question","","","","","","","","","","","","{""Q0"":0}","[0]","","images/stimuli/spore_stims/complex_04_A_b.gif","images/stimuli/spore_stims/complex_03_A_a.gif"
"","10251.250000001164","survey-likert","155","763106","0.0-39.0","SS1618438051145","similarity_question","","","","","","","","","","","","{""Q0"":0}","[0]","","images/stimuli/spore_stims/complex_08_A_b.gif","images/stimuli/spore_stims/complex_10_A_a.gif"
"","7533.380000000703","survey-likert","156","770647","0.0-40.0","SS1618438051145","similarity_question","","","","","","","","","","","","{""Q0"":2}","[0]","","images/stimuli/spore_stims/simple_18_A_a.gif","images/stimuli/spore_stims/simple_06_A_b.gif"
"","9593.569999997271","survey-likert","157","780245","0.0-41.0","SS1618438051145","similarity_question","","","","","","","","","","","","{""Q0"":1}","[0]","","images/stimuli/spore_stims/complex_16_A_a.gif","images/stimuli/spore_stims/complex_15_A_b.gif"
"","4392.75500000082","survey-likert","158","784643","0.0-42.0","SS1618438051145","similarity_question","","","","","","","","","","","","{""Q0"":2}","[0]","","images/stimuli/spore_stims/simple_18_A_b.gif","images/stimuli/spore_stims/simple_16_A_a.gif"
"","5443.480000001844","survey-likert","159","790091","0.0-43.0","SS1618438051145","similarity_question","","","","","","","","","","","","{""Q0"":5}","[0]","","images/stimuli/spore_stims/simple_20_A_a.gif","images/stimuli/spore_stims/simple_17_A_b.gif"
"","5586.790000001201","survey-likert","160","795683","0.0-44.0","SS1618438051145","similarity_question","","","","","","","","","","","","{""Q0"":0}","[0]","","images/stimuli/spore_stims/complex_02_A_a.gif","images/stimuli/spore_stims/complex_16_A_b.gif"
"[{""page_index"":0,""viewing_time"":5843.219999998808}]","5843.589999996824","instructions","161","801530","0.0-45.0","SS1618438051145","instructions","","","","","","","","","","","","","","","",""
"","7735.8500000010245","survey-likert","162","809271","0.0-46.0","SS1618438051145","","","","","","","","","images/stimuli/spore_stims/simple_20_A_a.gif","","","","{""Q0"":1}","[0]","","",""
"","3437.9399999998277","survey-likert","163","812715","0.0-47.0","SS1618438051145","","","","","","","","","images/stimuli/spore_stims/complex_02_A_a.gif","","","","{""Q0"":4}","[0]","","",""
"","2689.060000000638","survey-likert","164","815408","0.0-48.0","SS1618438051145","","","","","","","","","images/stimuli/spore_stims/simple_16_A_a.gif","","","","{""Q0"":0}","[0]","","",""
"","3533.869999999297","survey-likert","165","818946","0.0-49.0","SS1618438051145","","","","","","","","","images/stimuli/spore_stims/simple_13_A_a.gif","","","","{""Q0"":0}","[0]","","",""
"","3043.0449999985285","survey-likert","166","821998","0.0-50.0","SS1618438051145","","","","","","","","","images/stimuli/spore_stims/simple_10_A_a.gif","","","","{""Q0"":0}","[0]","","",""
"","3713.7449999972014","survey-likert","167","825716","0.0-51.0","SS1618438051145","","","","","","","","","images/stimuli/spore_stims/complex_14_A_a.gif","","","","{""Q0"":4}","[0]","","",""
"","3759.249999999185","survey-likert","168","829480","0.0-52.0","SS1618438051145","","","","","","","","","images/stimuli/spore_stims/complex_08_A_b.gif","","","","{""Q0"":5}","[0]","","",""
"","2711.110000000219","survey-likert","169","832196","0.0-53.0","SS1618438051145","","","","","","","","","images/stimuli/spore_stims/simple_07_A_b.gif","","","","{""Q0"":0}","[0]","","",""
"","2960.1400000029244","survey-likert","170","835161","0.0-54.0","SS1618438051145","","","","","","","","","images/stimuli/spore_stims/complex_11_A_a.gif","","","","{""Q0"":5}","[0]","","",""
"","2574.335000001127","survey-likert","171","837740","0.0-55.0","SS1618438051145","","","","","","","","","images/stimuli/spore_stims/complex_03_A_a.gif","","","","{""Q0"":4}","[0]","","",""
"","2919.2000000003027","survey-likert","172","840663","0.0-56.0","SS1618438051145","","","","","","","","","images/stimuli/spore_stims/simple_06_A_b.gif","","","","{""Q0"":0}","[0]","","",""
"","3175.879999998957","survey-likert","173","843844","0.0-57.0","SS1618438051145","","","","","","","","","images/stimuli/spore_stims/complex_15_A_b.gif","","","","{""Q0"":6}","[0]","","",""
"[{""page_index"":0,""viewing_time"":2871.7150000011316}]","2872.0250000006054","instructions","174","846719","0.0-58.0","SS1618438051145","instructions","","","","","","","","","","","","","","","",""
"","4206.225000001723","demog-age","175","850982","0.0-59.0","SS1618438051145","","","","","","","","","","","","","{""age"":""20""}","","","",""
"","3437.1849999988917","demog-ethnic-US","176","854428","0.0-60.0","SS1618438051145","","","","","","","","","","","","","{""ethnicity"":[""Hispanic or Latino""]}","[0]","","",""
"","16460.960000000312","demog-gender-and-education","177","870894","0.0-61.0","SS1618438051145","","","","","","","","","","","","","{""gender"":""Female"",""education"":""High school diploma""}","[0,1]","","",""
"","20300.615000000107","survey-text","178","891212","0.0-62.0","SS1618438051145","feedback","","","","","","","","","","","","{""Q0"":""no, I didnt have any problems""}","","","",""
"[{""page_index"":0,""viewing_time"":2480.779999998049}]","2485.179999999702","instructions","179","893708","0.0-63.0","SS1618438051145","instructions","","","","","","","","","","","","","","","",""
