"view_history","rt","trial_type","trial_index","time_elapsed","internal_node_id","subject","stimulus_type","trial_stimulus","key_press","minimum_viewing_duration","trial_looking_time","block_deviant","block_background","exposure_type","stimulus","block_number","block_type","stimulus_displayed","responses","question_order","math_correct_answer","stimulus_left","stimulus_right"
"[{""page_index"":0,""viewing_time"":43665}]","43665","instructions","0","43669","0.0-0.0","SS1618435641045","","","","","","","","","","","","","","","","",""
"[{""page_index"":0,""viewing_time"":11169},{""page_index"":1,""viewing_time"":3384}]","14553","instructions","1","60228","0.0-1.0","SS1618435641045","instructions","","","","","","","","","","","","","","","",""
"","5225","sequential-stimulus-presentation-old","2","65965","0.0-2.0","SS1618435641045","","","40","500","5725","null","null","self_paced","","","","","","","","",""
"","3282","sequential-stimulus-presentation-old","3","69756","0.0-3.0","SS1618435641045","","","40","500","3782","null","null","self_paced","","","","","","","","",""
"[{""page_index"":0,""viewing_time"":12197}]","12197","instructions","4","81956","0.0-4.0","SS1618435641045","instructions","","","","","","","","","","","","","","","",""
"","1129","sequential-stimulus-presentation-old","5","88097","0.0-5.0","SS1618435641045","","","40","500","1629","null","null","forced_long","","","","","","","","",""
"","7587","sequential-stimulus-presentation-old","6","95738","0.0-6.0","SS1618435641045","","","40","50","7637","null","null","forced_long","","","","","","","","",""
"[{""page_index"":0,""viewing_time"":2952}]","2953","instructions","7","98692","0.0-7.0","SS1618435641045","instructions","","","","","","","","","","","","","","","",""
"[{""page_index"":0,""viewing_time"":7579},{""page_index"":1,""viewing_time"":4929},{""page_index"":2,""viewing_time"":3280},{""page_index"":3,""viewing_time"":1175},{""page_index"":4,""viewing_time"":937}]","17900","instructions","8","116597","0.0-8.0","SS1618435641045","instructions","","","","","","","","","","","","","","","",""
"","null","html-keyboard-response","9","117551","0.0-9.0-0.0","SS1618435641045","","","null","","","","","","<p><img src= images/blank.png width =""600"" height = ""600"" style=""position:fixed;top:50%; left:50%; transform: translate(-50%, -50%); border:5px solid black"">","","","","","","","",""
"","3233","sequential-stimulus-presentation-old","10","120846","0.0-9.0-1.0","SS1618435641045","trial","","40","500","3733","images/stimuli/spore_stims/simple_13_A_b.gif","images/stimuli/spore_stims/simple_07_A_a.gif","forced_short","","0","simple_dissimilar","images/stimuli/spore_stims/simple_07_A_a.gif","","","","",""
"","null","html-keyboard-response","11","121873","0.0-9.0-0.1","SS1618435641045","","","null","","","","","","<p><img src= images/blank.png width =""600"" height = ""600"" style=""position:fixed;top:50%; left:50%; transform: translate(-50%, -50%); border:5px solid black"">","","","","","","","",""
"","2721","sequential-stimulus-presentation-old","12","125104","0.0-9.0-1.1","SS1618435641045","trial","","40","500","3221","images/stimuli/spore_stims/simple_13_A_b.gif","images/stimuli/spore_stims/simple_07_A_a.gif","forced_short","","0","simple_dissimilar","images/stimuli/spore_stims/simple_07_A_a.gif","","","","",""
"","null","html-keyboard-response","13","125948","0.0-9.0-0.2","SS1618435641045","","","null","","","","","","<p><img src= images/blank.png width =""600"" height = ""600"" style=""position:fixed;top:50%; left:50%; transform: translate(-50%, -50%); border:5px solid black"">","","","","","","","",""
"","762","sequential-stimulus-presentation-old","14","127219","0.0-9.0-1.2","SS1618435641045","trial","","40","500","1262","images/stimuli/spore_stims/simple_13_A_b.gif","images/stimuli/spore_stims/simple_07_A_a.gif","forced_short","","0","simple_dissimilar","images/stimuli/spore_stims/simple_07_A_a.gif","","","","",""
"","null","html-keyboard-response","15","128258","0.0-9.0-0.3","SS1618435641045","","","null","","","","","","<p><img src= images/blank.png width =""600"" height = ""600"" style=""position:fixed;top:50%; left:50%; transform: translate(-50%, -50%); border:5px solid black"">","","","","","","","",""
"","2805","sequential-stimulus-presentation-old","16","131576","0.0-9.0-1.3","SS1618435641045","trial","","40","500","3305","images/stimuli/spore_stims/simple_13_A_b.gif","images/stimuli/spore_stims/simple_07_A_a.gif","forced_short","","0","simple_dissimilar","images/stimuli/spore_stims/simple_13_A_b.gif","","","","",""
"","null","html-keyboard-response","17","132602","0.0-9.0-0.4","SS1618435641045","","","null","","","","","","<p><img src= images/blank.png width =""600"" height = ""600"" style=""position:fixed;top:50%; left:50%; transform: translate(-50%, -50%); border:5px solid black"">","","","","","","","",""
"","52","sequential-stimulus-presentation-old","18","133165","0.0-9.0-1.4","SS1618435641045","trial","","40","500","552","images/stimuli/spore_stims/simple_13_A_b.gif","images/stimuli/spore_stims/simple_07_A_a.gif","forced_short","","0","simple_dissimilar","images/stimuli/spore_stims/simple_13_A_b.gif","","","","",""
"","null","html-keyboard-response","19","134134","0.0-9.0-0.5","SS1618435641045","","","null","","","","","","<p><img src= images/blank.png width =""600"" height = ""600"" style=""position:fixed;top:50%; left:50%; transform: translate(-50%, -50%); border:5px solid black"">","","","","","","","",""
"","158","sequential-stimulus-presentation-old","20","134802","0.0-9.0-1.5","SS1618435641045","trial","","40","500","658","images/stimuli/spore_stims/simple_13_A_b.gif","images/stimuli/spore_stims/simple_07_A_a.gif","forced_short","","0","simple_dissimilar","images/stimuli/spore_stims/simple_07_A_a.gif","","","","",""
"","3838","survey-multi-choice","21","138645","0.0-10.0","SS1618435641045","math_question","","","","","","","","","","","","{""Q0"":""11""}","[0]","11","",""
"","null","html-keyboard-response","22","139825","0.0-11.0-0.0","SS1618435641045","","","null","","","","","","<p><img src= images/blank.png width =""600"" height = ""600"" style=""position:fixed;top:50%; left:50%; transform: translate(-50%, -50%); border:5px solid black"">","","","","","","","",""
"","2773","sequential-stimulus-presentation-old","23","147602","0.0-11.0-1.0","SS1618435641045","trial","","40","500","3273","images/stimuli/spore_stims/complex_15_A_b.gif","images/stimuli/spore_stims/complex_01_A_a.gif","forced_long","","1","complex_dissimilar","images/stimuli/spore_stims/complex_01_A_a.gif","","","","",""
"","null","html-keyboard-response","24","148583","0.0-11.0-0.1","SS1618435641045","","","null","","","","","","<p><img src= images/blank.png width =""600"" height = ""600"" style=""position:fixed;top:50%; left:50%; transform: translate(-50%, -50%); border:5px solid black"">","","","","","","","",""
"","1391","sequential-stimulus-presentation-old","25","150487","0.0-11.0-1.1","SS1618435641045","trial","","40","500","1891","images/stimuli/spore_stims/complex_15_A_b.gif","images/stimuli/spore_stims/complex_01_A_a.gif","forced_long","","1","complex_dissimilar","images/stimuli/spore_stims/complex_01_A_a.gif","","","","",""
"","null","html-keyboard-response","26","151735","0.0-11.0-0.2","SS1618435641045","","","null","","","","","","<p><img src= images/blank.png width =""600"" height = ""600"" style=""position:fixed;top:50%; left:50%; transform: translate(-50%, -50%); border:5px solid black"">","","","","","","","",""
"","651","sequential-stimulus-presentation-old","27","152897","0.0-11.0-1.2","SS1618435641045","trial","","40","500","1151","images/stimuli/spore_stims/complex_15_A_b.gif","images/stimuli/spore_stims/complex_01_A_a.gif","forced_long","","1","complex_dissimilar","images/stimuli/spore_stims/complex_01_A_a.gif","","","","",""
"","null","html-keyboard-response","28","153786","0.0-11.0-0.3","SS1618435641045","","","null","","","","","","<p><img src= images/blank.png width =""600"" height = ""600"" style=""position:fixed;top:50%; left:50%; transform: translate(-50%, -50%); border:5px solid black"">","","","","","","","",""
"","283","sequential-stimulus-presentation-old","29","154581","0.0-11.0-1.3","SS1618435641045","trial","","40","500","783","images/stimuli/spore_stims/complex_15_A_b.gif","images/stimuli/spore_stims/complex_01_A_a.gif","forced_long","","1","complex_dissimilar","images/stimuli/spore_stims/complex_01_A_a.gif","","","","",""
"","null","html-keyboard-response","30","155643","0.0-11.0-0.4","SS1618435641045","","","null","","","","","","<p><img src= images/blank.png width =""600"" height = ""600"" style=""position:fixed;top:50%; left:50%; transform: translate(-50%, -50%); border:5px solid black"">","","","","","","","",""
"","619","sequential-stimulus-presentation-old","31","156778","0.0-11.0-1.4","SS1618435641045","trial","","40","500","1119","images/stimuli/spore_stims/complex_15_A_b.gif","images/stimuli/spore_stims/complex_01_A_a.gif","forced_long","","1","complex_dissimilar","images/stimuli/spore_stims/complex_15_A_b.gif","","","","",""
"","3147","survey-multi-choice","32","159928","0.0-12.0","SS1618435641045","math_question","","","","","","","","","","","","{""Q0"":""15""}","[0]","15","",""
"","null","html-keyboard-response","33","160796","0.0-13.0-0.0","SS1618435641045","","","null","","","","","","<p><img src= images/blank.png width =""600"" height = ""600"" style=""position:fixed;top:50%; left:50%; transform: translate(-50%, -50%); border:5px solid black"">","","","","","","","",""
"","637","sequential-stimulus-presentation-old","34","161942","0.0-13.0-1.0","SS1618435641045","trial","","40","500","1137","images/stimuli/spore_stims/simple_19_A_b.gif","images/stimuli/spore_stims/simple_03_A_a.gif","self_paced","","2","simple_dissimilar","images/stimuli/spore_stims/simple_03_A_a.gif","","","","",""
"","null","html-keyboard-response","35","163150","0.0-13.0-0.1","SS1618435641045","","","null","","","","","","<p><img src= images/blank.png width =""600"" height = ""600"" style=""position:fixed;top:50%; left:50%; transform: translate(-50%, -50%); border:5px solid black"">","","","","","","","",""
"","1357","sequential-stimulus-presentation-old","36","165015","0.0-13.0-1.1","SS1618435641045","trial","","40","500","1857","images/stimuli/spore_stims/simple_19_A_b.gif","images/stimuli/spore_stims/simple_03_A_a.gif","self_paced","","2","simple_dissimilar","images/stimuli/spore_stims/simple_03_A_a.gif","","","","",""
"","null","html-keyboard-response","37","165876","0.0-13.0-0.2","SS1618435641045","","","null","","","","","","<p><img src= images/blank.png width =""600"" height = ""600"" style=""position:fixed;top:50%; left:50%; transform: translate(-50%, -50%); border:5px solid black"">","","","","","","","",""
"","9","sequential-stimulus-presentation-old","38","166397","0.0-13.0-1.2","SS1618435641045","trial","","40","500","509","images/stimuli/spore_stims/simple_19_A_b.gif","images/stimuli/spore_stims/simple_03_A_a.gif","self_paced","","2","simple_dissimilar","images/stimuli/spore_stims/simple_03_A_a.gif","","","","",""
"","null","html-keyboard-response","39","167580","0.0-13.0-0.3","SS1618435641045","","","null","","","","","","<p><img src= images/blank.png width =""600"" height = ""600"" style=""position:fixed;top:50%; left:50%; transform: translate(-50%, -50%); border:5px solid black"">","","","","","","","",""
"","37","sequential-stimulus-presentation-old","40","168125","0.0-13.0-1.3","SS1618435641045","trial","","40","500","537","images/stimuli/spore_stims/simple_19_A_b.gif","images/stimuli/spore_stims/simple_03_A_a.gif","self_paced","","2","simple_dissimilar","images/stimuli/spore_stims/simple_03_A_a.gif","","","","",""
"","null","html-keyboard-response","41","169260","0.0-13.0-0.4","SS1618435641045","","","null","","","","","","<p><img src= images/blank.png width =""600"" height = ""600"" style=""position:fixed;top:50%; left:50%; transform: translate(-50%, -50%); border:5px solid black"">","","","","","","","",""
"","774","sequential-stimulus-presentation-old","42","170548","0.0-13.0-1.4","SS1618435641045","trial","","40","500","1274","images/stimuli/spore_stims/simple_19_A_b.gif","images/stimuli/spore_stims/simple_03_A_a.gif","self_paced","","2","simple_dissimilar","images/stimuli/spore_stims/simple_03_A_a.gif","","","","",""
"","null","html-keyboard-response","43","171423","0.0-13.0-0.5","SS1618435641045","","","null","","","","","","<p><img src= images/blank.png width =""600"" height = ""600"" style=""position:fixed;top:50%; left:50%; transform: translate(-50%, -50%); border:5px solid black"">","","","","","","","",""
"","698","sequential-stimulus-presentation-old","44","172632","0.0-13.0-1.5","SS1618435641045","trial","","40","500","1198","images/stimuli/spore_stims/simple_19_A_b.gif","images/stimuli/spore_stims/simple_03_A_a.gif","self_paced","","2","simple_dissimilar","images/stimuli/spore_stims/simple_03_A_a.gif","","","","",""
"","2793","survey-multi-choice","45","175428","0.0-14.0","SS1618435641045","math_question","","","","","","","","","","","","{""Q0"":""14""}","[0]","14","",""
"","null","html-keyboard-response","46","176547","0.0-15.0-0.0","SS1618435641045","","","null","","","","","","<p><img src= images/blank.png width =""600"" height = ""600"" style=""position:fixed;top:50%; left:50%; transform: translate(-50%, -50%); border:5px solid black"">","","","","","","","",""
"","174","sequential-stimulus-presentation-old","47","181735","0.0-15.0-1.0","SS1618435641045","trial","","40","500","674","images/stimuli/spore_stims/simple_18_A_b.gif","images/stimuli/spore_stims/simple_04_A_a.gif","forced_long","","3","simple_dissimilar","images/stimuli/spore_stims/simple_04_A_a.gif","","","","",""
"","null","html-keyboard-response","48","182936","0.0-15.0-0.1","SS1618435641045","","","null","","","","","","<p><img src= images/blank.png width =""600"" height = ""600"" style=""position:fixed;top:50%; left:50%; transform: translate(-50%, -50%); border:5px solid black"">","","","","","","","",""
"","30","sequential-stimulus-presentation-old","49","183474","0.0-15.0-1.1","SS1618435641045","trial","","40","500","530","images/stimuli/spore_stims/simple_18_A_b.gif","images/stimuli/spore_stims/simple_04_A_a.gif","forced_long","","3","simple_dissimilar","images/stimuli/spore_stims/simple_18_A_b.gif","","","","",""
"","null","html-keyboard-response","50","184718","0.0-15.0-0.2","SS1618435641045","","","null","","","","","","<p><img src= images/blank.png width =""600"" height = ""600"" style=""position:fixed;top:50%; left:50%; transform: translate(-50%, -50%); border:5px solid black"">","","","","","","","",""
"","36","sequential-stimulus-presentation-old","51","185266","0.0-15.0-1.2","SS1618435641045","trial","","40","500","536","images/stimuli/spore_stims/simple_18_A_b.gif","images/stimuli/spore_stims/simple_04_A_a.gif","forced_long","","3","simple_dissimilar","images/stimuli/spore_stims/simple_04_A_a.gif","","","","",""
"","null","html-keyboard-response","52","186281","0.0-15.0-0.3","SS1618435641045","","","null","","","","","","<p><img src= images/blank.png width =""600"" height = ""600"" style=""position:fixed;top:50%; left:50%; transform: translate(-50%, -50%); border:5px solid black"">","","","","","","","",""
"","870","sequential-stimulus-presentation-old","53","187665","0.0-15.0-1.3","SS1618435641045","trial","","40","500","1370","images/stimuli/spore_stims/simple_18_A_b.gif","images/stimuli/spore_stims/simple_04_A_a.gif","forced_long","","3","simple_dissimilar","images/stimuli/spore_stims/simple_04_A_a.gif","","","","",""
"","null","html-keyboard-response","54","188470","0.0-15.0-0.4","SS1618435641045","","","null","","","","","","<p><img src= images/blank.png width =""600"" height = ""600"" style=""position:fixed;top:50%; left:50%; transform: translate(-50%, -50%); border:5px solid black"">","","","","","","","",""
"","1452","sequential-stimulus-presentation-old","55","190433","0.0-15.0-1.4","SS1618435641045","trial","","40","500","1952","images/stimuli/spore_stims/simple_18_A_b.gif","images/stimuli/spore_stims/simple_04_A_a.gif","forced_long","","3","simple_dissimilar","images/stimuli/spore_stims/simple_18_A_b.gif","","","","",""
"","null","html-keyboard-response","56","191706","0.0-15.0-0.5","SS1618435641045","","","null","","","","","","<p><img src= images/blank.png width =""600"" height = ""600"" style=""position:fixed;top:50%; left:50%; transform: translate(-50%, -50%); border:5px solid black"">","","","","","","","",""
"","13","sequential-stimulus-presentation-old","57","192232","0.0-15.0-1.5","SS1618435641045","trial","","40","500","513","images/stimuli/spore_stims/simple_18_A_b.gif","images/stimuli/spore_stims/simple_04_A_a.gif","forced_long","","3","simple_dissimilar","images/stimuli/spore_stims/simple_04_A_a.gif","","","","",""
"","2962","survey-multi-choice","58","195196","0.0-16.0","SS1618435641045","math_question","","","","","","","","","","","","{""Q0"":""11""}","[0]","11","",""
"","null","html-keyboard-response","59","196394","0.0-17.0-0.0","SS1618435641045","","","null","","","","","","<p><img src= images/blank.png width =""600"" height = ""600"" style=""position:fixed;top:50%; left:50%; transform: translate(-50%, -50%); border:5px solid black"">","","","","","","","",""
"","121","sequential-stimulus-presentation-old","60","197024","0.0-17.0-1.0","SS1618435641045","trial","","40","500","621","images/stimuli/spore_stims/simple_08_A_a.gif","images/stimuli/spore_stims/simple_15_A_b.gif","self_paced","","4","simple_dissimilar","images/stimuli/spore_stims/simple_15_A_b.gif","","","","",""
"","null","html-keyboard-response","61","198094","0.0-17.0-0.1","SS1618435641045","","","null","","","","","","<p><img src= images/blank.png width =""600"" height = ""600"" style=""position:fixed;top:50%; left:50%; transform: translate(-50%, -50%); border:5px solid black"">","","","","","","","",""
"","433","sequential-stimulus-presentation-old","62","199043","0.0-17.0-1.1","SS1618435641045","trial","","40","500","933","images/stimuli/spore_stims/simple_08_A_a.gif","images/stimuli/spore_stims/simple_15_A_b.gif","self_paced","","4","simple_dissimilar","images/stimuli/spore_stims/simple_15_A_b.gif","","","","",""
"","null","html-keyboard-response","63","200033","0.0-17.0-0.2","SS1618435641045","","","null","","","","","","<p><img src= images/blank.png width =""600"" height = ""600"" style=""position:fixed;top:50%; left:50%; transform: translate(-50%, -50%); border:5px solid black"">","","","","","","","",""
"","262","sequential-stimulus-presentation-old","64","200803","0.0-17.0-1.2","SS1618435641045","trial","","40","500","762","images/stimuli/spore_stims/simple_08_A_a.gif","images/stimuli/spore_stims/simple_15_A_b.gif","self_paced","","4","simple_dissimilar","images/stimuli/spore_stims/simple_15_A_b.gif","","","","",""
"","null","html-keyboard-response","65","201872","0.0-17.0-0.3","SS1618435641045","","","null","","","","","","<p><img src= images/blank.png width =""600"" height = ""600"" style=""position:fixed;top:50%; left:50%; transform: translate(-50%, -50%); border:5px solid black"">","","","","","","","",""
"","200","sequential-stimulus-presentation-old","66","202584","0.0-17.0-1.3","SS1618435641045","trial","","40","500","700","images/stimuli/spore_stims/simple_08_A_a.gif","images/stimuli/spore_stims/simple_15_A_b.gif","self_paced","","4","simple_dissimilar","images/stimuli/spore_stims/simple_15_A_b.gif","","","","",""
"","null","html-keyboard-response","67","203574","0.0-17.0-0.4","SS1618435641045","","","null","","","","","","<p><img src= images/blank.png width =""600"" height = ""600"" style=""position:fixed;top:50%; left:50%; transform: translate(-50%, -50%); border:5px solid black"">","","","","","","","",""
"","443","sequential-stimulus-presentation-old","68","204527","0.0-17.0-1.4","SS1618435641045","trial","","40","500","943","images/stimuli/spore_stims/simple_08_A_a.gif","images/stimuli/spore_stims/simple_15_A_b.gif","self_paced","","4","simple_dissimilar","images/stimuli/spore_stims/simple_15_A_b.gif","","","","",""
"","null","html-keyboard-response","69","205355","0.0-17.0-0.5","SS1618435641045","","","null","","","","","","<p><img src= images/blank.png width =""600"" height = ""600"" style=""position:fixed;top:50%; left:50%; transform: translate(-50%, -50%); border:5px solid black"">","","","","","","","",""
"","601","sequential-stimulus-presentation-old","70","206470","0.0-17.0-1.5","SS1618435641045","trial","","40","500","1101","images/stimuli/spore_stims/simple_08_A_a.gif","images/stimuli/spore_stims/simple_15_A_b.gif","self_paced","","4","simple_dissimilar","images/stimuli/spore_stims/simple_08_A_a.gif","","","","",""
"","2946","survey-multi-choice","71","209421","0.0-18.0","SS1618435641045","math_question","","","","","","","","","","","","{""Q0"":""8""}","[0]","8","",""
"","null","html-keyboard-response","72","210396","0.0-19.0-0.0","SS1618435641045","","","null","","","","","","<p><img src= images/blank.png width =""600"" height = ""600"" style=""position:fixed;top:50%; left:50%; transform: translate(-50%, -50%); border:5px solid black"">","","","","","","","",""
"","1235","sequential-stimulus-presentation-old","73","212139","0.0-19.0-1.0","SS1618435641045","trial","","40","500","1735","images/stimuli/spore_stims/complex_13_A_b.gif","images/stimuli/spore_stims/complex_18_A_a.gif","self_paced","","5","complex_dissimilar","images/stimuli/spore_stims/complex_18_A_a.gif","","","","",""
"","null","html-keyboard-response","74","213025","0.0-19.0-0.1","SS1618435641045","","","null","","","","","","<p><img src= images/blank.png width =""600"" height = ""600"" style=""position:fixed;top:50%; left:50%; transform: translate(-50%, -50%); border:5px solid black"">","","","","","","","",""
"","41","sequential-stimulus-presentation-old","75","213579","0.0-19.0-1.1","SS1618435641045","trial","","40","500","541","images/stimuli/spore_stims/complex_13_A_b.gif","images/stimuli/spore_stims/complex_18_A_a.gif","self_paced","","5","complex_dissimilar","images/stimuli/spore_stims/complex_18_A_a.gif","","","","",""
"","null","html-keyboard-response","76","214795","0.0-19.0-0.2","SS1618435641045","","","null","","","","","","<p><img src= images/blank.png width =""600"" height = ""600"" style=""position:fixed;top:50%; left:50%; transform: translate(-50%, -50%); border:5px solid black"">","","","","","","","",""
"","101","sequential-stimulus-presentation-old","77","215405","0.0-19.0-1.2","SS1618435641045","trial","","40","500","601","images/stimuli/spore_stims/complex_13_A_b.gif","images/stimuli/spore_stims/complex_18_A_a.gif","self_paced","","5","complex_dissimilar","images/stimuli/spore_stims/complex_18_A_a.gif","","","","",""
"","null","html-keyboard-response","78","216483","0.0-19.0-0.3","SS1618435641045","","","null","","","","","","<p><img src= images/blank.png width =""600"" height = ""600"" style=""position:fixed;top:50%; left:50%; transform: translate(-50%, -50%); border:5px solid black"">","","","","","","","",""
"","463","sequential-stimulus-presentation-old","79","217458","0.0-19.0-1.3","SS1618435641045","trial","","40","500","963","images/stimuli/spore_stims/complex_13_A_b.gif","images/stimuli/spore_stims/complex_18_A_a.gif","self_paced","","5","complex_dissimilar","images/stimuli/spore_stims/complex_13_A_b.gif","","","","",""
"","null","html-keyboard-response","80","218622","0.0-19.0-0.4","SS1618435641045","","","null","","","","","","<p><img src= images/blank.png width =""600"" height = ""600"" style=""position:fixed;top:50%; left:50%; transform: translate(-50%, -50%); border:5px solid black"">","","","","","","","",""
"","527","sequential-stimulus-presentation-old","81","219662","0.0-19.0-1.4","SS1618435641045","trial","","40","500","1027","images/stimuli/spore_stims/complex_13_A_b.gif","images/stimuli/spore_stims/complex_18_A_a.gif","self_paced","","5","complex_dissimilar","images/stimuli/spore_stims/complex_18_A_a.gif","","","","",""
"","null","html-keyboard-response","82","220565","0.0-19.0-0.5","SS1618435641045","","","null","","","","","","<p><img src= images/blank.png width =""600"" height = ""600"" style=""position:fixed;top:50%; left:50%; transform: translate(-50%, -50%); border:5px solid black"">","","","","","","","",""
"","96","sequential-stimulus-presentation-old","83","221176","0.0-19.0-1.5","SS1618435641045","trial","","40","500","596","images/stimuli/spore_stims/complex_13_A_b.gif","images/stimuli/spore_stims/complex_18_A_a.gif","self_paced","","5","complex_dissimilar","images/stimuli/spore_stims/complex_13_A_b.gif","","","","",""
"","3017","survey-multi-choice","84","224196","0.0-20.0","SS1618435641045","math_question","","","","","","","","","","","","{""Q0"":""9""}","[0]","9","",""
"","null","html-keyboard-response","85","225274","0.0-21.0-0.0","SS1618435641045","","","null","","","","","","<p><img src= images/blank.png width =""600"" height = ""600"" style=""position:fixed;top:50%; left:50%; transform: translate(-50%, -50%); border:5px solid black"">","","","","","","","",""
"","600","sequential-stimulus-presentation-old","86","225935","0.0-21.0-1.0","SS1618435641045","trial","","40","500","1100","images/stimuli/spore_stims/complex_07_A_a.gif","images/stimuli/spore_stims/complex_10_A_b.gif","forced_short","","6","complex_dissimilar","images/stimuli/spore_stims/complex_10_A_b.gif","","","","",""
"","null","html-keyboard-response","87","227127","0.0-21.0-0.1","SS1618435641045","","","null","","","","","","<p><img src= images/blank.png width =""600"" height = ""600"" style=""position:fixed;top:50%; left:50%; transform: translate(-50%, -50%); border:5px solid black"">","","","","","","","",""
"","453","sequential-stimulus-presentation-old","88","228093","0.0-21.0-1.1","SS1618435641045","trial","","40","500","953","images/stimuli/spore_stims/complex_07_A_a.gif","images/stimuli/spore_stims/complex_10_A_b.gif","forced_short","","6","complex_dissimilar","images/stimuli/spore_stims/complex_10_A_b.gif","","","","",""
"","null","html-keyboard-response","89","229235","0.0-21.0-0.2","SS1618435641045","","","null","","","","","","<p><img src= images/blank.png width =""600"" height = ""600"" style=""position:fixed;top:50%; left:50%; transform: translate(-50%, -50%); border:5px solid black"">","","","","","","","",""
"","225","sequential-stimulus-presentation-old","90","229972","0.0-21.0-1.2","SS1618435641045","trial","","40","500","725","images/stimuli/spore_stims/complex_07_A_a.gif","images/stimuli/spore_stims/complex_10_A_b.gif","forced_short","","6","complex_dissimilar","images/stimuli/spore_stims/complex_10_A_b.gif","","","","",""
"","null","html-keyboard-response","91","231050","0.0-21.0-0.3","SS1618435641045","","","null","","","","","","<p><img src= images/blank.png width =""600"" height = ""600"" style=""position:fixed;top:50%; left:50%; transform: translate(-50%, -50%); border:5px solid black"">","","","","","","","",""
"","404","sequential-stimulus-presentation-old","92","231963","0.0-21.0-1.3","SS1618435641045","trial","","40","500","904","images/stimuli/spore_stims/complex_07_A_a.gif","images/stimuli/spore_stims/complex_10_A_b.gif","forced_short","","6","complex_dissimilar","images/stimuli/spore_stims/complex_10_A_b.gif","","","","",""
"","null","html-keyboard-response","93","233156","0.0-21.0-0.4","SS1618435641045","","","null","","","","","","<p><img src= images/blank.png width =""600"" height = ""600"" style=""position:fixed;top:50%; left:50%; transform: translate(-50%, -50%); border:5px solid black"">","","","","","","","",""
"","160","sequential-stimulus-presentation-old","94","233831","0.0-21.0-1.4","SS1618435641045","trial","","40","500","660","images/stimuli/spore_stims/complex_07_A_a.gif","images/stimuli/spore_stims/complex_10_A_b.gif","forced_short","","6","complex_dissimilar","images/stimuli/spore_stims/complex_07_A_a.gif","","","","",""
"","2705","survey-multi-choice","95","236541","0.0-22.0","SS1618435641045","math_question","","","","","","","","","","","","{""Q0"":""9""}","[0]","9","",""
"","null","html-keyboard-response","96","237683","0.0-23.0-0.0","SS1618435641045","","","null","","","","","","<p><img src= images/blank.png width =""600"" height = ""600"" style=""position:fixed;top:50%; left:50%; transform: translate(-50%, -50%); border:5px solid black"">","","","","","","","",""
"","3183","sequential-stimulus-presentation-old","97","245884","0.0-23.0-1.0","SS1618435641045","trial","","40","500","3683","images/stimuli/spore_stims/complex_05_A_b.gif","images/stimuli/spore_stims/complex_20_A_a.gif","forced_long","","7","complex_dissimilar","images/stimuli/spore_stims/complex_20_A_a.gif","","","","",""
"","null","html-keyboard-response","98","247186","0.0-23.0-0.1","SS1618435641045","","","null","","","","","","<p><img src= images/blank.png width =""600"" height = ""600"" style=""position:fixed;top:50%; left:50%; transform: translate(-50%, -50%); border:5px solid black"">","","","","","","","",""
"","72","sequential-stimulus-presentation-old","99","247770","0.0-23.0-1.1","SS1618435641045","trial","","40","500","572","images/stimuli/spore_stims/complex_05_A_b.gif","images/stimuli/spore_stims/complex_20_A_a.gif","forced_long","","7","complex_dissimilar","images/stimuli/spore_stims/complex_20_A_a.gif","","","","",""
"","null","html-keyboard-response","100","248819","0.0-23.0-0.2","SS1618435641045","","","null","","","","","","<p><img src= images/blank.png width =""600"" height = ""600"" style=""position:fixed;top:50%; left:50%; transform: translate(-50%, -50%); border:5px solid black"">","","","","","","","",""
"","622","sequential-stimulus-presentation-old","101","249952","0.0-23.0-1.2","SS1618435641045","trial","","40","500","1122","images/stimuli/spore_stims/complex_05_A_b.gif","images/stimuli/spore_stims/complex_20_A_a.gif","forced_long","","7","complex_dissimilar","images/stimuli/spore_stims/complex_20_A_a.gif","","","","",""
"","null","html-keyboard-response","102","250933","0.0-23.0-0.3","SS1618435641045","","","null","","","","","","<p><img src= images/blank.png width =""600"" height = ""600"" style=""position:fixed;top:50%; left:50%; transform: translate(-50%, -50%); border:5px solid black"">","","","","","","","",""
"","118","sequential-stimulus-presentation-old","103","251561","0.0-23.0-1.3","SS1618435641045","trial","","40","500","618","images/stimuli/spore_stims/complex_05_A_b.gif","images/stimuli/spore_stims/complex_20_A_a.gif","forced_long","","7","complex_dissimilar","images/stimuli/spore_stims/complex_20_A_a.gif","","","","",""
"","null","html-keyboard-response","104","252575","0.0-23.0-0.4","SS1618435641045","","","null","","","","","","<p><img src= images/blank.png width =""600"" height = ""600"" style=""position:fixed;top:50%; left:50%; transform: translate(-50%, -50%); border:5px solid black"">","","","","","","","",""
"","288","sequential-stimulus-presentation-old","105","253377","0.0-23.0-1.4","SS1618435641045","trial","","40","500","788","images/stimuli/spore_stims/complex_05_A_b.gif","images/stimuli/spore_stims/complex_20_A_a.gif","forced_long","","7","complex_dissimilar","images/stimuli/spore_stims/complex_20_A_a.gif","","","","",""
"","null","html-keyboard-response","106","254565","0.0-23.0-0.5","SS1618435641045","","","null","","","","","","<p><img src= images/blank.png width =""600"" height = ""600"" style=""position:fixed;top:50%; left:50%; transform: translate(-50%, -50%); border:5px solid black"">","","","","","","","",""
"","616","sequential-stimulus-presentation-old","107","255695","0.0-23.0-1.5","SS1618435641045","trial","","40","500","1116","images/stimuli/spore_stims/complex_05_A_b.gif","images/stimuli/spore_stims/complex_20_A_a.gif","forced_long","","7","complex_dissimilar","images/stimuli/spore_stims/complex_05_A_b.gif","","","","",""
"","2987","survey-multi-choice","108","258686","0.0-24.0","SS1618435641045","math_question","","","","","","","","","","","","{""Q0"":""10""}","[0]","10","",""
"","null","html-keyboard-response","109","259833","0.0-25.0-0.0","SS1618435641045","","","null","","","","","","<p><img src= images/blank.png width =""600"" height = ""600"" style=""position:fixed;top:50%; left:50%; transform: translate(-50%, -50%); border:5px solid black"">","","","","","","","",""
"","822","sequential-stimulus-presentation-old","110","260717","0.0-25.0-1.0","SS1618435641045","trial","","40","500","1322","images/stimuli/spore_stims/simple_11_A_a.gif","images/stimuli/spore_stims/simple_08_A_b.gif","forced_short","","8","simple_dissimilar","images/stimuli/spore_stims/simple_08_A_b.gif","","","","",""
"","null","html-keyboard-response","111","261782","0.0-25.0-0.1","SS1618435641045","","","null","","","","","","<p><img src= images/blank.png width =""600"" height = ""600"" style=""position:fixed;top:50%; left:50%; transform: translate(-50%, -50%); border:5px solid black"">","","","","","","","",""
"","241","sequential-stimulus-presentation-old","112","262535","0.0-25.0-1.1","SS1618435641045","trial","","40","500","741","images/stimuli/spore_stims/simple_11_A_a.gif","images/stimuli/spore_stims/simple_08_A_b.gif","forced_short","","8","simple_dissimilar","images/stimuli/spore_stims/simple_11_A_a.gif","","","","",""
"","null","html-keyboard-response","113","263830","0.0-25.0-0.2","SS1618435641045","","","null","","","","","","<p><img src= images/blank.png width =""600"" height = ""600"" style=""position:fixed;top:50%; left:50%; transform: translate(-50%, -50%); border:5px solid black"">","","","","","","","",""
"","188","sequential-stimulus-presentation-old","114","264529","0.0-25.0-1.2","SS1618435641045","trial","","40","500","688","images/stimuli/spore_stims/simple_11_A_a.gif","images/stimuli/spore_stims/simple_08_A_b.gif","forced_short","","8","simple_dissimilar","images/stimuli/spore_stims/simple_08_A_b.gif","","","","",""
"","null","html-keyboard-response","115","265442","0.0-25.0-0.3","SS1618435641045","","","null","","","","","","<p><img src= images/blank.png width =""600"" height = ""600"" style=""position:fixed;top:50%; left:50%; transform: translate(-50%, -50%); border:5px solid black"">","","","","","","","",""
"","352","sequential-stimulus-presentation-old","116","266307","0.0-25.0-1.3","SS1618435641045","trial","","40","500","852","images/stimuli/spore_stims/simple_11_A_a.gif","images/stimuli/spore_stims/simple_08_A_b.gif","forced_short","","8","simple_dissimilar","images/stimuli/spore_stims/simple_08_A_b.gif","","","","",""
"","3125","survey-multi-choice","117","269436","0.0-26.0","SS1618435641045","math_question","","","","","","","","","","","","{""Q0"":""2""}","[0]","2","",""
"","null","html-keyboard-response","118","270346","0.0-27.0-0.0","SS1618435641045","","","null","","","","","","<p><img src= images/blank.png width =""600"" height = ""600"" style=""position:fixed;top:50%; left:50%; transform: translate(-50%, -50%); border:5px solid black"">","","","","","","","",""
"","532","sequential-stimulus-presentation-old","119","270938","0.0-27.0-1.0","SS1618435641045","trial","","40","500","1032","images/stimuli/spore_stims/complex_07_A_b.gif","images/stimuli/spore_stims/complex_11_A_a.gif","forced_short","","9","complex_dissimilar","images/stimuli/spore_stims/complex_11_A_a.gif","","","","",""
"","null","html-keyboard-response","120","272228","0.0-27.0-0.1","SS1618435641045","","","null","","","","","","<p><img src= images/blank.png width =""600"" height = ""600"" style=""position:fixed;top:50%; left:50%; transform: translate(-50%, -50%); border:5px solid black"">","","","","","","","",""
"","997","sequential-stimulus-presentation-old","121","273736","0.0-27.0-1.1","SS1618435641045","trial","","40","500","1497","images/stimuli/spore_stims/complex_07_A_b.gif","images/stimuli/spore_stims/complex_11_A_a.gif","forced_short","","9","complex_dissimilar","images/stimuli/spore_stims/complex_11_A_a.gif","","","","",""
"","null","html-keyboard-response","122","274798","0.0-27.0-0.2","SS1618435641045","","","null","","","","","","<p><img src= images/blank.png width =""600"" height = ""600"" style=""position:fixed;top:50%; left:50%; transform: translate(-50%, -50%); border:5px solid black"">","","","","","","","",""
"","122","sequential-stimulus-presentation-old","123","275431","0.0-27.0-1.2","SS1618435641045","trial","","40","500","622","images/stimuli/spore_stims/complex_07_A_b.gif","images/stimuli/spore_stims/complex_11_A_a.gif","forced_short","","9","complex_dissimilar","images/stimuli/spore_stims/complex_07_A_b.gif","","","","",""
"","null","html-keyboard-response","124","276561","0.0-27.0-0.3","SS1618435641045","","","null","","","","","","<p><img src= images/blank.png width =""600"" height = ""600"" style=""position:fixed;top:50%; left:50%; transform: translate(-50%, -50%); border:5px solid black"">","","","","","","","",""
"","368","sequential-stimulus-presentation-old","125","277441","0.0-27.0-1.3","SS1618435641045","trial","","40","500","868","images/stimuli/spore_stims/complex_07_A_b.gif","images/stimuli/spore_stims/complex_11_A_a.gif","forced_short","","9","complex_dissimilar","images/stimuli/spore_stims/complex_11_A_a.gif","","","","",""
"","null","html-keyboard-response","126","278507","0.0-27.0-0.4","SS1618435641045","","","null","","","","","","<p><img src= images/blank.png width =""600"" height = ""600"" style=""position:fixed;top:50%; left:50%; transform: translate(-50%, -50%); border:5px solid black"">","","","","","","","",""
"","321","sequential-stimulus-presentation-old","127","279341","0.0-27.0-1.4","SS1618435641045","trial","","40","500","821","images/stimuli/spore_stims/complex_07_A_b.gif","images/stimuli/spore_stims/complex_11_A_a.gif","forced_short","","9","complex_dissimilar","images/stimuli/spore_stims/complex_07_A_b.gif","","","","",""
"","null","html-keyboard-response","128","280289","0.0-27.0-0.5","SS1618435641045","","","null","","","","","","<p><img src= images/blank.png width =""600"" height = ""600"" style=""position:fixed;top:50%; left:50%; transform: translate(-50%, -50%); border:5px solid black"">","","","","","","","",""
"","126","sequential-stimulus-presentation-old","129","280925","0.0-27.0-1.5","SS1618435641045","trial","","40","500","626","images/stimuli/spore_stims/complex_07_A_b.gif","images/stimuli/spore_stims/complex_11_A_a.gif","forced_short","","9","complex_dissimilar","images/stimuli/spore_stims/complex_11_A_a.gif","","","","",""
"","3171","survey-multi-choice","130","284101","0.0-28.0","SS1618435641045","math_question","","","","","","","","","","","","{""Q0"":""12""}","[0]","12","",""
"","null","html-keyboard-response","131","285007","0.0-29.0-0.0","SS1618435641045","","","null","","","","","","<p><img src= images/blank.png width =""600"" height = ""600"" style=""position:fixed;top:50%; left:50%; transform: translate(-50%, -50%); border:5px solid black"">","","","","","","","",""
"","315","sequential-stimulus-presentation-old","132","285835","0.0-29.0-1.0","SS1618435641045","trial","","40","500","815","images/stimuli/spore_stims/complex_05_A_a.gif","images/stimuli/spore_stims/complex_18_A_b.gif","self_paced","","10","complex_dissimilar","images/stimuli/spore_stims/complex_18_A_b.gif","","","","",""
"","null","html-keyboard-response","133","286719","0.0-29.0-0.1","SS1618435641045","","","null","","","","","","<p><img src= images/blank.png width =""600"" height = ""600"" style=""position:fixed;top:50%; left:50%; transform: translate(-50%, -50%); border:5px solid black"">","","","","","","","",""
"","294","sequential-stimulus-presentation-old","134","287526","0.0-29.0-1.1","SS1618435641045","trial","","40","500","794","images/stimuli/spore_stims/complex_05_A_a.gif","images/stimuli/spore_stims/complex_18_A_b.gif","self_paced","","10","complex_dissimilar","images/stimuli/spore_stims/complex_18_A_b.gif","","","","",""
"","null","html-keyboard-response","135","288471","0.0-29.0-0.2","SS1618435641045","","","null","","","","","","<p><img src= images/blank.png width =""600"" height = ""600"" style=""position:fixed;top:50%; left:50%; transform: translate(-50%, -50%); border:5px solid black"">","","","","","","","",""
"","32","sequential-stimulus-presentation-old","136","289015","0.0-29.0-1.2","SS1618435641045","trial","","40","500","532","images/stimuli/spore_stims/complex_05_A_a.gif","images/stimuli/spore_stims/complex_18_A_b.gif","self_paced","","10","complex_dissimilar","images/stimuli/spore_stims/complex_18_A_b.gif","","","","",""
"","null","html-keyboard-response","137","289927","0.0-29.0-0.3","SS1618435641045","","","null","","","","","","<p><img src= images/blank.png width =""600"" height = ""600"" style=""position:fixed;top:50%; left:50%; transform: translate(-50%, -50%); border:5px solid black"">","","","","","","","",""
"","343","sequential-stimulus-presentation-old","138","290784","0.0-29.0-1.3","SS1618435641045","trial","","40","500","843","images/stimuli/spore_stims/complex_05_A_a.gif","images/stimuli/spore_stims/complex_18_A_b.gif","self_paced","","10","complex_dissimilar","images/stimuli/spore_stims/complex_18_A_b.gif","","","","",""
"","2977","survey-multi-choice","139","293766","0.0-30.0","SS1618435641045","math_question","","","","","","","","","","","","{""Q0"":""10""}","[0]","10","",""
"","null","html-keyboard-response","140","294783","0.0-31.0-0.0","SS1618435641045","","","null","","","","","","<p><img src= images/blank.png width =""600"" height = ""600"" style=""position:fixed;top:50%; left:50%; transform: translate(-50%, -50%); border:5px solid black"">","","","","","","","",""
"","19","sequential-stimulus-presentation-old","141","299813","0.0-31.0-1.0","SS1618435641045","trial","","40","500","519","images/stimuli/spore_stims/simple_12_A_b.gif","images/stimuli/spore_stims/simple_02_A_a.gif","forced_long","","11","simple_dissimilar","images/stimuli/spore_stims/simple_02_A_a.gif","","","","",""
"","null","html-keyboard-response","142","300845","0.0-31.0-0.1","SS1618435641045","","","null","","","","","","<p><img src= images/blank.png width =""600"" height = ""600"" style=""position:fixed;top:50%; left:50%; transform: translate(-50%, -50%); border:5px solid black"">","","","","","","","",""
"","476","sequential-stimulus-presentation-old","143","301831","0.0-31.0-1.1","SS1618435641045","trial","","40","500","976","images/stimuli/spore_stims/simple_12_A_b.gif","images/stimuli/spore_stims/simple_02_A_a.gif","forced_long","","11","simple_dissimilar","images/stimuli/spore_stims/simple_02_A_a.gif","","","","",""
"","null","html-keyboard-response","144","302739","0.0-31.0-0.2","SS1618435641045","","","null","","","","","","<p><img src= images/blank.png width =""600"" height = ""600"" style=""position:fixed;top:50%; left:50%; transform: translate(-50%, -50%); border:5px solid black"">","","","","","","","",""
"","3435","sequential-stimulus-presentation-old","145","306688","0.0-31.0-1.2","SS1618435641045","trial","","40","500","3935","images/stimuli/spore_stims/simple_12_A_b.gif","images/stimuli/spore_stims/simple_02_A_a.gif","forced_long","","11","simple_dissimilar","images/stimuli/spore_stims/simple_02_A_a.gif","","","","",""
"","null","html-keyboard-response","146","307652","0.0-31.0-0.3","SS1618435641045","","","null","","","","","","<p><img src= images/blank.png width =""600"" height = ""600"" style=""position:fixed;top:50%; left:50%; transform: translate(-50%, -50%); border:5px solid black"">","","","","","","","",""
"","323","sequential-stimulus-presentation-old","147","308489","0.0-31.0-1.3","SS1618435641045","trial","","40","500","823","images/stimuli/spore_stims/simple_12_A_b.gif","images/stimuli/spore_stims/simple_02_A_a.gif","forced_long","","11","simple_dissimilar","images/stimuli/spore_stims/simple_02_A_a.gif","","","","",""
"","null","html-keyboard-response","148","309501","0.0-31.0-0.4","SS1618435641045","","","null","","","","","","<p><img src= images/blank.png width =""600"" height = ""600"" style=""position:fixed;top:50%; left:50%; transform: translate(-50%, -50%); border:5px solid black"">","","","","","","","",""
"","376","sequential-stimulus-presentation-old","149","310386","0.0-31.0-1.4","SS1618435641045","trial","","40","500","876","images/stimuli/spore_stims/simple_12_A_b.gif","images/stimuli/spore_stims/simple_02_A_a.gif","forced_long","","11","simple_dissimilar","images/stimuli/spore_stims/simple_12_A_b.gif","","","","",""
"","null","html-keyboard-response","150","311359","0.0-31.0-0.5","SS1618435641045","","","null","","","","","","<p><img src= images/blank.png width =""600"" height = ""600"" style=""position:fixed;top:50%; left:50%; transform: translate(-50%, -50%); border:5px solid black"">","","","","","","","",""
"","411","sequential-stimulus-presentation-old","151","312276","0.0-31.0-1.5","SS1618435641045","trial","","40","500","911","images/stimuli/spore_stims/simple_12_A_b.gif","images/stimuli/spore_stims/simple_02_A_a.gif","forced_long","","11","simple_dissimilar","images/stimuli/spore_stims/simple_12_A_b.gif","","","","",""
"[{""page_index"":0,""viewing_time"":4188}]","4188","instructions","152","316468","0.0-32.0","SS1618435641045","instructions","","","","","","","","","","","","","","","",""
"","7018","survey-likert","153","323495","0.0-33.0","SS1618435641045","similarity_question","","","","","","","","","","","","{""Q0"":1}","[0]","","images/stimuli/spore_stims/complex_05_A_b.gif","images/stimuli/spore_stims/complex_20_A_a.gif"
"","3169","survey-likert","154","326677","0.0-34.0","SS1618435641045","similarity_question","","","","","","","","","","","","{""Q0"":5}","[0]","","images/stimuli/spore_stims/simple_08_A_b.gif","images/stimuli/spore_stims/simple_11_A_a.gif"
"","7253","survey-likert","155","333941","0.0-35.0","SS1618435641045","similarity_question","","","","","","","","","","","","{""Q0"":4}","[0]","","images/stimuli/spore_stims/complex_11_A_a.gif","images/stimuli/spore_stims/complex_07_A_b.gif"
"","4973","survey-likert","156","338926","0.0-36.0","SS1618435641045","similarity_question","","","","","","","","","","","","{""Q0"":4}","[0]","","images/stimuli/spore_stims/complex_07_A_a.gif","images/stimuli/spore_stims/complex_10_A_b.gif"
"","2414","survey-likert","157","341349","0.0-37.0","SS1618435641045","similarity_question","","","","","","","","","","","","{""Q0"":5}","[0]","","images/stimuli/spore_stims/simple_19_A_b.gif","images/stimuli/spore_stims/simple_03_A_a.gif"
"","2551","survey-likert","158","343909","0.0-38.0","SS1618435641045","similarity_question","","","","","","","","","","","","{""Q0"":4}","[0]","","images/stimuli/spore_stims/simple_04_A_a.gif","images/stimuli/spore_stims/simple_18_A_b.gif"
"","2252","survey-likert","159","346173","0.0-39.0","SS1618435641045","similarity_question","","","","","","","","","","","","{""Q0"":5}","[0]","","images/stimuli/spore_stims/simple_02_A_a.gif","images/stimuli/spore_stims/simple_12_A_b.gif"
"","2714","survey-likert","160","348901","0.0-40.0","SS1618435641045","similarity_question","","","","","","","","","","","","{""Q0"":4}","[0]","","images/stimuli/spore_stims/complex_13_A_b.gif","images/stimuli/spore_stims/complex_18_A_a.gif"
"","4391","survey-likert","161","353302","0.0-41.0","SS1618435641045","similarity_question","","","","","","","","","","","","{""Q0"":2}","[0]","","images/stimuli/spore_stims/complex_01_A_a.gif","images/stimuli/spore_stims/complex_15_A_b.gif"
"","2295","survey-likert","162","355607","0.0-42.0","SS1618435641045","similarity_question","","","","","","","","","","","","{""Q0"":3}","[0]","","images/stimuli/spore_stims/simple_13_A_b.gif","images/stimuli/spore_stims/simple_07_A_a.gif"
"","5939","survey-likert","163","361557","0.0-43.0","SS1618435641045","similarity_question","","","","","","","","","","","","{""Q0"":3}","[0]","","images/stimuli/spore_stims/complex_05_A_a.gif","images/stimuli/spore_stims/complex_18_A_b.gif"
"","2076","survey-likert","164","363645","0.0-44.0","SS1618435641045","similarity_question","","","","","","","","","","","","{""Q0"":5}","[0]","","images/stimuli/spore_stims/simple_08_A_a.gif","images/stimuli/spore_stims/simple_15_A_b.gif"
"[{""page_index"":0,""viewing_time"":4542}]","4542","instructions","165","368196","0.0-45.0","SS1618435641045","instructions","","","","","","","","","","","","","","","",""
"","4872","survey-likert","166","373077","0.0-46.0","SS1618435641045","","","","","","","","","images/stimuli/spore_stims/complex_18_A_b.gif","","","","{""Q0"":5}","[0]","","",""
"","2727","survey-likert","167","375814","0.0-47.0","SS1618435641045","","","","","","","","","images/stimuli/spore_stims/complex_10_A_b.gif","","","","{""Q0"":5}","[0]","","",""
"","3910","survey-likert","168","379734","0.0-48.0","SS1618435641045","","","","","","","","","images/stimuli/spore_stims/complex_11_A_a.gif","","","","{""Q0"":5}","[0]","","",""
"","4621","survey-likert","169","384366","0.0-49.0","SS1618435641045","","","","","","","","","images/stimuli/spore_stims/simple_19_A_b.gif","","","","{""Q0"":2}","[0]","","",""
"","1788","survey-likert","170","386166","0.0-50.0","SS1618435641045","","","","","","","","","images/stimuli/spore_stims/simple_04_A_a.gif","","","","{""Q0"":1}","[0]","","",""
"","3205","survey-likert","171","389381","0.0-51.0","SS1618435641045","","","","","","","","","images/stimuli/spore_stims/complex_15_A_b.gif","","","","{""Q0"":6}","[0]","","",""
"","2135","survey-likert","172","391526","0.0-52.0","SS1618435641045","","","","","","","","","images/stimuli/spore_stims/simple_15_A_b.gif","","","","{""Q0"":1}","[0]","","",""
"","5332","survey-likert","173","396868","0.0-53.0","SS1618435641045","","","","","","","","","images/stimuli/spore_stims/complex_20_A_a.gif","","","","{""Q0"":4}","[0]","","",""
"","3821","survey-likert","174","400701","0.0-54.0","SS1618435641045","","","","","","","","","images/stimuli/spore_stims/simple_13_A_b.gif","","","","{""Q0"":0}","[0]","","",""
"","3669","survey-likert","175","404380","0.0-55.0","SS1618435641045","","","","","","","","","images/stimuli/spore_stims/complex_18_A_a.gif","","","","{""Q0"":5}","[0]","","",""
"","2194","survey-likert","176","406589","0.0-56.0","SS1618435641045","","","","","","","","","images/stimuli/spore_stims/simple_12_A_b.gif","","","","{""Q0"":1}","[0]","","",""
"","2757","survey-likert","177","409356","0.0-57.0","SS1618435641045","","","","","","","","","images/stimuli/spore_stims/simple_08_A_b.gif","","","","{""Q0"":0}","[0]","","",""
"[{""page_index"":0,""viewing_time"":2031}]","2031","instructions","178","411395","0.0-58.0","SS1618435641045","instructions","","","","","","","","","","","","","","","",""
"","2879","demog-age","179","414286","0.0-59.0","SS1618435641045","","","","","","","","","","","","","{""age"":""23""}","","","",""
"","3798","demog-ethnic-US","180","418094","0.0-60.0","SS1618435641045","","","","","","","","","","","","","{""ethnicity"":[""White""]}","[0]","","",""
"","8597","demog-gender-and-education","181","426701","0.0-61.0","SS1618435641045","","","","","","","","","","","","","{""gender"":""Female"",""education"":""Bachelor's Degree""}","[0,1]","","",""
"","6602","survey-text","182","433317","0.0-62.0","SS1618435641045","feedback","","","","","","","","","","","","{""Q0"":""no""}","","","",""
"[{""page_index"":0,""viewing_time"":2176}]","2176","instructions","183","435500","0.0-63.0","SS1618435641045","instructions","","","","","","","","","","","","","","","",""
