"view_history","rt","trial_type","trial_index","time_elapsed","internal_node_id","subject","stimulus_type","trial_stimulus","key_press","minimum_viewing_duration","trial_looking_time","block_deviant","block_background","exposure_type","stimulus","block_number","block_type","stimulus_displayed","responses","question_order","math_correct_answer","stimulus_left","stimulus_right"
"[{""page_index"":0,""viewing_time"":21807.114999995974}]","21807.560000001104","instructions","0","21809","0.0-0.0","SS1618365993237","","","","","","","","","","","","","","","","",""
"[{""page_index"":0,""viewing_time"":13090.165000001434},{""page_index"":1,""viewing_time"":5825.969999998051}]","18916.300000004412","instructions","1","42727","0.0-1.0","SS1618365993237","instructions","","","","","","","","","","","","","","","",""
"","7504.505000004428","sequential-stimulus-presentation-old","2","50735","0.0-2.0","SS1618365993237","","","40","500","8004.505000004428","null","null","self_paced","","","","","","","","",""
"","4178.4349999943515","sequential-stimulus-presentation-old","3","55428","0.0-3.0","SS1618365993237","","","40","500","4678.4349999943515","null","null","self_paced","","","","","","","","",""
"[{""page_index"":0,""viewing_time"":16121.684999998251}]","16121.939999997267","instructions","4","71551","0.0-4.0","SS1618365993237","instructions","","","","","","","","","","","","","","","",""
"","2337.1699999988778","sequential-stimulus-presentation-old","5","78892","0.0-5.0","SS1618365993237","","","40","500","2837.1699999988778","null","null","forced_long","","","","","","","","",""
"","3083.005000000412","sequential-stimulus-presentation-old","6","82027","0.0-6.0","SS1618365993237","","","40","50","3133.005000000412","null","null","forced_long","","","","","","","","",""
"[{""page_index"":0,""viewing_time"":3188.86499999644}]","3189.1149999937625","instructions","7","85216","0.0-7.0","SS1618365993237","instructions","","","","","","","","","","","","","","","",""
"[{""page_index"":0,""viewing_time"":7795.310000001336},{""page_index"":1,""viewing_time"":11245.349999997416},{""page_index"":2,""viewing_time"":5081.180000001041},{""page_index"":3,""viewing_time"":1574.1550000020652},{""page_index"":4,""viewing_time"":1068.4649999966496}]","26764.604999996664","instructions","8","111981","0.0-8.0","SS1618365993237","instructions","","","","","","","","","","","","","","","",""
"","null","html-keyboard-response","9","112824","0.0-9.0-0.0","SS1618365993237","","","null","","","","","","<p><img src= images/blank.png width =""600"" height = ""600"" style=""position:fixed;top:50%; left:50%; transform: translate(-50%, -50%); border:5px solid black"">","","","","","","","",""
"","16232.905000004394","sequential-stimulus-presentation-old","10","129560","0.0-9.0-1.0","SS1618365993237","trial","","40","500","16732.905000004394","images/stimuli/spore_stims/complex_14_A_a.gif","images/stimuli/spore_stims/complex_10_A_b.gif","self_paced","","0","complex_dissimilar","images/stimuli/spore_stims/complex_10_A_b.gif","","","","",""
"","null","html-keyboard-response","11","130587","0.0-9.0-0.1","SS1618365993237","","","null","","","","","","<p><img src= images/blank.png width =""600"" height = ""600"" style=""position:fixed;top:50%; left:50%; transform: translate(-50%, -50%); border:5px solid black"">","","","","","","","",""
"","606.3949999952456","sequential-stimulus-presentation-old","12","131702","0.0-9.0-1.1","SS1618365993237","trial","","40","500","1106.3949999952456","images/stimuli/spore_stims/complex_14_A_a.gif","images/stimuli/spore_stims/complex_10_A_b.gif","self_paced","","0","complex_dissimilar","images/stimuli/spore_stims/complex_10_A_b.gif","","","","",""
"","null","html-keyboard-response","13","132867","0.0-9.0-0.2","SS1618365993237","","","null","","","","","","<p><img src= images/blank.png width =""600"" height = ""600"" style=""position:fixed;top:50%; left:50%; transform: translate(-50%, -50%); border:5px solid black"">","","","","","","","",""
"","5471.9549999936135","sequential-stimulus-presentation-old","14","138849","0.0-9.0-1.2","SS1618365993237","trial","","40","500","5971.9549999936135","images/stimuli/spore_stims/complex_14_A_a.gif","images/stimuli/spore_stims/complex_10_A_b.gif","self_paced","","0","complex_dissimilar","images/stimuli/spore_stims/complex_10_A_b.gif","","","","",""
"","null","html-keyboard-response","15","139784","0.0-9.0-0.3","SS1618365993237","","","null","","","","","","<p><img src= images/blank.png width =""600"" height = ""600"" style=""position:fixed;top:50%; left:50%; transform: translate(-50%, -50%); border:5px solid black"">","","","","","","","",""
"","93.21500000078231","sequential-stimulus-presentation-old","16","140381","0.0-9.0-1.3","SS1618365993237","trial","","40","500","593.2150000007823","images/stimuli/spore_stims/complex_14_A_a.gif","images/stimuli/spore_stims/complex_10_A_b.gif","self_paced","","0","complex_dissimilar","images/stimuli/spore_stims/complex_10_A_b.gif","","","","",""
"","null","html-keyboard-response","17","141673","0.0-9.0-0.4","SS1618365993237","","","null","","","","","","<p><img src= images/blank.png width =""600"" height = ""600"" style=""position:fixed;top:50%; left:50%; transform: translate(-50%, -50%); border:5px solid black"">","","","","","","","",""
"","35.83499999513151","sequential-stimulus-presentation-old","18","142223","0.0-9.0-1.4","SS1618365993237","trial","","40","500","535.8349999951315","images/stimuli/spore_stims/complex_14_A_a.gif","images/stimuli/spore_stims/complex_10_A_b.gif","self_paced","","0","complex_dissimilar","images/stimuli/spore_stims/complex_10_A_b.gif","","","","",""
"","null","html-keyboard-response","19","143521","0.0-9.0-0.5","SS1618365993237","","","null","","","","","","<p><img src= images/blank.png width =""600"" height = ""600"" style=""position:fixed;top:50%; left:50%; transform: translate(-50%, -50%); border:5px solid black"">","","","","","","","",""
"","80.78000000386965","sequential-stimulus-presentation-old","20","144105","0.0-9.0-1.5","SS1618365993237","trial","","40","500","580.7800000038696","images/stimuli/spore_stims/complex_14_A_a.gif","images/stimuli/spore_stims/complex_10_A_b.gif","self_paced","","0","complex_dissimilar","images/stimuli/spore_stims/complex_10_A_b.gif","","","","",""
"","5523.235000000568","survey-multi-choice","21","149631","0.0-10.0","SS1618365993237","math_question","","","","","","","","","","","","{""Q0"":""5""}","[0]","5","",""
"","null","html-keyboard-response","22","150905","0.0-11.0-0.0","SS1618365993237","","","null","","","","","","<p><img src= images/blank.png width =""600"" height = ""600"" style=""position:fixed;top:50%; left:50%; transform: translate(-50%, -50%); border:5px solid black"">","","","","","","","",""
"","2215.4300000038347","sequential-stimulus-presentation-old","23","153624","0.0-11.0-1.0","SS1618365993237","trial","","40","500","2715.4300000038347","images/stimuli/spore_stims/simple_12_A_a.gif","images/stimuli/spore_stims/simple_16_A_b.gif","self_paced","","1","simple_dissimilar","images/stimuli/spore_stims/simple_16_A_b.gif","","","","",""
"","null","html-keyboard-response","24","154446","0.0-11.0-0.1","SS1618365993237","","","null","","","","","","<p><img src= images/blank.png width =""600"" height = ""600"" style=""position:fixed;top:50%; left:50%; transform: translate(-50%, -50%); border:5px solid black"">","","","","","","","",""
"","288.53499999968335","sequential-stimulus-presentation-old","25","155245","0.0-11.0-1.1","SS1618365993237","trial","","40","500","788.5349999996834","images/stimuli/spore_stims/simple_12_A_a.gif","images/stimuli/spore_stims/simple_16_A_b.gif","self_paced","","1","simple_dissimilar","images/stimuli/spore_stims/simple_16_A_b.gif","","","","",""
"","null","html-keyboard-response","26","156072","0.0-11.0-0.2","SS1618365993237","","","null","","","","","","<p><img src= images/blank.png width =""600"" height = ""600"" style=""position:fixed;top:50%; left:50%; transform: translate(-50%, -50%); border:5px solid black"">","","","","","","","",""
"","747.0350000003236","sequential-stimulus-presentation-old","27","157324","0.0-11.0-1.2","SS1618365993237","trial","","40","500","1247.0350000003236","images/stimuli/spore_stims/simple_12_A_a.gif","images/stimuli/spore_stims/simple_16_A_b.gif","self_paced","","1","simple_dissimilar","images/stimuli/spore_stims/simple_16_A_b.gif","","","","",""
"","null","html-keyboard-response","28","158207","0.0-11.0-0.3","SS1618365993237","","","null","","","","","","<p><img src= images/blank.png width =""600"" height = ""600"" style=""position:fixed;top:50%; left:50%; transform: translate(-50%, -50%); border:5px solid black"">","","","","","","","",""
"","1614.370000002964","sequential-stimulus-presentation-old","29","160325","0.0-11.0-1.3","SS1618365993237","trial","","40","500","2114.370000002964","images/stimuli/spore_stims/simple_12_A_a.gif","images/stimuli/spore_stims/simple_16_A_b.gif","self_paced","","1","simple_dissimilar","images/stimuli/spore_stims/simple_16_A_b.gif","","","","",""
"","null","html-keyboard-response","30","161381","0.0-11.0-0.4","SS1618365993237","","","null","","","","","","<p><img src= images/blank.png width =""600"" height = ""600"" style=""position:fixed;top:50%; left:50%; transform: translate(-50%, -50%); border:5px solid black"">","","","","","","","",""
"","128.48499999381602","sequential-stimulus-presentation-old","31","162020","0.0-11.0-1.4","SS1618365993237","trial","","40","500","628.484999993816","images/stimuli/spore_stims/simple_12_A_a.gif","images/stimuli/spore_stims/simple_16_A_b.gif","self_paced","","1","simple_dissimilar","images/stimuli/spore_stims/simple_16_A_b.gif","","","","",""
"","null","html-keyboard-response","32","162897","0.0-11.0-0.5","SS1618365993237","","","null","","","","","","<p><img src= images/blank.png width =""600"" height = ""600"" style=""position:fixed;top:50%; left:50%; transform: translate(-50%, -50%); border:5px solid black"">","","","","","","","",""
"","31.265000005078036","sequential-stimulus-presentation-old","33","163438","0.0-11.0-1.5","SS1618365993237","trial","","40","500","531.265000005078","images/stimuli/spore_stims/simple_12_A_a.gif","images/stimuli/spore_stims/simple_16_A_b.gif","self_paced","","1","simple_dissimilar","images/stimuli/spore_stims/simple_16_A_b.gif","","","","",""
"","2201.6749999966123","survey-multi-choice","34","165641","0.0-12.0","SS1618365993237","math_question","","","","","","","","","","","","{""Q0"":""6""}","[0]","6","",""
"","null","html-keyboard-response","35","166927","0.0-13.0-0.0","SS1618365993237","","","null","","","","","","<p><img src= images/blank.png width =""600"" height = ""600"" style=""position:fixed;top:50%; left:50%; transform: translate(-50%, -50%); border:5px solid black"">","","","","","","","",""
"","2670.685000004596","sequential-stimulus-presentation-old","36","174601","0.0-13.0-1.0","SS1618365993237","trial","","40","500","3170.685000004596","images/stimuli/spore_stims/simple_17_A_a.gif","images/stimuli/spore_stims/simple_15_A_b.gif","forced_long","","2","simple_dissimilar","images/stimuli/spore_stims/simple_15_A_b.gif","","","","",""
"","null","html-keyboard-response","37","175829","0.0-13.0-0.1","SS1618365993237","","","null","","","","","","<p><img src= images/blank.png width =""600"" height = ""600"" style=""position:fixed;top:50%; left:50%; transform: translate(-50%, -50%); border:5px solid black"">","","","","","","","",""
"","538.1249999991269","sequential-stimulus-presentation-old","38","176875","0.0-13.0-1.1","SS1618365993237","trial","","40","500","1038.1249999991269","images/stimuli/spore_stims/simple_17_A_a.gif","images/stimuli/spore_stims/simple_15_A_b.gif","forced_long","","2","simple_dissimilar","images/stimuli/spore_stims/simple_15_A_b.gif","","","","",""
"","null","html-keyboard-response","39","177815","0.0-13.0-0.2","SS1618365993237","","","null","","","","","","<p><img src= images/blank.png width =""600"" height = ""600"" style=""position:fixed;top:50%; left:50%; transform: translate(-50%, -50%); border:5px solid black"">","","","","","","","",""
"","172.25499999767635","sequential-stimulus-presentation-old","40","178489","0.0-13.0-1.2","SS1618365993237","trial","","40","500","672.2549999976764","images/stimuli/spore_stims/simple_17_A_a.gif","images/stimuli/spore_stims/simple_15_A_b.gif","forced_long","","2","simple_dissimilar","images/stimuli/spore_stims/simple_15_A_b.gif","","","","",""
"","null","html-keyboard-response","41","179593","0.0-13.0-0.3","SS1618365993237","","","null","","","","","","<p><img src= images/blank.png width =""600"" height = ""600"" style=""position:fixed;top:50%; left:50%; transform: translate(-50%, -50%); border:5px solid black"">","","","","","","","",""
"","51.330000002053566","sequential-stimulus-presentation-old","42","180150","0.0-13.0-1.3","SS1618365993237","trial","","40","500","551.3300000020536","images/stimuli/spore_stims/simple_17_A_a.gif","images/stimuli/spore_stims/simple_15_A_b.gif","forced_long","","2","simple_dissimilar","images/stimuli/spore_stims/simple_15_A_b.gif","","","","",""
"","null","html-keyboard-response","43","181387","0.0-13.0-0.4","SS1618365993237","","","null","","","","","","<p><img src= images/blank.png width =""600"" height = ""600"" style=""position:fixed;top:50%; left:50%; transform: translate(-50%, -50%); border:5px solid black"">","","","","","","","",""
"","41.25500000372995","sequential-stimulus-presentation-old","44","181931","0.0-13.0-1.4","SS1618365993237","trial","","40","500","541.25500000373","images/stimuli/spore_stims/simple_17_A_a.gif","images/stimuli/spore_stims/simple_15_A_b.gif","forced_long","","2","simple_dissimilar","images/stimuli/spore_stims/simple_15_A_b.gif","","","","",""
"","null","html-keyboard-response","45","182892","0.0-13.0-0.5","SS1618365993237","","","null","","","","","","<p><img src= images/blank.png width =""600"" height = ""600"" style=""position:fixed;top:50%; left:50%; transform: translate(-50%, -50%); border:5px solid black"">","","","","","","","",""
"","9.799999999813735","sequential-stimulus-presentation-old","46","183404","0.0-13.0-1.5","SS1618365993237","trial","","40","500","509.79999999981374","images/stimuli/spore_stims/simple_17_A_a.gif","images/stimuli/spore_stims/simple_15_A_b.gif","forced_long","","2","simple_dissimilar","images/stimuli/spore_stims/simple_15_A_b.gif","","","","",""
"","2301.964999998745","survey-multi-choice","47","185707","0.0-14.0","SS1618365993237","math_question","","","","","","","","","","","","{""Q0"":""11""}","[0]","11","",""
"","null","html-keyboard-response","48","186862","0.0-15.0-0.0","SS1618365993237","","","null","","","","","","<p><img src= images/blank.png width =""600"" height = ""600"" style=""position:fixed;top:50%; left:50%; transform: translate(-50%, -50%); border:5px solid black"">","","","","","","","",""
"","422.0900000000256","sequential-stimulus-presentation-old","49","187796","0.0-15.0-1.0","SS1618365993237","trial","","40","500","922.0900000000256","images/stimuli/spore_stims/simple_18_A_b.gif","images/stimuli/spore_stims/simple_01_A_a.gif","self_paced","","3","simple_dissimilar","images/stimuli/spore_stims/simple_01_A_a.gif","","","","",""
"","null","html-keyboard-response","50","189029","0.0-15.0-0.1","SS1618365993237","","","null","","","","","","<p><img src= images/blank.png width =""600"" height = ""600"" style=""position:fixed;top:50%; left:50%; transform: translate(-50%, -50%); border:5px solid black"">","","","","","","","",""
"","3126.0650000040187","sequential-stimulus-presentation-old","51","192658","0.0-15.0-1.1","SS1618365993237","trial","","40","500","3626.0650000040187","images/stimuli/spore_stims/simple_18_A_b.gif","images/stimuli/spore_stims/simple_01_A_a.gif","self_paced","","3","simple_dissimilar","images/stimuli/spore_stims/simple_18_A_b.gif","","","","",""
"","null","html-keyboard-response","52","193781","0.0-15.0-0.2","SS1618365993237","","","null","","","","","","<p><img src= images/blank.png width =""600"" height = ""600"" style=""position:fixed;top:50%; left:50%; transform: translate(-50%, -50%); border:5px solid black"">","","","","","","","",""
"","813.1450000000768","sequential-stimulus-presentation-old","53","195098","0.0-15.0-1.2","SS1618365993237","trial","","40","500","1313.1450000000768","images/stimuli/spore_stims/simple_18_A_b.gif","images/stimuli/spore_stims/simple_01_A_a.gif","self_paced","","3","simple_dissimilar","images/stimuli/spore_stims/simple_01_A_a.gif","","","","",""
"","null","html-keyboard-response","54","196296","0.0-15.0-0.3","SS1618365993237","","","null","","","","","","<p><img src= images/blank.png width =""600"" height = ""600"" style=""position:fixed;top:50%; left:50%; transform: translate(-50%, -50%); border:5px solid black"">","","","","","","","",""
"","438.93499999830965","sequential-stimulus-presentation-old","55","197244","0.0-15.0-1.3","SS1618365993237","trial","","40","500","938.9349999983096","images/stimuli/spore_stims/simple_18_A_b.gif","images/stimuli/spore_stims/simple_01_A_a.gif","self_paced","","3","simple_dissimilar","images/stimuli/spore_stims/simple_01_A_a.gif","","","","",""
"","null","html-keyboard-response","56","198515","0.0-15.0-0.4","SS1618365993237","","","null","","","","","","<p><img src= images/blank.png width =""600"" height = ""600"" style=""position:fixed;top:50%; left:50%; transform: translate(-50%, -50%); border:5px solid black"">","","","","","","","",""
"","318.77499999973224","sequential-stimulus-presentation-old","57","199346","0.0-15.0-1.4","SS1618365993237","trial","","40","500","818.7749999997322","images/stimuli/spore_stims/simple_18_A_b.gif","images/stimuli/spore_stims/simple_01_A_a.gif","self_paced","","3","simple_dissimilar","images/stimuli/spore_stims/simple_18_A_b.gif","","","","",""
"","null","html-keyboard-response","58","200622","0.0-15.0-0.5","SS1618365993237","","","null","","","","","","<p><img src= images/blank.png width =""600"" height = ""600"" style=""position:fixed;top:50%; left:50%; transform: translate(-50%, -50%); border:5px solid black"">","","","","","","","",""
"","542.7500000005239","sequential-stimulus-presentation-old","59","201675","0.0-15.0-1.5","SS1618365993237","trial","","40","500","1042.7500000005239","images/stimuli/spore_stims/simple_18_A_b.gif","images/stimuli/spore_stims/simple_01_A_a.gif","self_paced","","3","simple_dissimilar","images/stimuli/spore_stims/simple_01_A_a.gif","","","","",""
"","2164.6550000004936","survey-multi-choice","60","203841","0.0-16.0","SS1618365993237","math_question","","","","","","","","","","","","{""Q0"":""18""}","[0]","18","",""
"","null","html-keyboard-response","61","205126","0.0-17.0-0.0","SS1618365993237","","","null","","","","","","<p><img src= images/blank.png width =""600"" height = ""600"" style=""position:fixed;top:50%; left:50%; transform: translate(-50%, -50%); border:5px solid black"">","","","","","","","",""
"","495.04000000160886","sequential-stimulus-presentation-old","62","210631","0.0-17.0-1.0","SS1618365993237","trial","","40","500","995.0400000016089","images/stimuli/spore_stims/complex_19_A_a.gif","images/stimuli/spore_stims/complex_09_A_b.gif","forced_long","","4","complex_dissimilar","images/stimuli/spore_stims/complex_09_A_b.gif","","","","",""
"","null","html-keyboard-response","63","211672","0.0-17.0-0.1","SS1618365993237","","","null","","","","","","<p><img src= images/blank.png width =""600"" height = ""600"" style=""position:fixed;top:50%; left:50%; transform: translate(-50%, -50%); border:5px solid black"">","","","","","","","",""
"","721.9499999991967","sequential-stimulus-presentation-old","64","212905","0.0-17.0-1.1","SS1618365993237","trial","","40","500","1221.9499999991967","images/stimuli/spore_stims/complex_19_A_a.gif","images/stimuli/spore_stims/complex_09_A_b.gif","forced_long","","4","complex_dissimilar","images/stimuli/spore_stims/complex_09_A_b.gif","","","","",""
"","null","html-keyboard-response","65","214170","0.0-17.0-0.2","SS1618365993237","","","null","","","","","","<p><img src= images/blank.png width =""600"" height = ""600"" style=""position:fixed;top:50%; left:50%; transform: translate(-50%, -50%); border:5px solid black"">","","","","","","","",""
"","224.79500000190455","sequential-stimulus-presentation-old","66","214900","0.0-17.0-1.2","SS1618365993237","trial","","40","500","724.7950000019046","images/stimuli/spore_stims/complex_19_A_a.gif","images/stimuli/spore_stims/complex_09_A_b.gif","forced_long","","4","complex_dissimilar","images/stimuli/spore_stims/complex_09_A_b.gif","","","","",""
"","null","html-keyboard-response","67","215710","0.0-17.0-0.3","SS1618365993237","","","null","","","","","","<p><img src= images/blank.png width =""600"" height = ""600"" style=""position:fixed;top:50%; left:50%; transform: translate(-50%, -50%); border:5px solid black"">","","","","","","","",""
"","361.2399999983609","sequential-stimulus-presentation-old","68","216580","0.0-17.0-1.3","SS1618365993237","trial","","40","500","861.2399999983609","images/stimuli/spore_stims/complex_19_A_a.gif","images/stimuli/spore_stims/complex_09_A_b.gif","forced_long","","4","complex_dissimilar","images/stimuli/spore_stims/complex_09_A_b.gif","","","","",""
"","null","html-keyboard-response","69","217522","0.0-17.0-0.4","SS1618365993237","","","null","","","","","","<p><img src= images/blank.png width =""600"" height = ""600"" style=""position:fixed;top:50%; left:50%; transform: translate(-50%, -50%); border:5px solid black"">","","","","","","","",""
"","365.2250000013737","sequential-stimulus-presentation-old","70","218397","0.0-17.0-1.4","SS1618365993237","trial","","40","500","865.2250000013737","images/stimuli/spore_stims/complex_19_A_a.gif","images/stimuli/spore_stims/complex_09_A_b.gif","forced_long","","4","complex_dissimilar","images/stimuli/spore_stims/complex_09_A_b.gif","","","","",""
"","null","html-keyboard-response","71","219286","0.0-17.0-0.5","SS1618365993237","","","null","","","","","","<p><img src= images/blank.png width =""600"" height = ""600"" style=""position:fixed;top:50%; left:50%; transform: translate(-50%, -50%); border:5px solid black"">","","","","","","","",""
"","429.16999999579275","sequential-stimulus-presentation-old","72","220219","0.0-17.0-1.5","SS1618365993237","trial","","40","500","929.1699999957928","images/stimuli/spore_stims/complex_19_A_a.gif","images/stimuli/spore_stims/complex_09_A_b.gif","forced_long","","4","complex_dissimilar","images/stimuli/spore_stims/complex_09_A_b.gif","","","","",""
"","2538.39500000322","survey-multi-choice","73","222759","0.0-18.0","SS1618365993237","math_question","","","","","","","","","","","","{""Q0"":""10""}","[0]","10","",""
"","null","html-keyboard-response","74","223668","0.0-19.0-0.0","SS1618365993237","","","null","","","","","","<p><img src= images/blank.png width =""600"" height = ""600"" style=""position:fixed;top:50%; left:50%; transform: translate(-50%, -50%); border:5px solid black"">","","","","","","","",""
"","926.6500000012456","sequential-stimulus-presentation-old","75","224657","0.0-19.0-1.0","SS1618365993237","trial","","40","500","1426.6500000012456","images/stimuli/spore_stims/complex_13_A_a.gif","images/stimuli/spore_stims/complex_20_A_b.gif","forced_short","","5","complex_dissimilar","images/stimuli/spore_stims/complex_20_A_b.gif","","","","",""
"","null","html-keyboard-response","76","225479","0.0-19.0-0.1","SS1618365993237","","","null","","","","","","<p><img src= images/blank.png width =""600"" height = ""600"" style=""position:fixed;top:50%; left:50%; transform: translate(-50%, -50%); border:5px solid black"">","","","","","","","",""
"","1653.3699999999953","sequential-stimulus-presentation-old","77","227635","0.0-19.0-1.1","SS1618365993237","trial","","40","500","2153.3699999999953","images/stimuli/spore_stims/complex_13_A_a.gif","images/stimuli/spore_stims/complex_20_A_b.gif","forced_short","","5","complex_dissimilar","images/stimuli/spore_stims/complex_20_A_b.gif","","","","",""
"","null","html-keyboard-response","78","228781","0.0-19.0-0.2","SS1618365993237","","","null","","","","","","<p><img src= images/blank.png width =""600"" height = ""600"" style=""position:fixed;top:50%; left:50%; transform: translate(-50%, -50%); border:5px solid black"">","","","","","","","",""
"","515.079999997397","sequential-stimulus-presentation-old","79","229799","0.0-19.0-1.2","SS1618365993237","trial","","40","500","1015.079999997397","images/stimuli/spore_stims/complex_13_A_a.gif","images/stimuli/spore_stims/complex_20_A_b.gif","forced_short","","5","complex_dissimilar","images/stimuli/spore_stims/complex_20_A_b.gif","","","","",""
"","null","html-keyboard-response","80","230683","0.0-19.0-0.3","SS1618365993237","","","null","","","","","","<p><img src= images/blank.png width =""600"" height = ""600"" style=""position:fixed;top:50%; left:50%; transform: translate(-50%, -50%); border:5px solid black"">","","","","","","","",""
"","2882.4549999990268","sequential-stimulus-presentation-old","81","234071","0.0-19.0-1.3","SS1618365993237","trial","","40","500","3382.4549999990268","images/stimuli/spore_stims/complex_13_A_a.gif","images/stimuli/spore_stims/complex_20_A_b.gif","forced_short","","5","complex_dissimilar","images/stimuli/spore_stims/complex_13_A_a.gif","","","","",""
"","null","html-keyboard-response","82","235020","0.0-19.0-0.4","SS1618365993237","","","null","","","","","","<p><img src= images/blank.png width =""600"" height = ""600"" style=""position:fixed;top:50%; left:50%; transform: translate(-50%, -50%); border:5px solid black"">","","","","","","","",""
"","223.5450000007404","sequential-stimulus-presentation-old","83","235748","0.0-19.0-1.4","SS1618365993237","trial","","40","500","723.5450000007404","images/stimuli/spore_stims/complex_13_A_a.gif","images/stimuli/spore_stims/complex_20_A_b.gif","forced_short","","5","complex_dissimilar","images/stimuli/spore_stims/complex_20_A_b.gif","","","","",""
"","null","html-keyboard-response","84","236767","0.0-19.0-0.5","SS1618365993237","","","null","","","","","","<p><img src= images/blank.png width =""600"" height = ""600"" style=""position:fixed;top:50%; left:50%; transform: translate(-50%, -50%); border:5px solid black"">","","","","","","","",""
"","29.385000001639128","sequential-stimulus-presentation-old","85","237299","0.0-19.0-1.5","SS1618365993237","trial","","40","500","529.3850000016391","images/stimuli/spore_stims/complex_13_A_a.gif","images/stimuli/spore_stims/complex_20_A_b.gif","forced_short","","5","complex_dissimilar","images/stimuli/spore_stims/complex_20_A_b.gif","","","","",""
"","2375.1849999971455","survey-multi-choice","86","239676","0.0-20.0","SS1618365993237","math_question","","","","","","","","","","","","{""Q0"":""11""}","[0]","11","",""
"","null","html-keyboard-response","87","240504","0.0-21.0-0.0","SS1618365993237","","","null","","","","","","<p><img src= images/blank.png width =""600"" height = ""600"" style=""position:fixed;top:50%; left:50%; transform: translate(-50%, -50%); border:5px solid black"">","","","","","","","",""
"","657.084999998915","sequential-stimulus-presentation-old","88","241216","0.0-21.0-1.0","SS1618365993237","trial","","40","500","1157.084999998915","images/stimuli/spore_stims/simple_17_A_b.gif","images/stimuli/spore_stims/simple_02_A_a.gif","forced_short","","6","simple_dissimilar","images/stimuli/spore_stims/simple_02_A_a.gif","","","","",""
"","null","html-keyboard-response","89","242405","0.0-21.0-0.1","SS1618365993237","","","null","","","","","","<p><img src= images/blank.png width =""600"" height = ""600"" style=""position:fixed;top:50%; left:50%; transform: translate(-50%, -50%); border:5px solid black"">","","","","","","","",""
"","102.5050000025658","sequential-stimulus-presentation-old","90","243024","0.0-21.0-1.1","SS1618365993237","trial","","40","500","602.5050000025658","images/stimuli/spore_stims/simple_17_A_b.gif","images/stimuli/spore_stims/simple_02_A_a.gif","forced_short","","6","simple_dissimilar","images/stimuli/spore_stims/simple_17_A_b.gif","","","","",""
"","null","html-keyboard-response","91","243840","0.0-21.0-0.2","SS1618365993237","","","null","","","","","","<p><img src= images/blank.png width =""600"" height = ""600"" style=""position:fixed;top:50%; left:50%; transform: translate(-50%, -50%); border:5px solid black"">","","","","","","","",""
"","98.00499999983003","sequential-stimulus-presentation-old","92","244447","0.0-21.0-1.2","SS1618365993237","trial","","40","500","598.00499999983","images/stimuli/spore_stims/simple_17_A_b.gif","images/stimuli/spore_stims/simple_02_A_a.gif","forced_short","","6","simple_dissimilar","images/stimuli/spore_stims/simple_02_A_a.gif","","","","",""
"","null","html-keyboard-response","93","245357","0.0-21.0-0.3","SS1618365993237","","","null","","","","","","<p><img src= images/blank.png width =""600"" height = ""600"" style=""position:fixed;top:50%; left:50%; transform: translate(-50%, -50%); border:5px solid black"">","","","","","","","",""
"","25.85499999986496","sequential-stimulus-presentation-old","94","245896","0.0-21.0-1.3","SS1618365993237","trial","","40","500","525.854999999865","images/stimuli/spore_stims/simple_17_A_b.gif","images/stimuli/spore_stims/simple_02_A_a.gif","forced_short","","6","simple_dissimilar","images/stimuli/spore_stims/simple_02_A_a.gif","","","","",""
"","2314.8650000002817","survey-multi-choice","95","248212","0.0-22.0","SS1618365993237","math_question","","","","","","","","","","","","{""Q0"":""14""}","[0]","14","",""
"","null","html-keyboard-response","96","249247","0.0-23.0-0.0","SS1618365993237","","","null","","","","","","<p><img src= images/blank.png width =""600"" height = ""600"" style=""position:fixed;top:50%; left:50%; transform: translate(-50%, -50%); border:5px solid black"">","","","","","","","",""
"","276.5900000013062","sequential-stimulus-presentation-old","97","250027","0.0-23.0-1.0","SS1618365993237","trial","","40","500","776.5900000013062","images/stimuli/spore_stims/complex_02_A_a.gif","images/stimuli/spore_stims/complex_12_A_b.gif","self_paced","","7","complex_dissimilar","images/stimuli/spore_stims/complex_12_A_b.gif","","","","",""
"","null","html-keyboard-response","98","251100","0.0-23.0-0.1","SS1618365993237","","","null","","","","","","<p><img src= images/blank.png width =""600"" height = ""600"" style=""position:fixed;top:50%; left:50%; transform: translate(-50%, -50%); border:5px solid black"">","","","","","","","",""
"","343.0900000021211","sequential-stimulus-presentation-old","99","251948","0.0-23.0-1.1","SS1618365993237","trial","","40","500","843.0900000021211","images/stimuli/spore_stims/complex_02_A_a.gif","images/stimuli/spore_stims/complex_12_A_b.gif","self_paced","","7","complex_dissimilar","images/stimuli/spore_stims/complex_02_A_a.gif","","","","",""
"","null","html-keyboard-response","100","253067","0.0-23.0-0.2","SS1618365993237","","","null","","","","","","<p><img src= images/blank.png width =""600"" height = ""600"" style=""position:fixed;top:50%; left:50%; transform: translate(-50%, -50%); border:5px solid black"">","","","","","","","",""
"","229.4899999978952","sequential-stimulus-presentation-old","101","253800","0.0-23.0-1.2","SS1618365993237","trial","","40","500","729.4899999978952","images/stimuli/spore_stims/complex_02_A_a.gif","images/stimuli/spore_stims/complex_12_A_b.gif","self_paced","","7","complex_dissimilar","images/stimuli/spore_stims/complex_12_A_b.gif","","","","",""
"","null","html-keyboard-response","102","254899","0.0-23.0-0.3","SS1618365993237","","","null","","","","","","<p><img src= images/blank.png width =""600"" height = ""600"" style=""position:fixed;top:50%; left:50%; transform: translate(-50%, -50%); border:5px solid black"">","","","","","","","",""
"","143.90499999717576","sequential-stimulus-presentation-old","103","255546","0.0-23.0-1.3","SS1618365993237","trial","","40","500","643.9049999971758","images/stimuli/spore_stims/complex_02_A_a.gif","images/stimuli/spore_stims/complex_12_A_b.gif","self_paced","","7","complex_dissimilar","images/stimuli/spore_stims/complex_12_A_b.gif","","","","",""
"","null","html-keyboard-response","104","256805","0.0-23.0-0.4","SS1618365993237","","","null","","","","","","<p><img src= images/blank.png width =""600"" height = ""600"" style=""position:fixed;top:50%; left:50%; transform: translate(-50%, -50%); border:5px solid black"">","","","","","","","",""
"","272.3499999992782","sequential-stimulus-presentation-old","105","257581","0.0-23.0-1.4","SS1618365993237","trial","","40","500","772.3499999992782","images/stimuli/spore_stims/complex_02_A_a.gif","images/stimuli/spore_stims/complex_12_A_b.gif","self_paced","","7","complex_dissimilar","images/stimuli/spore_stims/complex_12_A_b.gif","","","","",""
"","1959.804999998596","survey-multi-choice","106","259543","0.0-24.0","SS1618365993237","math_question","","","","","","","","","","","","{""Q0"":""7""}","[0]","7","",""
"","null","html-keyboard-response","107","260594","0.0-25.0-0.0","SS1618365993237","","","null","","","","","","<p><img src= images/blank.png width =""600"" height = ""600"" style=""position:fixed;top:50%; left:50%; transform: translate(-50%, -50%); border:5px solid black"">","","","","","","","",""
"","839.0599999984261","sequential-stimulus-presentation-old","108","261486","0.0-25.0-1.0","SS1618365993237","trial","","40","500","1339.059999998426","images/stimuli/spore_stims/simple_02_A_b.gif","images/stimuli/spore_stims/simple_13_A_a.gif","forced_short","","8","simple_dissimilar","images/stimuli/spore_stims/simple_13_A_a.gif","","","","",""
"","null","html-keyboard-response","109","262575","0.0-25.0-0.1","SS1618365993237","","","null","","","","","","<p><img src= images/blank.png width =""600"" height = ""600"" style=""position:fixed;top:50%; left:50%; transform: translate(-50%, -50%); border:5px solid black"">","","","","","","","",""
"","1028.2900000020163","sequential-stimulus-presentation-old","110","264116","0.0-25.0-1.1","SS1618365993237","trial","","40","500","1528.2900000020163","images/stimuli/spore_stims/simple_02_A_b.gif","images/stimuli/spore_stims/simple_13_A_a.gif","forced_short","","8","simple_dissimilar","images/stimuli/spore_stims/simple_13_A_a.gif","","","","",""
"","null","html-keyboard-response","111","265250","0.0-25.0-0.2","SS1618365993237","","","null","","","","","","<p><img src= images/blank.png width =""600"" height = ""600"" style=""position:fixed;top:50%; left:50%; transform: translate(-50%, -50%); border:5px solid black"">","","","","","","","",""
"","169.81500000110827","sequential-stimulus-presentation-old","112","265922","0.0-25.0-1.2","SS1618365993237","trial","","40","500","669.8150000011083","images/stimuli/spore_stims/simple_02_A_b.gif","images/stimuli/spore_stims/simple_13_A_a.gif","forced_short","","8","simple_dissimilar","images/stimuli/spore_stims/simple_13_A_a.gif","","","","",""
"","null","html-keyboard-response","113","266795","0.0-25.0-0.3","SS1618365993237","","","null","","","","","","<p><img src= images/blank.png width =""600"" height = ""600"" style=""position:fixed;top:50%; left:50%; transform: translate(-50%, -50%); border:5px solid black"">","","","","","","","",""
"","348.0450000060955","sequential-stimulus-presentation-old","114","267646","0.0-25.0-1.3","SS1618365993237","trial","","40","500","848.0450000060955","images/stimuli/spore_stims/simple_02_A_b.gif","images/stimuli/spore_stims/simple_13_A_a.gif","forced_short","","8","simple_dissimilar","images/stimuli/spore_stims/simple_13_A_a.gif","","","","",""
"","null","html-keyboard-response","115","268823","0.0-25.0-0.4","SS1618365993237","","","null","","","","","","<p><img src= images/blank.png width =""600"" height = ""600"" style=""position:fixed;top:50%; left:50%; transform: translate(-50%, -50%); border:5px solid black"">","","","","","","","",""
"","244.76499999582302","sequential-stimulus-presentation-old","116","269577","0.0-25.0-1.4","SS1618365993237","trial","","40","500","744.764999995823","images/stimuli/spore_stims/simple_02_A_b.gif","images/stimuli/spore_stims/simple_13_A_a.gif","forced_short","","8","simple_dissimilar","images/stimuli/spore_stims/simple_13_A_a.gif","","","","",""
"","null","html-keyboard-response","117","270668","0.0-25.0-0.5","SS1618365993237","","","null","","","","","","<p><img src= images/blank.png width =""600"" height = ""600"" style=""position:fixed;top:50%; left:50%; transform: translate(-50%, -50%); border:5px solid black"">","","","","","","","",""
"","218.73999999661464","sequential-stimulus-presentation-old","118","271394","0.0-25.0-1.5","SS1618365993237","trial","","40","500","718.7399999966146","images/stimuli/spore_stims/simple_02_A_b.gif","images/stimuli/spore_stims/simple_13_A_a.gif","forced_short","","8","simple_dissimilar","images/stimuli/spore_stims/simple_13_A_a.gif","","","","",""
"","1713.5849999976926","survey-multi-choice","119","273109","0.0-26.0","SS1618365993237","math_question","","","","","","","","","","","","{""Q0"":""10""}","[0]","10","",""
"","null","html-keyboard-response","120","274253","0.0-27.0-0.0","SS1618365993237","","","null","","","","","","<p><img src= images/blank.png width =""600"" height = ""600"" style=""position:fixed;top:50%; left:50%; transform: translate(-50%, -50%); border:5px solid black"">","","","","","","","",""
"","369.2550000050687","sequential-stimulus-presentation-old","121","279627","0.0-27.0-1.0","SS1618365993237","trial","","40","500","869.2550000050687","images/stimuli/spore_stims/complex_16_A_b.gif","images/stimuli/spore_stims/complex_15_A_a.gif","forced_long","","9","complex_dissimilar","images/stimuli/spore_stims/complex_15_A_a.gif","","","","",""
"","null","html-keyboard-response","122","280874","0.0-27.0-0.1","SS1618365993237","","","null","","","","","","<p><img src= images/blank.png width =""600"" height = ""600"" style=""position:fixed;top:50%; left:50%; transform: translate(-50%, -50%); border:5px solid black"">","","","","","","","",""
"","758.7449999991804","sequential-stimulus-presentation-old","123","282137","0.0-27.0-1.1","SS1618365993237","trial","","40","500","1258.7449999991804","images/stimuli/spore_stims/complex_16_A_b.gif","images/stimuli/spore_stims/complex_15_A_a.gif","forced_long","","9","complex_dissimilar","images/stimuli/spore_stims/complex_15_A_a.gif","","","","",""
"","null","html-keyboard-response","124","283245","0.0-27.0-0.2","SS1618365993237","","","null","","","","","","<p><img src= images/blank.png width =""600"" height = ""600"" style=""position:fixed;top:50%; left:50%; transform: translate(-50%, -50%); border:5px solid black"">","","","","","","","",""
"","1.9400000019231811","sequential-stimulus-presentation-old","125","283749","0.0-27.0-1.2","SS1618365993237","trial","","40","500","501.9400000019232","images/stimuli/spore_stims/complex_16_A_b.gif","images/stimuli/spore_stims/complex_15_A_a.gif","forced_long","","9","complex_dissimilar","images/stimuli/spore_stims/complex_16_A_b.gif","","","","",""
"","null","html-keyboard-response","126","284622","0.0-27.0-0.3","SS1618365993237","","","null","","","","","","<p><img src= images/blank.png width =""600"" height = ""600"" style=""position:fixed;top:50%; left:50%; transform: translate(-50%, -50%); border:5px solid black"">","","","","","","","",""
"","14.794999995501712","sequential-stimulus-presentation-old","127","285141","0.0-27.0-1.3","SS1618365993237","trial","","40","500","514.7949999955017","images/stimuli/spore_stims/complex_16_A_b.gif","images/stimuli/spore_stims/complex_15_A_a.gif","forced_long","","9","complex_dissimilar","images/stimuli/spore_stims/complex_16_A_b.gif","","","","",""
"","1573.90000000305","survey-multi-choice","128","286717","0.0-28.0","SS1618365993237","math_question","","","","","","","","","","","","{""Q0"":""14""}","[0]","14","",""
"","null","html-keyboard-response","129","287820","0.0-29.0-0.0","SS1618365993237","","","null","","","","","","<p><img src= images/blank.png width =""600"" height = ""600"" style=""position:fixed;top:50%; left:50%; transform: translate(-50%, -50%); border:5px solid black"">","","","","","","","",""
"","387.16500000009546","sequential-stimulus-presentation-old","130","288261","0.0-29.0-1.0","SS1618365993237","trial","","40","500","887.1650000000955","images/stimuli/spore_stims/complex_14_A_b.gif","images/stimuli/spore_stims/complex_16_A_a.gif","forced_short","","10","complex_dissimilar","images/stimuli/spore_stims/complex_16_A_a.gif","","","","",""
"","null","html-keyboard-response","131","289280","0.0-29.0-0.1","SS1618365993237","","","null","","","","","","<p><img src= images/blank.png width =""600"" height = ""600"" style=""position:fixed;top:50%; left:50%; transform: translate(-50%, -50%); border:5px solid black"">","","","","","","","",""
"","528.9100000009057","sequential-stimulus-presentation-old","132","290311","0.0-29.0-1.1","SS1618365993237","trial","","40","500","1028.9100000009057","images/stimuli/spore_stims/complex_14_A_b.gif","images/stimuli/spore_stims/complex_16_A_a.gif","forced_short","","10","complex_dissimilar","images/stimuli/spore_stims/complex_16_A_a.gif","","","","",""
"","null","html-keyboard-response","133","291375","0.0-29.0-0.2","SS1618365993237","","","null","","","","","","<p><img src= images/blank.png width =""600"" height = ""600"" style=""position:fixed;top:50%; left:50%; transform: translate(-50%, -50%); border:5px solid black"">","","","","","","","",""
"","368.51000000024214","sequential-stimulus-presentation-old","134","292247","0.0-29.0-1.2","SS1618365993237","trial","","40","500","868.5100000002421","images/stimuli/spore_stims/complex_14_A_b.gif","images/stimuli/spore_stims/complex_16_A_a.gif","forced_short","","10","complex_dissimilar","images/stimuli/spore_stims/complex_16_A_a.gif","","","","",""
"","null","html-keyboard-response","135","293483","0.0-29.0-0.3","SS1618365993237","","","null","","","","","","<p><img src= images/blank.png width =""600"" height = ""600"" style=""position:fixed;top:50%; left:50%; transform: translate(-50%, -50%); border:5px solid black"">","","","","","","","",""
"","405.0149999966379","sequential-stimulus-presentation-old","136","294395","0.0-29.0-1.3","SS1618365993237","trial","","40","500","905.0149999966379","images/stimuli/spore_stims/complex_14_A_b.gif","images/stimuli/spore_stims/complex_16_A_a.gif","forced_short","","10","complex_dissimilar","images/stimuli/spore_stims/complex_14_A_b.gif","","","","",""
"","null","html-keyboard-response","137","295608","0.0-29.0-0.4","SS1618365993237","","","null","","","","","","<p><img src= images/blank.png width =""600"" height = ""600"" style=""position:fixed;top:50%; left:50%; transform: translate(-50%, -50%); border:5px solid black"">","","","","","","","",""
"","1252.9450000001816","sequential-stimulus-presentation-old","138","297375","0.0-29.0-1.4","SS1618365993237","trial","","40","500","1752.9450000001816","images/stimuli/spore_stims/complex_14_A_b.gif","images/stimuli/spore_stims/complex_16_A_a.gif","forced_short","","10","complex_dissimilar","images/stimuli/spore_stims/complex_14_A_b.gif","","","","",""
"","1989.354999997886","survey-multi-choice","139","299366","0.0-30.0","SS1618365993237","math_question","","","","","","","","","","","","{""Q0"":""11""}","[0]","11","",""
"","null","html-keyboard-response","140","300503","0.0-31.0-0.0","SS1618365993237","","","null","","","","","","<p><img src= images/blank.png width =""600"" height = ""600"" style=""position:fixed;top:50%; left:50%; transform: translate(-50%, -50%); border:5px solid black"">","","","","","","","",""
"","310.31000000075437","sequential-stimulus-presentation-old","141","305818","0.0-31.0-1.0","SS1618365993237","trial","","40","500","810.3100000007544","images/stimuli/spore_stims/simple_01_A_b.gif","images/stimuli/spore_stims/simple_15_A_a.gif","forced_long","","11","simple_dissimilar","images/stimuli/spore_stims/simple_15_A_a.gif","","","","",""
"","null","html-keyboard-response","142","306672","0.0-31.0-0.1","SS1618365993237","","","null","","","","","","<p><img src= images/blank.png width =""600"" height = ""600"" style=""position:fixed;top:50%; left:50%; transform: translate(-50%, -50%); border:5px solid black"">","","","","","","","",""
"","37.94000000198139","sequential-stimulus-presentation-old","143","307215","0.0-31.0-1.1","SS1618365993237","trial","","40","500","537.9400000019814","images/stimuli/spore_stims/simple_01_A_b.gif","images/stimuli/spore_stims/simple_15_A_a.gif","forced_long","","11","simple_dissimilar","images/stimuli/spore_stims/simple_01_A_b.gif","","","","",""
"","null","html-keyboard-response","144","308027","0.0-31.0-0.2","SS1618365993237","","","null","","","","","","<p><img src= images/blank.png width =""600"" height = ""600"" style=""position:fixed;top:50%; left:50%; transform: translate(-50%, -50%); border:5px solid black"">","","","","","","","",""
"","664.665000003879","sequential-stimulus-presentation-old","145","309196","0.0-31.0-1.2","SS1618365993237","trial","","40","500","1164.665000003879","images/stimuli/spore_stims/simple_01_A_b.gif","images/stimuli/spore_stims/simple_15_A_a.gif","forced_long","","11","simple_dissimilar","images/stimuli/spore_stims/simple_15_A_a.gif","","","","",""
"","null","html-keyboard-response","146","310388","0.0-31.0-0.3","SS1618365993237","","","null","","","","","","<p><img src= images/blank.png width =""600"" height = ""600"" style=""position:fixed;top:50%; left:50%; transform: translate(-50%, -50%); border:5px solid black"">","","","","","","","",""
"","157.59499999694526","sequential-stimulus-presentation-old","147","311048","0.0-31.0-1.3","SS1618365993237","trial","","40","500","657.5949999969453","images/stimuli/spore_stims/simple_01_A_b.gif","images/stimuli/spore_stims/simple_15_A_a.gif","forced_long","","11","simple_dissimilar","images/stimuli/spore_stims/simple_15_A_a.gif","","","","",""
"","null","html-keyboard-response","148","311921","0.0-31.0-0.4","SS1618365993237","","","null","","","","","","<p><img src= images/blank.png width =""600"" height = ""600"" style=""position:fixed;top:50%; left:50%; transform: translate(-50%, -50%); border:5px solid black"">","","","","","","","",""
"","54.62500000430737","sequential-stimulus-presentation-old","149","312480","0.0-31.0-1.4","SS1618365993237","trial","","40","500","554.6250000043074","images/stimuli/spore_stims/simple_01_A_b.gif","images/stimuli/spore_stims/simple_15_A_a.gif","forced_long","","11","simple_dissimilar","images/stimuli/spore_stims/simple_01_A_b.gif","","","","",""
"[{""page_index"":0,""viewing_time"":4615.36999999953}]","4615.584999999555","instructions","150","317097","0.0-32.0","SS1618365993237","instructions","","","","","","","","","","","","","","","",""
"","5184.5049999974435","survey-likert","151","322285","0.0-33.0","SS1618365993237","similarity_question","","","","","","","","","","","","{""Q0"":5}","[0]","","images/stimuli/spore_stims/simple_02_A_b.gif","images/stimuli/spore_stims/simple_13_A_a.gif"
"","2041.2950000027195","survey-likert","152","324332","0.0-34.0","SS1618365993237","similarity_question","","","","","","","","","","","","{""Q0"":5}","[0]","","images/stimuli/spore_stims/simple_01_A_b.gif","images/stimuli/spore_stims/simple_15_A_a.gif"
"","7156.5799999953015","survey-likert","153","331494","0.0-35.0","SS1618365993237","similarity_question","","","","","","","","","","","","{""Q0"":1}","[0]","","images/stimuli/spore_stims/complex_13_A_a.gif","images/stimuli/spore_stims/complex_20_A_b.gif"
"","2722.540000002482","survey-likert","154","334221","0.0-36.0","SS1618365993237","similarity_question","","","","","","","","","","","","{""Q0"":1}","[0]","","images/stimuli/spore_stims/complex_09_A_b.gif","images/stimuli/spore_stims/complex_19_A_a.gif"
"","2245.9000000017113","survey-likert","155","336474","0.0-37.0","SS1618365993237","similarity_question","","","","","","","","","","","","{""Q0"":4}","[0]","","images/stimuli/spore_stims/simple_15_A_b.gif","images/stimuli/spore_stims/simple_17_A_a.gif"
"","4110.849999997299","survey-likert","156","340590","0.0-38.0","SS1618365993237","similarity_question","","","","","","","","","","","","{""Q0"":0}","[0]","","images/stimuli/spore_stims/complex_16_A_b.gif","images/stimuli/spore_stims/complex_15_A_a.gif"
"","2290.545000003476","survey-likert","157","342886","0.0-39.0","SS1618365993237","similarity_question","","","","","","","","","","","","{""Q0"":0}","[0]","","images/stimuli/spore_stims/complex_02_A_a.gif","images/stimuli/spore_stims/complex_12_A_b.gif"
"","2129.8099999985425","survey-likert","158","345021","0.0-40.0","SS1618365993237","similarity_question","","","","","","","","","","","","{""Q0"":4}","[0]","","images/stimuli/spore_stims/simple_02_A_a.gif","images/stimuli/spore_stims/simple_17_A_b.gif"
"","3661.1849999972037","survey-likert","159","348688","0.0-41.0","SS1618365993237","similarity_question","","","","","","","","","","","","{""Q0"":2}","[0]","","images/stimuli/spore_stims/complex_10_A_b.gif","images/stimuli/spore_stims/complex_14_A_a.gif"
"","3255.7449999949313","survey-likert","160","351950","0.0-42.0","SS1618365993237","similarity_question","","","","","","","","","","","","{""Q0"":3}","[0]","","images/stimuli/spore_stims/simple_01_A_a.gif","images/stimuli/spore_stims/simple_18_A_b.gif"
"","2168.1450000032783","survey-likert","161","354124","0.0-43.0","SS1618365993237","similarity_question","","","","","","","","","","","","{""Q0"":3}","[0]","","images/stimuli/spore_stims/simple_12_A_a.gif","images/stimuli/spore_stims/simple_16_A_b.gif"
"","2801.77000000549","survey-likert","162","356932","0.0-44.0","SS1618365993237","similarity_question","","","","","","","","","","","","{""Q0"":0}","[0]","","images/stimuli/spore_stims/complex_14_A_b.gif","images/stimuli/spore_stims/complex_16_A_a.gif"
"[{""page_index"":0,""viewing_time"":3772.884999998496}]","3773.2649999961723","instructions","163","360710","0.0-45.0","SS1618365993237","instructions","","","","","","","","","","","","","","","",""
"","3771.119999997609","survey-likert","164","364484","0.0-46.0","SS1618365993237","","","","","","","","","images/stimuli/spore_stims/simple_17_A_b.gif","","","","{""Q0"":1}","[0]","","",""
"","3139.455000004091","survey-likert","165","367629","0.0-47.0","SS1618365993237","","","","","","","","","images/stimuli/spore_stims/complex_16_A_a.gif","","","","{""Q0"":5}","[0]","","",""
"","2410.1249999948777","survey-likert","166","370045","0.0-48.0","SS1618365993237","","","","","","","","","images/stimuli/spore_stims/simple_17_A_a.gif","","","","{""Q0"":1}","[0]","","",""
"","2108.0799999981537","survey-likert","167","372158","0.0-49.0","SS1618365993237","","","","","","","","","images/stimuli/spore_stims/complex_15_A_a.gif","","","","{""Q0"":4}","[0]","","",""
"","2272.63999999559","survey-likert","168","374436","0.0-50.0","SS1618365993237","","","","","","","","","images/stimuli/spore_stims/simple_15_A_a.gif","","","","{""Q0"":0}","[0]","","",""
"","2619.3050000001676","survey-likert","169","377062","0.0-51.0","SS1618365993237","","","","","","","","","images/stimuli/spore_stims/complex_09_A_b.gif","","","","{""Q0"":4}","[0]","","",""
"","1910.600000002887","survey-likert","170","378978","0.0-52.0","SS1618365993237","","","","","","","","","images/stimuli/spore_stims/simple_12_A_a.gif","","","","{""Q0"":1}","[0]","","",""
"","3909.2599999930826","survey-likert","171","382892","0.0-53.0","SS1618365993237","","","","","","","","","images/stimuli/spore_stims/complex_14_A_a.gif","","","","{""Q0"":5}","[0]","","",""
"","2975.800000000163","survey-likert","172","385873","0.0-54.0","SS1618365993237","","","","","","","","","images/stimuli/spore_stims/complex_20_A_b.gif","","","","{""Q0"":5}","[0]","","",""
"","2096.850000001723","survey-likert","173","387976","0.0-55.0","SS1618365993237","","","","","","","","","images/stimuli/spore_stims/complex_02_A_a.gif","","","","{""Q0"":4}","[0]","","",""
"","1938.7799999967683","survey-likert","174","389921","0.0-56.0","SS1618365993237","","","","","","","","","images/stimuli/spore_stims/simple_01_A_a.gif","","","","{""Q0"":0}","[0]","","",""
"","3031.7749999958323","survey-likert","175","392959","0.0-57.0","SS1618365993237","","","","","","","","","images/stimuli/spore_stims/simple_13_A_a.gif","","","","{""Q0"":0}","[0]","","",""
"[{""page_index"":0,""viewing_time"":1683.405000003404}]","1683.629999999539","instructions","176","394648","0.0-58.0","SS1618365993237","instructions","","","","","","","","","","","","","","","",""
"","2298.9349999988917","demog-age","177","396952","0.0-59.0","SS1618365993237","","","","","","","","","","","","","{""age"":""19""}","","","",""
"","4612.554999999702","demog-ethnic-US","178","401570","0.0-60.0","SS1618365993237","","","","","","","","","","","","","{""ethnicity"":[""White""]}","[0]","","",""
"","19098.710000005667","demog-gender-and-education","179","420675","0.0-61.0","SS1618365993237","","","","","","","","","","","","","{""gender"":""Male"",""education"":""Other""}","[0,1]","","",""
"","13959.524999998393","survey-text","180","434642","0.0-62.0","SS1618365993237","feedback","","","","","","","","","","","","{""Q0"":""Everything was fine""}","","","",""
"[{""page_index"":0,""viewing_time"":1694.6000000025379}]","1694.904999996652","instructions","181","436340","0.0-63.0","SS1618365993237","instructions","","","","","","","","","","","","","","","",""
