"view_history","rt","trial_type","trial_index","time_elapsed","internal_node_id","subject","stimulus_type","trial_stimulus","key_press","minimum_viewing_duration","trial_looking_time","block_deviant","block_background","exposure_type","stimulus","block_number","block_type","stimulus_displayed","responses","question_order","math_correct_answer","stimulus_left","stimulus_right"
"[{""page_index"":0,""viewing_time"":2743.5900000855327}]","2743.8000002875924","instructions","0","2744","0.0-0.0","SS1618365562889","","","","","","","","","","","","","","","","",""
"[{""page_index"":0,""viewing_time"":2084.834999870509},{""page_index"":1,""viewing_time"":5837.065000087023}]","7922.059999778867","instructions","1","13310","0.0-1.0","SS1618365562889","instructions","","","","","","","","","","","","","","","",""
"","6330.075000412762","sequential-stimulus-presentation-old","2","20152","0.0-2.0","SS1618365562889","","","40","500","6830.075000412762","null","null","self_paced","","","","","","","","",""
"","4773.369999602437","sequential-stimulus-presentation-old","3","25426","0.0-3.0","SS1618365562889","","","40","500","5273.369999602437","null","null","self_paced","","","","","","","","",""
"[{""page_index"":0,""viewing_time"":9788.389999885112}]","9788.559999782592","instructions","4","35216","0.0-4.0","SS1618365562889","instructions","","","","","","","","","","","","","","","",""
"","1368.300000205636","sequential-stimulus-presentation-old","5","41587","0.0-5.0","SS1618365562889","","","40","500","1868.300000205636","null","null","forced_long","","","","","","","","",""
"","10347.644999623299","sequential-stimulus-presentation-old","6","51995","0.0-6.0","SS1618365562889","","","40","50","10397.644999623299","null","null","forced_long","","","","","","","","",""
"[{""page_index"":0,""viewing_time"":1849.1949997842312}]","1849.320000037551","instructions","7","53845","0.0-7.0","SS1618365562889","instructions","","","","","","","","","","","","","","","",""
"[{""page_index"":0,""viewing_time"":1005.3650001063943},{""page_index"":1,""viewing_time"":2063.0499999970198},{""page_index"":2,""viewing_time"":1228.9049997925758},{""page_index"":3,""viewing_time"":1775.1199998892844},{""page_index"":4,""viewing_time"":966.990000102669}]","7039.580000098795","instructions","8","60885","0.0-8.0","SS1618365562889","instructions","","","","","","","","","","","","","","","",""
"","null","html-keyboard-response","9","62083","0.0-9.0-0.0","SS1618365562889","","","null","","","","","","<p><img src= images/blank.png width =""600"" height = ""600"" style=""position:fixed;top:50%; left:50%; transform: translate(-50%, -50%); border:5px solid black"">","","","","","","","",""
"","28459.695000201464","sequential-stimulus-presentation-old","10","91051","0.0-9.0-1.0","SS1618365562889","trial","","40","500","28959.695000201464","images/stimuli/spore_stims/complex_12_A_a.gif","images/stimuli/spore_stims/complex_19_A_b.gif","self_paced","","0","complex_dissimilar","images/stimuli/spore_stims/complex_19_A_b.gif","","","","",""
"","null","html-keyboard-response","11","91897","0.0-9.0-0.1","SS1618365562889","","","null","","","","","","<p><img src= images/blank.png width =""600"" height = ""600"" style=""position:fixed;top:50%; left:50%; transform: translate(-50%, -50%); border:5px solid black"">","","","","","","","",""
"","2704.949999693781","sequential-stimulus-presentation-old","12","95114","0.0-9.0-1.1","SS1618365562889","trial","","40","500","3204.949999693781","images/stimuli/spore_stims/complex_12_A_a.gif","images/stimuli/spore_stims/complex_19_A_b.gif","self_paced","","0","complex_dissimilar","images/stimuli/spore_stims/complex_19_A_b.gif","","","","",""
"","null","html-keyboard-response","13","95947","0.0-9.0-0.2","SS1618365562889","","","null","","","","","","<p><img src= images/blank.png width =""600"" height = ""600"" style=""position:fixed;top:50%; left:50%; transform: translate(-50%, -50%); border:5px solid black"">","","","","","","","",""
"","927.8600001707673","sequential-stimulus-presentation-old","14","97378","0.0-9.0-1.2","SS1618365562889","trial","","40","500","1427.8600001707673","images/stimuli/spore_stims/complex_12_A_a.gif","images/stimuli/spore_stims/complex_19_A_b.gif","self_paced","","0","complex_dissimilar","images/stimuli/spore_stims/complex_19_A_b.gif","","","","",""
"","null","html-keyboard-response","15","98597","0.0-9.0-0.3","SS1618365562889","","","null","","","","","","<p><img src= images/blank.png width =""600"" height = ""600"" style=""position:fixed;top:50%; left:50%; transform: translate(-50%, -50%); border:5px solid black"">","","","","","","","",""
"","194.64999996125698","sequential-stimulus-presentation-old","16","99306","0.0-9.0-1.3","SS1618365562889","trial","","40","500","694.649999961257","images/stimuli/spore_stims/complex_12_A_a.gif","images/stimuli/spore_stims/complex_19_A_b.gif","self_paced","","0","complex_dissimilar","images/stimuli/spore_stims/complex_19_A_b.gif","","","","",""
"","null","html-keyboard-response","17","100480","0.0-9.0-0.4","SS1618365562889","","","null","","","","","","<p><img src= images/blank.png width =""600"" height = ""600"" style=""position:fixed;top:50%; left:50%; transform: translate(-50%, -50%); border:5px solid black"">","","","","","","","",""
"","433.51999996230006","sequential-stimulus-presentation-old","18","101427","0.0-9.0-1.4","SS1618365562889","trial","","40","500","933.5199999623001","images/stimuli/spore_stims/complex_12_A_a.gif","images/stimuli/spore_stims/complex_19_A_b.gif","self_paced","","0","complex_dissimilar","images/stimuli/spore_stims/complex_19_A_b.gif","","","","",""
"","null","html-keyboard-response","19","102251","0.0-9.0-0.5","SS1618365562889","","","null","","","","","","<p><img src= images/blank.png width =""600"" height = ""600"" style=""position:fixed;top:50%; left:50%; transform: translate(-50%, -50%); border:5px solid black"">","","","","","","","",""
"","358.52500004693866","sequential-stimulus-presentation-old","20","103123","0.0-9.0-1.5","SS1618365562889","trial","","40","500","858.5250000469387","images/stimuli/spore_stims/complex_12_A_a.gif","images/stimuli/spore_stims/complex_19_A_b.gif","self_paced","","0","complex_dissimilar","images/stimuli/spore_stims/complex_19_A_b.gif","","","","",""
"","4083.9149998500943","survey-multi-choice","21","107208","0.0-10.0","SS1618365562889","math_question","","","","","","","","","","","","{""Q0"":""7""}","[0]","7","",""
"","null","html-keyboard-response","22","108370","0.0-11.0-0.0","SS1618365562889","","","null","","","","","","<p><img src= images/blank.png width =""600"" height = ""600"" style=""position:fixed;top:50%; left:50%; transform: translate(-50%, -50%); border:5px solid black"">","","","","","","","",""
"","11227.115000132471","sequential-stimulus-presentation-old","23","120099","0.0-11.0-1.0","SS1618365562889","trial","","40","500","11727.115000132471","images/stimuli/spore_stims/simple_04_A_b.gif","images/stimuli/spore_stims/simple_14_A_a.gif","self_paced","","1","simple_dissimilar","images/stimuli/spore_stims/simple_14_A_a.gif","","","","",""
"","null","html-keyboard-response","24","121245","0.0-11.0-0.1","SS1618365562889","","","null","","","","","","<p><img src= images/blank.png width =""600"" height = ""600"" style=""position:fixed;top:50%; left:50%; transform: translate(-50%, -50%); border:5px solid black"">","","","","","","","",""
"","456.2900001183152","sequential-stimulus-presentation-old","25","122210","0.0-11.0-1.1","SS1618365562889","trial","","40","500","956.2900001183152","images/stimuli/spore_stims/simple_04_A_b.gif","images/stimuli/spore_stims/simple_14_A_a.gif","self_paced","","1","simple_dissimilar","images/stimuli/spore_stims/simple_14_A_a.gif","","","","",""
"","null","html-keyboard-response","26","123343","0.0-11.0-0.2","SS1618365562889","","","null","","","","","","<p><img src= images/blank.png width =""600"" height = ""600"" style=""position:fixed;top:50%; left:50%; transform: translate(-50%, -50%); border:5px solid black"">","","","","","","","",""
"","581.6000001505017","sequential-stimulus-presentation-old","27","124426","0.0-11.0-1.2","SS1618365562889","trial","","40","500","1081.6000001505017","images/stimuli/spore_stims/simple_04_A_b.gif","images/stimuli/spore_stims/simple_14_A_a.gif","self_paced","","1","simple_dissimilar","images/stimuli/spore_stims/simple_04_A_b.gif","","","","",""
"","null","html-keyboard-response","28","125532","0.0-11.0-0.3","SS1618365562889","","","null","","","","","","<p><img src= images/blank.png width =""600"" height = ""600"" style=""position:fixed;top:50%; left:50%; transform: translate(-50%, -50%); border:5px solid black"">","","","","","","","",""
"","110.88000005111098","sequential-stimulus-presentation-old","29","126155","0.0-11.0-1.3","SS1618365562889","trial","","40","500","610.880000051111","images/stimuli/spore_stims/simple_04_A_b.gif","images/stimuli/spore_stims/simple_14_A_a.gif","self_paced","","1","simple_dissimilar","images/stimuli/spore_stims/simple_14_A_a.gif","","","","",""
"","null","html-keyboard-response","30","126992","0.0-11.0-0.4","SS1618365562889","","","null","","","","","","<p><img src= images/blank.png width =""600"" height = ""600"" style=""position:fixed;top:50%; left:50%; transform: translate(-50%, -50%); border:5px solid black"">","","","","","","","",""
"","0.2849996089935303","sequential-stimulus-presentation-old","31","127499","0.0-11.0-1.4","SS1618365562889","trial","","40","500","500.28499960899353","images/stimuli/spore_stims/simple_04_A_b.gif","images/stimuli/spore_stims/simple_14_A_a.gif","self_paced","","1","simple_dissimilar","images/stimuli/spore_stims/simple_04_A_b.gif","","","","",""
"","3329.2450001463294","survey-multi-choice","32","130829","0.0-12.0","SS1618365562889","math_question","","","","","","","","","","","","{""Q0"":""12""}","[0]","12","",""
"","null","html-keyboard-response","33","131726","0.0-13.0-0.0","SS1618365562889","","","null","","","","","","<p><img src= images/blank.png width =""600"" height = ""600"" style=""position:fixed;top:50%; left:50%; transform: translate(-50%, -50%); border:5px solid black"">","","","","","","","",""
"","11725.924999918789","sequential-stimulus-presentation-old","34","143515","0.0-13.0-1.0","SS1618365562889","trial","","40","500","12225.924999918789","images/stimuli/spore_stims/complex_20_A_b.gif","images/stimuli/spore_stims/complex_16_A_a.gif","forced_short","","2","complex_dissimilar","images/stimuli/spore_stims/complex_16_A_a.gif","","","","",""
"","null","html-keyboard-response","35","144760","0.0-13.0-0.1","SS1618365562889","","","null","","","","","","<p><img src= images/blank.png width =""600"" height = ""600"" style=""position:fixed;top:50%; left:50%; transform: translate(-50%, -50%); border:5px solid black"">","","","","","","","",""
"","26.08500001952052","sequential-stimulus-presentation-old","36","145299","0.0-13.0-1.1","SS1618365562889","trial","","40","500","526.0850000195205","images/stimuli/spore_stims/complex_20_A_b.gif","images/stimuli/spore_stims/complex_16_A_a.gif","forced_short","","2","complex_dissimilar","images/stimuli/spore_stims/complex_20_A_b.gif","","","","",""
"","null","html-keyboard-response","37","146576","0.0-13.0-0.2","SS1618365562889","","","null","","","","","","<p><img src= images/blank.png width =""600"" height = ""600"" style=""position:fixed;top:50%; left:50%; transform: translate(-50%, -50%); border:5px solid black"">","","","","","","","",""
"","283.89500034973025","sequential-stimulus-presentation-old","38","147370","0.0-13.0-1.2","SS1618365562889","trial","","40","500","783.8950003497303","images/stimuli/spore_stims/complex_20_A_b.gif","images/stimuli/spore_stims/complex_16_A_a.gif","forced_short","","2","complex_dissimilar","images/stimuli/spore_stims/complex_16_A_a.gif","","","","",""
"","null","html-keyboard-response","39","148592","0.0-13.0-0.3","SS1618365562889","","","null","","","","","","<p><img src= images/blank.png width =""600"" height = ""600"" style=""position:fixed;top:50%; left:50%; transform: translate(-50%, -50%); border:5px solid black"">","","","","","","","",""
"","292.820000089705","sequential-stimulus-presentation-old","40","149395","0.0-13.0-1.3","SS1618365562889","trial","","40","500","792.820000089705","images/stimuli/spore_stims/complex_20_A_b.gif","images/stimuli/spore_stims/complex_16_A_a.gif","forced_short","","2","complex_dissimilar","images/stimuli/spore_stims/complex_16_A_a.gif","","","","",""
"","2601.2300001457334","survey-multi-choice","41","151997","0.0-14.0","SS1618365562889","math_question","","","","","","","","","","","","{""Q0"":""13""}","[0]","13","",""
"","null","html-keyboard-response","42","153218","0.0-15.0-0.0","SS1618365562889","","","null","","","","","","<p><img src= images/blank.png width =""600"" height = ""600"" style=""position:fixed;top:50%; left:50%; transform: translate(-50%, -50%); border:5px solid black"">","","","","","","","",""
"","8066.9499998912215","sequential-stimulus-presentation-old","43","161347","0.0-15.0-1.0","SS1618365562889","trial","","40","500","8566.949999891222","images/stimuli/spore_stims/simple_02_A_b.gif","images/stimuli/spore_stims/simple_04_A_a.gif","forced_short","","3","simple_dissimilar","images/stimuli/spore_stims/simple_04_A_a.gif","","","","",""
"","null","html-keyboard-response","44","162446","0.0-15.0-0.1","SS1618365562889","","","null","","","","","","<p><img src= images/blank.png width =""600"" height = ""600"" style=""position:fixed;top:50%; left:50%; transform: translate(-50%, -50%); border:5px solid black"">","","","","","","","",""
"","508.17999988794327","sequential-stimulus-presentation-old","45","163458","0.0-15.0-1.1","SS1618365562889","trial","","40","500","1008.1799998879433","images/stimuli/spore_stims/simple_02_A_b.gif","images/stimuli/spore_stims/simple_04_A_a.gif","forced_short","","3","simple_dissimilar","images/stimuli/spore_stims/simple_02_A_b.gif","","","","",""
"","null","html-keyboard-response","46","164600","0.0-15.0-0.2","SS1618365562889","","","null","","","","","","<p><img src= images/blank.png width =""600"" height = ""600"" style=""position:fixed;top:50%; left:50%; transform: translate(-50%, -50%); border:5px solid black"">","","","","","","","",""
"","273.9249998703599","sequential-stimulus-presentation-old","47","165386","0.0-15.0-1.2","SS1618365562889","trial","","40","500","773.9249998703599","images/stimuli/spore_stims/simple_02_A_b.gif","images/stimuli/spore_stims/simple_04_A_a.gif","forced_short","","3","simple_dissimilar","images/stimuli/spore_stims/simple_02_A_b.gif","","","","",""
"","null","html-keyboard-response","48","166387","0.0-15.0-0.3","SS1618365562889","","","null","","","","","","<p><img src= images/blank.png width =""600"" height = ""600"" style=""position:fixed;top:50%; left:50%; transform: translate(-50%, -50%); border:5px solid black"">","","","","","","","",""
"","382.36499996855855","sequential-stimulus-presentation-old","49","167282","0.0-15.0-1.3","SS1618365562889","trial","","40","500","882.3649999685585","images/stimuli/spore_stims/simple_02_A_b.gif","images/stimuli/spore_stims/simple_04_A_a.gif","forced_short","","3","simple_dissimilar","images/stimuli/spore_stims/simple_04_A_a.gif","","","","",""
"","null","html-keyboard-response","50","168315","0.0-15.0-0.4","SS1618365562889","","","null","","","","","","<p><img src= images/blank.png width =""600"" height = ""600"" style=""position:fixed;top:50%; left:50%; transform: translate(-50%, -50%); border:5px solid black"">","","","","","","","",""
"","161.21000004932284","sequential-stimulus-presentation-old","51","168986","0.0-15.0-1.4","SS1618365562889","trial","","40","500","661.2100000493228","images/stimuli/spore_stims/simple_02_A_b.gif","images/stimuli/spore_stims/simple_04_A_a.gif","forced_short","","3","simple_dissimilar","images/stimuli/spore_stims/simple_04_A_a.gif","","","","",""
"","2899.249999783933","survey-multi-choice","52","171886","0.0-16.0","SS1618365562889","math_question","","","","","","","","","","","","{""Q0"":""9""}","[0]","9","",""
"","null","html-keyboard-response","53","173177","0.0-17.0-0.0","SS1618365562889","","","null","","","","","","<p><img src= images/blank.png width =""600"" height = ""600"" style=""position:fixed;top:50%; left:50%; transform: translate(-50%, -50%); border:5px solid black"">","","","","","","","",""
"","1452.9599999077618","sequential-stimulus-presentation-old","54","174682","0.0-17.0-1.0","SS1618365562889","trial","","40","500","1952.9599999077618","images/stimuli/spore_stims/simple_20_A_b.gif","images/stimuli/spore_stims/simple_05_A_a.gif","forced_short","","4","simple_dissimilar","images/stimuli/spore_stims/simple_05_A_a.gif","","","","",""
"","null","html-keyboard-response","55","175852","0.0-17.0-0.1","SS1618365562889","","","null","","","","","","<p><img src= images/blank.png width =""600"" height = ""600"" style=""position:fixed;top:50%; left:50%; transform: translate(-50%, -50%); border:5px solid black"">","","","","","","","",""
"","87.99999998882413","sequential-stimulus-presentation-old","56","176442","0.0-17.0-1.1","SS1618365562889","trial","","40","500","587.9999999888241","images/stimuli/spore_stims/simple_20_A_b.gif","images/stimuli/spore_stims/simple_05_A_a.gif","forced_short","","4","simple_dissimilar","images/stimuli/spore_stims/simple_05_A_a.gif","","","","",""
"","null","html-keyboard-response","57","177622","0.0-17.0-0.2","SS1618365562889","","","null","","","","","","<p><img src= images/blank.png width =""600"" height = ""600"" style=""position:fixed;top:50%; left:50%; transform: translate(-50%, -50%); border:5px solid black"">","","","","","","","",""
"","240.06999982520938","sequential-stimulus-presentation-old","58","178370","0.0-17.0-1.2","SS1618365562889","trial","","40","500","740.0699998252094","images/stimuli/spore_stims/simple_20_A_b.gif","images/stimuli/spore_stims/simple_05_A_a.gif","forced_short","","4","simple_dissimilar","images/stimuli/spore_stims/simple_05_A_a.gif","","","","",""
"","null","html-keyboard-response","59","179178","0.0-17.0-0.3","SS1618365562889","","","null","","","","","","<p><img src= images/blank.png width =""600"" height = ""600"" style=""position:fixed;top:50%; left:50%; transform: translate(-50%, -50%); border:5px solid black"">","","","","","","","",""
"","170.03499995917082","sequential-stimulus-presentation-old","60","179850","0.0-17.0-1.3","SS1618365562889","trial","","40","500","670.0349999591708","images/stimuli/spore_stims/simple_20_A_b.gif","images/stimuli/spore_stims/simple_05_A_a.gif","forced_short","","4","simple_dissimilar","images/stimuli/spore_stims/simple_05_A_a.gif","","","","",""
"","2666.854999959469","survey-multi-choice","61","182518","0.0-18.0","SS1618365562889","math_question","","","","","","","","","","","","{""Q0"":""14""}","[0]","14","",""
"","null","html-keyboard-response","62","183716","0.0-19.0-0.0","SS1618365562889","","","null","","","","","","<p><img src= images/blank.png width =""600"" height = ""600"" style=""position:fixed;top:50%; left:50%; transform: translate(-50%, -50%); border:5px solid black"">","","","","","","","",""
"","4316.025000065565","sequential-stimulus-presentation-old","63","193034","0.0-19.0-1.0","SS1618365562889","trial","","40","500","4816.025000065565","images/stimuli/spore_stims/simple_06_A_a.gif","images/stimuli/spore_stims/simple_09_A_b.gif","forced_long","","5","simple_dissimilar","images/stimuli/spore_stims/simple_09_A_b.gif","","","","",""
"","null","html-keyboard-response","64","194074","0.0-19.0-0.1","SS1618365562889","","","null","","","","","","<p><img src= images/blank.png width =""600"" height = ""600"" style=""position:fixed;top:50%; left:50%; transform: translate(-50%, -50%); border:5px solid black"">","","","","","","","",""
"","77.92000006884336","sequential-stimulus-presentation-old","65","194666","0.0-19.0-1.1","SS1618365562889","trial","","40","500","577.9200000688434","images/stimuli/spore_stims/simple_06_A_a.gif","images/stimuli/spore_stims/simple_09_A_b.gif","forced_long","","5","simple_dissimilar","images/stimuli/spore_stims/simple_09_A_b.gif","","","","",""
"","null","html-keyboard-response","66","195969","0.0-19.0-0.2","SS1618365562889","","","null","","","","","","<p><img src= images/blank.png width =""600"" height = ""600"" style=""position:fixed;top:50%; left:50%; transform: translate(-50%, -50%); border:5px solid black"">","","","","","","","",""
"","58.7550001218915","sequential-stimulus-presentation-old","67","196530","0.0-19.0-1.2","SS1618365562889","trial","","40","500","558.7550001218915","images/stimuli/spore_stims/simple_06_A_a.gif","images/stimuli/spore_stims/simple_09_A_b.gif","forced_long","","5","simple_dissimilar","images/stimuli/spore_stims/simple_06_A_a.gif","","","","",""
"","null","html-keyboard-response","68","197820","0.0-19.0-0.3","SS1618365562889","","","null","","","","","","<p><img src= images/blank.png width =""600"" height = ""600"" style=""position:fixed;top:50%; left:50%; transform: translate(-50%, -50%); border:5px solid black"">","","","","","","","",""
"","644.85999988392","sequential-stimulus-presentation-old","69","198978","0.0-19.0-1.3","SS1618365562889","trial","","40","500","1144.85999988392","images/stimuli/spore_stims/simple_06_A_a.gif","images/stimuli/spore_stims/simple_09_A_b.gif","forced_long","","5","simple_dissimilar","images/stimuli/spore_stims/simple_09_A_b.gif","","","","",""
"","null","html-keyboard-response","70","200151","0.0-19.0-0.4","SS1618365562889","","","null","","","","","","<p><img src= images/blank.png width =""600"" height = ""600"" style=""position:fixed;top:50%; left:50%; transform: translate(-50%, -50%); border:5px solid black"">","","","","","","","",""
"","176.92499980330467","sequential-stimulus-presentation-old","71","200842","0.0-19.0-1.4","SS1618365562889","trial","","40","500","676.9249998033047","images/stimuli/spore_stims/simple_06_A_a.gif","images/stimuli/spore_stims/simple_09_A_b.gif","forced_long","","5","simple_dissimilar","images/stimuli/spore_stims/simple_06_A_a.gif","","","","",""
"","3435.910000000149","survey-multi-choice","72","204280","0.0-20.0","SS1618365562889","math_question","","","","","","","","","","","","{""Q0"":""10""}","[0]","10","",""
"","null","html-keyboard-response","73","205512","0.0-21.0-0.0","SS1618365562889","","","null","","","","","","<p><img src= images/blank.png width =""600"" height = ""600"" style=""position:fixed;top:50%; left:50%; transform: translate(-50%, -50%); border:5px solid black"">","","","","","","","",""
"","168.95999992266297","sequential-stimulus-presentation-old","74","210698","0.0-21.0-1.0","SS1618365562889","trial","","40","500","668.959999922663","images/stimuli/spore_stims/simple_12_A_b.gif","images/stimuli/spore_stims/simple_09_A_a.gif","forced_long","","6","simple_dissimilar","images/stimuli/spore_stims/simple_09_A_a.gif","","","","",""
"","null","html-keyboard-response","75","211581","0.0-21.0-0.1","SS1618365562889","","","null","","","","","","<p><img src= images/blank.png width =""600"" height = ""600"" style=""position:fixed;top:50%; left:50%; transform: translate(-50%, -50%); border:5px solid black"">","","","","","","","",""
"","69.30999970063567","sequential-stimulus-presentation-old","76","212162","0.0-21.0-1.1","SS1618365562889","trial","","40","500","569.3099997006357","images/stimuli/spore_stims/simple_12_A_b.gif","images/stimuli/spore_stims/simple_09_A_a.gif","forced_long","","6","simple_dissimilar","images/stimuli/spore_stims/simple_09_A_a.gif","","","","",""
"","null","html-keyboard-response","77","213368","0.0-21.0-0.2","SS1618365562889","","","null","","","","","","<p><img src= images/blank.png width =""600"" height = ""600"" style=""position:fixed;top:50%; left:50%; transform: translate(-50%, -50%); border:5px solid black"">","","","","","","","",""
"","340.4199997894466","sequential-stimulus-presentation-old","78","214210","0.0-21.0-1.2","SS1618365562889","trial","","40","500","840.4199997894466","images/stimuli/spore_stims/simple_12_A_b.gif","images/stimuli/spore_stims/simple_09_A_a.gif","forced_long","","6","simple_dissimilar","images/stimuli/spore_stims/simple_09_A_a.gif","","","","",""
"","null","html-keyboard-response","79","215511","0.0-21.0-0.3","SS1618365562889","","","null","","","","","","<p><img src= images/blank.png width =""600"" height = ""600"" style=""position:fixed;top:50%; left:50%; transform: translate(-50%, -50%); border:5px solid black"">","","","","","","","",""
"","282.0350001566112","sequential-stimulus-presentation-old","80","216306","0.0-21.0-1.3","SS1618365562889","trial","","40","500","782.0350001566112","images/stimuli/spore_stims/simple_12_A_b.gif","images/stimuli/spore_stims/simple_09_A_a.gif","forced_long","","6","simple_dissimilar","images/stimuli/spore_stims/simple_09_A_a.gif","","","","",""
"","3632.9850000329316","survey-multi-choice","81","219941","0.0-22.0","SS1618365562889","math_question","","","","","","","","","","","","{""Q0"":""12""}","[0]","12","",""
"","null","html-keyboard-response","82","220748","0.0-23.0-0.0","SS1618365562889","","","null","","","","","","<p><img src= images/blank.png width =""600"" height = ""600"" style=""position:fixed;top:50%; left:50%; transform: translate(-50%, -50%); border:5px solid black"">","","","","","","","",""
"","492.9499998688698","sequential-stimulus-presentation-old","83","226251","0.0-23.0-1.0","SS1618365562889","trial","","40","500","992.9499998688698","images/stimuli/spore_stims/complex_17_A_a.gif","images/stimuli/spore_stims/complex_04_A_b.gif","forced_long","","7","complex_dissimilar","images/stimuli/spore_stims/complex_04_A_b.gif","","","","",""
"","null","html-keyboard-response","84","227107","0.0-23.0-0.1","SS1618365562889","","","null","","","","","","<p><img src= images/blank.png width =""600"" height = ""600"" style=""position:fixed;top:50%; left:50%; transform: translate(-50%, -50%); border:5px solid black"">","","","","","","","",""
"","65.82999974489212","sequential-stimulus-presentation-old","85","227683","0.0-23.0-1.1","SS1618365562889","trial","","40","500","565.8299997448921","images/stimuli/spore_stims/complex_17_A_a.gif","images/stimuli/spore_stims/complex_04_A_b.gif","forced_long","","7","complex_dissimilar","images/stimuli/spore_stims/complex_04_A_b.gif","","","","",""
"","null","html-keyboard-response","86","228812","0.0-23.0-0.2","SS1618365562889","","","null","","","","","","<p><img src= images/blank.png width =""600"" height = ""600"" style=""position:fixed;top:50%; left:50%; transform: translate(-50%, -50%); border:5px solid black"">","","","","","","","",""
"","501.674999948591","sequential-stimulus-presentation-old","87","229827","0.0-23.0-1.2","SS1618365562889","trial","","40","500","1001.674999948591","images/stimuli/spore_stims/complex_17_A_a.gif","images/stimuli/spore_stims/complex_04_A_b.gif","forced_long","","7","complex_dissimilar","images/stimuli/spore_stims/complex_04_A_b.gif","","","","",""
"","null","html-keyboard-response","88","230664","0.0-23.0-0.3","SS1618365562889","","","null","","","","","","<p><img src= images/blank.png width =""600"" height = ""600"" style=""position:fixed;top:50%; left:50%; transform: translate(-50%, -50%); border:5px solid black"">","","","","","","","",""
"","227.3049997165799","sequential-stimulus-presentation-old","89","231403","0.0-23.0-1.3","SS1618365562889","trial","","40","500","727.3049997165799","images/stimuli/spore_stims/complex_17_A_a.gif","images/stimuli/spore_stims/complex_04_A_b.gif","forced_long","","7","complex_dissimilar","images/stimuli/spore_stims/complex_04_A_b.gif","","","","",""
"","3439.959999639541","survey-multi-choice","90","234844","0.0-24.0","SS1618365562889","math_question","","","","","","","","","","","","{""Q0"":""11""}","[0]","11","",""
"","null","html-keyboard-response","91","235841","0.0-25.0-0.0","SS1618365562889","","","null","","","","","","<p><img src= images/blank.png width =""600"" height = ""600"" style=""position:fixed;top:50%; left:50%; transform: translate(-50%, -50%); border:5px solid black"">","","","","","","","",""
"","706.2750002369285","sequential-stimulus-presentation-old","92","236611","0.0-25.0-1.0","SS1618365562889","trial","","40","500","1206.2750002369285","images/stimuli/spore_stims/complex_02_A_a.gif","images/stimuli/spore_stims/complex_08_A_b.gif","forced_short","","8","complex_dissimilar","images/stimuli/spore_stims/complex_08_A_b.gif","","","","",""
"","null","html-keyboard-response","93","237691","0.0-25.0-0.1","SS1618365562889","","","null","","","","","","<p><img src= images/blank.png width =""600"" height = ""600"" style=""position:fixed;top:50%; left:50%; transform: translate(-50%, -50%); border:5px solid black"">","","","","","","","",""
"","166.2600003182888","sequential-stimulus-presentation-old","94","238371","0.0-25.0-1.1","SS1618365562889","trial","","40","500","666.2600003182888","images/stimuli/spore_stims/complex_02_A_a.gif","images/stimuli/spore_stims/complex_08_A_b.gif","forced_short","","8","complex_dissimilar","images/stimuli/spore_stims/complex_08_A_b.gif","","","","",""
"","null","html-keyboard-response","95","239446","0.0-25.0-0.2","SS1618365562889","","","null","","","","","","<p><img src= images/blank.png width =""600"" height = ""600"" style=""position:fixed;top:50%; left:50%; transform: translate(-50%, -50%); border:5px solid black"">","","","","","","","",""
"","367.02000023797154","sequential-stimulus-presentation-old","96","240315","0.0-25.0-1.2","SS1618365562889","trial","","40","500","867.0200002379715","images/stimuli/spore_stims/complex_02_A_a.gif","images/stimuli/spore_stims/complex_08_A_b.gif","forced_short","","8","complex_dissimilar","images/stimuli/spore_stims/complex_08_A_b.gif","","","","",""
"","null","html-keyboard-response","97","241481","0.0-25.0-0.3","SS1618365562889","","","null","","","","","","<p><img src= images/blank.png width =""600"" height = ""600"" style=""position:fixed;top:50%; left:50%; transform: translate(-50%, -50%); border:5px solid black"">","","","","","","","",""
"","172.04999970272183","sequential-stimulus-presentation-old","98","242155","0.0-25.0-1.3","SS1618365562889","trial","","40","500","672.0499997027218","images/stimuli/spore_stims/complex_02_A_a.gif","images/stimuli/spore_stims/complex_08_A_b.gif","forced_short","","8","complex_dissimilar","images/stimuli/spore_stims/complex_08_A_b.gif","","","","",""
"","null","html-keyboard-response","99","243423","0.0-25.0-0.4","SS1618365562889","","","null","","","","","","<p><img src= images/blank.png width =""600"" height = ""600"" style=""position:fixed;top:50%; left:50%; transform: translate(-50%, -50%); border:5px solid black"">","","","","","","","",""
"","70.12500008568168","sequential-stimulus-presentation-old","100","243995","0.0-25.0-1.4","SS1618365562889","trial","","40","500","570.1250000856817","images/stimuli/spore_stims/complex_02_A_a.gif","images/stimuli/spore_stims/complex_08_A_b.gif","forced_short","","8","complex_dissimilar","images/stimuli/spore_stims/complex_08_A_b.gif","","","","",""
"","null","html-keyboard-response","101","245223","0.0-25.0-0.5","SS1618365562889","","","null","","","","","","<p><img src= images/blank.png width =""600"" height = ""600"" style=""position:fixed;top:50%; left:50%; transform: translate(-50%, -50%); border:5px solid black"">","","","","","","","",""
"","253.08499997481704","sequential-stimulus-presentation-old","102","245979","0.0-25.0-1.5","SS1618365562889","trial","","40","500","753.084999974817","images/stimuli/spore_stims/complex_02_A_a.gif","images/stimuli/spore_stims/complex_08_A_b.gif","forced_short","","8","complex_dissimilar","images/stimuli/spore_stims/complex_02_A_a.gif","","","","",""
"","3214.15500016883","survey-multi-choice","103","249195","0.0-26.0","SS1618365562889","math_question","","","","","","","","","","","","{""Q0"":""10""}","[0]","10","",""
"","null","html-keyboard-response","104","250405","0.0-27.0-0.0","SS1618365562889","","","null","","","","","","<p><img src= images/blank.png width =""600"" height = ""600"" style=""position:fixed;top:50%; left:50%; transform: translate(-50%, -50%); border:5px solid black"">","","","","","","","",""
"","230.61500024050474","sequential-stimulus-presentation-old","105","251147","0.0-27.0-1.0","SS1618365562889","trial","","40","500","730.6150002405047","images/stimuli/spore_stims/simple_15_A_a.gif","images/stimuli/spore_stims/simple_01_A_b.gif","self_paced","","9","simple_dissimilar","images/stimuli/spore_stims/simple_01_A_b.gif","","","","",""
"","null","html-keyboard-response","106","252379","0.0-27.0-0.1","SS1618365562889","","","null","","","","","","<p><img src= images/blank.png width =""600"" height = ""600"" style=""position:fixed;top:50%; left:50%; transform: translate(-50%, -50%); border:5px solid black"">","","","","","","","",""
"","217.44999988004565","sequential-stimulus-presentation-old","107","253099","0.0-27.0-1.1","SS1618365562889","trial","","40","500","717.4499998800457","images/stimuli/spore_stims/simple_15_A_a.gif","images/stimuli/spore_stims/simple_01_A_b.gif","self_paced","","9","simple_dissimilar","images/stimuli/spore_stims/simple_01_A_b.gif","","","","",""
"","null","html-keyboard-response","108","253904","0.0-27.0-0.2","SS1618365562889","","","null","","","","","","<p><img src= images/blank.png width =""600"" height = ""600"" style=""position:fixed;top:50%; left:50%; transform: translate(-50%, -50%); border:5px solid black"">","","","","","","","",""
"","83.81999982520938","sequential-stimulus-presentation-old","109","254499","0.0-27.0-1.2","SS1618365562889","trial","","40","500","583.8199998252094","images/stimuli/spore_stims/simple_15_A_a.gif","images/stimuli/spore_stims/simple_01_A_b.gif","self_paced","","9","simple_dissimilar","images/stimuli/spore_stims/simple_15_A_a.gif","","","","",""
"","null","html-keyboard-response","110","255363","0.0-27.0-0.3","SS1618365562889","","","null","","","","","","<p><img src= images/blank.png width =""600"" height = ""600"" style=""position:fixed;top:50%; left:50%; transform: translate(-50%, -50%); border:5px solid black"">","","","","","","","",""
"","70.64500031992793","sequential-stimulus-presentation-old","111","255939","0.0-27.0-1.3","SS1618365562889","trial","","40","500","570.6450003199279","images/stimuli/spore_stims/simple_15_A_a.gif","images/stimuli/spore_stims/simple_01_A_b.gif","self_paced","","9","simple_dissimilar","images/stimuli/spore_stims/simple_01_A_b.gif","","","","",""
"","3069.8899999260902","survey-multi-choice","112","259010","0.0-28.0","SS1618365562889","math_question","","","","","","","","","","","","{""Q0"":""8""}","[0]","8","",""
"","null","html-keyboard-response","113","260269","0.0-29.0-0.0","SS1618365562889","","","null","","","","","","<p><img src= images/blank.png width =""600"" height = ""600"" style=""position:fixed;top:50%; left:50%; transform: translate(-50%, -50%); border:5px solid black"">","","","","","","","",""
"","95.78499989584088","sequential-stimulus-presentation-old","114","260875","0.0-29.0-1.0","SS1618365562889","trial","","40","500","595.7849998958409","images/stimuli/spore_stims/complex_06_A_b.gif","images/stimuli/spore_stims/complex_09_A_a.gif","self_paced","","10","complex_dissimilar","images/stimuli/spore_stims/complex_09_A_a.gif","","","","",""
"","null","html-keyboard-response","115","261867","0.0-29.0-0.1","SS1618365562889","","","null","","","","","","<p><img src= images/blank.png width =""600"" height = ""600"" style=""position:fixed;top:50%; left:50%; transform: translate(-50%, -50%); border:5px solid black"">","","","","","","","",""
"","81.56999992206693","sequential-stimulus-presentation-old","116","262459","0.0-29.0-1.1","SS1618365562889","trial","","40","500","581.5699999220669","images/stimuli/spore_stims/complex_06_A_b.gif","images/stimuli/spore_stims/complex_09_A_a.gif","self_paced","","10","complex_dissimilar","images/stimuli/spore_stims/complex_09_A_a.gif","","","","",""
"","null","html-keyboard-response","117","263512","0.0-29.0-0.2","SS1618365562889","","","null","","","","","","<p><img src= images/blank.png width =""600"" height = ""600"" style=""position:fixed;top:50%; left:50%; transform: translate(-50%, -50%); border:5px solid black"">","","","","","","","",""
"","71.88000017777085","sequential-stimulus-presentation-old","118","264091","0.0-29.0-1.2","SS1618365562889","trial","","40","500","571.8800001777709","images/stimuli/spore_stims/complex_06_A_b.gif","images/stimuli/spore_stims/complex_09_A_a.gif","self_paced","","10","complex_dissimilar","images/stimuli/spore_stims/complex_09_A_a.gif","","","","",""
"","null","html-keyboard-response","119","265201","0.0-29.0-0.3","SS1618365562889","","","null","","","","","","<p><img src= images/blank.png width =""600"" height = ""600"" style=""position:fixed;top:50%; left:50%; transform: translate(-50%, -50%); border:5px solid black"">","","","","","","","",""
"","72.63500010594726","sequential-stimulus-presentation-old","120","265787","0.0-29.0-1.3","SS1618365562889","trial","","40","500","572.6350001059473","images/stimuli/spore_stims/complex_06_A_b.gif","images/stimuli/spore_stims/complex_09_A_a.gif","self_paced","","10","complex_dissimilar","images/stimuli/spore_stims/complex_09_A_a.gif","","","","",""
"","5695.514999795705","survey-multi-choice","121","271484","0.0-30.0","SS1618365562889","math_question","","","","","","","","","","","","{""Q0"":""11""}","[0]","12","",""
"","null","html-keyboard-response","122","272366","0.0-31.0-0.0","SS1618365562889","","","null","","","","","","<p><img src= images/blank.png width =""600"" height = ""600"" style=""position:fixed;top:50%; left:50%; transform: translate(-50%, -50%); border:5px solid black"">","","","","","","","",""
"","3034.605000168085","sequential-stimulus-presentation-old","123","280419","0.0-31.0-1.0","SS1618365562889","trial","","40","500","3534.605000168085","images/stimuli/spore_stims/complex_04_A_a.gif","images/stimuli/spore_stims/complex_07_A_b.gif","forced_long","","11","complex_dissimilar","images/stimuli/spore_stims/complex_07_A_b.gif","","","","",""
"","null","html-keyboard-response","124","281657","0.0-31.0-0.1","SS1618365562889","","","null","","","","","","<p><img src= images/blank.png width =""600"" height = ""600"" style=""position:fixed;top:50%; left:50%; transform: translate(-50%, -50%); border:5px solid black"">","","","","","","","",""
"","150.0399997457862","sequential-stimulus-presentation-old","125","282323","0.0-31.0-1.1","SS1618365562889","trial","","40","500","650.0399997457862","images/stimuli/spore_stims/complex_04_A_a.gif","images/stimuli/spore_stims/complex_07_A_b.gif","forced_long","","11","complex_dissimilar","images/stimuli/spore_stims/complex_07_A_b.gif","","","","",""
"","null","html-keyboard-response","126","283152","0.0-31.0-0.2","SS1618365562889","","","null","","","","","","<p><img src= images/blank.png width =""600"" height = ""600"" style=""position:fixed;top:50%; left:50%; transform: translate(-50%, -50%); border:5px solid black"">","","","","","","","",""
"","265.03000035881996","sequential-stimulus-presentation-old","127","283931","0.0-31.0-1.2","SS1618365562889","trial","","40","500","765.03000035882","images/stimuli/spore_stims/complex_04_A_a.gif","images/stimuli/spore_stims/complex_07_A_b.gif","forced_long","","11","complex_dissimilar","images/stimuli/spore_stims/complex_07_A_b.gif","","","","",""
"","null","html-keyboard-response","128","285171","0.0-31.0-0.3","SS1618365562889","","","null","","","","","","<p><img src= images/blank.png width =""600"" height = ""600"" style=""position:fixed;top:50%; left:50%; transform: translate(-50%, -50%); border:5px solid black"">","","","","","","","",""
"","254.67999977990985","sequential-stimulus-presentation-old","129","285939","0.0-31.0-1.3","SS1618365562889","trial","","40","500","754.6799997799098","images/stimuli/spore_stims/complex_04_A_a.gif","images/stimuli/spore_stims/complex_07_A_b.gif","forced_long","","11","complex_dissimilar","images/stimuli/spore_stims/complex_07_A_b.gif","","","","",""
"","null","html-keyboard-response","130","286911","0.0-31.0-0.4","SS1618365562889","","","null","","","","","","<p><img src= images/blank.png width =""600"" height = ""600"" style=""position:fixed;top:50%; left:50%; transform: translate(-50%, -50%); border:5px solid black"">","","","","","","","",""
"","163.65000000223517","sequential-stimulus-presentation-old","131","287579","0.0-31.0-1.4","SS1618365562889","trial","","40","500","663.6500000022352","images/stimuli/spore_stims/complex_04_A_a.gif","images/stimuli/spore_stims/complex_07_A_b.gif","forced_long","","11","complex_dissimilar","images/stimuli/spore_stims/complex_04_A_a.gif","","","","",""
"[{""page_index"":0,""viewing_time"":2593.8050001859665}]","2594.000000040978","instructions","132","290174","0.0-32.0","SS1618365562889","instructions","","","","","","","","","","","","","","","",""
"","6355.955000035465","survey-likert","133","296533","0.0-33.0","SS1618365562889","similarity_question","","","","","","","","","","","","{""Q0"":1}","[0]","","images/stimuli/spore_stims/complex_16_A_a.gif","images/stimuli/spore_stims/complex_20_A_b.gif"
"","4003.7249997258186","survey-likert","134","300538","0.0-34.0","SS1618365562889","similarity_question","","","","","","","","","","","","{""Q0"":4}","[0]","","images/stimuli/spore_stims/simple_04_A_b.gif","images/stimuli/spore_stims/simple_14_A_a.gif"
"","2923.739999998361","survey-likert","135","303464","0.0-35.0","SS1618365562889","similarity_question","","","","","","","","","","","","{""Q0"":5}","[0]","","images/stimuli/spore_stims/simple_06_A_a.gif","images/stimuli/spore_stims/simple_09_A_b.gif"
"","2641.42999984324","survey-likert","136","306108","0.0-36.0","SS1618365562889","similarity_question","","","","","","","","","","","","{""Q0"":6}","[0]","","images/stimuli/spore_stims/simple_12_A_b.gif","images/stimuli/spore_stims/simple_09_A_a.gif"
"","6309.330000076443","survey-likert","137","312419","0.0-37.0","SS1618365562889","similarity_question","","","","","","","","","","","","{""Q0"":1}","[0]","","images/stimuli/spore_stims/complex_08_A_b.gif","images/stimuli/spore_stims/complex_02_A_a.gif"
"","3755.7999999262393","survey-likert","138","316177","0.0-38.0","SS1618365562889","similarity_question","","","","","","","","","","","","{""Q0"":5}","[0]","","images/stimuli/spore_stims/simple_01_A_b.gif","images/stimuli/spore_stims/simple_15_A_a.gif"
"","3915.8999999053776","survey-likert","139","320095","0.0-39.0","SS1618365562889","similarity_question","","","","","","","","","","","","{""Q0"":0}","[0]","","images/stimuli/spore_stims/complex_17_A_a.gif","images/stimuli/spore_stims/complex_04_A_b.gif"
"","2320.7449996843934","survey-likert","140","322418","0.0-40.0","SS1618365562889","similarity_question","","","","","","","","","","","","{""Q0"":0}","[0]","","images/stimuli/spore_stims/complex_07_A_b.gif","images/stimuli/spore_stims/complex_04_A_a.gif"
"","4017.0599999837577","survey-likert","141","326437","0.0-41.0","SS1618365562889","similarity_question","","","","","","","","","","","","{""Q0"":3}","[0]","","images/stimuli/spore_stims/simple_20_A_b.gif","images/stimuli/spore_stims/simple_05_A_a.gif"
"","4029.8850000835955","survey-likert","142","330469","0.0-42.0","SS1618365562889","similarity_question","","","","","","","","","","","","{""Q0"":1}","[0]","","images/stimuli/spore_stims/complex_06_A_b.gif","images/stimuli/spore_stims/complex_09_A_a.gif"
"","2588.7950002215803","survey-likert","143","333060","0.0-43.0","SS1618365562889","similarity_question","","","","","","","","","","","","{""Q0"":4}","[0]","","images/stimuli/spore_stims/simple_04_A_a.gif","images/stimuli/spore_stims/simple_02_A_b.gif"
"","3908.599999733269","survey-likert","144","336971","0.0-44.0","SS1618365562889","similarity_question","","","","","","","","","","","","{""Q0"":1}","[0]","","images/stimuli/spore_stims/complex_19_A_b.gif","images/stimuli/spore_stims/complex_12_A_a.gif"
"[{""page_index"":0,""viewing_time"":8744.985000230372}]","8745.170000009239","instructions","145","345718","0.0-45.0","SS1618365562889","instructions","","","","","","","","","","","","","","","",""
"","5207.090000156313","survey-likert","146","350927","0.0-46.0","SS1618365562889","","","","","","","","","images/stimuli/spore_stims/simple_02_A_b.gif","","","","{""Q0"":1}","[0]","","",""
"","2843.5799996368587","survey-likert","147","353773","0.0-47.0","SS1618365562889","","","","","","","","","images/stimuli/spore_stims/complex_19_A_b.gif","","","","{""Q0"":5}","[0]","","",""
"","2380.0250003114343","survey-likert","148","356155","0.0-48.0","SS1618365562889","","","","","","","","","images/stimuli/spore_stims/complex_04_A_a.gif","","","","{""Q0"":5}","[0]","","",""
"","3019.939999561757","survey-likert","149","359177","0.0-49.0","SS1618365562889","","","","","","","","","images/stimuli/spore_stims/complex_06_A_b.gif","","","","{""Q0"":6}","[0]","","",""
"","2635.7249999418855","survey-likert","150","361815","0.0-50.0","SS1618365562889","","","","","","","","","images/stimuli/spore_stims/simple_09_A_b.gif","","","","{""Q0"":1}","[0]","","",""
"","1866.5950000286102","survey-likert","151","363684","0.0-51.0","SS1618365562889","","","","","","","","","images/stimuli/spore_stims/simple_01_A_b.gif","","","","{""Q0"":1}","[0]","","",""
"","2549.0299998782575","survey-likert","152","366235","0.0-52.0","SS1618365562889","","","","","","","","","images/stimuli/spore_stims/complex_20_A_b.gif","","","","{""Q0"":6}","[0]","","",""
"","5382.595000322908","survey-likert","153","371620","0.0-53.0","SS1618365562889","","","","","","","","","images/stimuli/spore_stims/complex_02_A_a.gif","","","","{""Q0"":5}","[0]","","",""
"","3679.9299996346235","survey-likert","154","375302","0.0-54.0","SS1618365562889","","","","","","","","","images/stimuli/spore_stims/simple_12_A_b.gif","","","","{""Q0"":1}","[0]","","",""
"","2544.865000061691","survey-likert","155","377849","0.0-55.0","SS1618365562889","","","","","","","","","images/stimuli/spore_stims/simple_20_A_b.gif","","","","{""Q0"":2}","[0]","","",""
"","1784.4949997961521","survey-likert","156","379636","0.0-56.0","SS1618365562889","","","","","","","","","images/stimuli/spore_stims/simple_14_A_a.gif","","","","{""Q0"":1}","[0]","","",""
"","2609.6100001595914","survey-likert","157","382248","0.0-57.0","SS1618365562889","","","","","","","","","images/stimuli/spore_stims/complex_17_A_a.gif","","","","{""Q0"":5}","[0]","","",""
"[{""page_index"":0,""viewing_time"":1005.9349997900426}]","1006.1150002293289","instructions","158","383256","0.0-58.0","SS1618365562889","instructions","","","","","","","","","","","","","","","",""
"","3571.1950003169477","demog-age","159","386830","0.0-59.0","SS1618365562889","","","","","","","","","","","","","{""age"":""31""}","","","",""
"","3083.7300000712276","demog-ethnic-US","160","389917","0.0-60.0","SS1618365562889","","","","","","","","","","","","","{""ethnicity"":[""Asian""]}","[0]","","",""
"","5162.320000119507","demog-gender-and-education","161","395082","0.0-61.0","SS1618365562889","","","","","","","","","","","","","{""gender"":""Female"",""education"":""Bachelor's Degree""}","[0,1]","","",""
"","9583.739999681711","survey-text","162","404669","0.0-62.0","SS1618365562889","feedback","","","","","","","","","","","","{""Q0"":""no""}","","","",""
"[{""page_index"":0,""viewing_time"":1542.2249999828637}]","1542.3550000414252","instructions","163","406213","0.0-63.0","SS1618365562889","instructions","","","","","","","","","","","","","","","",""
