"view_history","rt","trial_type","trial_index","time_elapsed","internal_node_id","subject","stimulus_type","trial_stimulus","key_press","minimum_viewing_duration","trial_looking_time","block_deviant","block_background","exposure_type","stimulus","block_number","block_type","stimulus_displayed","responses","question_order","math_correct_answer","stimulus_left","stimulus_right"
"[{""page_index"":0,""viewing_time"":39589}]","39589","instructions","0","39593","0.0-0.0","SS1618435685103","","","","","","","","","","","","","","","","",""
"[{""page_index"":0,""viewing_time"":25656},{""page_index"":1,""viewing_time"":15816}]","41472","instructions","1","83088","0.0-1.0","SS1618435685103","instructions","","","","","","","","","","","","","","","",""
"","26944","sequential-stimulus-presentation-old","2","110547","0.0-2.0","SS1618435685103","","","40","500","27444","null","null","self_paced","","","","","","","","",""
"","22112","sequential-stimulus-presentation-old","3","133167","0.0-3.0","SS1618435685103","","","40","500","22612","null","null","self_paced","","","","","","","","",""
"[{""page_index"":0,""viewing_time"":31438}]","31438","instructions","4","164608","0.0-4.0","SS1618435685103","instructions","","","","","","","","","","","","","","","",""
"","17152","sequential-stimulus-presentation-old","5","186768","0.0-5.0","SS1618435685103","","","40","500","17652","null","null","forced_long","","","","","","","","",""
"","13478","sequential-stimulus-presentation-old","6","200302","0.0-6.0","SS1618435685103","","","40","50","13528","null","null","forced_long","","","","","","","","",""
"[{""page_index"":0,""viewing_time"":2272}]","2273","instructions","7","202576","0.0-7.0","SS1618435685103","instructions","","","","","","","","","","","","","","","",""
"[{""page_index"":0,""viewing_time"":18339},{""page_index"":1,""viewing_time"":18624},{""page_index"":2,""viewing_time"":62642},{""page_index"":3,""viewing_time"":2701},{""page_index"":4,""viewing_time"":1184}]","103490","instructions","8","306071","0.0-8.0","SS1618435685103","instructions","","","","","","","","","","","","","","","",""
"","null","html-keyboard-response","9","307219","0.0-9.0-0.0","SS1618435685103","","","null","","","","","","<p><img src= images/blank.png width =""600"" height = ""600"" style=""position:fixed;top:50%; left:50%; transform: translate(-50%, -50%); border:5px solid black"">","","","","","","","",""
"","186","sequential-stimulus-presentation-old","10","312410","0.0-9.0-1.0","SS1618435685103","trial","","40","500","686","images/stimuli/spore_stims/simple_06_A_b.gif","images/stimuli/spore_stims/simple_02_A_a.gif","forced_long","","0","simple_dissimilar","images/stimuli/spore_stims/simple_02_A_a.gif","","","","",""
"","null","html-keyboard-response","11","313583","0.0-9.0-0.1","SS1618435685103","","","null","","","","","","<p><img src= images/blank.png width =""600"" height = ""600"" style=""position:fixed;top:50%; left:50%; transform: translate(-50%, -50%); border:5px solid black"">","","","","","","","",""
"","1784","sequential-stimulus-presentation-old","12","315889","0.0-9.0-1.1","SS1618435685103","trial","","40","500","2284","images/stimuli/spore_stims/simple_06_A_b.gif","images/stimuli/spore_stims/simple_02_A_a.gif","forced_long","","0","simple_dissimilar","images/stimuli/spore_stims/simple_02_A_a.gif","","","","",""
"","null","html-keyboard-response","13","317074","0.0-9.0-0.2","SS1618435685103","","","null","","","","","","<p><img src= images/blank.png width =""600"" height = ""600"" style=""position:fixed;top:50%; left:50%; transform: translate(-50%, -50%); border:5px solid black"">","","","","","","","",""
"","116","sequential-stimulus-presentation-old","14","317709","0.0-9.0-1.2","SS1618435685103","trial","","40","500","616","images/stimuli/spore_stims/simple_06_A_b.gif","images/stimuli/spore_stims/simple_02_A_a.gif","forced_long","","0","simple_dissimilar","images/stimuli/spore_stims/simple_06_A_b.gif","","","","",""
"","null","html-keyboard-response","15","318915","0.0-9.0-0.3","SS1618435685103","","","null","","","","","","<p><img src= images/blank.png width =""600"" height = ""600"" style=""position:fixed;top:50%; left:50%; transform: translate(-50%, -50%); border:5px solid black"">","","","","","","","",""
"","1067","sequential-stimulus-presentation-old","16","320500","0.0-9.0-1.3","SS1618435685103","trial","","40","500","1567","images/stimuli/spore_stims/simple_06_A_b.gif","images/stimuli/spore_stims/simple_02_A_a.gif","forced_long","","0","simple_dissimilar","images/stimuli/spore_stims/simple_06_A_b.gif","","","","",""
"","null","html-keyboard-response","17","321644","0.0-9.0-0.4","SS1618435685103","","","null","","","","","","<p><img src= images/blank.png width =""600"" height = ""600"" style=""position:fixed;top:50%; left:50%; transform: translate(-50%, -50%); border:5px solid black"">","","","","","","","",""
"","1618","sequential-stimulus-presentation-old","18","323772","0.0-9.0-1.4","SS1618435685103","trial","","40","500","2118","images/stimuli/spore_stims/simple_06_A_b.gif","images/stimuli/spore_stims/simple_02_A_a.gif","forced_long","","0","simple_dissimilar","images/stimuli/spore_stims/simple_02_A_a.gif","","","","",""
"","8118","survey-multi-choice","19","331913","0.0-10.0","SS1618435685103","math_question","","","","","","","","","","","","{""Q0"":""17""}","[0]","17","",""
"","null","html-keyboard-response","20","333014","0.0-11.0-0.0","SS1618435685103","","","null","","","","","","<p><img src= images/blank.png width =""600"" height = ""600"" style=""position:fixed;top:50%; left:50%; transform: translate(-50%, -50%); border:5px solid black"">","","","","","","","",""
"","92","sequential-stimulus-presentation-old","21","338119","0.0-11.0-1.0","SS1618435685103","trial","","40","500","592","images/stimuli/spore_stims/complex_13_A_a.gif","images/stimuli/spore_stims/complex_18_A_b.gif","forced_long","","1","complex_dissimilar","images/stimuli/spore_stims/complex_18_A_b.gif","","","","",""
"","null","html-keyboard-response","22","339275","0.0-11.0-0.1","SS1618435685103","","","null","","","","","","<p><img src= images/blank.png width =""600"" height = ""600"" style=""position:fixed;top:50%; left:50%; transform: translate(-50%, -50%); border:5px solid black"">","","","","","","","",""
"","112","sequential-stimulus-presentation-old","23","339908","0.0-11.0-1.1","SS1618435685103","trial","","40","500","612","images/stimuli/spore_stims/complex_13_A_a.gif","images/stimuli/spore_stims/complex_18_A_b.gif","forced_long","","1","complex_dissimilar","images/stimuli/spore_stims/complex_18_A_b.gif","","","","",""
"","null","html-keyboard-response","24","340984","0.0-11.0-0.2","SS1618435685103","","","null","","","","","","<p><img src= images/blank.png width =""600"" height = ""600"" style=""position:fixed;top:50%; left:50%; transform: translate(-50%, -50%); border:5px solid black"">","","","","","","","",""
"","131","sequential-stimulus-presentation-old","25","341634","0.0-11.0-1.2","SS1618435685103","trial","","40","500","631","images/stimuli/spore_stims/complex_13_A_a.gif","images/stimuli/spore_stims/complex_18_A_b.gif","forced_long","","1","complex_dissimilar","images/stimuli/spore_stims/complex_18_A_b.gif","","","","",""
"","null","html-keyboard-response","26","342724","0.0-11.0-0.3","SS1618435685103","","","null","","","","","","<p><img src= images/blank.png width =""600"" height = ""600"" style=""position:fixed;top:50%; left:50%; transform: translate(-50%, -50%); border:5px solid black"">","","","","","","","",""
"","64","sequential-stimulus-presentation-old","27","343311","0.0-11.0-1.3","SS1618435685103","trial","","40","500","564","images/stimuli/spore_stims/complex_13_A_a.gif","images/stimuli/spore_stims/complex_18_A_b.gif","forced_long","","1","complex_dissimilar","images/stimuli/spore_stims/complex_18_A_b.gif","","","","",""
"","null","html-keyboard-response","28","344323","0.0-11.0-0.4","SS1618435685103","","","null","","","","","","<p><img src= images/blank.png width =""600"" height = ""600"" style=""position:fixed;top:50%; left:50%; transform: translate(-50%, -50%); border:5px solid black"">","","","","","","","",""
"","6328","sequential-stimulus-presentation-old","29","351177","0.0-11.0-1.4","SS1618435685103","trial","","40","500","6828","images/stimuli/spore_stims/complex_13_A_a.gif","images/stimuli/spore_stims/complex_18_A_b.gif","forced_long","","1","complex_dissimilar","images/stimuli/spore_stims/complex_13_A_a.gif","","","","",""
"","null","html-keyboard-response","30","352004","0.0-11.0-0.5","SS1618435685103","","","null","","","","","","<p><img src= images/blank.png width =""600"" height = ""600"" style=""position:fixed;top:50%; left:50%; transform: translate(-50%, -50%); border:5px solid black"">","","","","","","","",""
"","1115","sequential-stimulus-presentation-old","31","353639","0.0-11.0-1.5","SS1618435685103","trial","","40","500","1615","images/stimuli/spore_stims/complex_13_A_a.gif","images/stimuli/spore_stims/complex_18_A_b.gif","forced_long","","1","complex_dissimilar","images/stimuli/spore_stims/complex_13_A_a.gif","","","","",""
"","4909","survey-multi-choice","32","358553","0.0-12.0","SS1618435685103","math_question","","","","","","","","","","","","{""Q0"":""13""}","[0]","13","",""
"","null","html-keyboard-response","33","359393","0.0-13.0-0.0","SS1618435685103","","","null","","","","","","<p><img src= images/blank.png width =""600"" height = ""600"" style=""position:fixed;top:50%; left:50%; transform: translate(-50%, -50%); border:5px solid black"">","","","","","","","",""
"","509","sequential-stimulus-presentation-old","34","360412","0.0-13.0-1.0","SS1618435685103","trial","","40","500","1009","images/stimuli/spore_stims/simple_06_A_a.gif","images/stimuli/spore_stims/simple_09_A_b.gif","self_paced","","2","simple_dissimilar","images/stimuli/spore_stims/simple_09_A_b.gif","","","","",""
"","null","html-keyboard-response","35","361534","0.0-13.0-0.1","SS1618435685103","","","null","","","","","","<p><img src= images/blank.png width =""600"" height = ""600"" style=""position:fixed;top:50%; left:50%; transform: translate(-50%, -50%); border:5px solid black"">","","","","","","","",""
"","879","sequential-stimulus-presentation-old","36","362922","0.0-13.0-1.1","SS1618435685103","trial","","40","500","1379","images/stimuli/spore_stims/simple_06_A_a.gif","images/stimuli/spore_stims/simple_09_A_b.gif","self_paced","","2","simple_dissimilar","images/stimuli/spore_stims/simple_09_A_b.gif","","","","",""
"","null","html-keyboard-response","37","364125","0.0-13.0-0.2","SS1618435685103","","","null","","","","","","<p><img src= images/blank.png width =""600"" height = ""600"" style=""position:fixed;top:50%; left:50%; transform: translate(-50%, -50%); border:5px solid black"">","","","","","","","",""
"","1671","sequential-stimulus-presentation-old","38","366313","0.0-13.0-1.2","SS1618435685103","trial","","40","500","2171","images/stimuli/spore_stims/simple_06_A_a.gif","images/stimuli/spore_stims/simple_09_A_b.gif","self_paced","","2","simple_dissimilar","images/stimuli/spore_stims/simple_09_A_b.gif","","","","",""
"","null","html-keyboard-response","39","367425","0.0-13.0-0.3","SS1618435685103","","","null","","","","","","<p><img src= images/blank.png width =""600"" height = ""600"" style=""position:fixed;top:50%; left:50%; transform: translate(-50%, -50%); border:5px solid black"">","","","","","","","",""
"","2084","sequential-stimulus-presentation-old","40","370028","0.0-13.0-1.3","SS1618435685103","trial","","40","500","2584","images/stimuli/spore_stims/simple_06_A_a.gif","images/stimuli/spore_stims/simple_09_A_b.gif","self_paced","","2","simple_dissimilar","images/stimuli/spore_stims/simple_09_A_b.gif","","","","",""
"","null","html-keyboard-response","41","371284","0.0-13.0-0.4","SS1618435685103","","","null","","","","","","<p><img src= images/blank.png width =""600"" height = ""600"" style=""position:fixed;top:50%; left:50%; transform: translate(-50%, -50%); border:5px solid black"">","","","","","","","",""
"","706","sequential-stimulus-presentation-old","42","372509","0.0-13.0-1.4","SS1618435685103","trial","","40","500","1206","images/stimuli/spore_stims/simple_06_A_a.gif","images/stimuli/spore_stims/simple_09_A_b.gif","self_paced","","2","simple_dissimilar","images/stimuli/spore_stims/simple_06_A_a.gif","","","","",""
"","3935","survey-multi-choice","43","376449","0.0-14.0","SS1618435685103","math_question","","","","","","","","","","","","{""Q0"":""10""}","[0]","10","",""
"","null","html-keyboard-response","44","377744","0.0-15.0-0.0","SS1618435685103","","","null","","","","","","<p><img src= images/blank.png width =""600"" height = ""600"" style=""position:fixed;top:50%; left:50%; transform: translate(-50%, -50%); border:5px solid black"">","","","","","","","",""
"","1092","sequential-stimulus-presentation-old","45","378895","0.0-15.0-1.0","SS1618435685103","trial","","40","500","1592","images/stimuli/spore_stims/complex_08_A_b.gif","images/stimuli/spore_stims/complex_06_A_a.gif","forced_short","","3","complex_dissimilar","images/stimuli/spore_stims/complex_06_A_a.gif","","","","",""
"","null","html-keyboard-response","46","380204","0.0-15.0-0.1","SS1618435685103","","","null","","","","","","<p><img src= images/blank.png width =""600"" height = ""600"" style=""position:fixed;top:50%; left:50%; transform: translate(-50%, -50%); border:5px solid black"">","","","","","","","",""
"","396","sequential-stimulus-presentation-old","47","381120","0.0-15.0-1.1","SS1618435685103","trial","","40","500","896","images/stimuli/spore_stims/complex_08_A_b.gif","images/stimuli/spore_stims/complex_06_A_a.gif","forced_short","","3","complex_dissimilar","images/stimuli/spore_stims/complex_06_A_a.gif","","","","",""
"","null","html-keyboard-response","48","382383","0.0-15.0-0.2","SS1618435685103","","","null","","","","","","<p><img src= images/blank.png width =""600"" height = ""600"" style=""position:fixed;top:50%; left:50%; transform: translate(-50%, -50%); border:5px solid black"">","","","","","","","",""
"","3994","sequential-stimulus-presentation-old","49","386897","0.0-15.0-1.2","SS1618435685103","trial","","40","500","4494","images/stimuli/spore_stims/complex_08_A_b.gif","images/stimuli/spore_stims/complex_06_A_a.gif","forced_short","","3","complex_dissimilar","images/stimuli/spore_stims/complex_06_A_a.gif","","","","",""
"","null","html-keyboard-response","50","387744","0.0-15.0-0.3","SS1618435685103","","","null","","","","","","<p><img src= images/blank.png width =""600"" height = ""600"" style=""position:fixed;top:50%; left:50%; transform: translate(-50%, -50%); border:5px solid black"">","","","","","","","",""
"","971","sequential-stimulus-presentation-old","51","389236","0.0-15.0-1.3","SS1618435685103","trial","","40","500","1471","images/stimuli/spore_stims/complex_08_A_b.gif","images/stimuli/spore_stims/complex_06_A_a.gif","forced_short","","3","complex_dissimilar","images/stimuli/spore_stims/complex_06_A_a.gif","","","","",""
"","4089","survey-multi-choice","52","393329","0.0-16.0","SS1618435685103","math_question","","","","","","","","","","","","{""Q0"":""3""}","[0]","3","",""
"","null","html-keyboard-response","53","394155","0.0-17.0-0.0","SS1618435685103","","","null","","","","","","<p><img src= images/blank.png width =""600"" height = ""600"" style=""position:fixed;top:50%; left:50%; transform: translate(-50%, -50%); border:5px solid black"">","","","","","","","",""
"","1026","sequential-stimulus-presentation-old","54","395690","0.0-17.0-1.0","SS1618435685103","trial","","40","500","1526","images/stimuli/spore_stims/simple_15_A_b.gif","images/stimuli/spore_stims/simple_16_A_a.gif","self_paced","","4","simple_dissimilar","images/stimuli/spore_stims/simple_16_A_a.gif","","","","",""
"","null","html-keyboard-response","55","396694","0.0-17.0-0.1","SS1618435685103","","","null","","","","","","<p><img src= images/blank.png width =""600"" height = ""600"" style=""position:fixed;top:50%; left:50%; transform: translate(-50%, -50%); border:5px solid black"">","","","","","","","",""
"","769","sequential-stimulus-presentation-old","56","397984","0.0-17.0-1.1","SS1618435685103","trial","","40","500","1269","images/stimuli/spore_stims/simple_15_A_b.gif","images/stimuli/spore_stims/simple_16_A_a.gif","self_paced","","4","simple_dissimilar","images/stimuli/spore_stims/simple_16_A_a.gif","","","","",""
"","null","html-keyboard-response","57","399094","0.0-17.0-0.2","SS1618435685103","","","null","","","","","","<p><img src= images/blank.png width =""600"" height = ""600"" style=""position:fixed;top:50%; left:50%; transform: translate(-50%, -50%); border:5px solid black"">","","","","","","","",""
"","80","sequential-stimulus-presentation-old","58","399686","0.0-17.0-1.2","SS1618435685103","trial","","40","500","580","images/stimuli/spore_stims/simple_15_A_b.gif","images/stimuli/spore_stims/simple_16_A_a.gif","self_paced","","4","simple_dissimilar","images/stimuli/spore_stims/simple_15_A_b.gif","","","","",""
"","null","html-keyboard-response","59","400814","0.0-17.0-0.3","SS1618435685103","","","null","","","","","","<p><img src= images/blank.png width =""600"" height = ""600"" style=""position:fixed;top:50%; left:50%; transform: translate(-50%, -50%); border:5px solid black"">","","","","","","","",""
"","233","sequential-stimulus-presentation-old","60","401556","0.0-17.0-1.3","SS1618435685103","trial","","40","500","733","images/stimuli/spore_stims/simple_15_A_b.gif","images/stimuli/spore_stims/simple_16_A_a.gif","self_paced","","4","simple_dissimilar","images/stimuli/spore_stims/simple_16_A_a.gif","","","","",""
"","3832","survey-multi-choice","61","405393","0.0-18.0","SS1618435685103","math_question","","","","","","","","","","","","{""Q0"":""10""}","[0]","10","",""
"","null","html-keyboard-response","62","406544","0.0-19.0-0.0","SS1618435685103","","","null","","","","","","<p><img src= images/blank.png width =""600"" height = ""600"" style=""position:fixed;top:50%; left:50%; transform: translate(-50%, -50%); border:5px solid black"">","","","","","","","",""
"","1911","sequential-stimulus-presentation-old","63","408515","0.0-19.0-1.0","SS1618435685103","trial","","40","500","2411","images/stimuli/spore_stims/simple_20_A_a.gif","images/stimuli/spore_stims/simple_03_A_b.gif","forced_short","","5","simple_dissimilar","images/stimuli/spore_stims/simple_03_A_b.gif","","","","",""
"","null","html-keyboard-response","64","409523","0.0-19.0-0.1","SS1618435685103","","","null","","","","","","<p><img src= images/blank.png width =""600"" height = ""600"" style=""position:fixed;top:50%; left:50%; transform: translate(-50%, -50%); border:5px solid black"">","","","","","","","",""
"","53","sequential-stimulus-presentation-old","65","410091","0.0-19.0-1.1","SS1618435685103","trial","","40","500","553","images/stimuli/spore_stims/simple_20_A_a.gif","images/stimuli/spore_stims/simple_03_A_b.gif","forced_short","","5","simple_dissimilar","images/stimuli/spore_stims/simple_03_A_b.gif","","","","",""
"","null","html-keyboard-response","66","411196","0.0-19.0-0.2","SS1618435685103","","","null","","","","","","<p><img src= images/blank.png width =""600"" height = ""600"" style=""position:fixed;top:50%; left:50%; transform: translate(-50%, -50%); border:5px solid black"">","","","","","","","",""
"","559","sequential-stimulus-presentation-old","67","412270","0.0-19.0-1.2","SS1618435685103","trial","","40","500","1059","images/stimuli/spore_stims/simple_20_A_a.gif","images/stimuli/spore_stims/simple_03_A_b.gif","forced_short","","5","simple_dissimilar","images/stimuli/spore_stims/simple_03_A_b.gif","","","","",""
"","null","html-keyboard-response","68","413313","0.0-19.0-0.3","SS1618435685103","","","null","","","","","","<p><img src= images/blank.png width =""600"" height = ""600"" style=""position:fixed;top:50%; left:50%; transform: translate(-50%, -50%); border:5px solid black"">","","","","","","","",""
"","178","sequential-stimulus-presentation-old","69","414002","0.0-19.0-1.3","SS1618435685103","trial","","40","500","678","images/stimuli/spore_stims/simple_20_A_a.gif","images/stimuli/spore_stims/simple_03_A_b.gif","forced_short","","5","simple_dissimilar","images/stimuli/spore_stims/simple_03_A_b.gif","","","","",""
"","null","html-keyboard-response","70","415286","0.0-19.0-0.4","SS1618435685103","","","null","","","","","","<p><img src= images/blank.png width =""600"" height = ""600"" style=""position:fixed;top:50%; left:50%; transform: translate(-50%, -50%); border:5px solid black"">","","","","","","","",""
"","103","sequential-stimulus-presentation-old","71","415907","0.0-19.0-1.4","SS1618435685103","trial","","40","500","603","images/stimuli/spore_stims/simple_20_A_a.gif","images/stimuli/spore_stims/simple_03_A_b.gif","forced_short","","5","simple_dissimilar","images/stimuli/spore_stims/simple_03_A_b.gif","","","","",""
"","null","html-keyboard-response","72","416985","0.0-19.0-0.5","SS1618435685103","","","null","","","","","","<p><img src= images/blank.png width =""600"" height = ""600"" style=""position:fixed;top:50%; left:50%; transform: translate(-50%, -50%); border:5px solid black"">","","","","","","","",""
"","161","sequential-stimulus-presentation-old","73","417665","0.0-19.0-1.5","SS1618435685103","trial","","40","500","661","images/stimuli/spore_stims/simple_20_A_a.gif","images/stimuli/spore_stims/simple_03_A_b.gif","forced_short","","5","simple_dissimilar","images/stimuli/spore_stims/simple_20_A_a.gif","","","","",""
"","4435","survey-multi-choice","74","422106","0.0-20.0","SS1618435685103","math_question","","","","","","","","","","","","{""Q0"":""12""}","[0]","12","",""
"","null","html-keyboard-response","75","423413","0.0-21.0-0.0","SS1618435685103","","","null","","","","","","<p><img src= images/blank.png width =""600"" height = ""600"" style=""position:fixed;top:50%; left:50%; transform: translate(-50%, -50%); border:5px solid black"">","","","","","","","",""
"","4783","sequential-stimulus-presentation-old","76","433221","0.0-21.0-1.0","SS1618435685103","trial","","40","500","5283","images/stimuli/spore_stims/simple_11_A_a.gif","images/stimuli/spore_stims/simple_13_A_b.gif","forced_long","","6","simple_dissimilar","images/stimuli/spore_stims/simple_13_A_b.gif","","","","",""
"","null","html-keyboard-response","77","434098","0.0-21.0-0.1","SS1618435685103","","","null","","","","","","<p><img src= images/blank.png width =""600"" height = ""600"" style=""position:fixed;top:50%; left:50%; transform: translate(-50%, -50%); border:5px solid black"">","","","","","","","",""
"","4358","sequential-stimulus-presentation-old","78","438976","0.0-21.0-1.1","SS1618435685103","trial","","40","500","4858","images/stimuli/spore_stims/simple_11_A_a.gif","images/stimuli/spore_stims/simple_13_A_b.gif","forced_long","","6","simple_dissimilar","images/stimuli/spore_stims/simple_13_A_b.gif","","","","",""
"","null","html-keyboard-response","79","439824","0.0-21.0-0.2","SS1618435685103","","","null","","","","","","<p><img src= images/blank.png width =""600"" height = ""600"" style=""position:fixed;top:50%; left:50%; transform: translate(-50%, -50%); border:5px solid black"">","","","","","","","",""
"","809","sequential-stimulus-presentation-old","80","441152","0.0-21.0-1.2","SS1618435685103","trial","","40","500","1309","images/stimuli/spore_stims/simple_11_A_a.gif","images/stimuli/spore_stims/simple_13_A_b.gif","forced_long","","6","simple_dissimilar","images/stimuli/spore_stims/simple_13_A_b.gif","","","","",""
"","null","html-keyboard-response","81","442115","0.0-21.0-0.3","SS1618435685103","","","null","","","","","","<p><img src= images/blank.png width =""600"" height = ""600"" style=""position:fixed;top:50%; left:50%; transform: translate(-50%, -50%); border:5px solid black"">","","","","","","","",""
"","33","sequential-stimulus-presentation-old","82","442668","0.0-21.0-1.3","SS1618435685103","trial","","40","500","533","images/stimuli/spore_stims/simple_11_A_a.gif","images/stimuli/spore_stims/simple_13_A_b.gif","forced_long","","6","simple_dissimilar","images/stimuli/spore_stims/simple_13_A_b.gif","","","","",""
"","3816","survey-multi-choice","83","446489","0.0-22.0","SS1618435685103","math_question","","","","","","","","","","","","{""Q0"":""5""}","[0]","5","",""
"","null","html-keyboard-response","84","447415","0.0-23.0-0.0","SS1618435685103","","","null","","","","","","<p><img src= images/blank.png width =""600"" height = ""600"" style=""position:fixed;top:50%; left:50%; transform: translate(-50%, -50%); border:5px solid black"">","","","","","","","",""
"","410","sequential-stimulus-presentation-old","85","448346","0.0-23.0-1.0","SS1618435685103","trial","","40","500","910","images/stimuli/spore_stims/complex_12_A_a.gif","images/stimuli/spore_stims/complex_05_A_b.gif","self_paced","","7","complex_dissimilar","images/stimuli/spore_stims/complex_05_A_b.gif","","","","",""
"","null","html-keyboard-response","86","449274","0.0-23.0-0.1","SS1618435685103","","","null","","","","","","<p><img src= images/blank.png width =""600"" height = ""600"" style=""position:fixed;top:50%; left:50%; transform: translate(-50%, -50%); border:5px solid black"">","","","","","","","",""
"","215","sequential-stimulus-presentation-old","87","449998","0.0-23.0-1.1","SS1618435685103","trial","","40","500","715","images/stimuli/spore_stims/complex_12_A_a.gif","images/stimuli/spore_stims/complex_05_A_b.gif","self_paced","","7","complex_dissimilar","images/stimuli/spore_stims/complex_05_A_b.gif","","","","",""
"","null","html-keyboard-response","88","451244","0.0-23.0-0.2","SS1618435685103","","","null","","","","","","<p><img src= images/blank.png width =""600"" height = ""600"" style=""position:fixed;top:50%; left:50%; transform: translate(-50%, -50%); border:5px solid black"">","","","","","","","",""
"","1569","sequential-stimulus-presentation-old","89","453336","0.0-23.0-1.2","SS1618435685103","trial","","40","500","2069","images/stimuli/spore_stims/complex_12_A_a.gif","images/stimuli/spore_stims/complex_05_A_b.gif","self_paced","","7","complex_dissimilar","images/stimuli/spore_stims/complex_12_A_a.gif","","","","",""
"","null","html-keyboard-response","90","454483","0.0-23.0-0.3","SS1618435685103","","","null","","","","","","<p><img src= images/blank.png width =""600"" height = ""600"" style=""position:fixed;top:50%; left:50%; transform: translate(-50%, -50%); border:5px solid black"">","","","","","","","",""
"","1004","sequential-stimulus-presentation-old","91","455999","0.0-23.0-1.3","SS1618435685103","trial","","40","500","1504","images/stimuli/spore_stims/complex_12_A_a.gif","images/stimuli/spore_stims/complex_05_A_b.gif","self_paced","","7","complex_dissimilar","images/stimuli/spore_stims/complex_05_A_b.gif","","","","",""
"","null","html-keyboard-response","92","457253","0.0-23.0-0.4","SS1618435685103","","","null","","","","","","<p><img src= images/blank.png width =""600"" height = ""600"" style=""position:fixed;top:50%; left:50%; transform: translate(-50%, -50%); border:5px solid black"">","","","","","","","",""
"","89","sequential-stimulus-presentation-old","93","457853","0.0-23.0-1.4","SS1618435685103","trial","","40","500","589","images/stimuli/spore_stims/complex_12_A_a.gif","images/stimuli/spore_stims/complex_05_A_b.gif","self_paced","","7","complex_dissimilar","images/stimuli/spore_stims/complex_05_A_b.gif","","","","",""
"","null","html-keyboard-response","94","458713","0.0-23.0-0.5","SS1618435685103","","","null","","","","","","<p><img src= images/blank.png width =""600"" height = ""600"" style=""position:fixed;top:50%; left:50%; transform: translate(-50%, -50%); border:5px solid black"">","","","","","","","",""
"","197","sequential-stimulus-presentation-old","95","459429","0.0-23.0-1.5","SS1618435685103","trial","","40","500","697","images/stimuli/spore_stims/complex_12_A_a.gif","images/stimuli/spore_stims/complex_05_A_b.gif","self_paced","","7","complex_dissimilar","images/stimuli/spore_stims/complex_12_A_a.gif","","","","",""
"","3571","survey-multi-choice","96","463009","0.0-24.0","SS1618435685103","math_question","","","","","","","","","","","","{""Q0"":""9""}","[0]","9","",""
"","null","html-keyboard-response","97","464083","0.0-25.0-0.0","SS1618435685103","","","null","","","","","","<p><img src= images/blank.png width =""600"" height = ""600"" style=""position:fixed;top:50%; left:50%; transform: translate(-50%, -50%); border:5px solid black"">","","","","","","","",""
"","4369","sequential-stimulus-presentation-old","98","468508","0.0-25.0-1.0","SS1618435685103","trial","","40","500","4869","images/stimuli/spore_stims/complex_09_A_b.gif","images/stimuli/spore_stims/complex_08_A_a.gif","forced_short","","8","complex_dissimilar","images/stimuli/spore_stims/complex_08_A_a.gif","","","","",""
"","null","html-keyboard-response","99","469753","0.0-25.0-0.1","SS1618435685103","","","null","","","","","","<p><img src= images/blank.png width =""600"" height = ""600"" style=""position:fixed;top:50%; left:50%; transform: translate(-50%, -50%); border:5px solid black"">","","","","","","","",""
"","73","sequential-stimulus-presentation-old","100","470346","0.0-25.0-1.1","SS1618435685103","trial","","40","500","573","images/stimuli/spore_stims/complex_09_A_b.gif","images/stimuli/spore_stims/complex_08_A_a.gif","forced_short","","8","complex_dissimilar","images/stimuli/spore_stims/complex_08_A_a.gif","","","","",""
"","null","html-keyboard-response","101","471403","0.0-25.0-0.2","SS1618435685103","","","null","","","","","","<p><img src= images/blank.png width =""600"" height = ""600"" style=""position:fixed;top:50%; left:50%; transform: translate(-50%, -50%); border:5px solid black"">","","","","","","","",""
"","3128","sequential-stimulus-presentation-old","102","475050","0.0-25.0-1.2","SS1618435685103","trial","","40","500","3628","images/stimuli/spore_stims/complex_09_A_b.gif","images/stimuli/spore_stims/complex_08_A_a.gif","forced_short","","8","complex_dissimilar","images/stimuli/spore_stims/complex_09_A_b.gif","","","","",""
"","null","html-keyboard-response","103","476019","0.0-25.0-0.3","SS1618435685103","","","null","","","","","","<p><img src= images/blank.png width =""600"" height = ""600"" style=""position:fixed;top:50%; left:50%; transform: translate(-50%, -50%); border:5px solid black"">","","","","","","","",""
"","303","sequential-stimulus-presentation-old","104","476839","0.0-25.0-1.3","SS1618435685103","trial","","40","500","803","images/stimuli/spore_stims/complex_09_A_b.gif","images/stimuli/spore_stims/complex_08_A_a.gif","forced_short","","8","complex_dissimilar","images/stimuli/spore_stims/complex_08_A_a.gif","","","","",""
"","null","html-keyboard-response","105","478134","0.0-25.0-0.4","SS1618435685103","","","null","","","","","","<p><img src= images/blank.png width =""600"" height = ""600"" style=""position:fixed;top:50%; left:50%; transform: translate(-50%, -50%); border:5px solid black"">","","","","","","","",""
"","181","sequential-stimulus-presentation-old","106","478834","0.0-25.0-1.4","SS1618435685103","trial","","40","500","681","images/stimuli/spore_stims/complex_09_A_b.gif","images/stimuli/spore_stims/complex_08_A_a.gif","forced_short","","8","complex_dissimilar","images/stimuli/spore_stims/complex_09_A_b.gif","","","","",""
"","3729","survey-multi-choice","107","482568","0.0-26.0","SS1618435685103","math_question","","","","","","","","","","","","{""Q0"":""5""}","[0]","5","",""
"","null","html-keyboard-response","108","483671","0.0-27.0-0.0","SS1618435685103","","","null","","","","","","<p><img src= images/blank.png width =""600"" height = ""600"" style=""position:fixed;top:50%; left:50%; transform: translate(-50%, -50%); border:5px solid black"">","","","","","","","",""
"","2975","sequential-stimulus-presentation-old","109","486709","0.0-27.0-1.0","SS1618435685103","trial","","40","500","3475","images/stimuli/spore_stims/simple_05_A_a.gif","images/stimuli/spore_stims/simple_10_A_b.gif","forced_short","","9","simple_dissimilar","images/stimuli/spore_stims/simple_10_A_b.gif","","","","",""
"","null","html-keyboard-response","110","487613","0.0-27.0-0.1","SS1618435685103","","","null","","","","","","<p><img src= images/blank.png width =""600"" height = ""600"" style=""position:fixed;top:50%; left:50%; transform: translate(-50%, -50%); border:5px solid black"">","","","","","","","",""
"","95","sequential-stimulus-presentation-old","111","488221","0.0-27.0-1.1","SS1618435685103","trial","","40","500","595","images/stimuli/spore_stims/simple_05_A_a.gif","images/stimuli/spore_stims/simple_10_A_b.gif","forced_short","","9","simple_dissimilar","images/stimuli/spore_stims/simple_05_A_a.gif","","","","",""
"","null","html-keyboard-response","112","489283","0.0-27.0-0.2","SS1618435685103","","","null","","","","","","<p><img src= images/blank.png width =""600"" height = ""600"" style=""position:fixed;top:50%; left:50%; transform: translate(-50%, -50%); border:5px solid black"">","","","","","","","",""
"","500","sequential-stimulus-presentation-old","113","490295","0.0-27.0-1.2","SS1618435685103","trial","","40","500","1000","images/stimuli/spore_stims/simple_05_A_a.gif","images/stimuli/spore_stims/simple_10_A_b.gif","forced_short","","9","simple_dissimilar","images/stimuli/spore_stims/simple_10_A_b.gif","","","","",""
"","null","html-keyboard-response","114","491243","0.0-27.0-0.3","SS1618435685103","","","null","","","","","","<p><img src= images/blank.png width =""600"" height = ""600"" style=""position:fixed;top:50%; left:50%; transform: translate(-50%, -50%); border:5px solid black"">","","","","","","","",""
"","139","sequential-stimulus-presentation-old","115","491901","0.0-27.0-1.3","SS1618435685103","trial","","40","500","639","images/stimuli/spore_stims/simple_05_A_a.gif","images/stimuli/spore_stims/simple_10_A_b.gif","forced_short","","9","simple_dissimilar","images/stimuli/spore_stims/simple_10_A_b.gif","","","","",""
"","null","html-keyboard-response","116","492944","0.0-27.0-0.4","SS1618435685103","","","null","","","","","","<p><img src= images/blank.png width =""600"" height = ""600"" style=""position:fixed;top:50%; left:50%; transform: translate(-50%, -50%); border:5px solid black"">","","","","","","","",""
"","572","sequential-stimulus-presentation-old","117","494035","0.0-27.0-1.4","SS1618435685103","trial","","40","500","1072","images/stimuli/spore_stims/simple_05_A_a.gif","images/stimuli/spore_stims/simple_10_A_b.gif","forced_short","","9","simple_dissimilar","images/stimuli/spore_stims/simple_10_A_b.gif","","","","",""
"","null","html-keyboard-response","118","495183","0.0-27.0-0.5","SS1618435685103","","","null","","","","","","<p><img src= images/blank.png width =""600"" height = ""600"" style=""position:fixed;top:50%; left:50%; transform: translate(-50%, -50%); border:5px solid black"">","","","","","","","",""
"","186","sequential-stimulus-presentation-old","119","495877","0.0-27.0-1.5","SS1618435685103","trial","","40","500","686","images/stimuli/spore_stims/simple_05_A_a.gif","images/stimuli/spore_stims/simple_10_A_b.gif","forced_short","","9","simple_dissimilar","images/stimuli/spore_stims/simple_05_A_a.gif","","","","",""
"","3437","survey-multi-choice","120","499321","0.0-28.0","SS1618435685103","math_question","","","","","","","","","","","","{""Q0"":""4""}","[0]","4","",""
"","null","html-keyboard-response","121","500434","0.0-29.0-0.0","SS1618435685103","","","null","","","","","","<p><img src= images/blank.png width =""600"" height = ""600"" style=""position:fixed;top:50%; left:50%; transform: translate(-50%, -50%); border:5px solid black"">","","","","","","","",""
"","17","sequential-stimulus-presentation-old","122","505460","0.0-29.0-1.0","SS1618435685103","trial","","40","500","517","images/stimuli/spore_stims/complex_02_A_b.gif","images/stimuli/spore_stims/complex_10_A_a.gif","forced_long","","10","complex_dissimilar","images/stimuli/spore_stims/complex_10_A_a.gif","","","","",""
"","null","html-keyboard-response","123","506354","0.0-29.0-0.1","SS1618435685103","","","null","","","","","","<p><img src= images/blank.png width =""600"" height = ""600"" style=""position:fixed;top:50%; left:50%; transform: translate(-50%, -50%); border:5px solid black"">","","","","","","","",""
"","185","sequential-stimulus-presentation-old","124","507049","0.0-29.0-1.1","SS1618435685103","trial","","40","500","685","images/stimuli/spore_stims/complex_02_A_b.gif","images/stimuli/spore_stims/complex_10_A_a.gif","forced_long","","10","complex_dissimilar","images/stimuli/spore_stims/complex_02_A_b.gif","","","","",""
"","null","html-keyboard-response","125","508173","0.0-29.0-0.2","SS1618435685103","","","null","","","","","","<p><img src= images/blank.png width =""600"" height = ""600"" style=""position:fixed;top:50%; left:50%; transform: translate(-50%, -50%); border:5px solid black"">","","","","","","","",""
"","63","sequential-stimulus-presentation-old","126","508746","0.0-29.0-1.2","SS1618435685103","trial","","40","500","563","images/stimuli/spore_stims/complex_02_A_b.gif","images/stimuli/spore_stims/complex_10_A_a.gif","forced_long","","10","complex_dissimilar","images/stimuli/spore_stims/complex_10_A_a.gif","","","","",""
"","null","html-keyboard-response","127","509803","0.0-29.0-0.3","SS1618435685103","","","null","","","","","","<p><img src= images/blank.png width =""600"" height = ""600"" style=""position:fixed;top:50%; left:50%; transform: translate(-50%, -50%); border:5px solid black"">","","","","","","","",""
"","564","sequential-stimulus-presentation-old","128","510877","0.0-29.0-1.3","SS1618435685103","trial","","40","500","1064","images/stimuli/spore_stims/complex_02_A_b.gif","images/stimuli/spore_stims/complex_10_A_a.gif","forced_long","","10","complex_dissimilar","images/stimuli/spore_stims/complex_02_A_b.gif","","","","",""
"","3959","survey-multi-choice","129","514841","0.0-30.0","SS1618435685103","math_question","","","","","","","","","","","","{""Q0"":""10""}","[0]","10","",""
"","null","html-keyboard-response","130","515757","0.0-31.0-0.0","SS1618435685103","","","null","","","","","","<p><img src= images/blank.png width =""600"" height = ""600"" style=""position:fixed;top:50%; left:50%; transform: translate(-50%, -50%); border:5px solid black"">","","","","","","","",""
"","761","sequential-stimulus-presentation-old","131","517035","0.0-31.0-1.0","SS1618435685103","trial","","40","500","1261","images/stimuli/spore_stims/complex_04_A_a.gif","images/stimuli/spore_stims/complex_01_A_b.gif","self_paced","","11","complex_dissimilar","images/stimuli/spore_stims/complex_01_A_b.gif","","","","",""
"","null","html-keyboard-response","132","518305","0.0-31.0-0.1","SS1618435685103","","","null","","","","","","<p><img src= images/blank.png width =""600"" height = ""600"" style=""position:fixed;top:50%; left:50%; transform: translate(-50%, -50%); border:5px solid black"">","","","","","","","",""
"","158","sequential-stimulus-presentation-old","133","518985","0.0-31.0-1.1","SS1618435685103","trial","","40","500","658","images/stimuli/spore_stims/complex_04_A_a.gif","images/stimuli/spore_stims/complex_01_A_b.gif","self_paced","","11","complex_dissimilar","images/stimuli/spore_stims/complex_01_A_b.gif","","","","",""
"","null","html-keyboard-response","134","519921","0.0-31.0-0.2","SS1618435685103","","","null","","","","","","<p><img src= images/blank.png width =""600"" height = ""600"" style=""position:fixed;top:50%; left:50%; transform: translate(-50%, -50%); border:5px solid black"">","","","","","","","",""
"","284","sequential-stimulus-presentation-old","135","520727","0.0-31.0-1.2","SS1618435685103","trial","","40","500","784","images/stimuli/spore_stims/complex_04_A_a.gif","images/stimuli/spore_stims/complex_01_A_b.gif","self_paced","","11","complex_dissimilar","images/stimuli/spore_stims/complex_01_A_b.gif","","","","",""
"","null","html-keyboard-response","136","522034","0.0-31.0-0.3","SS1618435685103","","","null","","","","","","<p><img src= images/blank.png width =""600"" height = ""600"" style=""position:fixed;top:50%; left:50%; transform: translate(-50%, -50%); border:5px solid black"">","","","","","","","",""
"","136","sequential-stimulus-presentation-old","137","522693","0.0-31.0-1.3","SS1618435685103","trial","","40","500","636","images/stimuli/spore_stims/complex_04_A_a.gif","images/stimuli/spore_stims/complex_01_A_b.gif","self_paced","","11","complex_dissimilar","images/stimuli/spore_stims/complex_01_A_b.gif","","","","",""
"","null","html-keyboard-response","138","523843","0.0-31.0-0.4","SS1618435685103","","","null","","","","","","<p><img src= images/blank.png width =""600"" height = ""600"" style=""position:fixed;top:50%; left:50%; transform: translate(-50%, -50%); border:5px solid black"">","","","","","","","",""
"","424","sequential-stimulus-presentation-old","139","524787","0.0-31.0-1.4","SS1618435685103","trial","","40","500","924","images/stimuli/spore_stims/complex_04_A_a.gif","images/stimuli/spore_stims/complex_01_A_b.gif","self_paced","","11","complex_dissimilar","images/stimuli/spore_stims/complex_01_A_b.gif","","","","",""
"","null","html-keyboard-response","140","525959","0.0-31.0-0.5","SS1618435685103","","","null","","","","","","<p><img src= images/blank.png width =""600"" height = ""600"" style=""position:fixed;top:50%; left:50%; transform: translate(-50%, -50%); border:5px solid black"">","","","","","","","",""
"","74","sequential-stimulus-presentation-old","141","526558","0.0-31.0-1.5","SS1618435685103","trial","","40","500","574","images/stimuli/spore_stims/complex_04_A_a.gif","images/stimuli/spore_stims/complex_01_A_b.gif","self_paced","","11","complex_dissimilar","images/stimuli/spore_stims/complex_01_A_b.gif","","","","",""
"[{""page_index"":0,""viewing_time"":15134}]","15134","instructions","142","541696","0.0-32.0","SS1618435685103","instructions","","","","","","","","","","","","","","","",""
"","45680","survey-likert","143","587388","0.0-33.0","SS1618435685103","similarity_question","","","","","","","","","","","","{""Q0"":3}","[0]","","images/stimuli/spore_stims/complex_10_A_a.gif","images/stimuli/spore_stims/complex_02_A_b.gif"
"","21881","survey-likert","144","609289","0.0-34.0","SS1618435685103","similarity_question","","","","","","","","","","","","{""Q0"":0}","[0]","","images/stimuli/spore_stims/complex_08_A_b.gif","images/stimuli/spore_stims/complex_06_A_a.gif"
"","4699","survey-likert","145","614002","0.0-35.0","SS1618435685103","similarity_question","","","","","","","","","","","","{""Q0"":4}","[0]","","images/stimuli/spore_stims/simple_02_A_a.gif","images/stimuli/spore_stims/simple_06_A_b.gif"
"","4782","survey-likert","146","618798","0.0-36.0","SS1618435685103","similarity_question","","","","","","","","","","","","{""Q0"":6}","[0]","","images/stimuli/spore_stims/simple_15_A_b.gif","images/stimuli/spore_stims/simple_16_A_a.gif"
"","3755","survey-likert","147","622563","0.0-37.0","SS1618435685103","similarity_question","","","","","","","","","","","","{""Q0"":4}","[0]","","images/stimuli/spore_stims/complex_04_A_a.gif","images/stimuli/spore_stims/complex_01_A_b.gif"
"","2846","survey-likert","148","625418","0.0-38.0","SS1618435685103","similarity_question","","","","","","","","","","","","{""Q0"":6}","[0]","","images/stimuli/spore_stims/simple_06_A_a.gif","images/stimuli/spore_stims/simple_09_A_b.gif"
"","3411","survey-likert","149","628843","0.0-39.0","SS1618435685103","similarity_question","","","","","","","","","","","","{""Q0"":0}","[0]","","images/stimuli/spore_stims/complex_09_A_b.gif","images/stimuli/spore_stims/complex_08_A_a.gif"
"","5131","survey-likert","150","633985","0.0-40.0","SS1618435685103","similarity_question","","","","","","","","","","","","{""Q0"":4}","[0]","","images/stimuli/spore_stims/simple_05_A_a.gif","images/stimuli/spore_stims/simple_10_A_b.gif"
"","3401","survey-likert","151","637401","0.0-41.0","SS1618435685103","similarity_question","","","","","","","","","","","","{""Q0"":5}","[0]","","images/stimuli/spore_stims/complex_13_A_a.gif","images/stimuli/spore_stims/complex_18_A_b.gif"
"","4769","survey-likert","152","642182","0.0-42.0","SS1618435685103","similarity_question","","","","","","","","","","","","{""Q0"":2}","[0]","","images/stimuli/spore_stims/complex_12_A_a.gif","images/stimuli/spore_stims/complex_05_A_b.gif"
"","3542","survey-likert","153","645738","0.0-43.0","SS1618435685103","similarity_question","","","","","","","","","","","","{""Q0"":3}","[0]","","images/stimuli/spore_stims/simple_03_A_b.gif","images/stimuli/spore_stims/simple_20_A_a.gif"
"","6265","survey-likert","154","652018","0.0-44.0","SS1618435685103","similarity_question","","","","","","","","","","","","{""Q0"":2}","[0]","","images/stimuli/spore_stims/simple_13_A_b.gif","images/stimuli/spore_stims/simple_11_A_a.gif"
"[{""page_index"":0,""viewing_time"":13449}]","13449","instructions","155","665479","0.0-45.0","SS1618435685103","instructions","","","","","","","","","","","","","","","",""
"","26870","survey-likert","156","692361","0.0-46.0","SS1618435685103","","","","","","","","","images/stimuli/spore_stims/complex_13_A_a.gif","","","","{""Q0"":5}","[0]","","",""
"","2556","survey-likert","157","694929","0.0-47.0","SS1618435685103","","","","","","","","","images/stimuli/spore_stims/simple_13_A_b.gif","","","","{""Q0"":1}","[0]","","",""
"","5621","survey-likert","158","700561","0.0-48.0","SS1618435685103","","","","","","","","","images/stimuli/spore_stims/simple_15_A_b.gif","","","","{""Q0"":1}","[0]","","",""
"","3095","survey-likert","159","703668","0.0-49.0","SS1618435685103","","","","","","","","","images/stimuli/spore_stims/simple_20_A_a.gif","","","","{""Q0"":2}","[0]","","",""
"","2493","survey-likert","160","706171","0.0-50.0","SS1618435685103","","","","","","","","","images/stimuli/spore_stims/simple_09_A_b.gif","","","","{""Q0"":2}","[0]","","",""
"","2721","survey-likert","161","708906","0.0-51.0","SS1618435685103","","","","","","","","","images/stimuli/spore_stims/complex_05_A_b.gif","","","","{""Q0"":4}","[0]","","",""
"","3705","survey-likert","162","712625","0.0-52.0","SS1618435685103","","","","","","","","","images/stimuli/spore_stims/complex_04_A_a.gif","","","","{""Q0"":6}","[0]","","",""
"","2338","survey-likert","163","714979","0.0-53.0","SS1618435685103","","","","","","","","","images/stimuli/spore_stims/complex_08_A_b.gif","","","","{""Q0"":5}","[0]","","",""
"","2757","survey-likert","164","717747","0.0-54.0","SS1618435685103","","","","","","","","","images/stimuli/spore_stims/complex_09_A_b.gif","","","","{""Q0"":6}","[0]","","",""
"","3323","survey-likert","165","721083","0.0-55.0","SS1618435685103","","","","","","","","","images/stimuli/spore_stims/simple_10_A_b.gif","","","","{""Q0"":2}","[0]","","",""
"","2428","survey-likert","166","723521","0.0-56.0","SS1618435685103","","","","","","","","","images/stimuli/spore_stims/simple_02_A_a.gif","","","","{""Q0"":2}","[0]","","",""
"","1935","survey-likert","167","725466","0.0-57.0","SS1618435685103","","","","","","","","","images/stimuli/spore_stims/complex_02_A_b.gif","","","","{""Q0"":4}","[0]","","",""
"[{""page_index"":0,""viewing_time"":2188}]","2188","instructions","168","727665","0.0-58.0","SS1618435685103","instructions","","","","","","","","","","","","","","","",""
"","2684","demog-age","169","730387","0.0-59.0","SS1618435685103","","","","","","","","","","","","","{""age"":""19""}","","","",""
"","32680","demog-ethnic-US","170","763082","0.0-60.0","SS1618435685103","","","","","","","","","","","","","{""ethnicity"":[""White""]}","[0]","","",""
"","7267","demog-gender-and-education","171","770370","0.0-61.0","SS1618435685103","","","","","","","","","","","","","{""gender"":""Female"",""education"":""Some high school""}","[0,1]","","",""
"","45702","survey-text","172","816097","0.0-62.0","SS1618435685103","feedback","","","","","","","","","","","","{""Q0"":""The animation slowed down a little bit.""}","","","",""
"[{""page_index"":0,""viewing_time"":1755}]","1755","instructions","173","817863","0.0-63.0","SS1618435685103","instructions","","","","","","","","","","","","","","","",""
