"view_history","rt","trial_type","trial_index","time_elapsed","internal_node_id","subject","stimulus_type","trial_stimulus","key_press","minimum_viewing_duration","trial_looking_time","block_deviant","block_background","exposure_type","stimulus","block_number","block_type","stimulus_displayed","responses","question_order","math_correct_answer","stimulus_left","stimulus_right"
"[{""page_index"":0,""viewing_time"":27521.53000002727}]","27522.200000006706","instructions","0","27524","0.0-0.0","SS1618006498914","","","","","","","","","","","","","","","","",""
"[{""page_index"":0,""viewing_time"":32027.545000077225},{""page_index"":1,""viewing_time"":11150.919999927282}]","43178.630000096746","instructions","1","72705","0.0-1.0","SS1618006498914","instructions","","","","","","","","","","","","","","","",""
"","6959.09500005655","sequential-stimulus-presentation-old","2","80174","0.0-2.0","SS1618006498914","","","40","500","7459.09500005655","null","null","self_paced","","","","","","","","",""
"","6845.839999965392","sequential-stimulus-presentation-old","3","87530","0.0-3.0","SS1618006498914","","","40","500","7345.839999965392","null","null","self_paced","","","","","","","","",""
"[{""page_index"":0,""viewing_time"":39932.05499998294}]","39932.19500000123","instructions","4","127462","0.0-4.0","SS1618006498914","instructions","","","","","","","","","","","","","","","",""
"","4099.939999985509","sequential-stimulus-presentation-old","5","136571","0.0-5.0","SS1618006498914","","","40","500","4599.939999985509","null","null","forced_long","","","","","","","","",""
"","5561.755000031553","sequential-stimulus-presentation-old","6","142187","0.0-6.0","SS1618006498914","","","40","50","5611.755000031553","null","null","forced_long","","","","","","","","",""
"[{""page_index"":0,""viewing_time"":4971.144999959506}]","4971.350000007078","instructions","7","147160","0.0-7.0","SS1618006498914","instructions","","","","","","","","","","","","","","","",""
"[{""page_index"":0,""viewing_time"":19068.020000006072},{""page_index"":1,""viewing_time"":19601.135000004433},{""page_index"":2,""viewing_time"":10359.954999992624},{""page_index"":3,""viewing_time"":1615.9500000067055},{""page_index"":4,""viewing_time"":1755.059999995865}]","52400.31499997713","instructions","8","199562","0.0-8.0","SS1618006498914","instructions","","","","","","","","","","","","","","","",""
"","null","html-keyboard-response","9","200368","0.0-9.0-0.0","SS1618006498914","","","null","","","","","","<p><img src= images/blank.png width =""600"" height = ""600"" style=""position:fixed;top:50%; left:50%; transform: translate(-50%, -50%); border:5px solid black"">","","","","","","","",""
"","1245.3199999872595","sequential-stimulus-presentation-old","10","201674","0.0-9.0-1.0","SS1618006498914","trial","","40","500","1745.3199999872595","images/stimuli/spore_stims/complex_06_A_a.gif","images/stimuli/spore_stims/complex_03_A_b.gif","forced_short","","0","complex_dissimilar","images/stimuli/spore_stims/complex_03_A_b.gif","","","","",""
"","null","html-keyboard-response","11","202793","0.0-9.0-0.1","SS1618006498914","","","null","","","","","","<p><img src= images/blank.png width =""600"" height = ""600"" style=""position:fixed;top:50%; left:50%; transform: translate(-50%, -50%); border:5px solid black"">","","","","","","","",""
"","10448.600000003353","sequential-stimulus-presentation-old","12","213748","0.0-9.0-1.1","SS1618006498914","trial","","40","500","10948.600000003353","images/stimuli/spore_stims/complex_06_A_a.gif","images/stimuli/spore_stims/complex_03_A_b.gif","forced_short","","0","complex_dissimilar","images/stimuli/spore_stims/complex_06_A_a.gif","","","","",""
"","null","html-keyboard-response","13","214662","0.0-9.0-0.2","SS1618006498914","","","null","","","","","","<p><img src= images/blank.png width =""600"" height = ""600"" style=""position:fixed;top:50%; left:50%; transform: translate(-50%, -50%); border:5px solid black"">","","","","","","","",""
"","6343.854999984615","sequential-stimulus-presentation-old","14","221523","0.0-9.0-1.2","SS1618006498914","trial","","40","500","6843.854999984615","images/stimuli/spore_stims/complex_06_A_a.gif","images/stimuli/spore_stims/complex_03_A_b.gif","forced_short","","0","complex_dissimilar","images/stimuli/spore_stims/complex_03_A_b.gif","","","","",""
"","null","html-keyboard-response","15","222348","0.0-9.0-0.3","SS1618006498914","","","null","","","","","","<p><img src= images/blank.png width =""600"" height = ""600"" style=""position:fixed;top:50%; left:50%; transform: translate(-50%, -50%); border:5px solid black"">","","","","","","","",""
"","3013.2799999555573","sequential-stimulus-presentation-old","16","225874","0.0-9.0-1.3","SS1618006498914","trial","","40","500","3513.2799999555573","images/stimuli/spore_stims/complex_06_A_a.gif","images/stimuli/spore_stims/complex_03_A_b.gif","forced_short","","0","complex_dissimilar","images/stimuli/spore_stims/complex_03_A_b.gif","","","","",""
"","null","html-keyboard-response","17","226747","0.0-9.0-0.4","SS1618006498914","","","null","","","","","","<p><img src= images/blank.png width =""600"" height = ""600"" style=""position:fixed;top:50%; left:50%; transform: translate(-50%, -50%); border:5px solid black"">","","","","","","","",""
"","964.9649999337271","sequential-stimulus-presentation-old","18","228218","0.0-9.0-1.4","SS1618006498914","trial","","40","500","1464.964999933727","images/stimuli/spore_stims/complex_06_A_a.gif","images/stimuli/spore_stims/complex_03_A_b.gif","forced_short","","0","complex_dissimilar","images/stimuli/spore_stims/complex_03_A_b.gif","","","","",""
"","4403.400000068359","survey-multi-choice","19","232624","0.0-10.0","SS1618006498914","math_question","","","","","","","","","","","","{""Q0"":""7""}","[0]","7","",""
"","null","html-keyboard-response","20","233745","0.0-11.0-0.0","SS1618006498914","","","null","","","","","","<p><img src= images/blank.png width =""600"" height = ""600"" style=""position:fixed;top:50%; left:50%; transform: translate(-50%, -50%); border:5px solid black"">","","","","","","","",""
"","3311.0550000565127","sequential-stimulus-presentation-old","21","242058","0.0-11.0-1.0","SS1618006498914","trial","","40","500","3811.0550000565127","images/stimuli/spore_stims/complex_20_A_a.gif","images/stimuli/spore_stims/complex_18_A_b.gif","forced_long","","1","complex_dissimilar","images/stimuli/spore_stims/complex_18_A_b.gif","","","","",""
"","null","html-keyboard-response","22","242915","0.0-11.0-0.1","SS1618006498914","","","null","","","","","","<p><img src= images/blank.png width =""600"" height = ""600"" style=""position:fixed;top:50%; left:50%; transform: translate(-50%, -50%); border:5px solid black"">","","","","","","","",""
"","5259.970000013709","sequential-stimulus-presentation-old","23","248682","0.0-11.0-1.1","SS1618006498914","trial","","40","500","5759.970000013709","images/stimuli/spore_stims/complex_20_A_a.gif","images/stimuli/spore_stims/complex_18_A_b.gif","forced_long","","1","complex_dissimilar","images/stimuli/spore_stims/complex_20_A_a.gif","","","","",""
"","null","html-keyboard-response","24","249831","0.0-11.0-0.2","SS1618006498914","","","null","","","","","","<p><img src= images/blank.png width =""600"" height = ""600"" style=""position:fixed;top:50%; left:50%; transform: translate(-50%, -50%); border:5px solid black"">","","","","","","","",""
"","1098.119999980554","sequential-stimulus-presentation-old","25","251435","0.0-11.0-1.2","SS1618006498914","trial","","40","500","1598.119999980554","images/stimuli/spore_stims/complex_20_A_a.gif","images/stimuli/spore_stims/complex_18_A_b.gif","forced_long","","1","complex_dissimilar","images/stimuli/spore_stims/complex_18_A_b.gif","","","","",""
"","null","html-keyboard-response","26","252436","0.0-11.0-0.3","SS1618006498914","","","null","","","","","","<p><img src= images/blank.png width =""600"" height = ""600"" style=""position:fixed;top:50%; left:50%; transform: translate(-50%, -50%); border:5px solid black"">","","","","","","","",""
"","869.2850000225008","sequential-stimulus-presentation-old","27","253812","0.0-11.0-1.3","SS1618006498914","trial","","40","500","1369.2850000225008","images/stimuli/spore_stims/complex_20_A_a.gif","images/stimuli/spore_stims/complex_18_A_b.gif","forced_long","","1","complex_dissimilar","images/stimuli/spore_stims/complex_18_A_b.gif","","","","",""
"","null","html-keyboard-response","28","254966","0.0-11.0-0.4","SS1618006498914","","","null","","","","","","<p><img src= images/blank.png width =""600"" height = ""600"" style=""position:fixed;top:50%; left:50%; transform: translate(-50%, -50%); border:5px solid black"">","","","","","","","",""
"","2802.060000016354","sequential-stimulus-presentation-old","29","258274","0.0-11.0-1.4","SS1618006498914","trial","","40","500","3302.060000016354","images/stimuli/spore_stims/complex_20_A_a.gif","images/stimuli/spore_stims/complex_18_A_b.gif","forced_long","","1","complex_dissimilar","images/stimuli/spore_stims/complex_20_A_a.gif","","","","",""
"","2587.5750000122935","survey-multi-choice","30","260864","0.0-12.0","SS1618006498914","math_question","","","","","","","","","","","","{""Q0"":""16""}","[0]","16","",""
"","null","html-keyboard-response","31","261993","0.0-13.0-0.0","SS1618006498914","","","null","","","","","","<p><img src= images/blank.png width =""600"" height = ""600"" style=""position:fixed;top:50%; left:50%; transform: translate(-50%, -50%); border:5px solid black"">","","","","","","","",""
"","1033.3649999229237","sequential-stimulus-presentation-old","32","263082","0.0-13.0-1.0","SS1618006498914","trial","","40","500","1533.3649999229237","images/stimuli/spore_stims/complex_12_A_b.gif","images/stimuli/spore_stims/complex_07_A_a.gif","forced_short","","2","complex_dissimilar","images/stimuli/spore_stims/complex_07_A_a.gif","","","","",""
"","null","html-keyboard-response","33","264108","0.0-13.0-0.1","SS1618006498914","","","null","","","","","","<p><img src= images/blank.png width =""600"" height = ""600"" style=""position:fixed;top:50%; left:50%; transform: translate(-50%, -50%); border:5px solid black"">","","","","","","","",""
"","6901.899999938905","sequential-stimulus-presentation-old","34","271515","0.0-13.0-1.1","SS1618006498914","trial","","40","500","7401.899999938905","images/stimuli/spore_stims/complex_12_A_b.gif","images/stimuli/spore_stims/complex_07_A_a.gif","forced_short","","2","complex_dissimilar","images/stimuli/spore_stims/complex_07_A_a.gif","","","","",""
"","null","html-keyboard-response","35","272723","0.0-13.0-0.2","SS1618006498914","","","null","","","","","","<p><img src= images/blank.png width =""600"" height = ""600"" style=""position:fixed;top:50%; left:50%; transform: translate(-50%, -50%); border:5px solid black"">","","","","","","","",""
"","2835.685000056401","sequential-stimulus-presentation-old","36","276067","0.0-13.0-1.2","SS1618006498914","trial","","40","500","3335.685000056401","images/stimuli/spore_stims/complex_12_A_b.gif","images/stimuli/spore_stims/complex_07_A_a.gif","forced_short","","2","complex_dissimilar","images/stimuli/spore_stims/complex_12_A_b.gif","","","","",""
"","null","html-keyboard-response","37","277206","0.0-13.0-0.3","SS1618006498914","","","null","","","","","","<p><img src= images/blank.png width =""600"" height = ""600"" style=""position:fixed;top:50%; left:50%; transform: translate(-50%, -50%); border:5px solid black"">","","","","","","","",""
"","3126.689999946393","sequential-stimulus-presentation-old","38","280843","0.0-13.0-1.3","SS1618006498914","trial","","40","500","3626.689999946393","images/stimuli/spore_stims/complex_12_A_b.gif","images/stimuli/spore_stims/complex_07_A_a.gif","forced_short","","2","complex_dissimilar","images/stimuli/spore_stims/complex_07_A_a.gif","","","","",""
"","null","html-keyboard-response","39","281917","0.0-13.0-0.4","SS1618006498914","","","null","","","","","","<p><img src= images/blank.png width =""600"" height = ""600"" style=""position:fixed;top:50%; left:50%; transform: translate(-50%, -50%); border:5px solid black"">","","","","","","","",""
"","933.1699999747798","sequential-stimulus-presentation-old","40","283365","0.0-13.0-1.4","SS1618006498914","trial","","40","500","1433.1699999747798","images/stimuli/spore_stims/complex_12_A_b.gif","images/stimuli/spore_stims/complex_07_A_a.gif","forced_short","","2","complex_dissimilar","images/stimuli/spore_stims/complex_07_A_a.gif","","","","",""
"","null","html-keyboard-response","41","284606","0.0-13.0-0.5","SS1618006498914","","","null","","","","","","<p><img src= images/blank.png width =""600"" height = ""600"" style=""position:fixed;top:50%; left:50%; transform: translate(-50%, -50%); border:5px solid black"">","","","","","","","",""
"","637.0800000149757","sequential-stimulus-presentation-old","42","285755","0.0-13.0-1.5","SS1618006498914","trial","","40","500","1137.0800000149757","images/stimuli/spore_stims/complex_12_A_b.gif","images/stimuli/spore_stims/complex_07_A_a.gif","forced_short","","2","complex_dissimilar","images/stimuli/spore_stims/complex_07_A_a.gif","","","","",""
"","2410.024999990128","survey-multi-choice","43","288170","0.0-14.0","SS1618006498914","math_question","","","","","","","","","","","","{""Q0"":""10""}","[0]","10","",""
"","null","html-keyboard-response","44","289011","0.0-15.0-0.0","SS1618006498914","","","null","","","","","","<p><img src= images/blank.png width =""600"" height = ""600"" style=""position:fixed;top:50%; left:50%; transform: translate(-50%, -50%); border:5px solid black"">","","","","","","","",""
"","6316.445000004023","sequential-stimulus-presentation-old","45","295834","0.0-15.0-1.0","SS1618006498914","trial","","40","500","6816.445000004023","images/stimuli/spore_stims/complex_01_A_a.gif","images/stimuli/spore_stims/complex_15_A_b.gif","self_paced","","3","complex_dissimilar","images/stimuli/spore_stims/complex_15_A_b.gif","","","","",""
"","null","html-keyboard-response","46","297019","0.0-15.0-0.1","SS1618006498914","","","null","","","","","","<p><img src= images/blank.png width =""600"" height = ""600"" style=""position:fixed;top:50%; left:50%; transform: translate(-50%, -50%); border:5px solid black"">","","","","","","","",""
"","432.76500003412366","sequential-stimulus-presentation-old","47","297955","0.0-15.0-1.1","SS1618006498914","trial","","40","500","932.7650000341237","images/stimuli/spore_stims/complex_01_A_a.gif","images/stimuli/spore_stims/complex_15_A_b.gif","self_paced","","3","complex_dissimilar","images/stimuli/spore_stims/complex_15_A_b.gif","","","","",""
"","null","html-keyboard-response","48","298948","0.0-15.0-0.2","SS1618006498914","","","null","","","","","","<p><img src= images/blank.png width =""600"" height = ""600"" style=""position:fixed;top:50%; left:50%; transform: translate(-50%, -50%); border:5px solid black"">","","","","","","","",""
"","1902.074999990873","sequential-stimulus-presentation-old","49","301354","0.0-15.0-1.2","SS1618006498914","trial","","40","500","2402.074999990873","images/stimuli/spore_stims/complex_01_A_a.gif","images/stimuli/spore_stims/complex_15_A_b.gif","self_paced","","3","complex_dissimilar","images/stimuli/spore_stims/complex_15_A_b.gif","","","","",""
"","null","html-keyboard-response","50","302234","0.0-15.0-0.3","SS1618006498914","","","null","","","","","","<p><img src= images/blank.png width =""600"" height = ""600"" style=""position:fixed;top:50%; left:50%; transform: translate(-50%, -50%); border:5px solid black"">","","","","","","","",""
"","2242.1050000702962","sequential-stimulus-presentation-old","51","304979","0.0-15.0-1.3","SS1618006498914","trial","","40","500","2742.1050000702962","images/stimuli/spore_stims/complex_01_A_a.gif","images/stimuli/spore_stims/complex_15_A_b.gif","self_paced","","3","complex_dissimilar","images/stimuli/spore_stims/complex_15_A_b.gif","","","","",""
"","null","html-keyboard-response","52","306001","0.0-15.0-0.4","SS1618006498914","","","null","","","","","","<p><img src= images/blank.png width =""600"" height = ""600"" style=""position:fixed;top:50%; left:50%; transform: translate(-50%, -50%); border:5px solid black"">","","","","","","","",""
"","2482.9550000140443","sequential-stimulus-presentation-old","53","308987","0.0-15.0-1.4","SS1618006498914","trial","","40","500","2982.9550000140443","images/stimuli/spore_stims/complex_01_A_a.gif","images/stimuli/spore_stims/complex_15_A_b.gif","self_paced","","3","complex_dissimilar","images/stimuli/spore_stims/complex_15_A_b.gif","","","","",""
"","null","html-keyboard-response","54","309899","0.0-15.0-0.5","SS1618006498914","","","null","","","","","","<p><img src= images/blank.png width =""600"" height = ""600"" style=""position:fixed;top:50%; left:50%; transform: translate(-50%, -50%); border:5px solid black"">","","","","","","","",""
"","229.70499994698912","sequential-stimulus-presentation-old","55","310642","0.0-15.0-1.5","SS1618006498914","trial","","40","500","729.7049999469891","images/stimuli/spore_stims/complex_01_A_a.gif","images/stimuli/spore_stims/complex_15_A_b.gif","self_paced","","3","complex_dissimilar","images/stimuli/spore_stims/complex_15_A_b.gif","","","","",""
"","3381.610000040382","survey-multi-choice","56","314025","0.0-16.0","SS1618006498914","math_question","","","","","","","","","","","","{""Q0"":""16""}","[0]","16","",""
"","null","html-keyboard-response","57","315226","0.0-17.0-0.0","SS1618006498914","","","null","","","","","","<p><img src= images/blank.png width =""600"" height = ""600"" style=""position:fixed;top:50%; left:50%; transform: translate(-50%, -50%); border:5px solid black"">","","","","","","","",""
"","667.2699999762699","sequential-stimulus-presentation-old","58","320900","0.0-17.0-1.0","SS1618006498914","trial","","40","500","1167.26999997627","images/stimuli/spore_stims/complex_11_A_a.gif","images/stimuli/spore_stims/complex_04_A_b.gif","forced_long","","4","complex_dissimilar","images/stimuli/spore_stims/complex_04_A_b.gif","","","","",""
"","null","html-keyboard-response","59","321992","0.0-17.0-0.1","SS1618006498914","","","null","","","","","","<p><img src= images/blank.png width =""600"" height = ""600"" style=""position:fixed;top:50%; left:50%; transform: translate(-50%, -50%); border:5px solid black"">","","","","","","","",""
"","5963.624999974854","sequential-stimulus-presentation-old","60","328459","0.0-17.0-1.1","SS1618006498914","trial","","40","500","6463.624999974854","images/stimuli/spore_stims/complex_11_A_a.gif","images/stimuli/spore_stims/complex_04_A_b.gif","forced_long","","4","complex_dissimilar","images/stimuli/spore_stims/complex_04_A_b.gif","","","","",""
"","null","html-keyboard-response","61","329678","0.0-17.0-0.2","SS1618006498914","","","null","","","","","","<p><img src= images/blank.png width =""600"" height = ""600"" style=""position:fixed;top:50%; left:50%; transform: translate(-50%, -50%); border:5px solid black"">","","","","","","","",""
"","561.1250000074506","sequential-stimulus-presentation-old","62","330746","0.0-17.0-1.2","SS1618006498914","trial","","40","500","1061.1250000074506","images/stimuli/spore_stims/complex_11_A_a.gif","images/stimuli/spore_stims/complex_04_A_b.gif","forced_long","","4","complex_dissimilar","images/stimuli/spore_stims/complex_04_A_b.gif","","","","",""
"","null","html-keyboard-response","63","331801","0.0-17.0-0.3","SS1618006498914","","","null","","","","","","<p><img src= images/blank.png width =""600"" height = ""600"" style=""position:fixed;top:50%; left:50%; transform: translate(-50%, -50%); border:5px solid black"">","","","","","","","",""
"","1639.8800000315532","sequential-stimulus-presentation-old","64","333946","0.0-17.0-1.3","SS1618006498914","trial","","40","500","2139.880000031553","images/stimuli/spore_stims/complex_11_A_a.gif","images/stimuli/spore_stims/complex_04_A_b.gif","forced_long","","4","complex_dissimilar","images/stimuli/spore_stims/complex_04_A_b.gif","","","","",""
"","null","html-keyboard-response","65","335059","0.0-17.0-0.4","SS1618006498914","","","null","","","","","","<p><img src= images/blank.png width =""600"" height = ""600"" style=""position:fixed;top:50%; left:50%; transform: translate(-50%, -50%); border:5px solid black"">","","","","","","","",""
"","1273.7750000087544","sequential-stimulus-presentation-old","66","336842","0.0-17.0-1.4","SS1618006498914","trial","","40","500","1773.7750000087544","images/stimuli/spore_stims/complex_11_A_a.gif","images/stimuli/spore_stims/complex_04_A_b.gif","forced_long","","4","complex_dissimilar","images/stimuli/spore_stims/complex_04_A_b.gif","","","","",""
"","2333.684999961406","survey-multi-choice","67","339178","0.0-18.0","SS1618006498914","math_question","","","","","","","","","","","","{""Q0"":""10""}","[0]","10","",""
"","null","html-keyboard-response","68","340067","0.0-19.0-0.0","SS1618006498914","","","null","","","","","","<p><img src= images/blank.png width =""600"" height = ""600"" style=""position:fixed;top:50%; left:50%; transform: translate(-50%, -50%); border:5px solid black"">","","","","","","","",""
"","161.45500005222857","sequential-stimulus-presentation-old","69","345236","0.0-19.0-1.0","SS1618006498914","trial","","40","500","661.4550000522286","images/stimuli/spore_stims/simple_17_A_a.gif","images/stimuli/spore_stims/simple_08_A_b.gif","forced_long","","5","simple_dissimilar","images/stimuli/spore_stims/simple_08_A_b.gif","","","","",""
"","null","html-keyboard-response","70","346161","0.0-19.0-0.1","SS1618006498914","","","null","","","","","","<p><img src= images/blank.png width =""600"" height = ""600"" style=""position:fixed;top:50%; left:50%; transform: translate(-50%, -50%); border:5px solid black"">","","","","","","","",""
"","4116.650000098161","sequential-stimulus-presentation-old","71","351203","0.0-19.0-1.1","SS1618006498914","trial","","40","500","4616.650000098161","images/stimuli/spore_stims/simple_17_A_a.gif","images/stimuli/spore_stims/simple_08_A_b.gif","forced_long","","5","simple_dissimilar","images/stimuli/spore_stims/simple_08_A_b.gif","","","","",""
"","null","html-keyboard-response","72","352324","0.0-19.0-0.2","SS1618006498914","","","null","","","","","","<p><img src= images/blank.png width =""600"" height = ""600"" style=""position:fixed;top:50%; left:50%; transform: translate(-50%, -50%); border:5px solid black"">","","","","","","","",""
"","1219.014999922365","sequential-stimulus-presentation-old","73","354052","0.0-19.0-1.2","SS1618006498914","trial","","40","500","1719.014999922365","images/stimuli/spore_stims/simple_17_A_a.gif","images/stimuli/spore_stims/simple_08_A_b.gif","forced_long","","5","simple_dissimilar","images/stimuli/spore_stims/simple_08_A_b.gif","","","","",""
"","null","html-keyboard-response","74","355300","0.0-19.0-0.3","SS1618006498914","","","null","","","","","","<p><img src= images/blank.png width =""600"" height = ""600"" style=""position:fixed;top:50%; left:50%; transform: translate(-50%, -50%); border:5px solid black"">","","","","","","","",""
"","3221.695000072941","sequential-stimulus-presentation-old","75","359036","0.0-19.0-1.3","SS1618006498914","trial","","40","500","3721.695000072941","images/stimuli/spore_stims/simple_17_A_a.gif","images/stimuli/spore_stims/simple_08_A_b.gif","forced_long","","5","simple_dissimilar","images/stimuli/spore_stims/simple_17_A_a.gif","","","","",""
"","null","html-keyboard-response","76","360009","0.0-19.0-0.4","SS1618006498914","","","null","","","","","","<p><img src= images/blank.png width =""600"" height = ""600"" style=""position:fixed;top:50%; left:50%; transform: translate(-50%, -50%); border:5px solid black"">","","","","","","","",""
"","2999.0949999773875","sequential-stimulus-presentation-old","77","363515","0.0-19.0-1.4","SS1618006498914","trial","","40","500","3499.0949999773875","images/stimuli/spore_stims/simple_17_A_a.gif","images/stimuli/spore_stims/simple_08_A_b.gif","forced_long","","5","simple_dissimilar","images/stimuli/spore_stims/simple_08_A_b.gif","","","","",""
"","null","html-keyboard-response","78","364780","0.0-19.0-0.5","SS1618006498914","","","null","","","","","","<p><img src= images/blank.png width =""600"" height = ""600"" style=""position:fixed;top:50%; left:50%; transform: translate(-50%, -50%); border:5px solid black"">","","","","","","","",""
"","276.92500001285225","sequential-stimulus-presentation-old","79","365562","0.0-19.0-1.5","SS1618006498914","trial","","40","500","776.9250000128523","images/stimuli/spore_stims/simple_17_A_a.gif","images/stimuli/spore_stims/simple_08_A_b.gif","forced_long","","5","simple_dissimilar","images/stimuli/spore_stims/simple_08_A_b.gif","","","","",""
"","2902.54499996081","survey-multi-choice","80","368466","0.0-20.0","SS1618006498914","math_question","","","","","","","","","","","","{""Q0"":""10""}","[0]","10","",""
"","null","html-keyboard-response","81","369666","0.0-21.0-0.0","SS1618006498914","","","null","","","","","","<p><img src= images/blank.png width =""600"" height = ""600"" style=""position:fixed;top:50%; left:50%; transform: translate(-50%, -50%); border:5px solid black"">","","","","","","","",""
"","986.4300000481308","sequential-stimulus-presentation-old","82","370714","0.0-21.0-1.0","SS1618006498914","trial","","40","500","1486.4300000481308","images/stimuli/spore_stims/simple_03_A_b.gif","images/stimuli/spore_stims/simple_16_A_a.gif","forced_short","","6","simple_dissimilar","images/stimuli/spore_stims/simple_16_A_a.gif","","","","",""
"","null","html-keyboard-response","83","371601","0.0-21.0-0.1","SS1618006498914","","","null","","","","","","<p><img src= images/blank.png width =""600"" height = ""600"" style=""position:fixed;top:50%; left:50%; transform: translate(-50%, -50%); border:5px solid black"">","","","","","","","",""
"","1280.1949999993667","sequential-stimulus-presentation-old","84","373395","0.0-21.0-1.1","SS1618006498914","trial","","40","500","1780.1949999993667","images/stimuli/spore_stims/simple_03_A_b.gif","images/stimuli/spore_stims/simple_16_A_a.gif","forced_short","","6","simple_dissimilar","images/stimuli/spore_stims/simple_16_A_a.gif","","","","",""
"","null","html-keyboard-response","85","374352","0.0-21.0-0.2","SS1618006498914","","","null","","","","","","<p><img src= images/blank.png width =""600"" height = ""600"" style=""position:fixed;top:50%; left:50%; transform: translate(-50%, -50%); border:5px solid black"">","","","","","","","",""
"","207.4199999915436","sequential-stimulus-presentation-old","86","375067","0.0-21.0-1.2","SS1618006498914","trial","","40","500","707.4199999915436","images/stimuli/spore_stims/simple_03_A_b.gif","images/stimuli/spore_stims/simple_16_A_a.gif","forced_short","","6","simple_dissimilar","images/stimuli/spore_stims/simple_16_A_a.gif","","","","",""
"","null","html-keyboard-response","87","376019","0.0-21.0-0.3","SS1618006498914","","","null","","","","","","<p><img src= images/blank.png width =""600"" height = ""600"" style=""position:fixed;top:50%; left:50%; transform: translate(-50%, -50%); border:5px solid black"">","","","","","","","",""
"","141.28999994136393","sequential-stimulus-presentation-old","88","376667","0.0-21.0-1.3","SS1618006498914","trial","","40","500","641.2899999413639","images/stimuli/spore_stims/simple_03_A_b.gif","images/stimuli/spore_stims/simple_16_A_a.gif","forced_short","","6","simple_dissimilar","images/stimuli/spore_stims/simple_16_A_a.gif","","","","",""
"","null","html-keyboard-response","89","377554","0.0-21.0-0.4","SS1618006498914","","","null","","","","","","<p><img src= images/blank.png width =""600"" height = ""600"" style=""position:fixed;top:50%; left:50%; transform: translate(-50%, -50%); border:5px solid black"">","","","","","","","",""
"","158.17000006791204","sequential-stimulus-presentation-old","90","378219","0.0-21.0-1.4","SS1618006498914","trial","","40","500","658.170000067912","images/stimuli/spore_stims/simple_03_A_b.gif","images/stimuli/spore_stims/simple_16_A_a.gif","forced_short","","6","simple_dissimilar","images/stimuli/spore_stims/simple_16_A_a.gif","","","","",""
"","1898.9850000943989","survey-multi-choice","91","380124","0.0-22.0","SS1618006498914","math_question","","","","","","","","","","","","{""Q0"":""18""}","[0]","18","",""
"","null","html-keyboard-response","92","381269","0.0-23.0-0.0","SS1618006498914","","","null","","","","","","<p><img src= images/blank.png width =""600"" height = ""600"" style=""position:fixed;top:50%; left:50%; transform: translate(-50%, -50%); border:5px solid black"">","","","","","","","",""
"","3220.384999993257","sequential-stimulus-presentation-old","93","385004","0.0-23.0-1.0","SS1618006498914","trial","","40","500","3720.384999993257","images/stimuli/spore_stims/simple_06_A_b.gif","images/stimuli/spore_stims/simple_15_A_a.gif","self_paced","","7","simple_dissimilar","images/stimuli/spore_stims/simple_15_A_a.gif","","","","",""
"","null","html-keyboard-response","94","386182","0.0-23.0-0.1","SS1618006498914","","","null","","","","","","<p><img src= images/blank.png width =""600"" height = ""600"" style=""position:fixed;top:50%; left:50%; transform: translate(-50%, -50%); border:5px solid black"">","","","","","","","",""
"","944.6149999275804","sequential-stimulus-presentation-old","95","387650","0.0-23.0-1.1","SS1618006498914","trial","","40","500","1444.6149999275804","images/stimuli/spore_stims/simple_06_A_b.gif","images/stimuli/spore_stims/simple_15_A_a.gif","self_paced","","7","simple_dissimilar","images/stimuli/spore_stims/simple_15_A_a.gif","","","","",""
"","null","html-keyboard-response","96","388790","0.0-23.0-0.2","SS1618006498914","","","null","","","","","","<p><img src= images/blank.png width =""600"" height = ""600"" style=""position:fixed;top:50%; left:50%; transform: translate(-50%, -50%); border:5px solid black"">","","","","","","","",""
"","11.550000053830445","sequential-stimulus-presentation-old","97","389308","0.0-23.0-1.2","SS1618006498914","trial","","40","500","511.55000005383044","images/stimuli/spore_stims/simple_06_A_b.gif","images/stimuli/spore_stims/simple_15_A_a.gif","self_paced","","7","simple_dissimilar","images/stimuli/spore_stims/simple_15_A_a.gif","","","","",""
"","null","html-keyboard-response","98","390231","0.0-23.0-0.3","SS1618006498914","","","null","","","","","","<p><img src= images/blank.png width =""600"" height = ""600"" style=""position:fixed;top:50%; left:50%; transform: translate(-50%, -50%); border:5px solid black"">","","","","","","","",""
"","188.49999993108213","sequential-stimulus-presentation-old","99","390922","0.0-23.0-1.3","SS1618006498914","trial","","40","500","688.4999999310821","images/stimuli/spore_stims/simple_06_A_b.gif","images/stimuli/spore_stims/simple_15_A_a.gif","self_paced","","7","simple_dissimilar","images/stimuli/spore_stims/simple_15_A_a.gif","","","","",""
"","null","html-keyboard-response","100","392117","0.0-23.0-0.4","SS1618006498914","","","null","","","","","","<p><img src= images/blank.png width =""600"" height = ""600"" style=""position:fixed;top:50%; left:50%; transform: translate(-50%, -50%); border:5px solid black"">","","","","","","","",""
"","5.934999906457961","sequential-stimulus-presentation-old","101","392634","0.0-23.0-1.4","SS1618006498914","trial","","40","500","505.93499990645796","images/stimuli/spore_stims/simple_06_A_b.gif","images/stimuli/spore_stims/simple_15_A_a.gif","self_paced","","7","simple_dissimilar","images/stimuli/spore_stims/simple_15_A_a.gif","","","","",""
"","null","html-keyboard-response","102","393871","0.0-23.0-0.5","SS1618006498914","","","null","","","","","","<p><img src= images/blank.png width =""600"" height = ""600"" style=""position:fixed;top:50%; left:50%; transform: translate(-50%, -50%); border:5px solid black"">","","","","","","","",""
"","288.6700000381097","sequential-stimulus-presentation-old","103","394668","0.0-23.0-1.5","SS1618006498914","trial","","40","500","788.6700000381097","images/stimuli/spore_stims/simple_06_A_b.gif","images/stimuli/spore_stims/simple_15_A_a.gif","self_paced","","7","simple_dissimilar","images/stimuli/spore_stims/simple_15_A_a.gif","","","","",""
"","2261.8299999739975","survey-multi-choice","104","396936","0.0-24.0","SS1618006498914","math_question","","","","","","","","","","","","{""Q0"":""10""}","[0]","10","",""
"","null","html-keyboard-response","105","397760","0.0-25.0-0.0","SS1618006498914","","","null","","","","","","<p><img src= images/blank.png width =""600"" height = ""600"" style=""position:fixed;top:50%; left:50%; transform: translate(-50%, -50%); border:5px solid black"">","","","","","","","",""
"","3762.1750000398606","sequential-stimulus-presentation-old","106","402027","0.0-25.0-1.0","SS1618006498914","trial","","40","500","4262.175000039861","images/stimuli/spore_stims/complex_10_A_a.gif","images/stimuli/spore_stims/complex_14_A_b.gif","self_paced","","8","complex_dissimilar","images/stimuli/spore_stims/complex_14_A_b.gif","","","","",""
"","null","html-keyboard-response","107","403042","0.0-25.0-0.1","SS1618006498914","","","null","","","","","","<p><img src= images/blank.png width =""600"" height = ""600"" style=""position:fixed;top:50%; left:50%; transform: translate(-50%, -50%); border:5px solid black"">","","","","","","","",""
"","4888.28499999363","sequential-stimulus-presentation-old","108","408435","0.0-25.0-1.1","SS1618006498914","trial","","40","500","5388.28499999363","images/stimuli/spore_stims/complex_10_A_a.gif","images/stimuli/spore_stims/complex_14_A_b.gif","self_paced","","8","complex_dissimilar","images/stimuli/spore_stims/complex_14_A_b.gif","","","","",""
"","null","html-keyboard-response","109","409579","0.0-25.0-0.2","SS1618006498914","","","null","","","","","","<p><img src= images/blank.png width =""600"" height = ""600"" style=""position:fixed;top:50%; left:50%; transform: translate(-50%, -50%); border:5px solid black"">","","","","","","","",""
"","5063.12499998603","sequential-stimulus-presentation-old","110","415146","0.0-25.0-1.2","SS1618006498914","trial","","40","500","5563.12499998603","images/stimuli/spore_stims/complex_10_A_a.gif","images/stimuli/spore_stims/complex_14_A_b.gif","self_paced","","8","complex_dissimilar","images/stimuli/spore_stims/complex_14_A_b.gif","","","","",""
"","null","html-keyboard-response","111","416164","0.0-25.0-0.3","SS1618006498914","","","null","","","","","","<p><img src= images/blank.png width =""600"" height = ""600"" style=""position:fixed;top:50%; left:50%; transform: translate(-50%, -50%); border:5px solid black"">","","","","","","","",""
"","1122.2749999724329","sequential-stimulus-presentation-old","112","417794","0.0-25.0-1.3","SS1618006498914","trial","","40","500","1622.2749999724329","images/stimuli/spore_stims/complex_10_A_a.gif","images/stimuli/spore_stims/complex_14_A_b.gif","self_paced","","8","complex_dissimilar","images/stimuli/spore_stims/complex_14_A_b.gif","","","","",""
"","null","html-keyboard-response","113","419009","0.0-25.0-0.4","SS1618006498914","","","null","","","","","","<p><img src= images/blank.png width =""600"" height = ""600"" style=""position:fixed;top:50%; left:50%; transform: translate(-50%, -50%); border:5px solid black"">","","","","","","","",""
"","1232.5899999123067","sequential-stimulus-presentation-old","114","420746","0.0-25.0-1.4","SS1618006498914","trial","","40","500","1732.5899999123067","images/stimuli/spore_stims/complex_10_A_a.gif","images/stimuli/spore_stims/complex_14_A_b.gif","self_paced","","8","complex_dissimilar","images/stimuli/spore_stims/complex_14_A_b.gif","","","","",""
"","null","html-keyboard-response","115","421925","0.0-25.0-0.5","SS1618006498914","","","null","","","","","","<p><img src= images/blank.png width =""600"" height = ""600"" style=""position:fixed;top:50%; left:50%; transform: translate(-50%, -50%); border:5px solid black"">","","","","","","","",""
"","284.37000000849366","sequential-stimulus-presentation-old","116","422724","0.0-25.0-1.5","SS1618006498914","trial","","40","500","784.3700000084937","images/stimuli/spore_stims/complex_10_A_a.gif","images/stimuli/spore_stims/complex_14_A_b.gif","self_paced","","8","complex_dissimilar","images/stimuli/spore_stims/complex_14_A_b.gif","","","","",""
"","2284.6499999286607","survey-multi-choice","117","425018","0.0-26.0","SS1618006498914","math_question","","","","","","","","","","","","{""Q0"":""7""}","[0]","7","",""
"","null","html-keyboard-response","118","425957","0.0-27.0-0.0","SS1618006498914","","","null","","","","","","<p><img src= images/blank.png width =""600"" height = ""600"" style=""position:fixed;top:50%; left:50%; transform: translate(-50%, -50%); border:5px solid black"">","","","","","","","",""
"","1252.915000077337","sequential-stimulus-presentation-old","119","427714","0.0-27.0-1.0","SS1618006498914","trial","","40","500","1752.915000077337","images/stimuli/spore_stims/simple_07_A_b.gif","images/stimuli/spore_stims/simple_02_A_a.gif","self_paced","","9","simple_dissimilar","images/stimuli/spore_stims/simple_02_A_a.gif","","","","",""
"","null","html-keyboard-response","120","429022","0.0-27.0-0.1","SS1618006498914","","","null","","","","","","<p><img src= images/blank.png width =""600"" height = ""600"" style=""position:fixed;top:50%; left:50%; transform: translate(-50%, -50%); border:5px solid black"">","","","","","","","",""
"","31.614999985322356","sequential-stimulus-presentation-old","121","429563","0.0-27.0-1.1","SS1618006498914","trial","","40","500","531.6149999853224","images/stimuli/spore_stims/simple_07_A_b.gif","images/stimuli/spore_stims/simple_02_A_a.gif","self_paced","","9","simple_dissimilar","images/stimuli/spore_stims/simple_02_A_a.gif","","","","",""
"","null","html-keyboard-response","122","430472","0.0-27.0-0.2","SS1618006498914","","","null","","","","","","<p><img src= images/blank.png width =""600"" height = ""600"" style=""position:fixed;top:50%; left:50%; transform: translate(-50%, -50%); border:5px solid black"">","","","","","","","",""
"","2562.930000014603","sequential-stimulus-presentation-old","123","433538","0.0-27.0-1.2","SS1618006498914","trial","","40","500","3062.930000014603","images/stimuli/spore_stims/simple_07_A_b.gif","images/stimuli/spore_stims/simple_02_A_a.gif","self_paced","","9","simple_dissimilar","images/stimuli/spore_stims/simple_07_A_b.gif","","","","",""
"","null","html-keyboard-response","124","434459","0.0-27.0-0.3","SS1618006498914","","","null","","","","","","<p><img src= images/blank.png width =""600"" height = ""600"" style=""position:fixed;top:50%; left:50%; transform: translate(-50%, -50%); border:5px solid black"">","","","","","","","",""
"","1112.8649999154732","sequential-stimulus-presentation-old","125","436083","0.0-27.0-1.3","SS1618006498914","trial","","40","500","1612.8649999154732","images/stimuli/spore_stims/simple_07_A_b.gif","images/stimuli/spore_stims/simple_02_A_a.gif","self_paced","","9","simple_dissimilar","images/stimuli/spore_stims/simple_07_A_b.gif","","","","",""
"","null","html-keyboard-response","126","437012","0.0-27.0-0.4","SS1618006498914","","","null","","","","","","<p><img src= images/blank.png width =""600"" height = ""600"" style=""position:fixed;top:50%; left:50%; transform: translate(-50%, -50%); border:5px solid black"">","","","","","","","",""
"","1407.7749999705702","sequential-stimulus-presentation-old","127","438923","0.0-27.0-1.4","SS1618006498914","trial","","40","500","1907.7749999705702","images/stimuli/spore_stims/simple_07_A_b.gif","images/stimuli/spore_stims/simple_02_A_a.gif","self_paced","","9","simple_dissimilar","images/stimuli/spore_stims/simple_02_A_a.gif","","","","",""
"","2608.8049999671057","survey-multi-choice","128","441540","0.0-28.0","SS1618006498914","math_question","","","","","","","","","","","","{""Q0"":""9""}","[0]","9","",""
"","null","html-keyboard-response","129","442433","0.0-29.0-0.0","SS1618006498914","","","null","","","","","","<p><img src= images/blank.png width =""600"" height = ""600"" style=""position:fixed;top:50%; left:50%; transform: translate(-50%, -50%); border:5px solid black"">","","","","","","","",""
"","684.2799999285489","sequential-stimulus-presentation-old","130","448138","0.0-29.0-1.0","SS1618006498914","trial","","40","500","1184.279999928549","images/stimuli/spore_stims/simple_13_A_a.gif","images/stimuli/spore_stims/simple_11_A_b.gif","forced_long","","10","simple_dissimilar","images/stimuli/spore_stims/simple_11_A_b.gif","","","","",""
"","null","html-keyboard-response","131","449285","0.0-29.0-0.1","SS1618006498914","","","null","","","","","","<p><img src= images/blank.png width =""600"" height = ""600"" style=""position:fixed;top:50%; left:50%; transform: translate(-50%, -50%); border:5px solid black"">","","","","","","","",""
"","467.17999991960824","sequential-stimulus-presentation-old","132","450259","0.0-29.0-1.1","SS1618006498914","trial","","40","500","967.1799999196082","images/stimuli/spore_stims/simple_13_A_a.gif","images/stimuli/spore_stims/simple_11_A_b.gif","forced_long","","10","simple_dissimilar","images/stimuli/spore_stims/simple_13_A_a.gif","","","","",""
"","null","html-keyboard-response","133","451160","0.0-29.0-0.2","SS1618006498914","","","null","","","","","","<p><img src= images/blank.png width =""600"" height = ""600"" style=""position:fixed;top:50%; left:50%; transform: translate(-50%, -50%); border:5px solid black"">","","","","","","","",""
"","1024.7600000584498","sequential-stimulus-presentation-old","134","452691","0.0-29.0-1.2","SS1618006498914","trial","","40","500","1524.7600000584498","images/stimuli/spore_stims/simple_13_A_a.gif","images/stimuli/spore_stims/simple_11_A_b.gif","forced_long","","10","simple_dissimilar","images/stimuli/spore_stims/simple_11_A_b.gif","","","","",""
"","null","html-keyboard-response","135","453821","0.0-29.0-0.3","SS1618006498914","","","null","","","","","","<p><img src= images/blank.png width =""600"" height = ""600"" style=""position:fixed;top:50%; left:50%; transform: translate(-50%, -50%); border:5px solid black"">","","","","","","","",""
"","2170.4400000162423","sequential-stimulus-presentation-old","136","456506","0.0-29.0-1.3","SS1618006498914","trial","","40","500","2670.4400000162423","images/stimuli/spore_stims/simple_13_A_a.gif","images/stimuli/spore_stims/simple_11_A_b.gif","forced_long","","10","simple_dissimilar","images/stimuli/spore_stims/simple_11_A_b.gif","","","","",""
"","null","html-keyboard-response","137","457758","0.0-29.0-0.4","SS1618006498914","","","null","","","","","","<p><img src= images/blank.png width =""600"" height = ""600"" style=""position:fixed;top:50%; left:50%; transform: translate(-50%, -50%); border:5px solid black"">","","","","","","","",""
"","377.2449999814853","sequential-stimulus-presentation-old","138","458651","0.0-29.0-1.4","SS1618006498914","trial","","40","500","877.2449999814853","images/stimuli/spore_stims/simple_13_A_a.gif","images/stimuli/spore_stims/simple_11_A_b.gif","forced_long","","10","simple_dissimilar","images/stimuli/spore_stims/simple_11_A_b.gif","","","","",""
"","null","html-keyboard-response","139","459892","0.0-29.0-0.5","SS1618006498914","","","null","","","","","","<p><img src= images/blank.png width =""600"" height = ""600"" style=""position:fixed;top:50%; left:50%; transform: translate(-50%, -50%); border:5px solid black"">","","","","","","","",""
"","25.624999892897904","sequential-stimulus-presentation-old","140","460427","0.0-29.0-1.5","SS1618006498914","trial","","40","500","525.6249998928979","images/stimuli/spore_stims/simple_13_A_a.gif","images/stimuli/spore_stims/simple_11_A_b.gif","forced_long","","10","simple_dissimilar","images/stimuli/spore_stims/simple_11_A_b.gif","","","","",""
"","2641.124999965541","survey-multi-choice","141","463074","0.0-30.0","SS1618006498914","math_question","","","","","","","","","","","","{""Q0"":""12""}","[0]","12","",""
"","null","html-keyboard-response","142","464223","0.0-31.0-0.0","SS1618006498914","","","null","","","","","","<p><img src= images/blank.png width =""600"" height = ""600"" style=""position:fixed;top:50%; left:50%; transform: translate(-50%, -50%); border:5px solid black"">","","","","","","","",""
"","2498.0600000126287","sequential-stimulus-presentation-old","143","466780","0.0-31.0-1.0","SS1618006498914","trial","","40","500","2998.0600000126287","images/stimuli/spore_stims/simple_11_A_a.gif","images/stimuli/spore_stims/simple_12_A_b.gif","forced_short","","11","simple_dissimilar","images/stimuli/spore_stims/simple_12_A_b.gif","","","","",""
"","null","html-keyboard-response","144","467598","0.0-31.0-0.1","SS1618006498914","","","null","","","","","","<p><img src= images/blank.png width =""600"" height = ""600"" style=""position:fixed;top:50%; left:50%; transform: translate(-50%, -50%); border:5px solid black"">","","","","","","","",""
"","2920.6799999810755","sequential-stimulus-presentation-old","145","471026","0.0-31.0-1.1","SS1618006498914","trial","","40","500","3420.6799999810755","images/stimuli/spore_stims/simple_11_A_a.gif","images/stimuli/spore_stims/simple_12_A_b.gif","forced_short","","11","simple_dissimilar","images/stimuli/spore_stims/simple_12_A_b.gif","","","","",""
"","null","html-keyboard-response","146","472276","0.0-31.0-0.2","SS1618006498914","","","null","","","","","","<p><img src= images/blank.png width =""600"" height = ""600"" style=""position:fixed;top:50%; left:50%; transform: translate(-50%, -50%); border:5px solid black"">","","","","","","","",""
"","507.72500003222376","sequential-stimulus-presentation-old","147","473298","0.0-31.0-1.2","SS1618006498914","trial","","40","500","1007.7250000322238","images/stimuli/spore_stims/simple_11_A_a.gif","images/stimuli/spore_stims/simple_12_A_b.gif","forced_short","","11","simple_dissimilar","images/stimuli/spore_stims/simple_12_A_b.gif","","","","",""
"","null","html-keyboard-response","148","474328","0.0-31.0-0.3","SS1618006498914","","","null","","","","","","<p><img src= images/blank.png width =""600"" height = ""600"" style=""position:fixed;top:50%; left:50%; transform: translate(-50%, -50%); border:5px solid black"">","","","","","","","",""
"","905.0150000257418","sequential-stimulus-presentation-old","149","475746","0.0-31.0-1.3","SS1618006498914","trial","","40","500","1405.0150000257418","images/stimuli/spore_stims/simple_11_A_a.gif","images/stimuli/spore_stims/simple_12_A_b.gif","forced_short","","11","simple_dissimilar","images/stimuli/spore_stims/simple_12_A_b.gif","","","","",""
"[{""page_index"":0,""viewing_time"":10685.11999992188}]","10685.299999895506","instructions","150","486434","0.0-32.0","SS1618006498914","instructions","","","","","","","","","","","","","","","",""
"","15556.3700000057","survey-likert","151","501994","0.0-33.0","SS1618006498914","similarity_question","","","","","","","","","","","","{""Q0"":2}","[0]","","images/stimuli/spore_stims/complex_04_A_b.gif","images/stimuli/spore_stims/complex_11_A_a.gif"
"","6686.349999974482","survey-likert","152","508686","0.0-34.0","SS1618006498914","similarity_question","","","","","","","","","","","","{""Q0"":4}","[0]","","images/stimuli/spore_stims/simple_03_A_b.gif","images/stimuli/spore_stims/simple_16_A_a.gif"
"","3414.3349999794737","survey-likert","153","512106","0.0-35.0","SS1618006498914","similarity_question","","","","","","","","","","","","{""Q0"":3}","[0]","","images/stimuli/spore_stims/simple_02_A_a.gif","images/stimuli/spore_stims/simple_07_A_b.gif"
"","7220.835000043735","survey-likert","154","519333","0.0-36.0","SS1618006498914","similarity_question","","","","","","","","","","","","{""Q0"":3}","[0]","","images/stimuli/spore_stims/complex_12_A_b.gif","images/stimuli/spore_stims/complex_07_A_a.gif"
"","8103.750000009313","survey-likert","155","527442","0.0-37.0","SS1618006498914","similarity_question","","","","","","","","","","","","{""Q0"":3}","[0]","","images/stimuli/spore_stims/complex_10_A_a.gif","images/stimuli/spore_stims/complex_14_A_b.gif"
"","5702.779999934137","survey-likert","156","533151","0.0-38.0","SS1618006498914","similarity_question","","","","","","","","","","","","{""Q0"":6}","[0]","","images/stimuli/spore_stims/simple_08_A_b.gif","images/stimuli/spore_stims/simple_17_A_a.gif"
"","13309.095000033267","survey-likert","157","546466","0.0-39.0","SS1618006498914","similarity_question","","","","","","","","","","","","{""Q0"":1}","[0]","","images/stimuli/spore_stims/complex_20_A_a.gif","images/stimuli/spore_stims/complex_18_A_b.gif"
"","3639.0100000426173","survey-likert","158","550113","0.0-40.0","SS1618006498914","similarity_question","","","","","","","","","","","","{""Q0"":1}","[0]","","images/stimuli/spore_stims/complex_06_A_a.gif","images/stimuli/spore_stims/complex_03_A_b.gif"
"","4736.970000085421","survey-likert","159","554856","0.0-41.0","SS1618006498914","similarity_question","","","","","","","","","","","","{""Q0"":6}","[0]","","images/stimuli/spore_stims/simple_15_A_a.gif","images/stimuli/spore_stims/simple_06_A_b.gif"
"","3797.3500000080094","survey-likert","160","558659","0.0-42.0","SS1618006498914","similarity_question","","","","","","","","","","","","{""Q0"":3}","[0]","","images/stimuli/spore_stims/complex_15_A_b.gif","images/stimuli/spore_stims/complex_01_A_a.gif"
"","2691.56499998644","survey-likert","161","561356","0.0-43.0","SS1618006498914","similarity_question","","","","","","","","","","","","{""Q0"":5}","[0]","","images/stimuli/spore_stims/simple_11_A_a.gif","images/stimuli/spore_stims/simple_12_A_b.gif"
"","3029.6849999576807","survey-likert","162","564392","0.0-44.0","SS1618006498914","similarity_question","","","","","","","","","","","","{""Q0"":6}","[0]","","images/stimuli/spore_stims/simple_13_A_a.gif","images/stimuli/spore_stims/simple_11_A_b.gif"
"[{""page_index"":0,""viewing_time"":10934.555000043474}]","10934.879999957047","instructions","163","575332","0.0-45.0","SS1618006498914","instructions","","","","","","","","","","","","","","","",""
"","10777.615000028163","survey-likert","164","586113","0.0-46.0","SS1618006498914","","","","","","","","","images/stimuli/spore_stims/simple_03_A_b.gif","","","","{""Q0"":1}","[0]","","",""
"","5439.1949999844655","survey-likert","165","591558","0.0-47.0","SS1618006498914","","","","","","","","","images/stimuli/spore_stims/complex_07_A_a.gif","","","","{""Q0"":5}","[0]","","",""
"","6880.475000012666","survey-likert","166","598445","0.0-48.0","SS1618006498914","","","","","","","","","images/stimuli/spore_stims/complex_03_A_b.gif","","","","{""Q0"":5}","[0]","","",""
"","3800.1299999887124","survey-likert","167","602251","0.0-49.0","SS1618006498914","","","","","","","","","images/stimuli/spore_stims/simple_08_A_b.gif","","","","{""Q0"":0}","[0]","","",""
"","2611.8850000202656","survey-likert","168","604870","0.0-50.0","SS1618006498914","","","","","","","","","images/stimuli/spore_stims/simple_06_A_b.gif","","","","{""Q0"":0}","[0]","","",""
"","1613.660000031814","survey-likert","169","606490","0.0-51.0","SS1618006498914","","","","","","","","","images/stimuli/spore_stims/simple_02_A_a.gif","","","","{""Q0"":0}","[0]","","",""
"","6799.495000042953","survey-likert","170","613295","0.0-52.0","SS1618006498914","","","","","","","","","images/stimuli/spore_stims/complex_11_A_a.gif","","","","{""Q0"":5}","[0]","","",""
"","3642.754999920726","survey-likert","171","616944","0.0-53.0","SS1618006498914","","","","","","","","","images/stimuli/spore_stims/simple_11_A_b.gif","","","","{""Q0"":0}","[0]","","",""
"","6192.435000091791","survey-likert","172","623142","0.0-54.0","SS1618006498914","","","","","","","","","images/stimuli/spore_stims/simple_12_A_b.gif","","","","{""Q0"":1}","[0]","","",""
"","4854.555000085384","survey-likert","173","628003","0.0-55.0","SS1618006498914","","","","","","","","","images/stimuli/spore_stims/complex_20_A_a.gif","","","","{""Q0"":4}","[0]","","",""
"","4218.579999986105","survey-likert","174","632228","0.0-56.0","SS1618006498914","","","","","","","","","images/stimuli/spore_stims/complex_14_A_b.gif","","","","{""Q0"":5}","[0]","","",""
"","2997.5049999775365","survey-likert","175","635231","0.0-57.0","SS1618006498914","","","","","","","","","images/stimuli/spore_stims/complex_15_A_b.gif","","","","{""Q0"":6}","[0]","","",""
"[{""page_index"":0,""viewing_time"":1319.6199999656528}]","1319.8100000154227","instructions","176","636558","0.0-58.0","SS1618006498914","instructions","","","","","","","","","","","","","","","",""
"","3572.569999960251","demog-age","177","640136","0.0-59.0","SS1618006498914","","","","","","","","","","","","","{""age"":""19""}","","","",""
"","8862.839999957941","demog-ethnic-US","178","649004","0.0-60.0","SS1618006498914","","","","","","","","","","","","","{""ethnicity"":[""White""]}","[0]","","",""
"","16674.800000037067","demog-gender-and-education","179","665685","0.0-61.0","SS1618006498914","","","","","","","","","","","","","{""gender"":""Male"",""education"":""Some high school""}","[0,1]","","",""
"","25921.33499996271","survey-text","180","691614","0.0-62.0","SS1618006498914","feedback","","","","","","","","","","","","{""Q0"":""No, I didn't see any issue. ""}","","","",""
"[{""page_index"":0,""viewing_time"":1701.13499998115}]","1701.3600000645965","instructions","181","693319","0.0-63.0","SS1618006498914","instructions","","","","","","","","","","","","","","","",""
