"view_history","rt","trial_type","trial_index","time_elapsed","internal_node_id","subject","stimulus_type","trial_stimulus","key_press","minimum_viewing_duration","trial_looking_time","block_deviant","block_background","exposure_type","stimulus","block_number","block_type","stimulus_displayed","responses","question_order","math_correct_answer","stimulus_left","stimulus_right"
"[{""page_index"":0,""viewing_time"":10452.525000000605}]","10453.39999999851","instructions","0","10455","0.0-0.0","SS1618435660143","","","","","","","","","","","","","","","","",""
"[{""page_index"":0,""viewing_time"":18882.77999999991},{""page_index"":1,""viewing_time"":9808.154999998806}]","28691.26999999935","instructions","1","41150","0.0-1.0","SS1618435660143","instructions","","","","","","","","","","","","","","","",""
"","11876.075000000128","sequential-stimulus-presentation-old","2","53530","0.0-2.0","SS1618435660143","","","40","500","12376.075000000128","null","null","self_paced","","","","","","","","",""
"","6765.490000001591","sequential-stimulus-presentation-old","3","60799","0.0-3.0","SS1618435660143","","","40","500","7265.490000001591","null","null","self_paced","","","","","","","","",""
"[{""page_index"":0,""viewing_time"":30220.95000000263}]","30221.535000000586","instructions","4","91023","0.0-4.0","SS1618435660143","instructions","","","","","","","","","","","","","","","",""
"","20192.324999999983","sequential-stimulus-presentation-old","5","116220","0.0-5.0","SS1618435660143","","","40","500","20692.324999999983","null","null","forced_long","","","","","","","","",""
"","7492.174999999406","sequential-stimulus-presentation-old","6","123765","0.0-6.0","SS1618435660143","","","40","50","7542.174999999406","null","null","forced_long","","","","","","","","",""
"[{""page_index"":0,""viewing_time"":5071.699999996781}]","5072.044999997161","instructions","7","128839","0.0-7.0","SS1618435660143","instructions","","","","","","","","","","","","","","","",""
"[{""page_index"":0,""viewing_time"":18870.35499999911},{""page_index"":1,""viewing_time"":17536.009999999806},{""page_index"":2,""viewing_time"":9544.314999999187},{""page_index"":3,""viewing_time"":1607.6200000024983},{""page_index"":4,""viewing_time"":1568.2699999997567}]","49126.90500000099","instructions","8","177967","0.0-8.0","SS1618435660143","instructions","","","","","","","","","","","","","","","",""
"","null","html-keyboard-response","9","178986","0.0-9.0-0.0","SS1618435660143","","","null","","","","","","<p><img src= images/blank.png width =""600"" height = ""600"" style=""position:fixed;top:50%; left:50%; transform: translate(-50%, -50%); border:5px solid black"">","","","","","","","",""
"","11515.790000001289","sequential-stimulus-presentation-old","10","191007","0.0-9.0-1.0","SS1618435660143","trial","","40","500","12015.790000001289","images/stimuli/spore_stims/simple_06_A_a.gif","images/stimuli/spore_stims/simple_14_A_b.gif","self_paced","","0","simple_dissimilar","images/stimuli/spore_stims/simple_14_A_b.gif","","","","",""
"","null","html-keyboard-response","11","192029","0.0-9.0-0.1","SS1618435660143","","","null","","","","","","<p><img src= images/blank.png width =""600"" height = ""600"" style=""position:fixed;top:50%; left:50%; transform: translate(-50%, -50%); border:5px solid black"">","","","","","","","",""
"","8879.924999997456","sequential-stimulus-presentation-old","12","201414","0.0-9.0-1.1","SS1618435660143","trial","","40","500","9379.924999997456","images/stimuli/spore_stims/simple_06_A_a.gif","images/stimuli/spore_stims/simple_14_A_b.gif","self_paced","","0","simple_dissimilar","images/stimuli/spore_stims/simple_14_A_b.gif","","","","",""
"","null","html-keyboard-response","13","202648","0.0-9.0-0.2","SS1618435660143","","","null","","","","","","<p><img src= images/blank.png width =""600"" height = ""600"" style=""position:fixed;top:50%; left:50%; transform: translate(-50%, -50%); border:5px solid black"">","","","","","","","",""
"","10376.055000000633","sequential-stimulus-presentation-old","14","213530","0.0-9.0-1.2","SS1618435660143","trial","","40","500","10876.055000000633","images/stimuli/spore_stims/simple_06_A_a.gif","images/stimuli/spore_stims/simple_14_A_b.gif","self_paced","","0","simple_dissimilar","images/stimuli/spore_stims/simple_14_A_b.gif","","","","",""
"","null","html-keyboard-response","15","214773","0.0-9.0-0.3","SS1618435660143","","","null","","","","","","<p><img src= images/blank.png width =""600"" height = ""600"" style=""position:fixed;top:50%; left:50%; transform: translate(-50%, -50%); border:5px solid black"">","","","","","","","",""
"","4977.87000000244","sequential-stimulus-presentation-old","16","220256","0.0-9.0-1.3","SS1618435660143","trial","","40","500","5477.87000000244","images/stimuli/spore_stims/simple_06_A_a.gif","images/stimuli/spore_stims/simple_14_A_b.gif","self_paced","","0","simple_dissimilar","images/stimuli/spore_stims/simple_14_A_b.gif","","","","",""
"","null","html-keyboard-response","17","221124","0.0-9.0-0.4","SS1618435660143","","","null","","","","","","<p><img src= images/blank.png width =""600"" height = ""600"" style=""position:fixed;top:50%; left:50%; transform: translate(-50%, -50%); border:5px solid black"">","","","","","","","",""
"","5363.1200000018","sequential-stimulus-presentation-old","18","226993","0.0-9.0-1.4","SS1618435660143","trial","","40","500","5863.1200000018","images/stimuli/spore_stims/simple_06_A_a.gif","images/stimuli/spore_stims/simple_14_A_b.gif","self_paced","","0","simple_dissimilar","images/stimuli/spore_stims/simple_06_A_a.gif","","","","",""
"","null","html-keyboard-response","19","227851","0.0-9.0-0.5","SS1618435660143","","","null","","","","","","<p><img src= images/blank.png width =""600"" height = ""600"" style=""position:fixed;top:50%; left:50%; transform: translate(-50%, -50%); border:5px solid black"">","","","","","","","",""
"","5002.189999999246","sequential-stimulus-presentation-old","20","233357","0.0-9.0-1.5","SS1618435660143","trial","","40","500","5502.189999999246","images/stimuli/spore_stims/simple_06_A_a.gif","images/stimuli/spore_stims/simple_14_A_b.gif","self_paced","","0","simple_dissimilar","images/stimuli/spore_stims/simple_14_A_b.gif","","","","",""
"","4798.634999999194","survey-multi-choice","21","238160","0.0-10.0","SS1618435660143","math_question","","","","","","","","","","","","{""Q0"":""10""}","[0]","10","",""
"","null","html-keyboard-response","22","239425","0.0-11.0-0.0","SS1618435660143","","","null","","","","","","<p><img src= images/blank.png width =""600"" height = ""600"" style=""position:fixed;top:50%; left:50%; transform: translate(-50%, -50%); border:5px solid black"">","","","","","","","",""
"","4290.844999999506","sequential-stimulus-presentation-old","23","244222","0.0-11.0-1.0","SS1618435660143","trial","","40","500","4790.844999999506","images/stimuli/spore_stims/simple_14_A_a.gif","images/stimuli/spore_stims/simple_20_A_b.gif","self_paced","","1","simple_dissimilar","images/stimuli/spore_stims/simple_20_A_b.gif","","","","",""
"","null","html-keyboard-response","24","245054","0.0-11.0-0.1","SS1618435660143","","","null","","","","","","<p><img src= images/blank.png width =""600"" height = ""600"" style=""position:fixed;top:50%; left:50%; transform: translate(-50%, -50%); border:5px solid black"">","","","","","","","",""
"","5817.555000001448","sequential-stimulus-presentation-old","25","251377","0.0-11.0-1.1","SS1618435660143","trial","","40","500","6317.555000001448","images/stimuli/spore_stims/simple_14_A_a.gif","images/stimuli/spore_stims/simple_20_A_b.gif","self_paced","","1","simple_dissimilar","images/stimuli/spore_stims/simple_20_A_b.gif","","","","",""
"","null","html-keyboard-response","26","252391","0.0-11.0-0.2","SS1618435660143","","","null","","","","","","<p><img src= images/blank.png width =""600"" height = ""600"" style=""position:fixed;top:50%; left:50%; transform: translate(-50%, -50%); border:5px solid black"">","","","","","","","",""
"","8682.349999999162","sequential-stimulus-presentation-old","27","261579","0.0-11.0-1.2","SS1618435660143","trial","","40","500","9182.349999999162","images/stimuli/spore_stims/simple_14_A_a.gif","images/stimuli/spore_stims/simple_20_A_b.gif","self_paced","","1","simple_dissimilar","images/stimuli/spore_stims/simple_20_A_b.gif","","","","",""
"","null","html-keyboard-response","28","262588","0.0-11.0-0.3","SS1618435660143","","","null","","","","","","<p><img src= images/blank.png width =""600"" height = ""600"" style=""position:fixed;top:50%; left:50%; transform: translate(-50%, -50%); border:5px solid black"">","","","","","","","",""
"","8545.9749999973","sequential-stimulus-presentation-old","29","271639","0.0-11.0-1.3","SS1618435660143","trial","","40","500","9045.9749999973","images/stimuli/spore_stims/simple_14_A_a.gif","images/stimuli/spore_stims/simple_20_A_b.gif","self_paced","","1","simple_dissimilar","images/stimuli/spore_stims/simple_20_A_b.gif","","","","",""
"","null","html-keyboard-response","30","272936","0.0-11.0-0.4","SS1618435660143","","","null","","","","","","<p><img src= images/blank.png width =""600"" height = ""600"" style=""position:fixed;top:50%; left:50%; transform: translate(-50%, -50%); border:5px solid black"">","","","","","","","",""
"","5166.864999999234","sequential-stimulus-presentation-old","31","278608","0.0-11.0-1.4","SS1618435660143","trial","","40","500","5666.864999999234","images/stimuli/spore_stims/simple_14_A_a.gif","images/stimuli/spore_stims/simple_20_A_b.gif","self_paced","","1","simple_dissimilar","images/stimuli/spore_stims/simple_14_A_a.gif","","","","",""
"","null","html-keyboard-response","32","279703","0.0-11.0-0.5","SS1618435660143","","","null","","","","","","<p><img src= images/blank.png width =""600"" height = ""600"" style=""position:fixed;top:50%; left:50%; transform: translate(-50%, -50%); border:5px solid black"">","","","","","","","",""
"","4001.850000000559","sequential-stimulus-presentation-old","33","284210","0.0-11.0-1.5","SS1618435660143","trial","","40","500","4501.850000000559","images/stimuli/spore_stims/simple_14_A_a.gif","images/stimuli/spore_stims/simple_20_A_b.gif","self_paced","","1","simple_dissimilar","images/stimuli/spore_stims/simple_20_A_b.gif","","","","",""
"","2361.5700000009383","survey-multi-choice","34","286575","0.0-12.0","SS1618435660143","math_question","","","","","","","","","","","","{""Q0"":""5""}","[0]","5","",""
"","null","html-keyboard-response","35","287490","0.0-13.0-0.0","SS1618435660143","","","null","","","","","","<p><img src= images/blank.png width =""600"" height = ""600"" style=""position:fixed;top:50%; left:50%; transform: translate(-50%, -50%); border:5px solid black"">","","","","","","","",""
"","1855.8950000006007","sequential-stimulus-presentation-old","36","289401","0.0-13.0-1.0","SS1618435660143","trial","","40","500","2355.8950000006007","images/stimuli/spore_stims/complex_14_A_b.gif","images/stimuli/spore_stims/complex_20_A_a.gif","forced_short","","2","complex_dissimilar","images/stimuli/spore_stims/complex_20_A_a.gif","","","","",""
"","null","html-keyboard-response","37","290404","0.0-13.0-0.1","SS1618435660143","","","null","","","","","","<p><img src= images/blank.png width =""600"" height = ""600"" style=""position:fixed;top:50%; left:50%; transform: translate(-50%, -50%); border:5px solid black"">","","","","","","","",""
"","9043.134999999893","sequential-stimulus-presentation-old","38","299953","0.0-13.0-1.1","SS1618435660143","trial","","40","500","9543.134999999893","images/stimuli/spore_stims/complex_14_A_b.gif","images/stimuli/spore_stims/complex_20_A_a.gif","forced_short","","2","complex_dissimilar","images/stimuli/spore_stims/complex_20_A_a.gif","","","","",""
"","null","html-keyboard-response","39","301007","0.0-13.0-0.2","SS1618435660143","","","null","","","","","","<p><img src= images/blank.png width =""600"" height = ""600"" style=""position:fixed;top:50%; left:50%; transform: translate(-50%, -50%); border:5px solid black"">","","","","","","","",""
"","3869.415000001027","sequential-stimulus-presentation-old","40","305381","0.0-13.0-1.2","SS1618435660143","trial","","40","500","4369.415000001027","images/stimuli/spore_stims/complex_14_A_b.gif","images/stimuli/spore_stims/complex_20_A_a.gif","forced_short","","2","complex_dissimilar","images/stimuli/spore_stims/complex_20_A_a.gif","","","","",""
"","null","html-keyboard-response","41","306519","0.0-13.0-0.3","SS1618435660143","","","null","","","","","","<p><img src= images/blank.png width =""600"" height = ""600"" style=""position:fixed;top:50%; left:50%; transform: translate(-50%, -50%); border:5px solid black"">","","","","","","","",""
"","5594.004999999073","sequential-stimulus-presentation-old","42","312618","0.0-13.0-1.3","SS1618435660143","trial","","40","500","6094.004999999073","images/stimuli/spore_stims/complex_14_A_b.gif","images/stimuli/spore_stims/complex_20_A_a.gif","forced_short","","2","complex_dissimilar","images/stimuli/spore_stims/complex_20_A_a.gif","","","","",""
"","null","html-keyboard-response","43","313828","0.0-13.0-0.4","SS1618435660143","","","null","","","","","","<p><img src= images/blank.png width =""600"" height = ""600"" style=""position:fixed;top:50%; left:50%; transform: translate(-50%, -50%); border:5px solid black"">","","","","","","","",""
"","3843.8849999983795","sequential-stimulus-presentation-old","44","318177","0.0-13.0-1.4","SS1618435660143","trial","","40","500","4343.8849999983795","images/stimuli/spore_stims/complex_14_A_b.gif","images/stimuli/spore_stims/complex_20_A_a.gif","forced_short","","2","complex_dissimilar","images/stimuli/spore_stims/complex_20_A_a.gif","","","","",""
"","3106.680000000808","survey-multi-choice","45","321287","0.0-14.0","SS1618435660143","math_question","","","","","","","","","","","","{""Q0"":""5""}","[0]","5","",""
"","null","html-keyboard-response","46","322221","0.0-15.0-0.0","SS1618435660143","","","null","","","","","","<p><img src= images/blank.png width =""600"" height = ""600"" style=""position:fixed;top:50%; left:50%; transform: translate(-50%, -50%); border:5px solid black"">","","","","","","","",""
"","4526.300000001385","sequential-stimulus-presentation-old","47","327253","0.0-15.0-1.0","SS1618435660143","trial","","40","500","5026.300000001385","images/stimuli/spore_stims/complex_08_A_a.gif","images/stimuli/spore_stims/complex_19_A_b.gif","self_paced","","3","complex_dissimilar","images/stimuli/spore_stims/complex_19_A_b.gif","","","","",""
"","null","html-keyboard-response","48","328397","0.0-15.0-0.1","SS1618435660143","","","null","","","","","","<p><img src= images/blank.png width =""600"" height = ""600"" style=""position:fixed;top:50%; left:50%; transform: translate(-50%, -50%); border:5px solid black"">","","","","","","","",""
"","5253.5250000000815","sequential-stimulus-presentation-old","49","334157","0.0-15.0-1.1","SS1618435660143","trial","","40","500","5753.5250000000815","images/stimuli/spore_stims/complex_08_A_a.gif","images/stimuli/spore_stims/complex_19_A_b.gif","self_paced","","3","complex_dissimilar","images/stimuli/spore_stims/complex_19_A_b.gif","","","","",""
"","null","html-keyboard-response","50","335422","0.0-15.0-0.2","SS1618435660143","","","null","","","","","","<p><img src= images/blank.png width =""600"" height = ""600"" style=""position:fixed;top:50%; left:50%; transform: translate(-50%, -50%); border:5px solid black"">","","","","","","","",""
"","4883.794999997888","sequential-stimulus-presentation-old","51","340812","0.0-15.0-1.2","SS1618435660143","trial","","40","500","5383.794999997888","images/stimuli/spore_stims/complex_08_A_a.gif","images/stimuli/spore_stims/complex_19_A_b.gif","self_paced","","3","complex_dissimilar","images/stimuli/spore_stims/complex_19_A_b.gif","","","","",""
"","null","html-keyboard-response","52","342095","0.0-15.0-0.3","SS1618435660143","","","null","","","","","","<p><img src= images/blank.png width =""600"" height = ""600"" style=""position:fixed;top:50%; left:50%; transform: translate(-50%, -50%); border:5px solid black"">","","","","","","","",""
"","6816.930000000866","sequential-stimulus-presentation-old","53","349418","0.0-15.0-1.3","SS1618435660143","trial","","40","500","7316.930000000866","images/stimuli/spore_stims/complex_08_A_a.gif","images/stimuli/spore_stims/complex_19_A_b.gif","self_paced","","3","complex_dissimilar","images/stimuli/spore_stims/complex_19_A_b.gif","","","","",""
"","null","html-keyboard-response","54","350619","0.0-15.0-0.4","SS1618435660143","","","null","","","","","","<p><img src= images/blank.png width =""600"" height = ""600"" style=""position:fixed;top:50%; left:50%; transform: translate(-50%, -50%); border:5px solid black"">","","","","","","","",""
"","5126.5800000000745","sequential-stimulus-presentation-old","55","356252","0.0-15.0-1.4","SS1618435660143","trial","","40","500","5626.5800000000745","images/stimuli/spore_stims/complex_08_A_a.gif","images/stimuli/spore_stims/complex_19_A_b.gif","self_paced","","3","complex_dissimilar","images/stimuli/spore_stims/complex_19_A_b.gif","","","","",""
"","3927.400000000489","survey-multi-choice","56","360183","0.0-16.0","SS1618435660143","math_question","","","","","","","","","","","","{""Q0"":""15""}","[0]","15","",""
"","null","html-keyboard-response","57","361256","0.0-17.0-0.0","SS1618435660143","","","null","","","","","","<p><img src= images/blank.png width =""600"" height = ""600"" style=""position:fixed;top:50%; left:50%; transform: translate(-50%, -50%); border:5px solid black"">","","","","","","","",""
"","1374.840000000433","sequential-stimulus-presentation-old","58","362685","0.0-17.0-1.0","SS1618435660143","trial","","40","500","1874.840000000433","images/stimuli/spore_stims/simple_02_A_a.gif","images/stimuli/spore_stims/simple_08_A_b.gif","forced_short","","4","simple_dissimilar","images/stimuli/spore_stims/simple_08_A_b.gif","","","","",""
"","null","html-keyboard-response","59","363599","0.0-17.0-0.1","SS1618435660143","","","null","","","","","","<p><img src= images/blank.png width =""600"" height = ""600"" style=""position:fixed;top:50%; left:50%; transform: translate(-50%, -50%); border:5px solid black"">","","","","","","","",""
"","3954.31500000268","sequential-stimulus-presentation-old","60","368058","0.0-17.0-1.1","SS1618435660143","trial","","40","500","4454.31500000268","images/stimuli/spore_stims/simple_02_A_a.gif","images/stimuli/spore_stims/simple_08_A_b.gif","forced_short","","4","simple_dissimilar","images/stimuli/spore_stims/simple_02_A_a.gif","","","","",""
"","null","html-keyboard-response","61","369151","0.0-17.0-0.2","SS1618435660143","","","null","","","","","","<p><img src= images/blank.png width =""600"" height = ""600"" style=""position:fixed;top:50%; left:50%; transform: translate(-50%, -50%); border:5px solid black"">","","","","","","","",""
"","3753.1250000029104","sequential-stimulus-presentation-old","62","373409","0.0-17.0-1.2","SS1618435660143","trial","","40","500","4253.12500000291","images/stimuli/spore_stims/simple_02_A_a.gif","images/stimuli/spore_stims/simple_08_A_b.gif","forced_short","","4","simple_dissimilar","images/stimuli/spore_stims/simple_08_A_b.gif","","","","",""
"","null","html-keyboard-response","63","374345","0.0-17.0-0.3","SS1618435660143","","","null","","","","","","<p><img src= images/blank.png width =""600"" height = ""600"" style=""position:fixed;top:50%; left:50%; transform: translate(-50%, -50%); border:5px solid black"">","","","","","","","",""
"","3580.870000001567","sequential-stimulus-presentation-old","64","378432","0.0-17.0-1.3","SS1618435660143","trial","","40","500","4080.870000001567","images/stimuli/spore_stims/simple_02_A_a.gif","images/stimuli/spore_stims/simple_08_A_b.gif","forced_short","","4","simple_dissimilar","images/stimuli/spore_stims/simple_08_A_b.gif","","","","",""
"","null","html-keyboard-response","65","379689","0.0-17.0-0.4","SS1618435660143","","","null","","","","","","<p><img src= images/blank.png width =""600"" height = ""600"" style=""position:fixed;top:50%; left:50%; transform: translate(-50%, -50%); border:5px solid black"">","","","","","","","",""
"","3266.814999999013","sequential-stimulus-presentation-old","66","383462","0.0-17.0-1.4","SS1618435660143","trial","","40","500","3766.814999999013","images/stimuli/spore_stims/simple_02_A_a.gif","images/stimuli/spore_stims/simple_08_A_b.gif","forced_short","","4","simple_dissimilar","images/stimuli/spore_stims/simple_08_A_b.gif","","","","",""
"","3078.3049999990617","survey-multi-choice","67","386543","0.0-18.0","SS1618435660143","math_question","","","","","","","","","","","","{""Q0"":""15""}","[0]","15","",""
"","null","html-keyboard-response","68","387797","0.0-19.0-0.0","SS1618435660143","","","null","","","","","","<p><img src= images/blank.png width =""600"" height = ""600"" style=""position:fixed;top:50%; left:50%; transform: translate(-50%, -50%); border:5px solid black"">","","","","","","","",""
"","2946.640000001935","sequential-stimulus-presentation-old","69","395753","0.0-19.0-1.0","SS1618435660143","trial","","40","500","3446.640000001935","images/stimuli/spore_stims/simple_13_A_b.gif","images/stimuli/spore_stims/simple_12_A_a.gif","forced_long","","5","simple_dissimilar","images/stimuli/spore_stims/simple_12_A_a.gif","","","","",""
"","null","html-keyboard-response","70","397006","0.0-19.0-0.1","SS1618435660143","","","null","","","","","","<p><img src= images/blank.png width =""600"" height = ""600"" style=""position:fixed;top:50%; left:50%; transform: translate(-50%, -50%); border:5px solid black"">","","","","","","","",""
"","8901.88499999931","sequential-stimulus-presentation-old","71","406413","0.0-19.0-1.1","SS1618435660143","trial","","40","500","9401.88499999931","images/stimuli/spore_stims/simple_13_A_b.gif","images/stimuli/spore_stims/simple_12_A_a.gif","forced_long","","5","simple_dissimilar","images/stimuli/spore_stims/simple_12_A_a.gif","","","","",""
"","null","html-keyboard-response","72","407340","0.0-19.0-0.2","SS1618435660143","","","null","","","","","","<p><img src= images/blank.png width =""600"" height = ""600"" style=""position:fixed;top:50%; left:50%; transform: translate(-50%, -50%); border:5px solid black"">","","","","","","","",""
"","5982.960000001243","sequential-stimulus-presentation-old","73","413829","0.0-19.0-1.2","SS1618435660143","trial","","40","500","6482.960000001243","images/stimuli/spore_stims/simple_13_A_b.gif","images/stimuli/spore_stims/simple_12_A_a.gif","forced_long","","5","simple_dissimilar","images/stimuli/spore_stims/simple_12_A_a.gif","","","","",""
"","null","html-keyboard-response","74","414714","0.0-19.0-0.3","SS1618435660143","","","null","","","","","","<p><img src= images/blank.png width =""600"" height = ""600"" style=""position:fixed;top:50%; left:50%; transform: translate(-50%, -50%); border:5px solid black"">","","","","","","","",""
"","4434.755000002042","sequential-stimulus-presentation-old","75","419655","0.0-19.0-1.3","SS1618435660143","trial","","40","500","4934.755000002042","images/stimuli/spore_stims/simple_13_A_b.gif","images/stimuli/spore_stims/simple_12_A_a.gif","forced_long","","5","simple_dissimilar","images/stimuli/spore_stims/simple_12_A_a.gif","","","","",""
"","null","html-keyboard-response","76","420657","0.0-19.0-0.4","SS1618435660143","","","null","","","","","","<p><img src= images/blank.png width =""600"" height = ""600"" style=""position:fixed;top:50%; left:50%; transform: translate(-50%, -50%); border:5px solid black"">","","","","","","","",""
"","2727.855000000971","sequential-stimulus-presentation-old","77","423890","0.0-19.0-1.4","SS1618435660143","trial","","40","500","3227.855000000971","images/stimuli/spore_stims/simple_13_A_b.gif","images/stimuli/spore_stims/simple_12_A_a.gif","forced_long","","5","simple_dissimilar","images/stimuli/spore_stims/simple_12_A_a.gif","","","","",""
"","null","html-keyboard-response","78","425145","0.0-19.0-0.5","SS1618435660143","","","null","","","","","","<p><img src= images/blank.png width =""600"" height = ""600"" style=""position:fixed;top:50%; left:50%; transform: translate(-50%, -50%); border:5px solid black"">","","","","","","","",""
"","3702.835000000021","sequential-stimulus-presentation-old","79","429353","0.0-19.0-1.5","SS1618435660143","trial","","40","500","4202.835000000021","images/stimuli/spore_stims/simple_13_A_b.gif","images/stimuli/spore_stims/simple_12_A_a.gif","forced_long","","5","simple_dissimilar","images/stimuli/spore_stims/simple_13_A_b.gif","","","","",""
"","4153.205000002286","survey-multi-choice","80","433511","0.0-20.0","SS1618435660143","math_question","","","","","","","","","","","","{""Q0"":""9""}","[0]","9","",""
"","null","html-keyboard-response","81","434711","0.0-21.0-0.0","SS1618435660143","","","null","","","","","","<p><img src= images/blank.png width =""600"" height = ""600"" style=""position:fixed;top:50%; left:50%; transform: translate(-50%, -50%); border:5px solid black"">","","","","","","","",""
"","1851.4649999997346","sequential-stimulus-presentation-old","82","441569","0.0-21.0-1.0","SS1618435660143","trial","","40","500","2351.4649999997346","images/stimuli/spore_stims/simple_04_A_a.gif","images/stimuli/spore_stims/simple_09_A_b.gif","forced_long","","6","simple_dissimilar","images/stimuli/spore_stims/simple_09_A_b.gif","","","","",""
"","null","html-keyboard-response","83","442441","0.0-21.0-0.1","SS1618435660143","","","null","","","","","","<p><img src= images/blank.png width =""600"" height = ""600"" style=""position:fixed;top:50%; left:50%; transform: translate(-50%, -50%); border:5px solid black"">","","","","","","","",""
"","9381.804999997257","sequential-stimulus-presentation-old","84","452329","0.0-21.0-1.1","SS1618435660143","trial","","40","500","9881.804999997257","images/stimuli/spore_stims/simple_04_A_a.gif","images/stimuli/spore_stims/simple_09_A_b.gif","forced_long","","6","simple_dissimilar","images/stimuli/spore_stims/simple_09_A_b.gif","","","","",""
"","null","html-keyboard-response","85","453345","0.0-21.0-0.2","SS1618435660143","","","null","","","","","","<p><img src= images/blank.png width =""600"" height = ""600"" style=""position:fixed;top:50%; left:50%; transform: translate(-50%, -50%); border:5px solid black"">","","","","","","","",""
"","6809.949999998906","sequential-stimulus-presentation-old","86","460660","0.0-21.0-1.2","SS1618435660143","trial","","40","500","7309.949999998906","images/stimuli/spore_stims/simple_04_A_a.gif","images/stimuli/spore_stims/simple_09_A_b.gif","forced_long","","6","simple_dissimilar","images/stimuli/spore_stims/simple_04_A_a.gif","","","","",""
"","null","html-keyboard-response","87","461756","0.0-21.0-0.3","SS1618435660143","","","null","","","","","","<p><img src= images/blank.png width =""600"" height = ""600"" style=""position:fixed;top:50%; left:50%; transform: translate(-50%, -50%); border:5px solid black"">","","","","","","","",""
"","7620.20499999926","sequential-stimulus-presentation-old","88","469883","0.0-21.0-1.3","SS1618435660143","trial","","40","500","8120.20499999926","images/stimuli/spore_stims/simple_04_A_a.gif","images/stimuli/spore_stims/simple_09_A_b.gif","forced_long","","6","simple_dissimilar","images/stimuli/spore_stims/simple_09_A_b.gif","","","","",""
"","null","html-keyboard-response","89","470819","0.0-21.0-0.4","SS1618435660143","","","null","","","","","","<p><img src= images/blank.png width =""600"" height = ""600"" style=""position:fixed;top:50%; left:50%; transform: translate(-50%, -50%); border:5px solid black"">","","","","","","","",""
"","3970.6249999981374","sequential-stimulus-presentation-old","90","475296","0.0-21.0-1.4","SS1618435660143","trial","","40","500","4470.624999998137","images/stimuli/spore_stims/simple_04_A_a.gif","images/stimuli/spore_stims/simple_09_A_b.gif","forced_long","","6","simple_dissimilar","images/stimuli/spore_stims/simple_04_A_a.gif","","","","",""
"","2755.7949999973644","survey-multi-choice","91","478055","0.0-22.0","SS1618435660143","math_question","","","","","","","","","","","","{""Q0"":""10""}","[0]","10","",""
"","null","html-keyboard-response","92","479185","0.0-23.0-0.0","SS1618435660143","","","null","","","","","","<p><img src= images/blank.png width =""600"" height = ""600"" style=""position:fixed;top:50%; left:50%; transform: translate(-50%, -50%); border:5px solid black"">","","","","","","","",""
"","1061.5499999985332","sequential-stimulus-presentation-old","93","480304","0.0-23.0-1.0","SS1618435660143","trial","","40","500","1561.5499999985332","images/stimuli/spore_stims/simple_08_A_a.gif","images/stimuli/spore_stims/simple_07_A_b.gif","forced_short","","7","simple_dissimilar","images/stimuli/spore_stims/simple_07_A_b.gif","","","","",""
"","null","html-keyboard-response","94","481200","0.0-23.0-0.1","SS1618435660143","","","null","","","","","","<p><img src= images/blank.png width =""600"" height = ""600"" style=""position:fixed;top:50%; left:50%; transform: translate(-50%, -50%); border:5px solid black"">","","","","","","","",""
"","3758.4349999997066","sequential-stimulus-presentation-old","95","485465","0.0-23.0-1.1","SS1618435660143","trial","","40","500","4258.434999999707","images/stimuli/spore_stims/simple_08_A_a.gif","images/stimuli/spore_stims/simple_07_A_b.gif","forced_short","","7","simple_dissimilar","images/stimuli/spore_stims/simple_07_A_b.gif","","","","",""
"","null","html-keyboard-response","96","486430","0.0-23.0-0.2","SS1618435660143","","","null","","","","","","<p><img src= images/blank.png width =""600"" height = ""600"" style=""position:fixed;top:50%; left:50%; transform: translate(-50%, -50%); border:5px solid black"">","","","","","","","",""
"","1806.7799999989802","sequential-stimulus-presentation-old","97","488744","0.0-23.0-1.2","SS1618435660143","trial","","40","500","2306.77999999898","images/stimuli/spore_stims/simple_08_A_a.gif","images/stimuli/spore_stims/simple_07_A_b.gif","forced_short","","7","simple_dissimilar","images/stimuli/spore_stims/simple_07_A_b.gif","","","","",""
"","null","html-keyboard-response","98","489601","0.0-23.0-0.3","SS1618435660143","","","null","","","","","","<p><img src= images/blank.png width =""600"" height = ""600"" style=""position:fixed;top:50%; left:50%; transform: translate(-50%, -50%); border:5px solid black"">","","","","","","","",""
"","3152.815000001283","sequential-stimulus-presentation-old","99","493259","0.0-23.0-1.3","SS1618435660143","trial","","40","500","3652.815000001283","images/stimuli/spore_stims/simple_08_A_a.gif","images/stimuli/spore_stims/simple_07_A_b.gif","forced_short","","7","simple_dissimilar","images/stimuli/spore_stims/simple_08_A_a.gif","","","","",""
"","4479.255000001984","survey-multi-choice","100","497743","0.0-24.0","SS1618435660143","math_question","","","","","","","","","","","","{""Q0"":""9""}","[0]","9","",""
"","null","html-keyboard-response","101","498864","0.0-25.0-0.0","SS1618435660143","","","null","","","","","","<p><img src= images/blank.png width =""600"" height = ""600"" style=""position:fixed;top:50%; left:50%; transform: translate(-50%, -50%); border:5px solid black"">","","","","","","","",""
"","752.4000000013039","sequential-stimulus-presentation-old","102","504623","0.0-25.0-1.0","SS1618435660143","trial","","40","500","1252.4000000013039","images/stimuli/spore_stims/complex_11_A_b.gif","images/stimuli/spore_stims/complex_15_A_a.gif","forced_long","","8","complex_dissimilar","images/stimuli/spore_stims/complex_15_A_a.gif","","","","",""
"","null","html-keyboard-response","103","505769","0.0-25.0-0.1","SS1618435660143","","","null","","","","","","<p><img src= images/blank.png width =""600"" height = ""600"" style=""position:fixed;top:50%; left:50%; transform: translate(-50%, -50%); border:5px solid black"">","","","","","","","",""
"","4394.104999999399","sequential-stimulus-presentation-old","104","510669","0.0-25.0-1.1","SS1618435660143","trial","","40","500","4894.104999999399","images/stimuli/spore_stims/complex_11_A_b.gif","images/stimuli/spore_stims/complex_15_A_a.gif","forced_long","","8","complex_dissimilar","images/stimuli/spore_stims/complex_11_A_b.gif","","","","",""
"","null","html-keyboard-response","105","511769","0.0-25.0-0.2","SS1618435660143","","","null","","","","","","<p><img src= images/blank.png width =""600"" height = ""600"" style=""position:fixed;top:50%; left:50%; transform: translate(-50%, -50%); border:5px solid black"">","","","","","","","",""
"","6158.519999997225","sequential-stimulus-presentation-old","106","518434","0.0-25.0-1.2","SS1618435660143","trial","","40","500","6658.519999997225","images/stimuli/spore_stims/complex_11_A_b.gif","images/stimuli/spore_stims/complex_15_A_a.gif","forced_long","","8","complex_dissimilar","images/stimuli/spore_stims/complex_15_A_a.gif","","","","",""
"","null","html-keyboard-response","107","519377","0.0-25.0-0.3","SS1618435660143","","","null","","","","","","<p><img src= images/blank.png width =""600"" height = ""600"" style=""position:fixed;top:50%; left:50%; transform: translate(-50%, -50%); border:5px solid black"">","","","","","","","",""
"","3581.319999997504","sequential-stimulus-presentation-old","108","523462","0.0-25.0-1.3","SS1618435660143","trial","","40","500","4081.319999997504","images/stimuli/spore_stims/complex_11_A_b.gif","images/stimuli/spore_stims/complex_15_A_a.gif","forced_long","","8","complex_dissimilar","images/stimuli/spore_stims/complex_15_A_a.gif","","","","",""
"","null","html-keyboard-response","109","524679","0.0-25.0-0.4","SS1618435660143","","","null","","","","","","<p><img src= images/blank.png width =""600"" height = ""600"" style=""position:fixed;top:50%; left:50%; transform: translate(-50%, -50%); border:5px solid black"">","","","","","","","",""
"","5697.985000002547","sequential-stimulus-presentation-old","110","530883","0.0-25.0-1.4","SS1618435660143","trial","","40","500","6197.985000002547","images/stimuli/spore_stims/complex_11_A_b.gif","images/stimuli/spore_stims/complex_15_A_a.gif","forced_long","","8","complex_dissimilar","images/stimuli/spore_stims/complex_15_A_a.gif","","","","",""
"","null","html-keyboard-response","111","532132","0.0-25.0-0.5","SS1618435660143","","","null","","","","","","<p><img src= images/blank.png width =""600"" height = ""600"" style=""position:fixed;top:50%; left:50%; transform: translate(-50%, -50%); border:5px solid black"">","","","","","","","",""
"","6898.754999998375","sequential-stimulus-presentation-old","112","539537","0.0-25.0-1.5","SS1618435660143","trial","","40","500","7398.754999998375","images/stimuli/spore_stims/complex_11_A_b.gif","images/stimuli/spore_stims/complex_15_A_a.gif","forced_long","","8","complex_dissimilar","images/stimuli/spore_stims/complex_15_A_a.gif","","","","",""
"","4272.260000001523","survey-multi-choice","113","543815","0.0-26.0","SS1618435660143","math_question","","","","","","","","","","","","{""Q0"":""12""}","[0]","12","",""
"","null","html-keyboard-response","114","544994","0.0-27.0-0.0","SS1618435660143","","","null","","","","","","<p><img src= images/blank.png width =""600"" height = ""600"" style=""position:fixed;top:50%; left:50%; transform: translate(-50%, -50%); border:5px solid black"">","","","","","","","",""
"","901.3100000011036","sequential-stimulus-presentation-old","115","545952","0.0-27.0-1.0","SS1618435660143","trial","","40","500","1401.3100000011036","images/stimuli/spore_stims/complex_10_A_b.gif","images/stimuli/spore_stims/complex_13_A_a.gif","forced_short","","9","complex_dissimilar","images/stimuli/spore_stims/complex_13_A_a.gif","","","","",""
"","null","html-keyboard-response","116","546857","0.0-27.0-0.1","SS1618435660143","","","null","","","","","","<p><img src= images/blank.png width =""600"" height = ""600"" style=""position:fixed;top:50%; left:50%; transform: translate(-50%, -50%); border:5px solid black"">","","","","","","","",""
"","4478.594999996829","sequential-stimulus-presentation-old","117","551844","0.0-27.0-1.1","SS1618435660143","trial","","40","500","4978.594999996829","images/stimuli/spore_stims/complex_10_A_b.gif","images/stimuli/spore_stims/complex_13_A_a.gif","forced_short","","9","complex_dissimilar","images/stimuli/spore_stims/complex_13_A_a.gif","","","","",""
"","null","html-keyboard-response","118","552905","0.0-27.0-0.2","SS1618435660143","","","null","","","","","","<p><img src= images/blank.png width =""600"" height = ""600"" style=""position:fixed;top:50%; left:50%; transform: translate(-50%, -50%); border:5px solid black"">","","","","","","","",""
"","6437.5","sequential-stimulus-presentation-old","119","559850","0.0-27.0-1.2","SS1618435660143","trial","","40","500","6937.5","images/stimuli/spore_stims/complex_10_A_b.gif","images/stimuli/spore_stims/complex_13_A_a.gif","forced_short","","9","complex_dissimilar","images/stimuli/spore_stims/complex_10_A_b.gif","","","","",""
"","null","html-keyboard-response","120","560921","0.0-27.0-0.3","SS1618435660143","","","null","","","","","","<p><img src= images/blank.png width =""600"" height = ""600"" style=""position:fixed;top:50%; left:50%; transform: translate(-50%, -50%); border:5px solid black"">","","","","","","","",""
"","3030.0099999986123","sequential-stimulus-presentation-old","121","564458","0.0-27.0-1.3","SS1618435660143","trial","","40","500","3530.0099999986123","images/stimuli/spore_stims/complex_10_A_b.gif","images/stimuli/spore_stims/complex_13_A_a.gif","forced_short","","9","complex_dissimilar","images/stimuli/spore_stims/complex_13_A_a.gif","","","","",""
"","null","html-keyboard-response","122","565451","0.0-27.0-0.4","SS1618435660143","","","null","","","","","","<p><img src= images/blank.png width =""600"" height = ""600"" style=""position:fixed;top:50%; left:50%; transform: translate(-50%, -50%); border:5px solid black"">","","","","","","","",""
"","2905.0700000006473","sequential-stimulus-presentation-old","123","568864","0.0-27.0-1.4","SS1618435660143","trial","","40","500","3405.0700000006473","images/stimuli/spore_stims/complex_10_A_b.gif","images/stimuli/spore_stims/complex_13_A_a.gif","forced_short","","9","complex_dissimilar","images/stimuli/spore_stims/complex_10_A_b.gif","","","","",""
"","null","html-keyboard-response","124","569717","0.0-27.0-0.5","SS1618435660143","","","null","","","","","","<p><img src= images/blank.png width =""600"" height = ""600"" style=""position:fixed;top:50%; left:50%; transform: translate(-50%, -50%); border:5px solid black"">","","","","","","","",""
"","4245.464999999967","sequential-stimulus-presentation-old","125","574470","0.0-27.0-1.5","SS1618435660143","trial","","40","500","4745.464999999967","images/stimuli/spore_stims/complex_10_A_b.gif","images/stimuli/spore_stims/complex_13_A_a.gif","forced_short","","9","complex_dissimilar","images/stimuli/spore_stims/complex_13_A_a.gif","","","","",""
"","2741.2000000003027","survey-multi-choice","126","577215","0.0-28.0","SS1618435660143","math_question","","","","","","","","","","","","{""Q0"":""5""}","[0]","5","",""
"","null","html-keyboard-response","127","578333","0.0-29.0-0.0","SS1618435660143","","","null","","","","","","<p><img src= images/blank.png width =""600"" height = ""600"" style=""position:fixed;top:50%; left:50%; transform: translate(-50%, -50%); border:5px solid black"">","","","","","","","",""
"","567.8599999991711","sequential-stimulus-presentation-old","128","583908","0.0-29.0-1.0","SS1618435660143","trial","","40","500","1067.8599999991711","images/stimuli/spore_stims/complex_02_A_b.gif","images/stimuli/spore_stims/complex_09_A_a.gif","forced_long","","10","complex_dissimilar","images/stimuli/spore_stims/complex_09_A_a.gif","","","","",""
"","null","html-keyboard-response","129","585010","0.0-29.0-0.1","SS1618435660143","","","null","","","","","","<p><img src= images/blank.png width =""600"" height = ""600"" style=""position:fixed;top:50%; left:50%; transform: translate(-50%, -50%); border:5px solid black"">","","","","","","","",""
"","4791.2600000017555","sequential-stimulus-presentation-old","130","590309","0.0-29.0-1.1","SS1618435660143","trial","","40","500","5291.2600000017555","images/stimuli/spore_stims/complex_02_A_b.gif","images/stimuli/spore_stims/complex_09_A_a.gif","forced_long","","10","complex_dissimilar","images/stimuli/spore_stims/complex_09_A_a.gif","","","","",""
"","null","html-keyboard-response","131","591546","0.0-29.0-0.2","SS1618435660143","","","null","","","","","","<p><img src= images/blank.png width =""600"" height = ""600"" style=""position:fixed;top:50%; left:50%; transform: translate(-50%, -50%); border:5px solid black"">","","","","","","","",""
"","3233.285000002128","sequential-stimulus-presentation-old","132","595287","0.0-29.0-1.2","SS1618435660143","trial","","40","500","3733.285000002128","images/stimuli/spore_stims/complex_02_A_b.gif","images/stimuli/spore_stims/complex_09_A_a.gif","forced_long","","10","complex_dissimilar","images/stimuli/spore_stims/complex_09_A_a.gif","","","","",""
"","null","html-keyboard-response","133","596360","0.0-29.0-0.3","SS1618435660143","","","null","","","","","","<p><img src= images/blank.png width =""600"" height = ""600"" style=""position:fixed;top:50%; left:50%; transform: translate(-50%, -50%); border:5px solid black"">","","","","","","","",""
"","5186.054999998305","sequential-stimulus-presentation-old","134","602051","0.0-29.0-1.3","SS1618435660143","trial","","40","500","5686.054999998305","images/stimuli/spore_stims/complex_02_A_b.gif","images/stimuli/spore_stims/complex_09_A_a.gif","forced_long","","10","complex_dissimilar","images/stimuli/spore_stims/complex_09_A_a.gif","","","","",""
"","null","html-keyboard-response","135","603045","0.0-29.0-0.4","SS1618435660143","","","null","","","","","","<p><img src= images/blank.png width =""600"" height = ""600"" style=""position:fixed;top:50%; left:50%; transform: translate(-50%, -50%); border:5px solid black"">","","","","","","","",""
"","4146.809999998426","sequential-stimulus-presentation-old","136","607699","0.0-29.0-1.4","SS1618435660143","trial","","40","500","4646.809999998426","images/stimuli/spore_stims/complex_02_A_b.gif","images/stimuli/spore_stims/complex_09_A_a.gif","forced_long","","10","complex_dissimilar","images/stimuli/spore_stims/complex_09_A_a.gif","","","","",""
"","4633.249999998952","survey-multi-choice","137","612336","0.0-30.0","SS1618435660143","math_question","","","","","","","","","","","","{""Q0"":""10""}","[0]","10","",""
"","null","html-keyboard-response","138","613558","0.0-31.0-0.0","SS1618435660143","","","null","","","","","","<p><img src= images/blank.png width =""600"" height = ""600"" style=""position:fixed;top:50%; left:50%; transform: translate(-50%, -50%); border:5px solid black"">","","","","","","","",""
"","3976.3199999978533","sequential-stimulus-presentation-old","139","618043","0.0-31.0-1.0","SS1618435660143","trial","","40","500","4476.319999997853","images/stimuli/spore_stims/complex_07_A_a.gif","images/stimuli/spore_stims/complex_08_A_b.gif","self_paced","","11","complex_dissimilar","images/stimuli/spore_stims/complex_08_A_b.gif","","","","",""
"","null","html-keyboard-response","140","618915","0.0-31.0-0.1","SS1618435660143","","","null","","","","","","<p><img src= images/blank.png width =""600"" height = ""600"" style=""position:fixed;top:50%; left:50%; transform: translate(-50%, -50%); border:5px solid black"">","","","","","","","",""
"","3584.050000001327","sequential-stimulus-presentation-old","141","623007","0.0-31.0-1.1","SS1618435660143","trial","","40","500","4084.050000001327","images/stimuli/spore_stims/complex_07_A_a.gif","images/stimuli/spore_stims/complex_08_A_b.gif","self_paced","","11","complex_dissimilar","images/stimuli/spore_stims/complex_08_A_b.gif","","","","",""
"","null","html-keyboard-response","142","624143","0.0-31.0-0.2","SS1618435660143","","","null","","","","","","<p><img src= images/blank.png width =""600"" height = ""600"" style=""position:fixed;top:50%; left:50%; transform: translate(-50%, -50%); border:5px solid black"">","","","","","","","",""
"","5888.275000001187","sequential-stimulus-presentation-old","143","630539","0.0-31.0-1.2","SS1618435660143","trial","","40","500","6388.275000001187","images/stimuli/spore_stims/complex_07_A_a.gif","images/stimuli/spore_stims/complex_08_A_b.gif","self_paced","","11","complex_dissimilar","images/stimuli/spore_stims/complex_08_A_b.gif","","","","",""
"","null","html-keyboard-response","144","631669","0.0-31.0-0.3","SS1618435660143","","","null","","","","","","<p><img src= images/blank.png width =""600"" height = ""600"" style=""position:fixed;top:50%; left:50%; transform: translate(-50%, -50%); border:5px solid black"">","","","","","","","",""
"","2556.039999999455","sequential-stimulus-presentation-old","145","634734","0.0-31.0-1.3","SS1618435660143","trial","","40","500","3056.039999999455","images/stimuli/spore_stims/complex_07_A_a.gif","images/stimuli/spore_stims/complex_08_A_b.gif","self_paced","","11","complex_dissimilar","images/stimuli/spore_stims/complex_08_A_b.gif","","","","",""
"","null","html-keyboard-response","146","635595","0.0-31.0-0.4","SS1618435660143","","","null","","","","","","<p><img src= images/blank.png width =""600"" height = ""600"" style=""position:fixed;top:50%; left:50%; transform: translate(-50%, -50%); border:5px solid black"">","","","","","","","",""
"","3503.4550000018207","sequential-stimulus-presentation-old","147","639607","0.0-31.0-1.4","SS1618435660143","trial","","40","500","4003.4550000018207","images/stimuli/spore_stims/complex_07_A_a.gif","images/stimuli/spore_stims/complex_08_A_b.gif","self_paced","","11","complex_dissimilar","images/stimuli/spore_stims/complex_08_A_b.gif","","","","",""
"","null","html-keyboard-response","148","640645","0.0-31.0-0.5","SS1618435660143","","","null","","","","","","<p><img src= images/blank.png width =""600"" height = ""600"" style=""position:fixed;top:50%; left:50%; transform: translate(-50%, -50%); border:5px solid black"">","","","","","","","",""
"","2911.1000000012573","sequential-stimulus-presentation-old","149","644064","0.0-31.0-1.5","SS1618435660143","trial","","40","500","3411.1000000012573","images/stimuli/spore_stims/complex_07_A_a.gif","images/stimuli/spore_stims/complex_08_A_b.gif","self_paced","","11","complex_dissimilar","images/stimuli/spore_stims/complex_07_A_a.gif","","","","",""
"[{""page_index"":0,""viewing_time"":7170.555000000633}]","7171.1099999992875","instructions","150","651239","0.0-32.0","SS1618435660143","instructions","","","","","","","","","","","","","","","",""
"","12171.569999998668","survey-likert","151","663416","0.0-33.0","SS1618435660143","similarity_question","","","","","","","","","","","","{""Q0"":5}","[0]","","images/stimuli/spore_stims/simple_20_A_b.gif","images/stimuli/spore_stims/simple_14_A_a.gif"
"","4426.579999999376","survey-likert","152","667847","0.0-34.0","SS1618435660143","similarity_question","","","","","","","","","","","","{""Q0"":6}","[0]","","images/stimuli/spore_stims/simple_13_A_b.gif","images/stimuli/spore_stims/simple_12_A_a.gif"
"","13131.040000000154","survey-likert","153","680983","0.0-35.0","SS1618435660143","similarity_question","","","","","","","","","","","","{""Q0"":2}","[0]","","images/stimuli/spore_stims/complex_20_A_a.gif","images/stimuli/spore_stims/complex_14_A_b.gif"
"","3107.244999999297","survey-likert","154","684095","0.0-36.0","SS1618435660143","similarity_question","","","","","","","","","","","","{""Q0"":6}","[0]","","images/stimuli/spore_stims/simple_02_A_a.gif","images/stimuli/spore_stims/simple_08_A_b.gif"
"","6419.775000002119","survey-likert","155","690519","0.0-37.0","SS1618435660143","similarity_question","","","","","","","","","","","","{""Q0"":4}","[0]","","images/stimuli/spore_stims/complex_19_A_b.gif","images/stimuli/spore_stims/complex_08_A_a.gif"
"","3979.9799999999814","survey-likert","156","694504","0.0-38.0","SS1618435660143","similarity_question","","","","","","","","","","","","{""Q0"":0}","[0]","","images/stimuli/spore_stims/complex_15_A_a.gif","images/stimuli/spore_stims/complex_11_A_b.gif"
"","5504.959999998333","survey-likert","157","700014","0.0-39.0","SS1618435660143","similarity_question","","","","","","","","","","","","{""Q0"":0}","[0]","","images/stimuli/spore_stims/simple_07_A_b.gif","images/stimuli/spore_stims/simple_08_A_a.gif"
"","5171.5500000028405","survey-likert","158","705191","0.0-40.0","SS1618435660143","similarity_question","","","","","","","","","","","","{""Q0"":4}","[0]","","images/stimuli/spore_stims/complex_07_A_a.gif","images/stimuli/spore_stims/complex_08_A_b.gif"
"","5786.909999998868","survey-likert","159","710983","0.0-41.0","SS1618435660143","similarity_question","","","","","","","","","","","","{""Q0"":1}","[0]","","images/stimuli/spore_stims/complex_02_A_b.gif","images/stimuli/spore_stims/complex_09_A_a.gif"
"","8195.494999999995","survey-likert","160","719183","0.0-42.0","SS1618435660143","similarity_question","","","","","","","","","","","","{""Q0"":5}","[0]","","images/stimuli/spore_stims/simple_09_A_b.gif","images/stimuli/spore_stims/simple_04_A_a.gif"
"","6995.695000001462","survey-likert","161","726182","0.0-43.0","SS1618435660143","similarity_question","","","","","","","","","","","","{""Q0"":0}","[0]","","images/stimuli/spore_stims/complex_13_A_a.gif","images/stimuli/spore_stims/complex_10_A_b.gif"
"","5203.009999997448","survey-likert","162","731390","0.0-44.0","SS1618435660143","similarity_question","","","","","","","","","","","","{""Q0"":4}","[0]","","images/stimuli/spore_stims/simple_14_A_b.gif","images/stimuli/spore_stims/simple_06_A_a.gif"
"[{""page_index"":0,""viewing_time"":5404.395000001416}]","5404.90000000142","instructions","163","736798","0.0-45.0","SS1618435660143","instructions","","","","","","","","","","","","","","","",""
"","4252.470000003115","survey-likert","164","741055","0.0-46.0","SS1618435660143","","","","","","","","","images/stimuli/spore_stims/complex_08_A_b.gif","","","","{""Q0"":6}","[0]","","",""
"","3602.999999999185","survey-likert","165","744662","0.0-47.0","SS1618435660143","","","","","","","","","images/stimuli/spore_stims/simple_20_A_b.gif","","","","{""Q0"":0}","[0]","","",""
"","2179.5899999997346","survey-likert","166","746847","0.0-48.0","SS1618435660143","","","","","","","","","images/stimuli/spore_stims/simple_08_A_b.gif","","","","{""Q0"":0}","[0]","","",""
"","2227.824999998091","survey-likert","167","749079","0.0-49.0","SS1618435660143","","","","","","","","","images/stimuli/spore_stims/simple_12_A_a.gif","","","","{""Q0"":0}","[0]","","",""
"","2403.659999999916","survey-likert","168","751487","0.0-50.0","SS1618435660143","","","","","","","","","images/stimuli/spore_stims/simple_04_A_a.gif","","","","{""Q0"":0}","[0]","","",""
"","4163.329999999376","survey-likert","169","755655","0.0-51.0","SS1618435660143","","","","","","","","","images/stimuli/spore_stims/complex_02_A_b.gif","","","","{""Q0"":5}","[0]","","",""
"","2667.2550000002375","survey-likert","170","758327","0.0-52.0","SS1618435660143","","","","","","","","","images/stimuli/spore_stims/complex_19_A_b.gif","","","","{""Q0"":6}","[0]","","",""
"","3539.8900000001304","survey-likert","171","761871","0.0-53.0","SS1618435660143","","","","","","","","","images/stimuli/spore_stims/complex_11_A_b.gif","","","","{""Q0"":5}","[0]","","",""
"","2538.730000000214","survey-likert","172","764414","0.0-54.0","SS1618435660143","","","","","","","","","images/stimuli/spore_stims/complex_10_A_b.gif","","","","{""Q0"":5}","[0]","","",""
"","2043.5900000011316","survey-likert","173","766463","0.0-55.0","SS1618435660143","","","","","","","","","images/stimuli/spore_stims/simple_06_A_a.gif","","","","{""Q0"":0}","[0]","","",""
"","3835.2299999969546","survey-likert","174","770302","0.0-56.0","SS1618435660143","","","","","","","","","images/stimuli/spore_stims/complex_20_A_a.gif","","","","{""Q0"":5}","[0]","","",""
"","1987.7750000013039","survey-likert","175","772295","0.0-57.0","SS1618435660143","","","","","","","","","images/stimuli/spore_stims/simple_08_A_a.gif","","","","{""Q0"":0}","[0]","","",""
"[{""page_index"":0,""viewing_time"":1187.460000001127}]","1187.9650000010151","instructions","176","773486","0.0-58.0","SS1618435660143","instructions","","","","","","","","","","","","","","","",""
"","3482.4599999992643","demog-age","177","776975","0.0-59.0","SS1618435660143","","","","","","","","","","","","","{""age"":""27""}","","","",""
"","5649.345000001602","demog-ethnic-US","178","782631","0.0-60.0","SS1618435660143","","","","","","","","","","","","","{""ethnicity"":[""Hispanic or Latino""]}","[0]","","",""
"","18914.310000000172","demog-gender-and-education","179","801551","0.0-61.0","SS1618435660143","","","","","","","","","","","","","{""gender"":""Male"",""education"":""Bachelor's Degree""}","[0,1]","","",""
"","6746.209999997402","survey-text","180","808304","0.0-62.0","SS1618435660143","feedback","","","","","","","","","","","","{""Q0"":""no""}","","","",""
"[{""page_index"":0,""viewing_time"":2923.7299999985844}]","2924.149999998859","instructions","181","811231","0.0-63.0","SS1618435660143","instructions","","","","","","","","","","","","","","","",""
