"view_history","rt","trial_type","trial_index","time_elapsed","internal_node_id","subject","stimulus_type","trial_stimulus","key_press","minimum_viewing_duration","trial_looking_time","block_deviant","block_background","exposure_type","stimulus","block_number","block_type","stimulus_displayed","responses","question_order","math_correct_answer","stimulus_left","stimulus_right"
"[{""page_index"":0,""viewing_time"":15950.520000013057}]","15951.47500000894","instructions","0","15953","0.0-0.0","SS1618365592562","","","","","","","","","","","","","","","","",""
"[{""page_index"":0,""viewing_time"":12272.67999999458},{""page_index"":1,""viewing_time"":4293.569999979809}]","16566.67999998899","instructions","1","34522","0.0-1.0","SS1618365592562","instructions","","","","","","","","","","","","","","","",""
"","5145.004999998491","sequential-stimulus-presentation-old","2","40172","0.0-2.0","SS1618365592562","","","40","500","5645.004999998491","null","null","self_paced","","","","","","","","",""
"","4104.74000000977","sequential-stimulus-presentation-old","3","44780","0.0-3.0","SS1618365592562","","","40","500","4604.74000000977","null","null","self_paced","","","","","","","","",""
"[{""page_index"":0,""viewing_time"":28363.699999987148}]","28364.20499999076","instructions","4","73144","0.0-4.0","SS1618365592562","instructions","","","","","","","","","","","","","","","",""
"","470.0349999766331","sequential-stimulus-presentation-old","5","78617","0.0-5.0","SS1618365592562","","","40","500","970.0349999766331","null","null","forced_long","","","","","","","","",""
"","6148.495000001276","sequential-stimulus-presentation-old","6","84821","0.0-6.0","SS1618365592562","","","40","50","6198.495000001276","null","null","forced_long","","","","","","","","",""
"[{""page_index"":0,""viewing_time"":3998.5799999849405}]","3998.8500000035856","instructions","7","88821","0.0-7.0","SS1618365592562","instructions","","","","","","","","","","","","","","","",""
"[{""page_index"":0,""viewing_time"":8179.345000011381},{""page_index"":1,""viewing_time"":9062.904999998864},{""page_index"":2,""viewing_time"":5483.844999980647},{""page_index"":3,""viewing_time"":1834.2650000122376},{""page_index"":4,""viewing_time"":1471.6199999966193}]","26032.46499999659","instructions","8","114854","0.0-8.0","SS1618365592562","instructions","","","","","","","","","","","","","","","",""
"","null","html-keyboard-response","9","115909","0.0-9.0-0.0","SS1618365592562","","","null","","","","","","<p><img src= images/blank.png width =""600"" height = ""600"" style=""position:fixed;top:50%; left:50%; transform: translate(-50%, -50%); border:5px solid black"">","","","","","","","",""
"","2137.249999999767","sequential-stimulus-presentation-old","10","123053","0.0-9.0-1.0","SS1618365592562","trial","","40","500","2637.249999999767","images/stimuli/spore_stims/simple_18_A_b.gif","images/stimuli/spore_stims/simple_04_A_a.gif","forced_long","","0","simple_dissimilar","images/stimuli/spore_stims/simple_04_A_a.gif","","","","",""
"","null","html-keyboard-response","11","123880","0.0-9.0-0.1","SS1618365592562","","","null","","","","","","<p><img src= images/blank.png width =""600"" height = ""600"" style=""position:fixed;top:50%; left:50%; transform: translate(-50%, -50%); border:5px solid black"">","","","","","","","",""
"","1385.9149999916553","sequential-stimulus-presentation-old","12","125771","0.0-9.0-1.1","SS1618365592562","trial","","40","500","1885.9149999916553","images/stimuli/spore_stims/simple_18_A_b.gif","images/stimuli/spore_stims/simple_04_A_a.gif","forced_long","","0","simple_dissimilar","images/stimuli/spore_stims/simple_18_A_b.gif","","","","",""
"","null","html-keyboard-response","13","126812","0.0-9.0-0.2","SS1618365592562","","","null","","","","","","<p><img src= images/blank.png width =""600"" height = ""600"" style=""position:fixed;top:50%; left:50%; transform: translate(-50%, -50%); border:5px solid black"">","","","","","","","",""
"","7227.774999977555","sequential-stimulus-presentation-old","14","134543","0.0-9.0-1.2","SS1618365592562","trial","","40","500","7727.774999977555","images/stimuli/spore_stims/simple_18_A_b.gif","images/stimuli/spore_stims/simple_04_A_a.gif","forced_long","","0","simple_dissimilar","images/stimuli/spore_stims/simple_04_A_a.gif","","","","",""
"","null","html-keyboard-response","15","135441","0.0-9.0-0.3","SS1618365592562","","","null","","","","","","<p><img src= images/blank.png width =""600"" height = ""600"" style=""position:fixed;top:50%; left:50%; transform: translate(-50%, -50%); border:5px solid black"">","","","","","","","",""
"","6140.3449999925215","sequential-stimulus-presentation-old","16","142085","0.0-9.0-1.3","SS1618365592562","trial","","40","500","6640.3449999925215","images/stimuli/spore_stims/simple_18_A_b.gif","images/stimuli/spore_stims/simple_04_A_a.gif","forced_long","","0","simple_dissimilar","images/stimuli/spore_stims/simple_04_A_a.gif","","","","",""
"","null","html-keyboard-response","17","142971","0.0-9.0-0.4","SS1618365592562","","","null","","","","","","<p><img src= images/blank.png width =""600"" height = ""600"" style=""position:fixed;top:50%; left:50%; transform: translate(-50%, -50%); border:5px solid black"">","","","","","","","",""
"","9955.389999988256","sequential-stimulus-presentation-old","18","153430","0.0-9.0-1.4","SS1618365592562","trial","","40","500","10455.389999988256","images/stimuli/spore_stims/simple_18_A_b.gif","images/stimuli/spore_stims/simple_04_A_a.gif","forced_long","","0","simple_dissimilar","images/stimuli/spore_stims/simple_04_A_a.gif","","","","",""
"","4776.549999980489","survey-multi-choice","19","158211","0.0-10.0","SS1618365592562","math_question","","","","","","","","","","","","{""Q0"":""14""}","[0]","14","",""
"","null","html-keyboard-response","20","159033","0.0-11.0-0.0","SS1618365592562","","","null","","","","","","<p><img src= images/blank.png width =""600"" height = ""600"" style=""position:fixed;top:50%; left:50%; transform: translate(-50%, -50%); border:5px solid black"">","","","","","","","",""
"","2171.8800000089686","sequential-stimulus-presentation-old","21","161261","0.0-11.0-1.0","SS1618365592562","trial","","40","500","2671.8800000089686","images/stimuli/spore_stims/simple_15_A_b.gif","images/stimuli/spore_stims/simple_08_A_a.gif","forced_short","","1","simple_dissimilar","images/stimuli/spore_stims/simple_08_A_a.gif","","","","",""
"","null","html-keyboard-response","22","162457","0.0-11.0-0.1","SS1618365592562","","","null","","","","","","<p><img src= images/blank.png width =""600"" height = ""600"" style=""position:fixed;top:50%; left:50%; transform: translate(-50%, -50%); border:5px solid black"">","","","","","","","",""
"","5697.9600000195205","sequential-stimulus-presentation-old","23","168661","0.0-11.0-1.1","SS1618365592562","trial","","40","500","6197.9600000195205","images/stimuli/spore_stims/simple_15_A_b.gif","images/stimuli/spore_stims/simple_08_A_a.gif","forced_short","","1","simple_dissimilar","images/stimuli/spore_stims/simple_08_A_a.gif","","","","",""
"","null","html-keyboard-response","24","169660","0.0-11.0-0.2","SS1618365592562","","","null","","","","","","<p><img src= images/blank.png width =""600"" height = ""600"" style=""position:fixed;top:50%; left:50%; transform: translate(-50%, -50%); border:5px solid black"">","","","","","","","",""
"","5892.61500001885","sequential-stimulus-presentation-old","25","176056","0.0-11.0-1.2","SS1618365592562","trial","","40","500","6392.61500001885","images/stimuli/spore_stims/simple_15_A_b.gif","images/stimuli/spore_stims/simple_08_A_a.gif","forced_short","","1","simple_dissimilar","images/stimuli/spore_stims/simple_15_A_b.gif","","","","",""
"","null","html-keyboard-response","26","176860","0.0-11.0-0.3","SS1618365592562","","","null","","","","","","<p><img src= images/blank.png width =""600"" height = ""600"" style=""position:fixed;top:50%; left:50%; transform: translate(-50%, -50%); border:5px solid black"">","","","","","","","",""
"","4545.144999981858","sequential-stimulus-presentation-old","27","181909","0.0-11.0-1.3","SS1618365592562","trial","","40","500","5045.144999981858","images/stimuli/spore_stims/simple_15_A_b.gif","images/stimuli/spore_stims/simple_08_A_a.gif","forced_short","","1","simple_dissimilar","images/stimuli/spore_stims/simple_15_A_b.gif","","","","",""
"","3984.660000016447","survey-multi-choice","28","185896","0.0-12.0","SS1618365592562","math_question","","","","","","","","","","","","{""Q0"":""13""}","[0]","13","",""
"","null","html-keyboard-response","29","187086","0.0-13.0-0.0","SS1618365592562","","","null","","","","","","<p><img src= images/blank.png width =""600"" height = ""600"" style=""position:fixed;top:50%; left:50%; transform: translate(-50%, -50%); border:5px solid black"">","","","","","","","",""
"","4228.544999990845","sequential-stimulus-presentation-old","30","191818","0.0-13.0-1.0","SS1618365592562","trial","","40","500","4728.544999990845","images/stimuli/spore_stims/complex_07_A_b.gif","images/stimuli/spore_stims/complex_15_A_a.gif","self_paced","","2","complex_dissimilar","images/stimuli/spore_stims/complex_15_A_a.gif","","","","",""
"","null","html-keyboard-response","31","193023","0.0-13.0-0.1","SS1618365592562","","","null","","","","","","<p><img src= images/blank.png width =""600"" height = ""600"" style=""position:fixed;top:50%; left:50%; transform: translate(-50%, -50%); border:5px solid black"">","","","","","","","",""
"","5430.540000001201","sequential-stimulus-presentation-old","32","198957","0.0-13.0-1.1","SS1618365592562","trial","","40","500","5930.540000001201","images/stimuli/spore_stims/complex_07_A_b.gif","images/stimuli/spore_stims/complex_15_A_a.gif","self_paced","","2","complex_dissimilar","images/stimuli/spore_stims/complex_15_A_a.gif","","","","",""
"","null","html-keyboard-response","33","200173","0.0-13.0-0.2","SS1618365592562","","","null","","","","","","<p><img src= images/blank.png width =""600"" height = ""600"" style=""position:fixed;top:50%; left:50%; transform: translate(-50%, -50%); border:5px solid black"">","","","","","","","",""
"","6415.889999974752","sequential-stimulus-presentation-old","34","207094","0.0-13.0-1.2","SS1618365592562","trial","","40","500","6915.889999974752","images/stimuli/spore_stims/complex_07_A_b.gif","images/stimuli/spore_stims/complex_15_A_a.gif","self_paced","","2","complex_dissimilar","images/stimuli/spore_stims/complex_07_A_b.gif","","","","",""
"","null","html-keyboard-response","35","207988","0.0-13.0-0.3","SS1618365592562","","","null","","","","","","<p><img src= images/blank.png width =""600"" height = ""600"" style=""position:fixed;top:50%; left:50%; transform: translate(-50%, -50%); border:5px solid black"">","","","","","","","",""
"","706.6999999806285","sequential-stimulus-presentation-old","36","209203","0.0-13.0-1.3","SS1618365592562","trial","","40","500","1206.6999999806285","images/stimuli/spore_stims/complex_07_A_b.gif","images/stimuli/spore_stims/complex_15_A_a.gif","self_paced","","2","complex_dissimilar","images/stimuli/spore_stims/complex_15_A_a.gif","","","","",""
"","null","html-keyboard-response","37","210178","0.0-13.0-0.4","SS1618365592562","","","null","","","","","","<p><img src= images/blank.png width =""600"" height = ""600"" style=""position:fixed;top:50%; left:50%; transform: translate(-50%, -50%); border:5px solid black"">","","","","","","","",""
"","2307.460000010906","sequential-stimulus-presentation-old","38","212989","0.0-13.0-1.4","SS1618365592562","trial","","40","500","2807.460000010906","images/stimuli/spore_stims/complex_07_A_b.gif","images/stimuli/spore_stims/complex_15_A_a.gif","self_paced","","2","complex_dissimilar","images/stimuli/spore_stims/complex_07_A_b.gif","","","","",""
"","6031.069999997271","survey-multi-choice","39","219022","0.0-14.0","SS1618365592562","math_question","","","","","","","","","","","","{""Q0"":""13""}","[0]","13","",""
"","null","html-keyboard-response","40","220079","0.0-15.0-0.0","SS1618365592562","","","null","","","","","","<p><img src= images/blank.png width =""600"" height = ""600"" style=""position:fixed;top:50%; left:50%; transform: translate(-50%, -50%); border:5px solid black"">","","","","","","","",""
"","3773.459999996703","sequential-stimulus-presentation-old","41","223907","0.0-15.0-1.0","SS1618365592562","trial","","40","500","4273.459999996703","images/stimuli/spore_stims/simple_14_A_a.gif","images/stimuli/spore_stims/simple_20_A_b.gif","forced_short","","3","simple_dissimilar","images/stimuli/spore_stims/simple_20_A_b.gif","","","","",""
"","null","html-keyboard-response","42","224973","0.0-15.0-0.1","SS1618365592562","","","null","","","","","","<p><img src= images/blank.png width =""600"" height = ""600"" style=""position:fixed;top:50%; left:50%; transform: translate(-50%, -50%); border:5px solid black"">","","","","","","","",""
"","5955.354999983683","sequential-stimulus-presentation-old","43","231435","0.0-15.0-1.1","SS1618365592562","trial","","40","500","6455.354999983683","images/stimuli/spore_stims/simple_14_A_a.gif","images/stimuli/spore_stims/simple_20_A_b.gif","forced_short","","3","simple_dissimilar","images/stimuli/spore_stims/simple_20_A_b.gif","","","","",""
"","null","html-keyboard-response","44","232319","0.0-15.0-0.2","SS1618365592562","","","null","","","","","","<p><img src= images/blank.png width =""600"" height = ""600"" style=""position:fixed;top:50%; left:50%; transform: translate(-50%, -50%); border:5px solid black"">","","","","","","","",""
"","2250.399999989895","sequential-stimulus-presentation-old","45","235076","0.0-15.0-1.2","SS1618365592562","trial","","40","500","2750.399999989895","images/stimuli/spore_stims/simple_14_A_a.gif","images/stimuli/spore_stims/simple_20_A_b.gif","forced_short","","3","simple_dissimilar","images/stimuli/spore_stims/simple_20_A_b.gif","","","","",""
"","null","html-keyboard-response","46","236017","0.0-15.0-0.3","SS1618365592562","","","null","","","","","","<p><img src= images/blank.png width =""600"" height = ""600"" style=""position:fixed;top:50%; left:50%; transform: translate(-50%, -50%); border:5px solid black"">","","","","","","","",""
"","178.1850000261329","sequential-stimulus-presentation-old","47","236699","0.0-15.0-1.3","SS1618365592562","trial","","40","500","678.1850000261329","images/stimuli/spore_stims/simple_14_A_a.gif","images/stimuli/spore_stims/simple_20_A_b.gif","forced_short","","3","simple_dissimilar","images/stimuli/spore_stims/simple_20_A_b.gif","","","","",""
"","null","html-keyboard-response","48","237949","0.0-15.0-0.4","SS1618365592562","","","null","","","","","","<p><img src= images/blank.png width =""600"" height = ""600"" style=""position:fixed;top:50%; left:50%; transform: translate(-50%, -50%); border:5px solid black"">","","","","","","","",""
"","348.3450000057928","sequential-stimulus-presentation-old","49","238803","0.0-15.0-1.4","SS1618365592562","trial","","40","500","848.3450000057928","images/stimuli/spore_stims/simple_14_A_a.gif","images/stimuli/spore_stims/simple_20_A_b.gif","forced_short","","3","simple_dissimilar","images/stimuli/spore_stims/simple_20_A_b.gif","","","","",""
"","3574.574999976903","survey-multi-choice","50","242379","0.0-16.0","SS1618365592562","math_question","","","","","","","","","","","","{""Q0"":""14""}","[0]","14","",""
"","null","html-keyboard-response","51","243307","0.0-17.0-0.0","SS1618365592562","","","null","","","","","","<p><img src= images/blank.png width =""600"" height = ""600"" style=""position:fixed;top:50%; left:50%; transform: translate(-50%, -50%); border:5px solid black"">","","","","","","","",""
"","2274.150000012014","sequential-stimulus-presentation-old","52","245635","0.0-17.0-1.0","SS1618365592562","trial","","40","500","2774.150000012014","images/stimuli/spore_stims/complex_08_A_b.gif","images/stimuli/spore_stims/complex_17_A_a.gif","forced_short","","4","complex_dissimilar","images/stimuli/spore_stims/complex_17_A_a.gif","","","","",""
"","null","html-keyboard-response","53","246852","0.0-17.0-0.1","SS1618365592562","","","null","","","","","","<p><img src= images/blank.png width =""600"" height = ""600"" style=""position:fixed;top:50%; left:50%; transform: translate(-50%, -50%); border:5px solid black"">","","","","","","","",""
"","3420.594999974128","sequential-stimulus-presentation-old","54","250780","0.0-17.0-1.1","SS1618365592562","trial","","40","500","3920.594999974128","images/stimuli/spore_stims/complex_08_A_b.gif","images/stimuli/spore_stims/complex_17_A_a.gif","forced_short","","4","complex_dissimilar","images/stimuli/spore_stims/complex_17_A_a.gif","","","","",""
"","null","html-keyboard-response","55","251714","0.0-17.0-0.2","SS1618365592562","","","null","","","","","","<p><img src= images/blank.png width =""600"" height = ""600"" style=""position:fixed;top:50%; left:50%; transform: translate(-50%, -50%); border:5px solid black"">","","","","","","","",""
"","201.78000000305474","sequential-stimulus-presentation-old","56","252420","0.0-17.0-1.2","SS1618365592562","trial","","40","500","701.7800000030547","images/stimuli/spore_stims/complex_08_A_b.gif","images/stimuli/spore_stims/complex_17_A_a.gif","forced_short","","4","complex_dissimilar","images/stimuli/spore_stims/complex_17_A_a.gif","","","","",""
"","null","html-keyboard-response","57","253286","0.0-17.0-0.3","SS1618365592562","","","null","","","","","","<p><img src= images/blank.png width =""600"" height = ""600"" style=""position:fixed;top:50%; left:50%; transform: translate(-50%, -50%); border:5px solid black"">","","","","","","","",""
"","5075.485000008484","sequential-stimulus-presentation-old","58","258867","0.0-17.0-1.3","SS1618365592562","trial","","40","500","5575.485000008484","images/stimuli/spore_stims/complex_08_A_b.gif","images/stimuli/spore_stims/complex_17_A_a.gif","forced_short","","4","complex_dissimilar","images/stimuli/spore_stims/complex_08_A_b.gif","","","","",""
"","null","html-keyboard-response","59","260031","0.0-17.0-0.4","SS1618365592562","","","null","","","","","","<p><img src= images/blank.png width =""600"" height = ""600"" style=""position:fixed;top:50%; left:50%; transform: translate(-50%, -50%); border:5px solid black"">","","","","","","","",""
"","1675.584999989951","sequential-stimulus-presentation-old","60","262210","0.0-17.0-1.4","SS1618365592562","trial","","40","500","2175.584999989951","images/stimuli/spore_stims/complex_08_A_b.gif","images/stimuli/spore_stims/complex_17_A_a.gif","forced_short","","4","complex_dissimilar","images/stimuli/spore_stims/complex_17_A_a.gif","","","","",""
"","null","html-keyboard-response","61","263381","0.0-17.0-0.5","SS1618365592562","","","null","","","","","","<p><img src= images/blank.png width =""600"" height = ""600"" style=""position:fixed;top:50%; left:50%; transform: translate(-50%, -50%); border:5px solid black"">","","","","","","","",""
"","331.39000000664964","sequential-stimulus-presentation-old","62","264219","0.0-17.0-1.5","SS1618365592562","trial","","40","500","831.3900000066496","images/stimuli/spore_stims/complex_08_A_b.gif","images/stimuli/spore_stims/complex_17_A_a.gif","forced_short","","4","complex_dissimilar","images/stimuli/spore_stims/complex_08_A_b.gif","","","","",""
"","3414.6599999803584","survey-multi-choice","63","267636","0.0-18.0","SS1618365592562","math_question","","","","","","","","","","","","{""Q0"":""18""}","[0]","18","",""
"","null","html-keyboard-response","64","268693","0.0-19.0-0.0","SS1618365592562","","","null","","","","","","<p><img src= images/blank.png width =""600"" height = ""600"" style=""position:fixed;top:50%; left:50%; transform: translate(-50%, -50%); border:5px solid black"">","","","","","","","",""
"","3305.6350000260863","sequential-stimulus-presentation-old","65","277004","0.0-19.0-1.0","SS1618365592562","trial","","40","500","3805.6350000260863","images/stimuli/spore_stims/complex_14_A_b.gif","images/stimuli/spore_stims/complex_16_A_a.gif","forced_long","","5","complex_dissimilar","images/stimuli/spore_stims/complex_16_A_a.gif","","","","",""
"","null","html-keyboard-response","66","278188","0.0-19.0-0.1","SS1618365592562","","","null","","","","","","<p><img src= images/blank.png width =""600"" height = ""600"" style=""position:fixed;top:50%; left:50%; transform: translate(-50%, -50%); border:5px solid black"">","","","","","","","",""
"","3499.5300000009593","sequential-stimulus-presentation-old","67","282196","0.0-19.0-1.1","SS1618365592562","trial","","40","500","3999.5300000009593","images/stimuli/spore_stims/complex_14_A_b.gif","images/stimuli/spore_stims/complex_16_A_a.gif","forced_long","","5","complex_dissimilar","images/stimuli/spore_stims/complex_16_A_a.gif","","","","",""
"","null","html-keyboard-response","68","283314","0.0-19.0-0.2","SS1618365592562","","","null","","","","","","<p><img src= images/blank.png width =""600"" height = ""600"" style=""position:fixed;top:50%; left:50%; transform: translate(-50%, -50%); border:5px solid black"">","","","","","","","",""
"","815.359999978682","sequential-stimulus-presentation-old","69","284636","0.0-19.0-1.2","SS1618365592562","trial","","40","500","1315.359999978682","images/stimuli/spore_stims/complex_14_A_b.gif","images/stimuli/spore_stims/complex_16_A_a.gif","forced_long","","5","complex_dissimilar","images/stimuli/spore_stims/complex_16_A_a.gif","","","","",""
"","null","html-keyboard-response","70","285515","0.0-19.0-0.3","SS1618365592562","","","null","","","","","","<p><img src= images/blank.png width =""600"" height = ""600"" style=""position:fixed;top:50%; left:50%; transform: translate(-50%, -50%); border:5px solid black"">","","","","","","","",""
"","590.2800000039861","sequential-stimulus-presentation-old","71","286612","0.0-19.0-1.3","SS1618365592562","trial","","40","500","1090.280000003986","images/stimuli/spore_stims/complex_14_A_b.gif","images/stimuli/spore_stims/complex_16_A_a.gif","forced_long","","5","complex_dissimilar","images/stimuli/spore_stims/complex_16_A_a.gif","","","","",""
"","null","html-keyboard-response","72","287798","0.0-19.0-0.4","SS1618365592562","","","null","","","","","","<p><img src= images/blank.png width =""600"" height = ""600"" style=""position:fixed;top:50%; left:50%; transform: translate(-50%, -50%); border:5px solid black"">","","","","","","","",""
"","5671.510000014678","sequential-stimulus-presentation-old","73","293974","0.0-19.0-1.4","SS1618365592562","trial","","40","500","6171.510000014678","images/stimuli/spore_stims/complex_14_A_b.gif","images/stimuli/spore_stims/complex_16_A_a.gif","forced_long","","5","complex_dissimilar","images/stimuli/spore_stims/complex_14_A_b.gif","","","","",""
"","null","html-keyboard-response","74","294877","0.0-19.0-0.5","SS1618365592562","","","null","","","","","","<p><img src= images/blank.png width =""600"" height = ""600"" style=""position:fixed;top:50%; left:50%; transform: translate(-50%, -50%); border:5px solid black"">","","","","","","","",""
"","1264.0149999933783","sequential-stimulus-presentation-old","75","296646","0.0-19.0-1.5","SS1618365592562","trial","","40","500","1764.0149999933783","images/stimuli/spore_stims/complex_14_A_b.gif","images/stimuli/spore_stims/complex_16_A_a.gif","forced_long","","5","complex_dissimilar","images/stimuli/spore_stims/complex_14_A_b.gif","","","","",""
"","4328.559999994468","survey-multi-choice","76","300978","0.0-20.0","SS1618365592562","math_question","","","","","","","","","","","","{""Q0"":""12""}","[0]","12","",""
"","null","html-keyboard-response","77","301830","0.0-21.0-0.0","SS1618365592562","","","null","","","","","","<p><img src= images/blank.png width =""600"" height = ""600"" style=""position:fixed;top:50%; left:50%; transform: translate(-50%, -50%); border:5px solid black"">","","","","","","","",""
"","1349.289999983739","sequential-stimulus-presentation-old","78","303686","0.0-21.0-1.0","SS1618365592562","trial","","40","500","1849.289999983739","images/stimuli/spore_stims/simple_19_A_a.gif","images/stimuli/spore_stims/simple_02_A_b.gif","self_paced","","6","simple_dissimilar","images/stimuli/spore_stims/simple_02_A_b.gif","","","","",""
"","null","html-keyboard-response","79","304567","0.0-21.0-0.1","SS1618365592562","","","null","","","","","","<p><img src= images/blank.png width =""600"" height = ""600"" style=""position:fixed;top:50%; left:50%; transform: translate(-50%, -50%); border:5px solid black"">","","","","","","","",""
"","780.6700000073761","sequential-stimulus-presentation-old","80","305854","0.0-21.0-1.1","SS1618365592562","trial","","40","500","1280.670000007376","images/stimuli/spore_stims/simple_19_A_a.gif","images/stimuli/spore_stims/simple_02_A_b.gif","self_paced","","6","simple_dissimilar","images/stimuli/spore_stims/simple_02_A_b.gif","","","","",""
"","null","html-keyboard-response","81","306668","0.0-21.0-0.2","SS1618365592562","","","null","","","","","","<p><img src= images/blank.png width =""600"" height = ""600"" style=""position:fixed;top:50%; left:50%; transform: translate(-50%, -50%); border:5px solid black"">","","","","","","","",""
"","839.1499999852385","sequential-stimulus-presentation-old","82","308014","0.0-21.0-1.2","SS1618365592562","trial","","40","500","1339.1499999852385","images/stimuli/spore_stims/simple_19_A_a.gif","images/stimuli/spore_stims/simple_02_A_b.gif","self_paced","","6","simple_dissimilar","images/stimuli/spore_stims/simple_02_A_b.gif","","","","",""
"","null","html-keyboard-response","83","309314","0.0-21.0-0.3","SS1618365592562","","","null","","","","","","<p><img src= images/blank.png width =""600"" height = ""600"" style=""position:fixed;top:50%; left:50%; transform: translate(-50%, -50%); border:5px solid black"">","","","","","","","",""
"","866.7600000044331","sequential-stimulus-presentation-old","84","310686","0.0-21.0-1.3","SS1618365592562","trial","","40","500","1366.760000004433","images/stimuli/spore_stims/simple_19_A_a.gif","images/stimuli/spore_stims/simple_02_A_b.gif","self_paced","","6","simple_dissimilar","images/stimuli/spore_stims/simple_02_A_b.gif","","","","",""
"","3149.104999989504","survey-multi-choice","85","313838","0.0-22.0","SS1618365592562","math_question","","","","","","","","","","","","{""Q0"":""11""}","[0]","11","",""
"","null","html-keyboard-response","86","315137","0.0-23.0-0.0","SS1618365592562","","","null","","","","","","<p><img src= images/blank.png width =""600"" height = ""600"" style=""position:fixed;top:50%; left:50%; transform: translate(-50%, -50%); border:5px solid black"">","","","","","","","",""
"","2361.154999991413","sequential-stimulus-presentation-old","87","317558","0.0-23.0-1.0","SS1618365592562","trial","","40","500","2861.154999991413","images/stimuli/spore_stims/complex_08_A_a.gif","images/stimuli/spore_stims/complex_10_A_b.gif","forced_short","","7","complex_dissimilar","images/stimuli/spore_stims/complex_10_A_b.gif","","","","",""
"","null","html-keyboard-response","88","318594","0.0-23.0-0.1","SS1618365592562","","","null","","","","","","<p><img src= images/blank.png width =""600"" height = ""600"" style=""position:fixed;top:50%; left:50%; transform: translate(-50%, -50%); border:5px solid black"">","","","","","","","",""
"","3296.7350000108127","sequential-stimulus-presentation-old","89","322394","0.0-23.0-1.1","SS1618365592562","trial","","40","500","3796.7350000108127","images/stimuli/spore_stims/complex_08_A_a.gif","images/stimuli/spore_stims/complex_10_A_b.gif","forced_short","","7","complex_dissimilar","images/stimuli/spore_stims/complex_10_A_b.gif","","","","",""
"","null","html-keyboard-response","90","323688","0.0-23.0-0.2","SS1618365592562","","","null","","","","","","<p><img src= images/blank.png width =""600"" height = ""600"" style=""position:fixed;top:50%; left:50%; transform: translate(-50%, -50%); border:5px solid black"">","","","","","","","",""
"","2799.715000001015","sequential-stimulus-presentation-old","91","326994","0.0-23.0-1.2","SS1618365592562","trial","","40","500","3299.715000001015","images/stimuli/spore_stims/complex_08_A_a.gif","images/stimuli/spore_stims/complex_10_A_b.gif","forced_short","","7","complex_dissimilar","images/stimuli/spore_stims/complex_10_A_b.gif","","","","",""
"","null","html-keyboard-response","92","327976","0.0-23.0-0.3","SS1618365592562","","","null","","","","","","<p><img src= images/blank.png width =""600"" height = ""600"" style=""position:fixed;top:50%; left:50%; transform: translate(-50%, -50%); border:5px solid black"">","","","","","","","",""
"","184.50999999186024","sequential-stimulus-presentation-old","93","328667","0.0-23.0-1.3","SS1618365592562","trial","","40","500","684.5099999918602","images/stimuli/spore_stims/complex_08_A_a.gif","images/stimuli/spore_stims/complex_10_A_b.gif","forced_short","","7","complex_dissimilar","images/stimuli/spore_stims/complex_10_A_b.gif","","","","",""
"","3031.4650000073016","survey-multi-choice","94","331702","0.0-24.0","SS1618365592562","math_question","","","","","","","","","","","","{""Q0"":""9""}","[0]","9","",""
"","null","html-keyboard-response","95","332774","0.0-25.0-0.0","SS1618365592562","","","null","","","","","","<p><img src= images/blank.png width =""600"" height = ""600"" style=""position:fixed;top:50%; left:50%; transform: translate(-50%, -50%); border:5px solid black"">","","","","","","","",""
"","3560.1900000183377","sequential-stimulus-presentation-old","96","336839","0.0-25.0-1.0","SS1618365592562","trial","","40","500","4060.1900000183377","images/stimuli/spore_stims/complex_03_A_a.gif","images/stimuli/spore_stims/complex_04_A_b.gif","self_paced","","8","complex_dissimilar","images/stimuli/spore_stims/complex_04_A_b.gif","","","","",""
"","null","html-keyboard-response","97","337854","0.0-25.0-0.1","SS1618365592562","","","null","","","","","","<p><img src= images/blank.png width =""600"" height = ""600"" style=""position:fixed;top:50%; left:50%; transform: translate(-50%, -50%); border:5px solid black"">","","","","","","","",""
"","863.6000000115018","sequential-stimulus-presentation-old","98","339224","0.0-25.0-1.1","SS1618365592562","trial","","40","500","1363.6000000115018","images/stimuli/spore_stims/complex_03_A_a.gif","images/stimuli/spore_stims/complex_04_A_b.gif","self_paced","","8","complex_dissimilar","images/stimuli/spore_stims/complex_04_A_b.gif","","","","",""
"","null","html-keyboard-response","99","340179","0.0-25.0-0.2","SS1618365592562","","","null","","","","","","<p><img src= images/blank.png width =""600"" height = ""600"" style=""position:fixed;top:50%; left:50%; transform: translate(-50%, -50%); border:5px solid black"">","","","","","","","",""
"","881.3399999926332","sequential-stimulus-presentation-old","100","341568","0.0-25.0-1.2","SS1618365592562","trial","","40","500","1381.3399999926332","images/stimuli/spore_stims/complex_03_A_a.gif","images/stimuli/spore_stims/complex_04_A_b.gif","self_paced","","8","complex_dissimilar","images/stimuli/spore_stims/complex_04_A_b.gif","","","","",""
"","null","html-keyboard-response","101","342511","0.0-25.0-0.3","SS1618365592562","","","null","","","","","","<p><img src= images/blank.png width =""600"" height = ""600"" style=""position:fixed;top:50%; left:50%; transform: translate(-50%, -50%); border:5px solid black"">","","","","","","","",""
"","1566.4099999994505","sequential-stimulus-presentation-old","102","344583","0.0-25.0-1.3","SS1618365592562","trial","","40","500","2066.4099999994505","images/stimuli/spore_stims/complex_03_A_a.gif","images/stimuli/spore_stims/complex_04_A_b.gif","self_paced","","8","complex_dissimilar","images/stimuli/spore_stims/complex_04_A_b.gif","","","","",""
"","null","html-keyboard-response","103","345818","0.0-25.0-0.4","SS1618365592562","","","null","","","","","","<p><img src= images/blank.png width =""600"" height = ""600"" style=""position:fixed;top:50%; left:50%; transform: translate(-50%, -50%); border:5px solid black"">","","","","","","","",""
"","1056.319999974221","sequential-stimulus-presentation-old","104","347384","0.0-25.0-1.4","SS1618365592562","trial","","40","500","1556.319999974221","images/stimuli/spore_stims/complex_03_A_a.gif","images/stimuli/spore_stims/complex_04_A_b.gif","self_paced","","8","complex_dissimilar","images/stimuli/spore_stims/complex_04_A_b.gif","","","","",""
"","null","html-keyboard-response","105","348195","0.0-25.0-0.5","SS1618365592562","","","null","","","","","","<p><img src= images/blank.png width =""600"" height = ""600"" style=""position:fixed;top:50%; left:50%; transform: translate(-50%, -50%); border:5px solid black"">","","","","","","","",""
"","337.1599999954924","sequential-stimulus-presentation-old","106","349039","0.0-25.0-1.5","SS1618365592562","trial","","40","500","837.1599999954924","images/stimuli/spore_stims/complex_03_A_a.gif","images/stimuli/spore_stims/complex_04_A_b.gif","self_paced","","8","complex_dissimilar","images/stimuli/spore_stims/complex_04_A_b.gif","","","","",""
"","3355.314999993425","survey-multi-choice","107","352397","0.0-26.0","SS1618365592562","math_question","","","","","","","","","","","","{""Q0"":""15""}","[0]","15","",""
"","null","html-keyboard-response","108","353287","0.0-27.0-0.0","SS1618365592562","","","null","","","","","","<p><img src= images/blank.png width =""600"" height = ""600"" style=""position:fixed;top:50%; left:50%; transform: translate(-50%, -50%); border:5px solid black"">","","","","","","","",""
"","6216.8450000172015","sequential-stimulus-presentation-old","109","364515","0.0-27.0-1.0","SS1618365592562","trial","","40","500","6716.8450000172015","images/stimuli/spore_stims/simple_10_A_b.gif","images/stimuli/spore_stims/simple_03_A_a.gif","forced_long","","9","simple_dissimilar","images/stimuli/spore_stims/simple_03_A_a.gif","","","","",""
"","null","html-keyboard-response","110","365675","0.0-27.0-0.1","SS1618365592562","","","null","","","","","","<p><img src= images/blank.png width =""600"" height = ""600"" style=""position:fixed;top:50%; left:50%; transform: translate(-50%, -50%); border:5px solid black"">","","","","","","","",""
"","215.44499997980893","sequential-stimulus-presentation-old","111","366397","0.0-27.0-1.1","SS1618365592562","trial","","40","500","715.4449999798089","images/stimuli/spore_stims/simple_10_A_b.gif","images/stimuli/spore_stims/simple_03_A_a.gif","forced_long","","9","simple_dissimilar","images/stimuli/spore_stims/simple_03_A_a.gif","","","","",""
"","null","html-keyboard-response","112","367673","0.0-27.0-0.2","SS1618365592562","","","null","","","","","","<p><img src= images/blank.png width =""600"" height = ""600"" style=""position:fixed;top:50%; left:50%; transform: translate(-50%, -50%); border:5px solid black"">","","","","","","","",""
"","1424.3849999911617","sequential-stimulus-presentation-old","113","369603","0.0-27.0-1.2","SS1618365592562","trial","","40","500","1924.3849999911617","images/stimuli/spore_stims/simple_10_A_b.gif","images/stimuli/spore_stims/simple_03_A_a.gif","forced_long","","9","simple_dissimilar","images/stimuli/spore_stims/simple_03_A_a.gif","","","","",""
"","null","html-keyboard-response","114","370727","0.0-27.0-0.3","SS1618365592562","","","null","","","","","","<p><img src= images/blank.png width =""600"" height = ""600"" style=""position:fixed;top:50%; left:50%; transform: translate(-50%, -50%); border:5px solid black"">","","","","","","","",""
"","832.974999997532","sequential-stimulus-presentation-old","115","372067","0.0-27.0-1.3","SS1618365592562","trial","","40","500","1332.974999997532","images/stimuli/spore_stims/simple_10_A_b.gif","images/stimuli/spore_stims/simple_03_A_a.gif","forced_long","","9","simple_dissimilar","images/stimuli/spore_stims/simple_10_A_b.gif","","","","",""
"","null","html-keyboard-response","116","372959","0.0-27.0-0.4","SS1618365592562","","","null","","","","","","<p><img src= images/blank.png width =""600"" height = ""600"" style=""position:fixed;top:50%; left:50%; transform: translate(-50%, -50%); border:5px solid black"">","","","","","","","",""
"","411.7099999857601","sequential-stimulus-presentation-old","117","373876","0.0-27.0-1.4","SS1618365592562","trial","","40","500","911.7099999857601","images/stimuli/spore_stims/simple_10_A_b.gif","images/stimuli/spore_stims/simple_03_A_a.gif","forced_long","","9","simple_dissimilar","images/stimuli/spore_stims/simple_03_A_a.gif","","","","",""
"","null","html-keyboard-response","118","374990","0.0-27.0-0.5","SS1618365592562","","","null","","","","","","<p><img src= images/blank.png width =""600"" height = ""600"" style=""position:fixed;top:50%; left:50%; transform: translate(-50%, -50%); border:5px solid black"">","","","","","","","",""
"","1026.9200000038836","sequential-stimulus-presentation-old","119","376523","0.0-27.0-1.5","SS1618365592562","trial","","40","500","1526.9200000038836","images/stimuli/spore_stims/simple_10_A_b.gif","images/stimuli/spore_stims/simple_03_A_a.gif","forced_long","","9","simple_dissimilar","images/stimuli/spore_stims/simple_03_A_a.gif","","","","",""
"","4279.110000003129","survey-multi-choice","120","380805","0.0-28.0","SS1618365592562","math_question","","","","","","","","","","","","{""Q0"":""11""}","[0]","11","",""
"","null","html-keyboard-response","121","381725","0.0-29.0-0.0","SS1618365592562","","","null","","","","","","<p><img src= images/blank.png width =""600"" height = ""600"" style=""position:fixed;top:50%; left:50%; transform: translate(-50%, -50%); border:5px solid black"">","","","","","","","",""
"","1038.4399999747984","sequential-stimulus-presentation-old","122","383268","0.0-29.0-1.0","SS1618365592562","trial","","40","500","1538.4399999747984","images/stimuli/spore_stims/simple_17_A_a.gif","images/stimuli/spore_stims/simple_07_A_b.gif","self_paced","","10","simple_dissimilar","images/stimuli/spore_stims/simple_07_A_b.gif","","","","",""
"","null","html-keyboard-response","123","384400","0.0-29.0-0.1","SS1618365592562","","","null","","","","","","<p><img src= images/blank.png width =""600"" height = ""600"" style=""position:fixed;top:50%; left:50%; transform: translate(-50%, -50%); border:5px solid black"">","","","","","","","",""
"","578.7549999949988","sequential-stimulus-presentation-old","124","385483","0.0-29.0-1.1","SS1618365592562","trial","","40","500","1078.7549999949988","images/stimuli/spore_stims/simple_17_A_a.gif","images/stimuli/spore_stims/simple_07_A_b.gif","self_paced","","10","simple_dissimilar","images/stimuli/spore_stims/simple_07_A_b.gif","","","","",""
"","null","html-keyboard-response","125","386527","0.0-29.0-0.2","SS1618365592562","","","null","","","","","","<p><img src= images/blank.png width =""600"" height = ""600"" style=""position:fixed;top:50%; left:50%; transform: translate(-50%, -50%); border:5px solid black"">","","","","","","","",""
"","626.2500000011642","sequential-stimulus-presentation-old","126","387659","0.0-29.0-1.2","SS1618365592562","trial","","40","500","1126.2500000011642","images/stimuli/spore_stims/simple_17_A_a.gif","images/stimuli/spore_stims/simple_07_A_b.gif","self_paced","","10","simple_dissimilar","images/stimuli/spore_stims/simple_07_A_b.gif","","","","",""
"","null","html-keyboard-response","127","388934","0.0-29.0-0.3","SS1618365592562","","","null","","","","","","<p><img src= images/blank.png width =""600"" height = ""600"" style=""position:fixed;top:50%; left:50%; transform: translate(-50%, -50%); border:5px solid black"">","","","","","","","",""
"","643.7450000084937","sequential-stimulus-presentation-old","128","390083","0.0-29.0-1.3","SS1618365592562","trial","","40","500","1143.7450000084937","images/stimuli/spore_stims/simple_17_A_a.gif","images/stimuli/spore_stims/simple_07_A_b.gif","self_paced","","10","simple_dissimilar","images/stimuli/spore_stims/simple_17_A_a.gif","","","","",""
"","null","html-keyboard-response","129","391200","0.0-29.0-0.4","SS1618365592562","","","null","","","","","","<p><img src= images/blank.png width =""600"" height = ""600"" style=""position:fixed;top:50%; left:50%; transform: translate(-50%, -50%); border:5px solid black"">","","","","","","","",""
"","729.6499999938533","sequential-stimulus-presentation-old","130","392435","0.0-29.0-1.4","SS1618365592562","trial","","40","500","1229.6499999938533","images/stimuli/spore_stims/simple_17_A_a.gif","images/stimuli/spore_stims/simple_07_A_b.gif","self_paced","","10","simple_dissimilar","images/stimuli/spore_stims/simple_07_A_b.gif","","","","",""
"","null","html-keyboard-response","131","393302","0.0-29.0-0.5","SS1618365592562","","","null","","","","","","<p><img src= images/blank.png width =""600"" height = ""600"" style=""position:fixed;top:50%; left:50%; transform: translate(-50%, -50%); border:5px solid black"">","","","","","","","",""
"","564.5350000122562","sequential-stimulus-presentation-old","132","394371","0.0-29.0-1.5","SS1618365592562","trial","","40","500","1064.5350000122562","images/stimuli/spore_stims/simple_17_A_a.gif","images/stimuli/spore_stims/simple_07_A_b.gif","self_paced","","10","simple_dissimilar","images/stimuli/spore_stims/simple_07_A_b.gif","","","","",""
"","3466.404999984661","survey-multi-choice","133","397841","0.0-30.0","SS1618365592562","math_question","","","","","","","","","","","","{""Q0"":""5""}","[0]","5","",""
"","null","html-keyboard-response","134","398936","0.0-31.0-0.0","SS1618365592562","","","null","","","","","","<p><img src= images/blank.png width =""600"" height = ""600"" style=""position:fixed;top:50%; left:50%; transform: translate(-50%, -50%); border:5px solid black"">","","","","","","","",""
"","5595.730000000913","sequential-stimulus-presentation-old","135","409539","0.0-31.0-1.0","SS1618365592562","trial","","40","500","6095.730000000913","images/stimuli/spore_stims/complex_20_A_a.gif","images/stimuli/spore_stims/complex_05_A_b.gif","forced_long","","11","complex_dissimilar","images/stimuli/spore_stims/complex_05_A_b.gif","","","","",""
"","null","html-keyboard-response","136","410472","0.0-31.0-0.1","SS1618365592562","","","null","","","","","","<p><img src= images/blank.png width =""600"" height = ""600"" style=""position:fixed;top:50%; left:50%; transform: translate(-50%, -50%); border:5px solid black"">","","","","","","","",""
"","140.07000002311543","sequential-stimulus-presentation-old","137","411119","0.0-31.0-1.1","SS1618365592562","trial","","40","500","640.0700000231154","images/stimuli/spore_stims/complex_20_A_a.gif","images/stimuli/spore_stims/complex_05_A_b.gif","forced_long","","11","complex_dissimilar","images/stimuli/spore_stims/complex_05_A_b.gif","","","","",""
"","null","html-keyboard-response","138","412148","0.0-31.0-0.2","SS1618365592562","","","null","","","","","","<p><img src= images/blank.png width =""600"" height = ""600"" style=""position:fixed;top:50%; left:50%; transform: translate(-50%, -50%); border:5px solid black"">","","","","","","","",""
"","1085.1099999854341","sequential-stimulus-presentation-old","139","413739","0.0-31.0-1.2","SS1618365592562","trial","","40","500","1585.1099999854341","images/stimuli/spore_stims/complex_20_A_a.gif","images/stimuli/spore_stims/complex_05_A_b.gif","forced_long","","11","complex_dissimilar","images/stimuli/spore_stims/complex_05_A_b.gif","","","","",""
"","null","html-keyboard-response","140","414777","0.0-31.0-0.3","SS1618365592562","","","null","","","","","","<p><img src= images/blank.png width =""600"" height = ""600"" style=""position:fixed;top:50%; left:50%; transform: translate(-50%, -50%); border:5px solid black"">","","","","","","","",""
"","2961.8650000193156","sequential-stimulus-presentation-old","141","418244","0.0-31.0-1.3","SS1618365592562","trial","","40","500","3461.8650000193156","images/stimuli/spore_stims/complex_20_A_a.gif","images/stimuli/spore_stims/complex_05_A_b.gif","forced_long","","11","complex_dissimilar","images/stimuli/spore_stims/complex_20_A_a.gif","","","","",""
"","null","html-keyboard-response","142","419068","0.0-31.0-0.4","SS1618365592562","","","null","","","","","","<p><img src= images/blank.png width =""600"" height = ""600"" style=""position:fixed;top:50%; left:50%; transform: translate(-50%, -50%); border:5px solid black"">","","","","","","","",""
"","1242.4650000175461","sequential-stimulus-presentation-old","143","420816","0.0-31.0-1.4","SS1618365592562","trial","","40","500","1742.4650000175461","images/stimuli/spore_stims/complex_20_A_a.gif","images/stimuli/spore_stims/complex_05_A_b.gif","forced_long","","11","complex_dissimilar","images/stimuli/spore_stims/complex_20_A_a.gif","","","","",""
"[{""page_index"":0,""viewing_time"":4726.014999992913}]","4726.3549999915995","instructions","144","425545","0.0-32.0","SS1618365592562","instructions","","","","","","","","","","","","","","","",""
"","8317.470000009052","survey-likert","145","433868","0.0-33.0","SS1618365592562","similarity_question","","","","","","","","","","","","{""Q0"":0}","[0]","","images/stimuli/spore_stims/complex_04_A_b.gif","images/stimuli/spore_stims/complex_03_A_a.gif"
"","6881.849999976112","survey-likert","146","440754","0.0-34.0","SS1618365592562","similarity_question","","","","","","","","","","","","{""Q0"":1}","[0]","","images/stimuli/spore_stims/simple_19_A_a.gif","images/stimuli/spore_stims/simple_02_A_b.gif"
"","5797.610000008717","survey-likert","147","446557","0.0-35.0","SS1618365592562","similarity_question","","","","","","","","","","","","{""Q0"":2}","[0]","","images/stimuli/spore_stims/simple_07_A_b.gif","images/stimuli/spore_stims/simple_17_A_a.gif"
"","4155.629999993835","survey-likert","148","450718","0.0-36.0","SS1618365592562","similarity_question","","","","","","","","","","","","{""Q0"":1}","[0]","","images/stimuli/spore_stims/simple_20_A_b.gif","images/stimuli/spore_stims/simple_14_A_a.gif"
"","3968.345000001136","survey-likert","149","454691","0.0-37.0","SS1618365592562","similarity_question","","","","","","","","","","","","{""Q0"":0}","[0]","","images/stimuli/spore_stims/complex_05_A_b.gif","images/stimuli/spore_stims/complex_20_A_a.gif"
"","5096.64000000339","survey-likert","150","459793","0.0-38.0","SS1618365592562","similarity_question","","","","","","","","","","","","{""Q0"":0}","[0]","","images/stimuli/spore_stims/complex_16_A_a.gif","images/stimuli/spore_stims/complex_14_A_b.gif"
"","2863.569999986794","survey-likert","151","462661","0.0-39.0","SS1618365592562","similarity_question","","","","","","","","","","","","{""Q0"":0}","[0]","","images/stimuli/spore_stims/complex_15_A_a.gif","images/stimuli/spore_stims/complex_07_A_b.gif"
"","3673.81999999634","survey-likert","152","466340","0.0-40.0","SS1618365592562","similarity_question","","","","","","","","","","","","{""Q0"":0}","[0]","","images/stimuli/spore_stims/complex_10_A_b.gif","images/stimuli/spore_stims/complex_08_A_a.gif"
"","4335.159999987809","survey-likert","153","470680","0.0-41.0","SS1618365592562","similarity_question","","","","","","","","","","","","{""Q0"":2}","[0]","","images/stimuli/spore_stims/simple_10_A_b.gif","images/stimuli/spore_stims/simple_03_A_a.gif"
"","6475.969999999506","survey-likert","154","477169","0.0-42.0","SS1618365592562","similarity_question","","","","","","","","","","","","{""Q0"":2}","[0]","","images/stimuli/spore_stims/simple_18_A_b.gif","images/stimuli/spore_stims/simple_04_A_a.gif"
"","4094.0199999895412","survey-likert","155","481268","0.0-43.0","SS1618365592562","similarity_question","","","","","","","","","","","","{""Q0"":2}","[0]","","images/stimuli/spore_stims/simple_15_A_b.gif","images/stimuli/spore_stims/simple_08_A_a.gif"
"","4780.670000007376","survey-likert","156","486055","0.0-44.0","SS1618365592562","similarity_question","","","","","","","","","","","","{""Q0"":0}","[0]","","images/stimuli/spore_stims/complex_08_A_b.gif","images/stimuli/spore_stims/complex_17_A_a.gif"
"[{""page_index"":0,""viewing_time"":3987.615000020014}]","3987.9300000029616","instructions","157","490047","0.0-45.0","SS1618365592562","instructions","","","","","","","","","","","","","","","",""
"","6338.504999992438","survey-likert","158","496390","0.0-46.0","SS1618365592562","","","","","","","","","images/stimuli/spore_stims/complex_16_A_a.gif","","","","{""Q0"":6}","[0]","","",""
"","2699.3399999919347","survey-likert","159","499095","0.0-47.0","SS1618365592562","","","","","","","","","images/stimuli/spore_stims/simple_18_A_b.gif","","","","{""Q0"":1}","[0]","","",""
"","3612.0149999915157","survey-likert","160","502712","0.0-48.0","SS1618365592562","","","","","","","","","images/stimuli/spore_stims/simple_02_A_b.gif","","","","{""Q0"":0}","[0]","","",""
"","4269.219999987399","survey-likert","161","506986","0.0-49.0","SS1618365592562","","","","","","","","","images/stimuli/spore_stims/complex_20_A_a.gif","","","","{""Q0"":6}","[0]","","",""
"","2963.9549999847077","survey-likert","162","509955","0.0-50.0","SS1618365592562","","","","","","","","","images/stimuli/spore_stims/complex_03_A_a.gif","","","","{""Q0"":5}","[0]","","",""
"","2736.8900000001304","survey-likert","163","512696","0.0-51.0","SS1618365592562","","","","","","","","","images/stimuli/spore_stims/complex_17_A_a.gif","","","","{""Q0"":6}","[0]","","",""
"","3707.7899999858346","survey-likert","164","516410","0.0-52.0","SS1618365592562","","","","","","","","","images/stimuli/spore_stims/simple_14_A_a.gif","","","","{""Q0"":0}","[0]","","",""
"","2639.564999990398","survey-likert","165","519054","0.0-53.0","SS1618365592562","","","","","","","","","images/stimuli/spore_stims/simple_03_A_a.gif","","","","{""Q0"":0}","[0]","","",""
"","2438.49999998929","survey-likert","166","521498","0.0-54.0","SS1618365592562","","","","","","","","","images/stimuli/spore_stims/simple_07_A_b.gif","","","","{""Q0"":0}","[0]","","",""
"","2542.235000000801","survey-likert","167","524046","0.0-55.0","SS1618365592562","","","","","","","","","images/stimuli/spore_stims/complex_07_A_b.gif","","","","{""Q0"":6}","[0]","","",""
"","2631.729999993695","survey-likert","168","526683","0.0-56.0","SS1618365592562","","","","","","","","","images/stimuli/spore_stims/complex_08_A_a.gif","","","","{""Q0"":6}","[0]","","",""
"","3557.215000008","survey-likert","169","530244","0.0-57.0","SS1618365592562","","","","","","","","","images/stimuli/spore_stims/simple_15_A_b.gif","","","","{""Q0"":0}","[0]","","",""
"[{""page_index"":0,""viewing_time"":2317.269999999553}]","2317.574999993667","instructions","170","532567","0.0-58.0","SS1618365592562","instructions","","","","","","","","","","","","","","","",""
"","3028.1149999937043","demog-age","171","535603","0.0-59.0","SS1618365592562","","","","","","","","","","","","","{""age"":""28""}","","","",""
"","2966.760000010254","demog-ethnic-US","172","538579","0.0-60.0","SS1618365592562","","","","","","","","","","","","","{""ethnicity"":[""Hispanic or Latino""]}","[0]","","",""
"","6358.940000005532","demog-gender-and-education","173","544943","0.0-61.0","SS1618365592562","","","","","","","","","","","","","{""gender"":""Female"",""education"":""Bachelor's Degree""}","[0,1]","","",""
"","8546.839999995427","survey-text","174","553497","0.0-62.0","SS1618365592562","feedback","","","","","","","","","","","","{""Q0"":""no, its was good.""}","","","",""
"[{""page_index"":0,""viewing_time"":2796.8300000065938}]","2797.1449999895412","instructions","175","556298","0.0-63.0","SS1618365592562","instructions","","","","","","","","","","","","","","","",""
