"view_history","rt","trial_type","trial_index","time_elapsed","internal_node_id","subject","stimulus_type","trial_stimulus","key_press","minimum_viewing_duration","trial_looking_time","block_deviant","block_background","exposure_type","stimulus","block_number","block_type","stimulus_displayed","responses","question_order","math_correct_answer","stimulus_left","stimulus_right"
"[{""page_index"":0,""viewing_time"":17782.355000032112}]","17783.00999989733","instructions","0","17785","0.0-0.0","SS1618365183452","","","","","","","","","","","","","","","","",""
"[{""page_index"":0,""viewing_time"":29257.72500014864},{""page_index"":1,""viewing_time"":16995.86999998428}]","46253.83500009775","instructions","1","66041","0.0-1.0","SS1618365183452","instructions","","","","","","","","","","","","","","","",""
"","16505.10499998927","sequential-stimulus-presentation-old","2","83050","0.0-2.0","SS1618365183452","","","40","500","17005.10499998927","null","null","self_paced","","","","","","","","",""
"","19738.84499981068","sequential-stimulus-presentation-old","3","103290","0.0-3.0","SS1618365183452","","","40","500","20238.84499981068","null","null","self_paced","","","","","","","","",""
"[{""page_index"":0,""viewing_time"":63217.07500005141}]","63217.39499992691","instructions","4","166508","0.0-4.0","SS1618365183452","instructions","","","","","","","","","","","","","","","",""
"","11994.405000004917","sequential-stimulus-presentation-old","5","183505","0.0-5.0","SS1618365183452","","","40","500","12494.405000004917","null","null","forced_long","","","","","","","","",""
"","18000.470000086352","sequential-stimulus-presentation-old","6","201558","0.0-6.0","SS1618365183452","","","40","50","18050.470000086352","null","null","forced_long","","","","","","","","",""
"[{""page_index"":0,""viewing_time"":11391.234999988228}]","11391.444999957457","instructions","7","212950","0.0-7.0","SS1618365183452","instructions","","","","","","","","","","","","","","","",""
"[{""page_index"":0,""viewing_time"":20010.555000044405},{""page_index"":1,""viewing_time"":26536.344999913126},{""page_index"":2,""viewing_time"":14835.70500020869},{""page_index"":3,""viewing_time"":1579.8799998592585},{""page_index"":4,""viewing_time"":1097.1200000494719}]","64059.820000082254","instructions","8","277011","0.0-8.0","SS1618365183452","instructions","","","","","","","","","","","","","","","",""
"","null","html-keyboard-response","9","277848","0.0-9.0-0.0","SS1618365183452","","","null","","","","","","<p><img src= images/blank.png width =""600"" height = ""600"" style=""position:fixed;top:50%; left:50%; transform: translate(-50%, -50%); border:5px solid black"">","","","","","","","",""
"","22828.624999849126","sequential-stimulus-presentation-old","10","300730","0.0-9.0-1.0","SS1618365183452","trial","","40","500","23328.624999849126","images/stimuli/spore_stims/complex_02_A_b.gif","images/stimuli/spore_stims/complex_01_A_a.gif","forced_short","","0","complex_dissimilar","images/stimuli/spore_stims/complex_01_A_a.gif","","","","",""
"","null","html-keyboard-response","11","301682","0.0-9.0-0.1","SS1618365183452","","","null","","","","","","<p><img src= images/blank.png width =""600"" height = ""600"" style=""position:fixed;top:50%; left:50%; transform: translate(-50%, -50%); border:5px solid black"">","","","","","","","",""
"","12837.999999988824","sequential-stimulus-presentation-old","12","315023","0.0-9.0-1.1","SS1618365183452","trial","","40","500","13337.999999988824","images/stimuli/spore_stims/complex_02_A_b.gif","images/stimuli/spore_stims/complex_01_A_a.gif","forced_short","","0","complex_dissimilar","images/stimuli/spore_stims/complex_02_A_b.gif","","","","",""
"","null","html-keyboard-response","13","316270","0.0-9.0-0.2","SS1618365183452","","","null","","","","","","<p><img src= images/blank.png width =""600"" height = ""600"" style=""position:fixed;top:50%; left:50%; transform: translate(-50%, -50%); border:5px solid black"">","","","","","","","",""
"","9655.030000023544","sequential-stimulus-presentation-old","14","326427","0.0-9.0-1.2","SS1618365183452","trial","","40","500","10155.030000023544","images/stimuli/spore_stims/complex_02_A_b.gif","images/stimuli/spore_stims/complex_01_A_a.gif","forced_short","","0","complex_dissimilar","images/stimuli/spore_stims/complex_01_A_a.gif","","","","",""
"","null","html-keyboard-response","15","327528","0.0-9.0-0.3","SS1618365183452","","","null","","","","","","<p><img src= images/blank.png width =""600"" height = ""600"" style=""position:fixed;top:50%; left:50%; transform: translate(-50%, -50%); border:5px solid black"">","","","","","","","",""
"","3290.6250001396984","sequential-stimulus-presentation-old","16","331321","0.0-9.0-1.3","SS1618365183452","trial","","40","500","3790.6250001396984","images/stimuli/spore_stims/complex_02_A_b.gif","images/stimuli/spore_stims/complex_01_A_a.gif","forced_short","","0","complex_dissimilar","images/stimuli/spore_stims/complex_01_A_a.gif","","","","",""
"","null","html-keyboard-response","17","332288","0.0-9.0-0.4","SS1618365183452","","","null","","","","","","<p><img src= images/blank.png width =""600"" height = ""600"" style=""position:fixed;top:50%; left:50%; transform: translate(-50%, -50%); border:5px solid black"">","","","","","","","",""
"","6091.01999993436","sequential-stimulus-presentation-old","18","338881","0.0-9.0-1.4","SS1618365183452","trial","","40","500","6591.01999993436","images/stimuli/spore_stims/complex_02_A_b.gif","images/stimuli/spore_stims/complex_01_A_a.gif","forced_short","","0","complex_dissimilar","images/stimuli/spore_stims/complex_02_A_b.gif","","","","",""
"","14267.579999985173","survey-multi-choice","19","353152","0.0-10.0","SS1618365183452","math_question","","","","","","","","","","","","{""Q0"":""13""}","[0]","13","",""
"","null","html-keyboard-response","20","354143","0.0-11.0-0.0","SS1618365183452","","","null","","","","","","<p><img src= images/blank.png width =""600"" height = ""600"" style=""position:fixed;top:50%; left:50%; transform: translate(-50%, -50%); border:5px solid black"">","","","","","","","",""
"","2972.069999901578","sequential-stimulus-presentation-old","21","362118","0.0-11.0-1.0","SS1618365183452","trial","","40","500","3472.069999901578","images/stimuli/spore_stims/complex_11_A_a.gif","images/stimuli/spore_stims/complex_18_A_b.gif","forced_long","","1","complex_dissimilar","images/stimuli/spore_stims/complex_18_A_b.gif","","","","",""
"","null","html-keyboard-response","22","363072","0.0-11.0-0.1","SS1618365183452","","","null","","","","","","<p><img src= images/blank.png width =""600"" height = ""600"" style=""position:fixed;top:50%; left:50%; transform: translate(-50%, -50%); border:5px solid black"">","","","","","","","",""
"","7659.0350000187755","sequential-stimulus-presentation-old","23","371234","0.0-11.0-1.1","SS1618365183452","trial","","40","500","8159.0350000187755","images/stimuli/spore_stims/complex_11_A_a.gif","images/stimuli/spore_stims/complex_18_A_b.gif","forced_long","","1","complex_dissimilar","images/stimuli/spore_stims/complex_18_A_b.gif","","","","",""
"","null","html-keyboard-response","24","372094","0.0-11.0-0.2","SS1618365183452","","","null","","","","","","<p><img src= images/blank.png width =""600"" height = ""600"" style=""position:fixed;top:50%; left:50%; transform: translate(-50%, -50%); border:5px solid black"">","","","","","","","",""
"","7139.805000042543","sequential-stimulus-presentation-old","25","379737","0.0-11.0-1.2","SS1618365183452","trial","","40","500","7639.805000042543","images/stimuli/spore_stims/complex_11_A_a.gif","images/stimuli/spore_stims/complex_18_A_b.gif","forced_long","","1","complex_dissimilar","images/stimuli/spore_stims/complex_18_A_b.gif","","","","",""
"","null","html-keyboard-response","26","380785","0.0-11.0-0.3","SS1618365183452","","","null","","","","","","<p><img src= images/blank.png width =""600"" height = ""600"" style=""position:fixed;top:50%; left:50%; transform: translate(-50%, -50%); border:5px solid black"">","","","","","","","",""
"","4137.91499985382","sequential-stimulus-presentation-old","27","385427","0.0-11.0-1.3","SS1618365183452","trial","","40","500","4637.91499985382","images/stimuli/spore_stims/complex_11_A_a.gif","images/stimuli/spore_stims/complex_18_A_b.gif","forced_long","","1","complex_dissimilar","images/stimuli/spore_stims/complex_18_A_b.gif","","","","",""
"","5158.195000141859","survey-multi-choice","28","390586","0.0-12.0","SS1618365183452","math_question","","","","","","","","","","","","{""Q0"":""11""}","[0]","11","",""
"","null","html-keyboard-response","29","391672","0.0-13.0-0.0","SS1618365183452","","","null","","","","","","<p><img src= images/blank.png width =""600"" height = ""600"" style=""position:fixed;top:50%; left:50%; transform: translate(-50%, -50%); border:5px solid black"">","","","","","","","",""
"","3807.0949998218566","sequential-stimulus-presentation-old","30","395532","0.0-13.0-1.0","SS1618365183452","trial","","40","500","4307.094999821857","images/stimuli/spore_stims/simple_15_A_b.gif","images/stimuli/spore_stims/simple_08_A_a.gif","forced_short","","2","simple_dissimilar","images/stimuli/spore_stims/simple_08_A_a.gif","","","","",""
"","null","html-keyboard-response","31","396405","0.0-13.0-0.1","SS1618365183452","","","null","","","","","","<p><img src= images/blank.png width =""600"" height = ""600"" style=""position:fixed;top:50%; left:50%; transform: translate(-50%, -50%); border:5px solid black"">","","","","","","","",""
"","5443.059999961406","sequential-stimulus-presentation-old","32","402351","0.0-13.0-1.1","SS1618365183452","trial","","40","500","5943.059999961406","images/stimuli/spore_stims/simple_15_A_b.gif","images/stimuli/spore_stims/simple_08_A_a.gif","forced_short","","2","simple_dissimilar","images/stimuli/spore_stims/simple_08_A_a.gif","","","","",""
"","null","html-keyboard-response","33","403293","0.0-13.0-0.2","SS1618365183452","","","null","","","","","","<p><img src= images/blank.png width =""600"" height = ""600"" style=""position:fixed;top:50%; left:50%; transform: translate(-50%, -50%); border:5px solid black"">","","","","","","","",""
"","4599.1350000258535","sequential-stimulus-presentation-old","34","408396","0.0-13.0-1.2","SS1618365183452","trial","","40","500","5099.1350000258535","images/stimuli/spore_stims/simple_15_A_b.gif","images/stimuli/spore_stims/simple_08_A_a.gif","forced_short","","2","simple_dissimilar","images/stimuli/spore_stims/simple_15_A_b.gif","","","","",""
"","null","html-keyboard-response","35","409377","0.0-13.0-0.3","SS1618365183452","","","null","","","","","","<p><img src= images/blank.png width =""600"" height = ""600"" style=""position:fixed;top:50%; left:50%; transform: translate(-50%, -50%); border:5px solid black"">","","","","","","","",""
"","3662.4149999115616","sequential-stimulus-presentation-old","36","413541","0.0-13.0-1.3","SS1618365183452","trial","","40","500","4162.414999911562","images/stimuli/spore_stims/simple_15_A_b.gif","images/stimuli/spore_stims/simple_08_A_a.gif","forced_short","","2","simple_dissimilar","images/stimuli/spore_stims/simple_08_A_a.gif","","","","",""
"","null","html-keyboard-response","37","414372","0.0-13.0-0.4","SS1618365183452","","","null","","","","","","<p><img src= images/blank.png width =""600"" height = ""600"" style=""position:fixed;top:50%; left:50%; transform: translate(-50%, -50%); border:5px solid black"">","","","","","","","",""
"","4352.405000012368","sequential-stimulus-presentation-old","38","419227","0.0-13.0-1.4","SS1618365183452","trial","","40","500","4852.405000012368","images/stimuli/spore_stims/simple_15_A_b.gif","images/stimuli/spore_stims/simple_08_A_a.gif","forced_short","","2","simple_dissimilar","images/stimuli/spore_stims/simple_15_A_b.gif","","","","",""
"","null","html-keyboard-response","39","420126","0.0-13.0-0.5","SS1618365183452","","","null","","","","","","<p><img src= images/blank.png width =""600"" height = ""600"" style=""position:fixed;top:50%; left:50%; transform: translate(-50%, -50%); border:5px solid black"">","","","","","","","",""
"","2151.005000108853","sequential-stimulus-presentation-old","40","422781","0.0-13.0-1.5","SS1618365183452","trial","","40","500","2651.005000108853","images/stimuli/spore_stims/simple_15_A_b.gif","images/stimuli/spore_stims/simple_08_A_a.gif","forced_short","","2","simple_dissimilar","images/stimuli/spore_stims/simple_08_A_a.gif","","","","",""
"","3914.644999895245","survey-multi-choice","41","426697","0.0-14.0","SS1618365183452","math_question","","","","","","","","","","","","{""Q0"":""9""}","[0]","9","",""
"","null","html-keyboard-response","42","427945","0.0-15.0-0.0","SS1618365183452","","","null","","","","","","<p><img src= images/blank.png width =""600"" height = ""600"" style=""position:fixed;top:50%; left:50%; transform: translate(-50%, -50%); border:5px solid black"">","","","","","","","",""
"","2889.6649999078363","sequential-stimulus-presentation-old","43","431338","0.0-15.0-1.0","SS1618365183452","trial","","40","500","3389.6649999078363","images/stimuli/spore_stims/simple_13_A_a.gif","images/stimuli/spore_stims/simple_05_A_b.gif","self_paced","","3","simple_dissimilar","images/stimuli/spore_stims/simple_05_A_b.gif","","","","",""
"","null","html-keyboard-response","44","432350","0.0-15.0-0.1","SS1618365183452","","","null","","","","","","<p><img src= images/blank.png width =""600"" height = ""600"" style=""position:fixed;top:50%; left:50%; transform: translate(-50%, -50%); border:5px solid black"">","","","","","","","",""
"","2187.205000082031","sequential-stimulus-presentation-old","45","435040","0.0-15.0-1.1","SS1618365183452","trial","","40","500","2687.205000082031","images/stimuli/spore_stims/simple_13_A_a.gif","images/stimuli/spore_stims/simple_05_A_b.gif","self_paced","","3","simple_dissimilar","images/stimuli/spore_stims/simple_05_A_b.gif","","","","",""
"","null","html-keyboard-response","46","436309","0.0-15.0-0.2","SS1618365183452","","","null","","","","","","<p><img src= images/blank.png width =""600"" height = ""600"" style=""position:fixed;top:50%; left:50%; transform: translate(-50%, -50%); border:5px solid black"">","","","","","","","",""
"","4200.620000017807","sequential-stimulus-presentation-old","47","441013","0.0-15.0-1.2","SS1618365183452","trial","","40","500","4700.620000017807","images/stimuli/spore_stims/simple_13_A_a.gif","images/stimuli/spore_stims/simple_05_A_b.gif","self_paced","","3","simple_dissimilar","images/stimuli/spore_stims/simple_13_A_a.gif","","","","",""
"","null","html-keyboard-response","48","442195","0.0-15.0-0.3","SS1618365183452","","","null","","","","","","<p><img src= images/blank.png width =""600"" height = ""600"" style=""position:fixed;top:50%; left:50%; transform: translate(-50%, -50%); border:5px solid black"">","","","","","","","",""
"","2594.705000054091","sequential-stimulus-presentation-old","49","445292","0.0-15.0-1.3","SS1618365183452","trial","","40","500","3094.705000054091","images/stimuli/spore_stims/simple_13_A_a.gif","images/stimuli/spore_stims/simple_05_A_b.gif","self_paced","","3","simple_dissimilar","images/stimuli/spore_stims/simple_05_A_b.gif","","","","",""
"","null","html-keyboard-response","50","446416","0.0-15.0-0.4","SS1618365183452","","","null","","","","","","<p><img src= images/blank.png width =""600"" height = ""600"" style=""position:fixed;top:50%; left:50%; transform: translate(-50%, -50%); border:5px solid black"">","","","","","","","",""
"","2212.654999922961","sequential-stimulus-presentation-old","51","449132","0.0-15.0-1.4","SS1618365183452","trial","","40","500","2712.654999922961","images/stimuli/spore_stims/simple_13_A_a.gif","images/stimuli/spore_stims/simple_05_A_b.gif","self_paced","","3","simple_dissimilar","images/stimuli/spore_stims/simple_05_A_b.gif","","","","",""
"","6956.72499993816","survey-multi-choice","52","456091","0.0-16.0","SS1618365183452","math_question","","","","","","","","","","","","{""Q0"":""16""}","[0]","16","",""
"","null","html-keyboard-response","53","457191","0.0-17.0-0.0","SS1618365183452","","","null","","","","","","<p><img src= images/blank.png width =""600"" height = ""600"" style=""position:fixed;top:50%; left:50%; transform: translate(-50%, -50%); border:5px solid black"">","","","","","","","",""
"","3952.1949999034405","sequential-stimulus-presentation-old","54","461646","0.0-17.0-1.0","SS1618365183452","trial","","40","500","4452.1949999034405","images/stimuli/spore_stims/simple_03_A_a.gif","images/stimuli/spore_stims/simple_20_A_b.gif","self_paced","","4","simple_dissimilar","images/stimuli/spore_stims/simple_20_A_b.gif","","","","",""
"","null","html-keyboard-response","55","462811","0.0-17.0-0.1","SS1618365183452","","","null","","","","","","<p><img src= images/blank.png width =""600"" height = ""600"" style=""position:fixed;top:50%; left:50%; transform: translate(-50%, -50%); border:5px solid black"">","","","","","","","",""
"","1374.4000000879169","sequential-stimulus-presentation-old","56","464689","0.0-17.0-1.1","SS1618365183452","trial","","40","500","1874.4000000879169","images/stimuli/spore_stims/simple_03_A_a.gif","images/stimuli/spore_stims/simple_20_A_b.gif","self_paced","","4","simple_dissimilar","images/stimuli/spore_stims/simple_20_A_b.gif","","","","",""
"","null","html-keyboard-response","57","465840","0.0-17.0-0.2","SS1618365183452","","","null","","","","","","<p><img src= images/blank.png width =""600"" height = ""600"" style=""position:fixed;top:50%; left:50%; transform: translate(-50%, -50%); border:5px solid black"">","","","","","","","",""
"","1340.0200000032783","sequential-stimulus-presentation-old","58","467683","0.0-17.0-1.2","SS1618365183452","trial","","40","500","1840.0200000032783","images/stimuli/spore_stims/simple_03_A_a.gif","images/stimuli/spore_stims/simple_20_A_b.gif","self_paced","","4","simple_dissimilar","images/stimuli/spore_stims/simple_20_A_b.gif","","","","",""
"","null","html-keyboard-response","59","468605","0.0-17.0-0.3","SS1618365183452","","","null","","","","","","<p><img src= images/blank.png width =""600"" height = ""600"" style=""position:fixed;top:50%; left:50%; transform: translate(-50%, -50%); border:5px solid black"">","","","","","","","",""
"","1878.3500001300126","sequential-stimulus-presentation-old","60","470985","0.0-17.0-1.3","SS1618365183452","trial","","40","500","2378.3500001300126","images/stimuli/spore_stims/simple_03_A_a.gif","images/stimuli/spore_stims/simple_20_A_b.gif","self_paced","","4","simple_dissimilar","images/stimuli/spore_stims/simple_20_A_b.gif","","","","",""
"","null","html-keyboard-response","61","471888","0.0-17.0-0.4","SS1618365183452","","","null","","","","","","<p><img src= images/blank.png width =""600"" height = ""600"" style=""position:fixed;top:50%; left:50%; transform: translate(-50%, -50%); border:5px solid black"">","","","","","","","",""
"","1485.964999999851","sequential-stimulus-presentation-old","62","473876","0.0-17.0-1.4","SS1618365183452","trial","","40","500","1985.964999999851","images/stimuli/spore_stims/simple_03_A_a.gif","images/stimuli/spore_stims/simple_20_A_b.gif","self_paced","","4","simple_dissimilar","images/stimuli/spore_stims/simple_03_A_a.gif","","","","",""
"","null","html-keyboard-response","63","474900","0.0-17.0-0.5","SS1618365183452","","","null","","","","","","<p><img src= images/blank.png width =""600"" height = ""600"" style=""position:fixed;top:50%; left:50%; transform: translate(-50%, -50%); border:5px solid black"">","","","","","","","",""
"","1522.069999948144","sequential-stimulus-presentation-old","64","476924","0.0-17.0-1.5","SS1618365183452","trial","","40","500","2022.069999948144","images/stimuli/spore_stims/simple_03_A_a.gif","images/stimuli/spore_stims/simple_20_A_b.gif","self_paced","","4","simple_dissimilar","images/stimuli/spore_stims/simple_20_A_b.gif","","","","",""
"","7225.615000119433","survey-multi-choice","65","484151","0.0-18.0","SS1618365183452","math_question","","","","","","","","","","","","{""Q0"":""13""}","[0]","13","",""
"","null","html-keyboard-response","66","485096","0.0-19.0-0.0","SS1618365183452","","","null","","","","","","<p><img src= images/blank.png width =""600"" height = ""600"" style=""position:fixed;top:50%; left:50%; transform: translate(-50%, -50%); border:5px solid black"">","","","","","","","",""
"","3969.5150000043213","sequential-stimulus-presentation-old","67","489568","0.0-19.0-1.0","SS1618365183452","trial","","40","500","4469.515000004321","images/stimuli/spore_stims/complex_03_A_b.gif","images/stimuli/spore_stims/complex_08_A_a.gif","self_paced","","5","complex_dissimilar","images/stimuli/spore_stims/complex_08_A_a.gif","","","","",""
"","null","html-keyboard-response","68","490628","0.0-19.0-0.1","SS1618365183452","","","null","","","","","","<p><img src= images/blank.png width =""600"" height = ""600"" style=""position:fixed;top:50%; left:50%; transform: translate(-50%, -50%); border:5px solid black"">","","","","","","","",""
"","2501.105000032112","sequential-stimulus-presentation-old","69","493632","0.0-19.0-1.1","SS1618365183452","trial","","40","500","3001.105000032112","images/stimuli/spore_stims/complex_03_A_b.gif","images/stimuli/spore_stims/complex_08_A_a.gif","self_paced","","5","complex_dissimilar","images/stimuli/spore_stims/complex_08_A_a.gif","","","","",""
"","null","html-keyboard-response","70","494661","0.0-19.0-0.2","SS1618365183452","","","null","","","","","","<p><img src= images/blank.png width =""600"" height = ""600"" style=""position:fixed;top:50%; left:50%; transform: translate(-50%, -50%); border:5px solid black"">","","","","","","","",""
"","800.709999864921","sequential-stimulus-presentation-old","71","495965","0.0-19.0-1.2","SS1618365183452","trial","","40","500","1300.709999864921","images/stimuli/spore_stims/complex_03_A_b.gif","images/stimuli/spore_stims/complex_08_A_a.gif","self_paced","","5","complex_dissimilar","images/stimuli/spore_stims/complex_08_A_a.gif","","","","",""
"","null","html-keyboard-response","72","497026","0.0-19.0-0.3","SS1618365183452","","","null","","","","","","<p><img src= images/blank.png width =""600"" height = ""600"" style=""position:fixed;top:50%; left:50%; transform: translate(-50%, -50%); border:5px solid black"">","","","","","","","",""
"","2076.9700000528246","sequential-stimulus-presentation-old","73","499606","0.0-19.0-1.3","SS1618365183452","trial","","40","500","2576.9700000528246","images/stimuli/spore_stims/complex_03_A_b.gif","images/stimuli/spore_stims/complex_08_A_a.gif","self_paced","","5","complex_dissimilar","images/stimuli/spore_stims/complex_08_A_a.gif","","","","",""
"","null","html-keyboard-response","74","500631","0.0-19.0-0.4","SS1618365183452","","","null","","","","","","<p><img src= images/blank.png width =""600"" height = ""600"" style=""position:fixed;top:50%; left:50%; transform: translate(-50%, -50%); border:5px solid black"">","","","","","","","",""
"","2762.2050000354648","sequential-stimulus-presentation-old","75","503897","0.0-19.0-1.4","SS1618365183452","trial","","40","500","3262.2050000354648","images/stimuli/spore_stims/complex_03_A_b.gif","images/stimuli/spore_stims/complex_08_A_a.gif","self_paced","","5","complex_dissimilar","images/stimuli/spore_stims/complex_08_A_a.gif","","","","",""
"","null","html-keyboard-response","76","504872","0.0-19.0-0.5","SS1618365183452","","","null","","","","","","<p><img src= images/blank.png width =""600"" height = ""600"" style=""position:fixed;top:50%; left:50%; transform: translate(-50%, -50%); border:5px solid black"">","","","","","","","",""
"","780.7350000366569","sequential-stimulus-presentation-old","77","506157","0.0-19.0-1.5","SS1618365183452","trial","","40","500","1280.7350000366569","images/stimuli/spore_stims/complex_03_A_b.gif","images/stimuli/spore_stims/complex_08_A_a.gif","self_paced","","5","complex_dissimilar","images/stimuli/spore_stims/complex_08_A_a.gif","","","","",""
"","5529.944999841973","survey-multi-choice","78","511688","0.0-20.0","SS1618365183452","math_question","","","","","","","","","","","","{""Q0"":""12""}","[0]","12","",""
"","null","html-keyboard-response","79","512750","0.0-21.0-0.0","SS1618365183452","","","null","","","","","","<p><img src= images/blank.png width =""600"" height = ""600"" style=""position:fixed;top:50%; left:50%; transform: translate(-50%, -50%); border:5px solid black"">","","","","","","","",""
"","17796.460000099614","sequential-stimulus-presentation-old","80","535552","0.0-21.0-1.0","SS1618365183452","trial","","40","500","18296.460000099614","images/stimuli/spore_stims/complex_18_A_a.gif","images/stimuli/spore_stims/complex_12_A_b.gif","forced_long","","6","complex_dissimilar","images/stimuli/spore_stims/complex_12_A_b.gif","","","","",""
"","null","html-keyboard-response","81","536390","0.0-21.0-0.1","SS1618365183452","","","null","","","","","","<p><img src= images/blank.png width =""600"" height = ""600"" style=""position:fixed;top:50%; left:50%; transform: translate(-50%, -50%); border:5px solid black"">","","","","","","","",""
"","2937.5350000336766","sequential-stimulus-presentation-old","82","539831","0.0-21.0-1.1","SS1618365183452","trial","","40","500","3437.5350000336766","images/stimuli/spore_stims/complex_18_A_a.gif","images/stimuli/spore_stims/complex_12_A_b.gif","forced_long","","6","complex_dissimilar","images/stimuli/spore_stims/complex_12_A_b.gif","","","","",""
"","null","html-keyboard-response","83","540929","0.0-21.0-0.2","SS1618365183452","","","null","","","","","","<p><img src= images/blank.png width =""600"" height = ""600"" style=""position:fixed;top:50%; left:50%; transform: translate(-50%, -50%); border:5px solid black"">","","","","","","","",""
"","1908.5250000935048","sequential-stimulus-presentation-old","84","543340","0.0-21.0-1.2","SS1618365183452","trial","","40","500","2408.525000093505","images/stimuli/spore_stims/complex_18_A_a.gif","images/stimuli/spore_stims/complex_12_A_b.gif","forced_long","","6","complex_dissimilar","images/stimuli/spore_stims/complex_12_A_b.gif","","","","",""
"","null","html-keyboard-response","85","544326","0.0-21.0-0.3","SS1618365183452","","","null","","","","","","<p><img src= images/blank.png width =""600"" height = ""600"" style=""position:fixed;top:50%; left:50%; transform: translate(-50%, -50%); border:5px solid black"">","","","","","","","",""
"","1039.3399999011308","sequential-stimulus-presentation-old","86","545869","0.0-21.0-1.3","SS1618365183452","trial","","40","500","1539.3399999011308","images/stimuli/spore_stims/complex_18_A_a.gif","images/stimuli/spore_stims/complex_12_A_b.gif","forced_long","","6","complex_dissimilar","images/stimuli/spore_stims/complex_12_A_b.gif","","","","",""
"","null","html-keyboard-response","87","546837","0.0-21.0-0.4","SS1618365183452","","","null","","","","","","<p><img src= images/blank.png width =""600"" height = ""600"" style=""position:fixed;top:50%; left:50%; transform: translate(-50%, -50%); border:5px solid black"">","","","","","","","",""
"","3033.8749999646097","sequential-stimulus-presentation-old","88","550374","0.0-21.0-1.4","SS1618365183452","trial","","40","500","3533.8749999646097","images/stimuli/spore_stims/complex_18_A_a.gif","images/stimuli/spore_stims/complex_12_A_b.gif","forced_long","","6","complex_dissimilar","images/stimuli/spore_stims/complex_12_A_b.gif","","","","",""
"","null","html-keyboard-response","89","551572","0.0-21.0-0.5","SS1618365183452","","","null","","","","","","<p><img src= images/blank.png width =""600"" height = ""600"" style=""position:fixed;top:50%; left:50%; transform: translate(-50%, -50%); border:5px solid black"">","","","","","","","",""
"","3765.9550001844764","sequential-stimulus-presentation-old","90","555841","0.0-21.0-1.5","SS1618365183452","trial","","40","500","4265.955000184476","images/stimuli/spore_stims/complex_18_A_a.gif","images/stimuli/spore_stims/complex_12_A_b.gif","forced_long","","6","complex_dissimilar","images/stimuli/spore_stims/complex_18_A_a.gif","","","","",""
"","3901.1299998965114","survey-multi-choice","91","559744","0.0-22.0","SS1618365183452","math_question","","","","","","","","","","","","{""Q0"":""3""}","[0]","3","",""
"","null","html-keyboard-response","92","560741","0.0-23.0-0.0","SS1618365183452","","","null","","","","","","<p><img src= images/blank.png width =""600"" height = ""600"" style=""position:fixed;top:50%; left:50%; transform: translate(-50%, -50%); border:5px solid black"">","","","","","","","",""
"","2387.9449998494238","sequential-stimulus-presentation-old","93","563183","0.0-23.0-1.0","SS1618365183452","trial","","40","500","2887.9449998494238","images/stimuli/spore_stims/simple_04_A_b.gif","images/stimuli/spore_stims/simple_15_A_a.gif","forced_short","","7","simple_dissimilar","images/stimuli/spore_stims/simple_15_A_a.gif","","","","",""
"","null","html-keyboard-response","94","564148","0.0-23.0-0.1","SS1618365183452","","","null","","","","","","<p><img src= images/blank.png width =""600"" height = ""600"" style=""position:fixed;top:50%; left:50%; transform: translate(-50%, -50%); border:5px solid black"">","","","","","","","",""
"","2612.3999999836087","sequential-stimulus-presentation-old","95","567263","0.0-23.0-1.1","SS1618365183452","trial","","40","500","3112.3999999836087","images/stimuli/spore_stims/simple_04_A_b.gif","images/stimuli/spore_stims/simple_15_A_a.gif","forced_short","","7","simple_dissimilar","images/stimuli/spore_stims/simple_15_A_a.gif","","","","",""
"","null","html-keyboard-response","96","568229","0.0-23.0-0.2","SS1618365183452","","","null","","","","","","<p><img src= images/blank.png width =""600"" height = ""600"" style=""position:fixed;top:50%; left:50%; transform: translate(-50%, -50%); border:5px solid black"">","","","","","","","",""
"","1053.804999915883","sequential-stimulus-presentation-old","97","569787","0.0-23.0-1.2","SS1618365183452","trial","","40","500","1553.804999915883","images/stimuli/spore_stims/simple_04_A_b.gif","images/stimuli/spore_stims/simple_15_A_a.gif","forced_short","","7","simple_dissimilar","images/stimuli/spore_stims/simple_15_A_a.gif","","","","",""
"","null","html-keyboard-response","98","570976","0.0-23.0-0.3","SS1618365183452","","","null","","","","","","<p><img src= images/blank.png width =""600"" height = ""600"" style=""position:fixed;top:50%; left:50%; transform: translate(-50%, -50%); border:5px solid black"">","","","","","","","",""
"","1569.7049999143928","sequential-stimulus-presentation-old","99","573049","0.0-23.0-1.3","SS1618365183452","trial","","40","500","2069.704999914393","images/stimuli/spore_stims/simple_04_A_b.gif","images/stimuli/spore_stims/simple_15_A_a.gif","forced_short","","7","simple_dissimilar","images/stimuli/spore_stims/simple_04_A_b.gif","","","","",""
"","null","html-keyboard-response","100","574227","0.0-23.0-0.4","SS1618365183452","","","null","","","","","","<p><img src= images/blank.png width =""600"" height = ""600"" style=""position:fixed;top:50%; left:50%; transform: translate(-50%, -50%); border:5px solid black"">","","","","","","","",""
"","452.09000003524125","sequential-stimulus-presentation-old","101","575182","0.0-23.0-1.4","SS1618365183452","trial","","40","500","952.0900000352412","images/stimuli/spore_stims/simple_04_A_b.gif","images/stimuli/spore_stims/simple_15_A_a.gif","forced_short","","7","simple_dissimilar","images/stimuli/spore_stims/simple_04_A_b.gif","","","","",""
"","6786.104999948293","survey-multi-choice","102","581970","0.0-24.0","SS1618365183452","math_question","","","","","","","","","","","","{""Q0"":""12""}","[0]","12","",""
"","null","html-keyboard-response","103","583197","0.0-25.0-0.0","SS1618365183452","","","null","","","","","","<p><img src= images/blank.png width =""600"" height = ""600"" style=""position:fixed;top:50%; left:50%; transform: translate(-50%, -50%); border:5px solid black"">","","","","","","","",""
"","3986.124999821186","sequential-stimulus-presentation-old","104","592186","0.0-25.0-1.0","SS1618365183452","trial","","40","500","4486.124999821186","images/stimuli/spore_stims/simple_07_A_b.gif","images/stimuli/spore_stims/simple_12_A_a.gif","forced_long","","8","simple_dissimilar","images/stimuli/spore_stims/simple_12_A_a.gif","","","","",""
"","null","html-keyboard-response","105","593407","0.0-25.0-0.1","SS1618365183452","","","null","","","","","","<p><img src= images/blank.png width =""600"" height = ""600"" style=""position:fixed;top:50%; left:50%; transform: translate(-50%, -50%); border:5px solid black"">","","","","","","","",""
"","2936.6249998565763","sequential-stimulus-presentation-old","106","596847","0.0-25.0-1.1","SS1618365183452","trial","","40","500","3436.6249998565763","images/stimuli/spore_stims/simple_07_A_b.gif","images/stimuli/spore_stims/simple_12_A_a.gif","forced_long","","8","simple_dissimilar","images/stimuli/spore_stims/simple_12_A_a.gif","","","","",""
"","null","html-keyboard-response","107","597917","0.0-25.0-0.2","SS1618365183452","","","null","","","","","","<p><img src= images/blank.png width =""600"" height = ""600"" style=""position:fixed;top:50%; left:50%; transform: translate(-50%, -50%); border:5px solid black"">","","","","","","","",""
"","3907.6849999837577","sequential-stimulus-presentation-old","108","602328","0.0-25.0-1.2","SS1618365183452","trial","","40","500","4407.684999983758","images/stimuli/spore_stims/simple_07_A_b.gif","images/stimuli/spore_stims/simple_12_A_a.gif","forced_long","","8","simple_dissimilar","images/stimuli/spore_stims/simple_12_A_a.gif","","","","",""
"","null","html-keyboard-response","109","603578","0.0-25.0-0.3","SS1618365183452","","","null","","","","","","<p><img src= images/blank.png width =""600"" height = ""600"" style=""position:fixed;top:50%; left:50%; transform: translate(-50%, -50%); border:5px solid black"">","","","","","","","",""
"","1227.9499999713153","sequential-stimulus-presentation-old","110","605310","0.0-25.0-1.3","SS1618365183452","trial","","40","500","1727.9499999713153","images/stimuli/spore_stims/simple_07_A_b.gif","images/stimuli/spore_stims/simple_12_A_a.gif","forced_long","","8","simple_dissimilar","images/stimuli/spore_stims/simple_12_A_a.gif","","","","",""
"","null","html-keyboard-response","111","606273","0.0-25.0-0.4","SS1618365183452","","","null","","","","","","<p><img src= images/blank.png width =""600"" height = ""600"" style=""position:fixed;top:50%; left:50%; transform: translate(-50%, -50%); border:5px solid black"">","","","","","","","",""
"","1417.105000000447","sequential-stimulus-presentation-old","112","608193","0.0-25.0-1.4","SS1618365183452","trial","","40","500","1917.105000000447","images/stimuli/spore_stims/simple_07_A_b.gif","images/stimuli/spore_stims/simple_12_A_a.gif","forced_long","","8","simple_dissimilar","images/stimuli/spore_stims/simple_12_A_a.gif","","","","",""
"","null","html-keyboard-response","113","609315","0.0-25.0-0.5","SS1618365183452","","","null","","","","","","<p><img src= images/blank.png width =""600"" height = ""600"" style=""position:fixed;top:50%; left:50%; transform: translate(-50%, -50%); border:5px solid black"">","","","","","","","",""
"","1498.3950001187623","sequential-stimulus-presentation-old","114","611316","0.0-25.0-1.5","SS1618365183452","trial","","40","500","1998.3950001187623","images/stimuli/spore_stims/simple_07_A_b.gif","images/stimuli/spore_stims/simple_12_A_a.gif","forced_long","","8","simple_dissimilar","images/stimuli/spore_stims/simple_12_A_a.gif","","","","",""
"","3188.8449999969453","survey-multi-choice","115","614507","0.0-26.0","SS1618365183452","math_question","","","","","","","","","","","","{""Q0"":""8""}","[0]","8","",""
"","null","html-keyboard-response","116","615595","0.0-27.0-0.0","SS1618365183452","","","null","","","","","","<p><img src= images/blank.png width =""600"" height = ""600"" style=""position:fixed;top:50%; left:50%; transform: translate(-50%, -50%); border:5px solid black"">","","","","","","","",""
"","1501.1849999427795","sequential-stimulus-presentation-old","117","617150","0.0-27.0-1.0","SS1618365183452","trial","","40","500","2001.1849999427795","images/stimuli/spore_stims/complex_02_A_a.gif","images/stimuli/spore_stims/complex_16_A_b.gif","forced_short","","9","complex_dissimilar","images/stimuli/spore_stims/complex_16_A_b.gif","","","","",""
"","null","html-keyboard-response","118","618184","0.0-27.0-0.1","SS1618365183452","","","null","","","","","","<p><img src= images/blank.png width =""600"" height = ""600"" style=""position:fixed;top:50%; left:50%; transform: translate(-50%, -50%); border:5px solid black"">","","","","","","","",""
"","3259.695000015199","sequential-stimulus-presentation-old","119","621947","0.0-27.0-1.1","SS1618365183452","trial","","40","500","3759.695000015199","images/stimuli/spore_stims/complex_02_A_a.gif","images/stimuli/spore_stims/complex_16_A_b.gif","forced_short","","9","complex_dissimilar","images/stimuli/spore_stims/complex_16_A_b.gif","","","","",""
"","null","html-keyboard-response","120","622863","0.0-27.0-0.2","SS1618365183452","","","null","","","","","","<p><img src= images/blank.png width =""600"" height = ""600"" style=""position:fixed;top:50%; left:50%; transform: translate(-50%, -50%); border:5px solid black"">","","","","","","","",""
"","925.709999864921","sequential-stimulus-presentation-old","121","624292","0.0-27.0-1.2","SS1618365183452","trial","","40","500","1425.709999864921","images/stimuli/spore_stims/complex_02_A_a.gif","images/stimuli/spore_stims/complex_16_A_b.gif","forced_short","","9","complex_dissimilar","images/stimuli/spore_stims/complex_16_A_b.gif","","","","",""
"","null","html-keyboard-response","122","625170","0.0-27.0-0.3","SS1618365183452","","","null","","","","","","<p><img src= images/blank.png width =""600"" height = ""600"" style=""position:fixed;top:50%; left:50%; transform: translate(-50%, -50%); border:5px solid black"">","","","","","","","",""
"","1302.1100000478327","sequential-stimulus-presentation-old","123","626975","0.0-27.0-1.3","SS1618365183452","trial","","40","500","1802.1100000478327","images/stimuli/spore_stims/complex_02_A_a.gif","images/stimuli/spore_stims/complex_16_A_b.gif","forced_short","","9","complex_dissimilar","images/stimuli/spore_stims/complex_16_A_b.gif","","","","",""
"","null","html-keyboard-response","124","627882","0.0-27.0-0.4","SS1618365183452","","","null","","","","","","<p><img src= images/blank.png width =""600"" height = ""600"" style=""position:fixed;top:50%; left:50%; transform: translate(-50%, -50%); border:5px solid black"">","","","","","","","",""
"","1150.30000009574","sequential-stimulus-presentation-old","125","629536","0.0-27.0-1.4","SS1618365183452","trial","","40","500","1650.30000009574","images/stimuli/spore_stims/complex_02_A_a.gif","images/stimuli/spore_stims/complex_16_A_b.gif","forced_short","","9","complex_dissimilar","images/stimuli/spore_stims/complex_16_A_b.gif","","","","",""
"","4094.6199998725206","survey-multi-choice","126","633632","0.0-28.0","SS1618365183452","math_question","","","","","","","","","","","","{""Q0"":""10""}","[0]","10","",""
"","null","html-keyboard-response","127","634729","0.0-29.0-0.0","SS1618365183452","","","null","","","","","","<p><img src= images/blank.png width =""600"" height = ""600"" style=""position:fixed;top:50%; left:50%; transform: translate(-50%, -50%); border:5px solid black"">","","","","","","","",""
"","1864.720000186935","sequential-stimulus-presentation-old","128","637097","0.0-29.0-1.0","SS1618365183452","trial","","40","500","2364.720000186935","images/stimuli/spore_stims/complex_14_A_a.gif","images/stimuli/spore_stims/complex_20_A_b.gif","self_paced","","10","complex_dissimilar","images/stimuli/spore_stims/complex_20_A_b.gif","","","","",""
"","null","html-keyboard-response","129","638149","0.0-29.0-0.1","SS1618365183452","","","null","","","","","","<p><img src= images/blank.png width =""600"" height = ""600"" style=""position:fixed;top:50%; left:50%; transform: translate(-50%, -50%); border:5px solid black"">","","","","","","","",""
"","1276.2750000692904","sequential-stimulus-presentation-old","130","639929","0.0-29.0-1.1","SS1618365183452","trial","","40","500","1776.2750000692904","images/stimuli/spore_stims/complex_14_A_a.gif","images/stimuli/spore_stims/complex_20_A_b.gif","self_paced","","10","complex_dissimilar","images/stimuli/spore_stims/complex_20_A_b.gif","","","","",""
"","null","html-keyboard-response","131","641154","0.0-29.0-0.2","SS1618365183452","","","null","","","","","","<p><img src= images/blank.png width =""600"" height = ""600"" style=""position:fixed;top:50%; left:50%; transform: translate(-50%, -50%); border:5px solid black"">","","","","","","","",""
"","747.2800000105053","sequential-stimulus-presentation-old","132","642405","0.0-29.0-1.2","SS1618365183452","trial","","40","500","1247.2800000105053","images/stimuli/spore_stims/complex_14_A_a.gif","images/stimuli/spore_stims/complex_20_A_b.gif","self_paced","","10","complex_dissimilar","images/stimuli/spore_stims/complex_20_A_b.gif","","","","",""
"","null","html-keyboard-response","133","643482","0.0-29.0-0.3","SS1618365183452","","","null","","","","","","<p><img src= images/blank.png width =""600"" height = ""600"" style=""position:fixed;top:50%; left:50%; transform: translate(-50%, -50%); border:5px solid black"">","","","","","","","",""
"","404.4349999167025","sequential-stimulus-presentation-old","134","644390","0.0-29.0-1.3","SS1618365183452","trial","","40","500","904.4349999167025","images/stimuli/spore_stims/complex_14_A_a.gif","images/stimuli/spore_stims/complex_20_A_b.gif","self_paced","","10","complex_dissimilar","images/stimuli/spore_stims/complex_20_A_b.gif","","","","",""
"","null","html-keyboard-response","135","645478","0.0-29.0-0.4","SS1618365183452","","","null","","","","","","<p><img src= images/blank.png width =""600"" height = ""600"" style=""position:fixed;top:50%; left:50%; transform: translate(-50%, -50%); border:5px solid black"">","","","","","","","",""
"","4447.900000028312","sequential-stimulus-presentation-old","136","650429","0.0-29.0-1.4","SS1618365183452","trial","","40","500","4947.900000028312","images/stimuli/spore_stims/complex_14_A_a.gif","images/stimuli/spore_stims/complex_20_A_b.gif","self_paced","","10","complex_dissimilar","images/stimuli/spore_stims/complex_14_A_a.gif","","","","",""
"","null","html-keyboard-response","137","651679","0.0-29.0-0.5","SS1618365183452","","","null","","","","","","<p><img src= images/blank.png width =""600"" height = ""600"" style=""position:fixed;top:50%; left:50%; transform: translate(-50%, -50%); border:5px solid black"">","","","","","","","",""
"","2628.7000000011176","sequential-stimulus-presentation-old","138","654811","0.0-29.0-1.5","SS1618365183452","trial","","40","500","3128.7000000011176","images/stimuli/spore_stims/complex_14_A_a.gif","images/stimuli/spore_stims/complex_20_A_b.gif","self_paced","","10","complex_dissimilar","images/stimuli/spore_stims/complex_20_A_b.gif","","","","",""
"","4859.3699999619275","survey-multi-choice","139","659672","0.0-30.0","SS1618365183452","math_question","","","","","","","","","","","","{""Q0"":""13""}","[0]","13","",""
"","null","html-keyboard-response","140","660695","0.0-31.0-0.0","SS1618365183452","","","null","","","","","","<p><img src= images/blank.png width =""600"" height = ""600"" style=""position:fixed;top:50%; left:50%; transform: translate(-50%, -50%); border:5px solid black"">","","","","","","","",""
"","2494.2950000986457","sequential-stimulus-presentation-old","141","668193","0.0-31.0-1.0","SS1618365183452","trial","","40","500","2994.2950000986457","images/stimuli/spore_stims/simple_16_A_a.gif","images/stimuli/spore_stims/simple_11_A_b.gif","forced_long","","11","simple_dissimilar","images/stimuli/spore_stims/simple_11_A_b.gif","","","","",""
"","null","html-keyboard-response","142","669334","0.0-31.0-0.1","SS1618365183452","","","null","","","","","","<p><img src= images/blank.png width =""600"" height = ""600"" style=""position:fixed;top:50%; left:50%; transform: translate(-50%, -50%); border:5px solid black"">","","","","","","","",""
"","461.5599999669939","sequential-stimulus-presentation-old","143","670299","0.0-31.0-1.1","SS1618365183452","trial","","40","500","961.5599999669939","images/stimuli/spore_stims/simple_16_A_a.gif","images/stimuli/spore_stims/simple_11_A_b.gif","forced_long","","11","simple_dissimilar","images/stimuli/spore_stims/simple_11_A_b.gif","","","","",""
"","null","html-keyboard-response","144","671583","0.0-31.0-0.2","SS1618365183452","","","null","","","","","","<p><img src= images/blank.png width =""600"" height = ""600"" style=""position:fixed;top:50%; left:50%; transform: translate(-50%, -50%); border:5px solid black"">","","","","","","","",""
"","1107.9800000879914","sequential-stimulus-presentation-old","145","673194","0.0-31.0-1.2","SS1618365183452","trial","","40","500","1607.9800000879914","images/stimuli/spore_stims/simple_16_A_a.gif","images/stimuli/spore_stims/simple_11_A_b.gif","forced_long","","11","simple_dissimilar","images/stimuli/spore_stims/simple_11_A_b.gif","","","","",""
"","null","html-keyboard-response","146","674466","0.0-31.0-0.3","SS1618365183452","","","null","","","","","","<p><img src= images/blank.png width =""600"" height = ""600"" style=""position:fixed;top:50%; left:50%; transform: translate(-50%, -50%); border:5px solid black"">","","","","","","","",""
"","1714.8049999959767","sequential-stimulus-presentation-old","147","676683","0.0-31.0-1.3","SS1618365183452","trial","","40","500","2214.8049999959767","images/stimuli/spore_stims/simple_16_A_a.gif","images/stimuli/spore_stims/simple_11_A_b.gif","forced_long","","11","simple_dissimilar","images/stimuli/spore_stims/simple_11_A_b.gif","","","","",""
"","null","html-keyboard-response","148","677917","0.0-31.0-0.4","SS1618365183452","","","null","","","","","","<p><img src= images/blank.png width =""600"" height = ""600"" style=""position:fixed;top:50%; left:50%; transform: translate(-50%, -50%); border:5px solid black"">","","","","","","","",""
"","795.6700001377612","sequential-stimulus-presentation-old","149","679216","0.0-31.0-1.4","SS1618365183452","trial","","40","500","1295.6700001377612","images/stimuli/spore_stims/simple_16_A_a.gif","images/stimuli/spore_stims/simple_11_A_b.gif","forced_long","","11","simple_dissimilar","images/stimuli/spore_stims/simple_11_A_b.gif","","","","",""
"","null","html-keyboard-response","150","680510","0.0-31.0-0.5","SS1618365183452","","","null","","","","","","<p><img src= images/blank.png width =""600"" height = ""600"" style=""position:fixed;top:50%; left:50%; transform: translate(-50%, -50%); border:5px solid black"">","","","","","","","",""
"","647.1049999818206","sequential-stimulus-presentation-old","151","681660","0.0-31.0-1.5","SS1618365183452","trial","","40","500","1147.1049999818206","images/stimuli/spore_stims/simple_16_A_a.gif","images/stimuli/spore_stims/simple_11_A_b.gif","forced_long","","11","simple_dissimilar","images/stimuli/spore_stims/simple_11_A_b.gif","","","","",""
"[{""page_index"":0,""viewing_time"":13500.04000007175}]","13500.639999983832","instructions","152","695163","0.0-32.0","SS1618365183452","instructions","","","","","","","","","","","","","","","",""
"","37385.9499997925","survey-likert","153","732553","0.0-33.0","SS1618365183452","similarity_question","","","","","","","","","","","","{""Q0"":4}","[0]","","images/stimuli/spore_stims/simple_12_A_a.gif","images/stimuli/spore_stims/simple_07_A_b.gif"
"","10947.115000104532","survey-likert","154","743504","0.0-34.0","SS1618365183452","similarity_question","","","","","","","","","","","","{""Q0"":3}","[0]","","images/stimuli/spore_stims/simple_13_A_a.gif","images/stimuli/spore_stims/simple_05_A_b.gif"
"","8208.31000013277","survey-likert","155","751716","0.0-35.0","SS1618365183452","similarity_question","","","","","","","","","","","","{""Q0"":1}","[0]","","images/stimuli/spore_stims/complex_14_A_a.gif","images/stimuli/spore_stims/complex_20_A_b.gif"
"","6529.734999872744","survey-likert","156","758249","0.0-36.0","SS1618365183452","similarity_question","","","","","","","","","","","","{""Q0"":3}","[0]","","images/stimuli/spore_stims/simple_03_A_a.gif","images/stimuli/spore_stims/simple_20_A_b.gif"
"","5488.200000021607","survey-likert","157","763742","0.0-37.0","SS1618365183452","similarity_question","","","","","","","","","","","","{""Q0"":0}","[0]","","images/stimuli/spore_stims/complex_18_A_b.gif","images/stimuli/spore_stims/complex_11_A_a.gif"
"","3768.7699999660254","survey-likert","158","767516","0.0-38.0","SS1618365183452","similarity_question","","","","","","","","","","","","{""Q0"":0}","[0]","","images/stimuli/spore_stims/complex_16_A_b.gif","images/stimuli/spore_stims/complex_02_A_a.gif"
"","7112.680000020191","survey-likert","159","774632","0.0-39.0","SS1618365183452","similarity_question","","","","","","","","","","","","{""Q0"":1}","[0]","","images/stimuli/spore_stims/simple_04_A_b.gif","images/stimuli/spore_stims/simple_15_A_a.gif"
"","5863.099999958649","survey-likert","160","780499","0.0-40.0","SS1618365183452","similarity_question","","","","","","","","","","","","{""Q0"":0}","[0]","","images/stimuli/spore_stims/complex_01_A_a.gif","images/stimuli/spore_stims/complex_02_A_b.gif"
"","10847.129999892786","survey-likert","161","791350","0.0-41.0","SS1618365183452","similarity_question","","","","","","","","","","","","{""Q0"":0}","[0]","","images/stimuli/spore_stims/complex_03_A_b.gif","images/stimuli/spore_stims/complex_08_A_a.gif"
"","7542.769999941811","survey-likert","162","798896","0.0-42.0","SS1618365183452","similarity_question","","","","","","","","","","","","{""Q0"":4}","[0]","","images/stimuli/spore_stims/simple_08_A_a.gif","images/stimuli/spore_stims/simple_15_A_b.gif"
"","10962.699999799952","survey-likert","163","809863","0.0-43.0","SS1618365183452","similarity_question","","","","","","","","","","","","{""Q0"":2}","[0]","","images/stimuli/spore_stims/complex_18_A_a.gif","images/stimuli/spore_stims/complex_12_A_b.gif"
"","4587.489999830723","survey-likert","164","814455","0.0-44.0","SS1618365183452","similarity_question","","","","","","","","","","","","{""Q0"":6}","[0]","","images/stimuli/spore_stims/simple_16_A_a.gif","images/stimuli/spore_stims/simple_11_A_b.gif"
"[{""page_index"":0,""viewing_time"":16520.934999920428}]","16521.154999965802","instructions","165","830979","0.0-45.0","SS1618365183452","instructions","","","","","","","","","","","","","","","",""
"","9093.609999865294","survey-likert","166","840076","0.0-46.0","SS1618365183452","","","","","","","","","images/stimuli/spore_stims/simple_05_A_b.gif","","","","{""Q0"":0}","[0]","","",""
"","3395.649999845773","survey-likert","167","843476","0.0-47.0","SS1618365183452","","","","","","","","","images/stimuli/spore_stims/simple_15_A_b.gif","","","","{""Q0"":0}","[0]","","",""
"","10225.0800000038","survey-likert","168","853704","0.0-48.0","SS1618365183452","","","","","","","","","images/stimuli/spore_stims/complex_01_A_a.gif","","","","{""Q0"":3}","[0]","","",""
"","2477.225000038743","survey-likert","169","856185","0.0-49.0","SS1618365183452","","","","","","","","","images/stimuli/spore_stims/complex_18_A_a.gif","","","","{""Q0"":5}","[0]","","",""
"","4019.459999864921","survey-likert","170","860208","0.0-50.0","SS1618365183452","","","","","","","","","images/stimuli/spore_stims/complex_03_A_b.gif","","","","{""Q0"":4}","[0]","","",""
"","2969.800000078976","survey-likert","171","863181","0.0-51.0","SS1618365183452","","","","","","","","","images/stimuli/spore_stims/simple_03_A_a.gif","","","","{""Q0"":1}","[0]","","",""
"","3107.4000000953674","survey-likert","172","866292","0.0-52.0","SS1618365183452","","","","","","","","","images/stimuli/spore_stims/simple_15_A_a.gif","","","","{""Q0"":0}","[0]","","",""
"","2376.285000005737","survey-likert","173","868672","0.0-53.0","SS1618365183452","","","","","","","","","images/stimuli/spore_stims/simple_07_A_b.gif","","","","{""Q0"":0}","[0]","","",""
"","3587.1300001163036","survey-likert","174","872262","0.0-54.0","SS1618365183452","","","","","","","","","images/stimuli/spore_stims/simple_11_A_b.gif","","","","{""Q0"":1}","[0]","","",""
"","5475.35500000231","survey-likert","175","877741","0.0-55.0","SS1618365183452","","","","","","","","","images/stimuli/spore_stims/complex_20_A_b.gif","","","","{""Q0"":4}","[0]","","",""
"","6840.769999893382","survey-likert","176","884585","0.0-56.0","SS1618365183452","","","","","","","","","images/stimuli/spore_stims/complex_18_A_b.gif","","","","{""Q0"":4}","[0]","","",""
"","11908.224999904633","survey-likert","177","896497","0.0-57.0","SS1618365183452","","","","","","","","","images/stimuli/spore_stims/complex_16_A_b.gif","","","","{""Q0"":4}","[0]","","",""
"[{""page_index"":0,""viewing_time"":2703.969999914989}]","2704.175000078976","instructions","178","899203","0.0-58.0","SS1618365183452","instructions","","","","","","","","","","","","","","","",""
"","4070.3050000593066","demog-age","179","903279","0.0-59.0","SS1618365183452","","","","","","","","","","","","","{""age"":""31""}","","","",""
"","9564.335000002757","demog-ethnic-US","180","912849","0.0-60.0","SS1618365183452","","","","","","","","","","","","","{""ethnicity"":[""White""]}","[0]","","",""
"","13976.490000030026","demog-gender-and-education","181","926829","0.0-61.0","SS1618365183452","","","","","","","","","","","","","{""gender"":""Male"",""education"":""High school diploma""}","[0,1]","","",""
"","72103.32500003278","survey-text","182","998938","0.0-62.0","SS1618365183452","feedback","","","","","","","","","","","","{""Q0"":""The animations that have to blink, many times no frame was seen. ""}","","","",""
"[{""page_index"":0,""viewing_time"":4053.749999962747}]","4053.970000008121","instructions","183","1002994","0.0-63.0","SS1618365183452","instructions","","","","","","","","","","","","","","","",""
