"view_history","rt","trial_type","trial_index","time_elapsed","internal_node_id","subject","stimulus_type","trial_stimulus","key_press","minimum_viewing_duration","trial_looking_time","block_deviant","block_background","exposure_type","stimulus","block_number","block_type","stimulus_displayed","responses","question_order","math_correct_answer","stimulus_left","stimulus_right"
"[{""page_index"":0,""viewing_time"":21822.40499998443}]","21823.180000064895","instructions","0","21826","0.0-0.0","SS1618435641206","","","","","","","","","","","","","","","","",""
"[{""page_index"":0,""viewing_time"":40697.02000007965},{""page_index"":1,""viewing_time"":5274.024999933317}]","45971.27499990165","instructions","1","69802","0.0-1.0","SS1618435641206","instructions","","","","","","","","","","","","","","","",""
"","9330.365000059828","sequential-stimulus-presentation-old","2","79636","0.0-2.0","SS1618435641206","","","40","500","9830.365000059828","null","null","self_paced","","","","","","","","",""
"","6085.0150000769645","sequential-stimulus-presentation-old","3","86225","0.0-3.0","SS1618435641206","","","40","500","6585.0150000769645","null","null","self_paced","","","","","","","","",""
"[{""page_index"":0,""viewing_time"":28945.40000008419}]","28945.62999997288","instructions","4","115172","0.0-4.0","SS1618435641206","instructions","","","","","","","","","","","","","","","",""
"","3320.420000003651","sequential-stimulus-presentation-old","5","123495","0.0-5.0","SS1618435641206","","","40","500","3820.420000003651","null","null","forced_long","","","","","","","","",""
"","7041.130000026897","sequential-stimulus-presentation-old","6","130590","0.0-6.0","SS1618435641206","","","40","50","7091.130000026897","null","null","forced_long","","","","","","","","",""
"[{""page_index"":0,""viewing_time"":7780.945000005886}]","7781.205000123009","instructions","7","138372","0.0-7.0","SS1618435641206","instructions","","","","","","","","","","","","","","","",""
"[{""page_index"":0,""viewing_time"":7161.659999983385},{""page_index"":1,""viewing_time"":8769.85999988392},{""page_index"":2,""viewing_time"":7333.855000091717},{""page_index"":3,""viewing_time"":2824.1050001233816},{""page_index"":4,""viewing_time"":1515.919999917969}]","27605.634999927133","instructions","8","165979","0.0-8.0","SS1618435641206","instructions","","","","","","","","","","","","","","","",""
"","null","html-keyboard-response","9","167219","0.0-9.0-0.0","SS1618435641206","","","null","","","","","","<p><img src= images/blank.png width =""600"" height = ""600"" style=""position:fixed;top:50%; left:50%; transform: translate(-50%, -50%); border:5px solid black"">","","","","","","","",""
"","522.3250000271946","sequential-stimulus-presentation-old","10","167798","0.0-9.0-1.0","SS1618435641206","trial","","40","500","1022.3250000271946","images/stimuli/spore_stims/complex_03_A_b.gif","images/stimuli/spore_stims/complex_18_A_a.gif","forced_short","","0","complex_dissimilar","images/stimuli/spore_stims/complex_18_A_a.gif","","","","",""
"","null","html-keyboard-response","11","169020","0.0-9.0-0.1","SS1618435641206","","","null","","","","","","<p><img src= images/blank.png width =""600"" height = ""600"" style=""position:fixed;top:50%; left:50%; transform: translate(-50%, -50%); border:5px solid black"">","","","","","","","",""
"","1172.6349999662489","sequential-stimulus-presentation-old","12","170697","0.0-9.0-1.1","SS1618435641206","trial","","40","500","1672.6349999662489","images/stimuli/spore_stims/complex_03_A_b.gif","images/stimuli/spore_stims/complex_18_A_a.gif","forced_short","","0","complex_dissimilar","images/stimuli/spore_stims/complex_18_A_a.gif","","","","",""
"","null","html-keyboard-response","13","171806","0.0-9.0-0.2","SS1618435641206","","","null","","","","","","<p><img src= images/blank.png width =""600"" height = ""600"" style=""position:fixed;top:50%; left:50%; transform: translate(-50%, -50%); border:5px solid black"">","","","","","","","",""
"","665.2649999596179","sequential-stimulus-presentation-old","14","172975","0.0-9.0-1.2","SS1618435641206","trial","","40","500","1165.2649999596179","images/stimuli/spore_stims/complex_03_A_b.gif","images/stimuli/spore_stims/complex_18_A_a.gif","forced_short","","0","complex_dissimilar","images/stimuli/spore_stims/complex_18_A_a.gif","","","","",""
"","null","html-keyboard-response","15","173819","0.0-9.0-0.3","SS1618435641206","","","null","","","","","","<p><img src= images/blank.png width =""600"" height = ""600"" style=""position:fixed;top:50%; left:50%; transform: translate(-50%, -50%); border:5px solid black"">","","","","","","","",""
"","2613.6000000406057","sequential-stimulus-presentation-old","16","176938","0.0-9.0-1.3","SS1618435641206","trial","","40","500","3113.6000000406057","images/stimuli/spore_stims/complex_03_A_b.gif","images/stimuli/spore_stims/complex_18_A_a.gif","forced_short","","0","complex_dissimilar","images/stimuli/spore_stims/complex_18_A_a.gif","","","","",""
"","7972.53999998793","survey-multi-choice","17","184915","0.0-10.0","SS1618435641206","math_question","","","","","","","","","","","","{""Q0"":""8""}","[0]","8","",""
"","null","html-keyboard-response","18","185763","0.0-11.0-0.0","SS1618435641206","","","null","","","","","","<p><img src= images/blank.png width =""600"" height = ""600"" style=""position:fixed;top:50%; left:50%; transform: translate(-50%, -50%); border:5px solid black"">","","","","","","","",""
"","612.5199999660254","sequential-stimulus-presentation-old","19","186430","0.0-11.0-1.0","SS1618435641206","trial","","40","500","1112.5199999660254","images/stimuli/spore_stims/complex_20_A_a.gif","images/stimuli/spore_stims/complex_16_A_b.gif","forced_short","","1","complex_dissimilar","images/stimuli/spore_stims/complex_16_A_b.gif","","","","",""
"","null","html-keyboard-response","20","187316","0.0-11.0-0.1","SS1618435641206","","","null","","","","","","<p><img src= images/blank.png width =""600"" height = ""600"" style=""position:fixed;top:50%; left:50%; transform: translate(-50%, -50%); border:5px solid black"">","","","","","","","",""
"","1992.714999942109","sequential-stimulus-presentation-old","21","189816","0.0-11.0-1.1","SS1618435641206","trial","","40","500","2492.714999942109","images/stimuli/spore_stims/complex_20_A_a.gif","images/stimuli/spore_stims/complex_16_A_b.gif","forced_short","","1","complex_dissimilar","images/stimuli/spore_stims/complex_20_A_a.gif","","","","",""
"","null","html-keyboard-response","22","190808","0.0-11.0-0.2","SS1618435641206","","","null","","","","","","<p><img src= images/blank.png width =""600"" height = ""600"" style=""position:fixed;top:50%; left:50%; transform: translate(-50%, -50%); border:5px solid black"">","","","","","","","",""
"","1689.5800000056624","sequential-stimulus-presentation-old","23","193002","0.0-11.0-1.2","SS1618435641206","trial","","40","500","2189.5800000056624","images/stimuli/spore_stims/complex_20_A_a.gif","images/stimuli/spore_stims/complex_16_A_b.gif","forced_short","","1","complex_dissimilar","images/stimuli/spore_stims/complex_16_A_b.gif","","","","",""
"","null","html-keyboard-response","24","194065","0.0-11.0-0.3","SS1618435641206","","","null","","","","","","<p><img src= images/blank.png width =""600"" height = ""600"" style=""position:fixed;top:50%; left:50%; transform: translate(-50%, -50%); border:5px solid black"">","","","","","","","",""
"","1281.8950000219047","sequential-stimulus-presentation-old","25","195853","0.0-11.0-1.3","SS1618435641206","trial","","40","500","1781.8950000219047","images/stimuli/spore_stims/complex_20_A_a.gif","images/stimuli/spore_stims/complex_16_A_b.gif","forced_short","","1","complex_dissimilar","images/stimuli/spore_stims/complex_16_A_b.gif","","","","",""
"","null","html-keyboard-response","26","196811","0.0-11.0-0.4","SS1618435641206","","","null","","","","","","<p><img src= images/blank.png width =""600"" height = ""600"" style=""position:fixed;top:50%; left:50%; transform: translate(-50%, -50%); border:5px solid black"">","","","","","","","",""
"","170.60500010848045","sequential-stimulus-presentation-old","27","197485","0.0-11.0-1.4","SS1618435641206","trial","","40","500","670.6050001084805","images/stimuli/spore_stims/complex_20_A_a.gif","images/stimuli/spore_stims/complex_16_A_b.gif","forced_short","","1","complex_dissimilar","images/stimuli/spore_stims/complex_16_A_b.gif","","","","",""
"","5055.369999958202","survey-multi-choice","28","202544","0.0-12.0","SS1618435641206","math_question","","","","","","","","","","","","{""Q0"":""12""}","[0]","12","",""
"","null","html-keyboard-response","29","203829","0.0-13.0-0.0","SS1618435641206","","","null","","","","","","<p><img src= images/blank.png width =""600"" height = ""600"" style=""position:fixed;top:50%; left:50%; transform: translate(-50%, -50%); border:5px solid black"">","","","","","","","",""
"","1143.0849998723716","sequential-stimulus-presentation-old","30","209979","0.0-13.0-1.0","SS1618435641206","trial","","40","500","1643.0849998723716","images/stimuli/spore_stims/complex_01_A_b.gif","images/stimuli/spore_stims/complex_13_A_a.gif","forced_long","","2","complex_dissimilar","images/stimuli/spore_stims/complex_13_A_a.gif","","","","",""
"","null","html-keyboard-response","31","211024","0.0-13.0-0.1","SS1618435641206","","","null","","","","","","<p><img src= images/blank.png width =""600"" height = ""600"" style=""position:fixed;top:50%; left:50%; transform: translate(-50%, -50%); border:5px solid black"">","","","","","","","",""
"","1052.1249999292195","sequential-stimulus-presentation-old","32","212581","0.0-13.0-1.1","SS1618435641206","trial","","40","500","1552.1249999292195","images/stimuli/spore_stims/complex_01_A_b.gif","images/stimuli/spore_stims/complex_13_A_a.gif","forced_long","","2","complex_dissimilar","images/stimuli/spore_stims/complex_13_A_a.gif","","","","",""
"","null","html-keyboard-response","33","213764","0.0-13.0-0.2","SS1618435641206","","","null","","","","","","<p><img src= images/blank.png width =""600"" height = ""600"" style=""position:fixed;top:50%; left:50%; transform: translate(-50%, -50%); border:5px solid black"">","","","","","","","",""
"","225.42499983683228","sequential-stimulus-presentation-old","34","214494","0.0-13.0-1.2","SS1618435641206","trial","","40","500","725.4249998368323","images/stimuli/spore_stims/complex_01_A_b.gif","images/stimuli/spore_stims/complex_13_A_a.gif","forced_long","","2","complex_dissimilar","images/stimuli/spore_stims/complex_13_A_a.gif","","","","",""
"","null","html-keyboard-response","35","215591","0.0-13.0-0.3","SS1618435641206","","","null","","","","","","<p><img src= images/blank.png width =""600"" height = ""600"" style=""position:fixed;top:50%; left:50%; transform: translate(-50%, -50%); border:5px solid black"">","","","","","","","",""
"","1081.1100001446903","sequential-stimulus-presentation-old","36","217177","0.0-13.0-1.3","SS1618435641206","trial","","40","500","1581.1100001446903","images/stimuli/spore_stims/complex_01_A_b.gif","images/stimuli/spore_stims/complex_13_A_a.gif","forced_long","","2","complex_dissimilar","images/stimuli/spore_stims/complex_13_A_a.gif","","","","",""
"","null","html-keyboard-response","37","218100","0.0-13.0-0.4","SS1618435641206","","","null","","","","","","<p><img src= images/blank.png width =""600"" height = ""600"" style=""position:fixed;top:50%; left:50%; transform: translate(-50%, -50%); border:5px solid black"">","","","","","","","",""
"","44.3299999460578","sequential-stimulus-presentation-old","38","218651","0.0-13.0-1.4","SS1618435641206","trial","","40","500","544.3299999460578","images/stimuli/spore_stims/complex_01_A_b.gif","images/stimuli/spore_stims/complex_13_A_a.gif","forced_long","","2","complex_dissimilar","images/stimuli/spore_stims/complex_13_A_a.gif","","","","",""
"","null","html-keyboard-response","39","219605","0.0-13.0-0.5","SS1618435641206","","","null","","","","","","<p><img src= images/blank.png width =""600"" height = ""600"" style=""position:fixed;top:50%; left:50%; transform: translate(-50%, -50%); border:5px solid black"">","","","","","","","",""
"","1988.5199998971075","sequential-stimulus-presentation-old","40","222098","0.0-13.0-1.5","SS1618435641206","trial","","40","500","2488.5199998971075","images/stimuli/spore_stims/complex_01_A_b.gif","images/stimuli/spore_stims/complex_13_A_a.gif","forced_long","","2","complex_dissimilar","images/stimuli/spore_stims/complex_01_A_b.gif","","","","",""
"","1909.3200000934303","survey-multi-choice","41","224010","0.0-14.0","SS1618435641206","math_question","","","","","","","","","","","","{""Q0"":""14""}","[0]","14","",""
"","null","html-keyboard-response","42","225115","0.0-15.0-0.0","SS1618435641206","","","null","","","","","","<p><img src= images/blank.png width =""600"" height = ""600"" style=""position:fixed;top:50%; left:50%; transform: translate(-50%, -50%); border:5px solid black"">","","","","","","","",""
"","685.1350001525134","sequential-stimulus-presentation-old","43","225855","0.0-15.0-1.0","SS1618435641206","trial","","40","500","1185.1350001525134","images/stimuli/spore_stims/simple_07_A_a.gif","images/stimuli/spore_stims/simple_12_A_b.gif","forced_short","","3","simple_dissimilar","images/stimuli/spore_stims/simple_12_A_b.gif","","","","",""
"","null","html-keyboard-response","44","226766","0.0-15.0-0.1","SS1618435641206","","","null","","","","","","<p><img src= images/blank.png width =""600"" height = ""600"" style=""position:fixed;top:50%; left:50%; transform: translate(-50%, -50%); border:5px solid black"">","","","","","","","",""
"","433.83999983780086","sequential-stimulus-presentation-old","45","227705","0.0-15.0-1.1","SS1618435641206","trial","","40","500","933.8399998378009","images/stimuli/spore_stims/simple_07_A_a.gif","images/stimuli/spore_stims/simple_12_A_b.gif","forced_short","","3","simple_dissimilar","images/stimuli/spore_stims/simple_12_A_b.gif","","","","",""
"","null","html-keyboard-response","46","228764","0.0-15.0-0.2","SS1618435641206","","","null","","","","","","<p><img src= images/blank.png width =""600"" height = ""600"" style=""position:fixed;top:50%; left:50%; transform: translate(-50%, -50%); border:5px solid black"">","","","","","","","",""
"","148.54500000365078","sequential-stimulus-presentation-old","47","229417","0.0-15.0-1.2","SS1618435641206","trial","","40","500","648.5450000036508","images/stimuli/spore_stims/simple_07_A_a.gif","images/stimuli/spore_stims/simple_12_A_b.gif","forced_short","","3","simple_dissimilar","images/stimuli/spore_stims/simple_12_A_b.gif","","","","",""
"","null","html-keyboard-response","48","230505","0.0-15.0-0.3","SS1618435641206","","","null","","","","","","<p><img src= images/blank.png width =""600"" height = ""600"" style=""position:fixed;top:50%; left:50%; transform: translate(-50%, -50%); border:5px solid black"">","","","","","","","",""
"","1017.5250000320375","sequential-stimulus-presentation-old","49","232028","0.0-15.0-1.3","SS1618435641206","trial","","40","500","1517.5250000320375","images/stimuli/spore_stims/simple_07_A_a.gif","images/stimuli/spore_stims/simple_12_A_b.gif","forced_short","","3","simple_dissimilar","images/stimuli/spore_stims/simple_12_A_b.gif","","","","",""
"","1752.1450000349432","survey-multi-choice","50","233783","0.0-16.0","SS1618435641206","math_question","","","","","","","","","","","","{""Q0"":""8""}","[0]","8","",""
"","null","html-keyboard-response","51","234780","0.0-17.0-0.0","SS1618435641206","","","null","","","","","","<p><img src= images/blank.png width =""600"" height = ""600"" style=""position:fixed;top:50%; left:50%; transform: translate(-50%, -50%); border:5px solid black"">","","","","","","","",""
"","729.7399998642504","sequential-stimulus-presentation-old","52","240516","0.0-17.0-1.0","SS1618435641206","trial","","40","500","1229.7399998642504","images/stimuli/spore_stims/simple_19_A_a.gif","images/stimuli/spore_stims/simple_08_A_b.gif","forced_long","","4","simple_dissimilar","images/stimuli/spore_stims/simple_08_A_b.gif","","","","",""
"","null","html-keyboard-response","53","241710","0.0-17.0-0.1","SS1618435641206","","","null","","","","","","<p><img src= images/blank.png width =""600"" height = ""600"" style=""position:fixed;top:50%; left:50%; transform: translate(-50%, -50%); border:5px solid black"">","","","","","","","",""
"","110.30000005848706","sequential-stimulus-presentation-old","54","242324","0.0-17.0-1.1","SS1618435641206","trial","","40","500","610.3000000584871","images/stimuli/spore_stims/simple_19_A_a.gif","images/stimuli/spore_stims/simple_08_A_b.gif","forced_long","","4","simple_dissimilar","images/stimuli/spore_stims/simple_19_A_a.gif","","","","",""
"","null","html-keyboard-response","55","243565","0.0-17.0-0.2","SS1618435641206","","","null","","","","","","<p><img src= images/blank.png width =""600"" height = ""600"" style=""position:fixed;top:50%; left:50%; transform: translate(-50%, -50%); border:5px solid black"">","","","","","","","",""
"","546.5000001713634","sequential-stimulus-presentation-old","56","244616","0.0-17.0-1.2","SS1618435641206","trial","","40","500","1046.5000001713634","images/stimuli/spore_stims/simple_19_A_a.gif","images/stimuli/spore_stims/simple_08_A_b.gif","forced_long","","4","simple_dissimilar","images/stimuli/spore_stims/simple_08_A_b.gif","","","","",""
"","null","html-keyboard-response","57","245588","0.0-17.0-0.3","SS1618435641206","","","null","","","","","","<p><img src= images/blank.png width =""600"" height = ""600"" style=""position:fixed;top:50%; left:50%; transform: translate(-50%, -50%); border:5px solid black"">","","","","","","","",""
"","205.12999990023673","sequential-stimulus-presentation-old","58","246299","0.0-17.0-1.3","SS1618435641206","trial","","40","500","705.1299999002367","images/stimuli/spore_stims/simple_19_A_a.gif","images/stimuli/spore_stims/simple_08_A_b.gif","forced_long","","4","simple_dissimilar","images/stimuli/spore_stims/simple_19_A_a.gif","","","","",""
"","7819.384999806061","survey-multi-choice","59","254122","0.0-18.0","SS1618435641206","math_question","","","","","","","","","","","","{""Q0"":""5""}","[0]","5","",""
"","null","html-keyboard-response","60","254964","0.0-19.0-0.0","SS1618435641206","","","null","","","","","","<p><img src= images/blank.png width =""600"" height = ""600"" style=""position:fixed;top:50%; left:50%; transform: translate(-50%, -50%); border:5px solid black"">","","","","","","","",""
"","625.060000224039","sequential-stimulus-presentation-old","61","255647","0.0-19.0-1.0","SS1618435641206","trial","","40","500","1125.060000224039","images/stimuli/spore_stims/simple_14_A_a.gif","images/stimuli/spore_stims/simple_05_A_b.gif","forced_short","","5","simple_dissimilar","images/stimuli/spore_stims/simple_05_A_b.gif","","","","",""
"","null","html-keyboard-response","62","256701","0.0-19.0-0.1","SS1618435641206","","","null","","","","","","<p><img src= images/blank.png width =""600"" height = ""600"" style=""position:fixed;top:50%; left:50%; transform: translate(-50%, -50%); border:5px solid black"">","","","","","","","",""
"","1333.1400000024587","sequential-stimulus-presentation-old","63","258538","0.0-19.0-1.1","SS1618435641206","trial","","40","500","1833.1400000024587","images/stimuli/spore_stims/simple_14_A_a.gif","images/stimuli/spore_stims/simple_05_A_b.gif","forced_short","","5","simple_dissimilar","images/stimuli/spore_stims/simple_05_A_b.gif","","","","",""
"","null","html-keyboard-response","64","259357","0.0-19.0-0.2","SS1618435641206","","","null","","","","","","<p><img src= images/blank.png width =""600"" height = ""600"" style=""position:fixed;top:50%; left:50%; transform: translate(-50%, -50%); border:5px solid black"">","","","","","","","",""
"","785.1050000172108","sequential-stimulus-presentation-old","65","260648","0.0-19.0-1.2","SS1618435641206","trial","","40","500","1285.1050000172108","images/stimuli/spore_stims/simple_14_A_a.gif","images/stimuli/spore_stims/simple_05_A_b.gif","forced_short","","5","simple_dissimilar","images/stimuli/spore_stims/simple_05_A_b.gif","","","","",""
"","null","html-keyboard-response","66","261630","0.0-19.0-0.3","SS1618435641206","","","null","","","","","","<p><img src= images/blank.png width =""600"" height = ""600"" style=""position:fixed;top:50%; left:50%; transform: translate(-50%, -50%); border:5px solid black"">","","","","","","","",""
"","73.08499980717897","sequential-stimulus-presentation-old","67","262209","0.0-19.0-1.3","SS1618435641206","trial","","40","500","573.084999807179","images/stimuli/spore_stims/simple_14_A_a.gif","images/stimuli/spore_stims/simple_05_A_b.gif","forced_short","","5","simple_dissimilar","images/stimuli/spore_stims/simple_05_A_b.gif","","","","",""
"","3000.7100000511855","survey-multi-choice","68","265213","0.0-20.0","SS1618435641206","math_question","","","","","","","","","","","","{""Q0"":""10""}","[0]","10","",""
"","null","html-keyboard-response","69","266065","0.0-21.0-0.0","SS1618435641206","","","null","","","","","","<p><img src= images/blank.png width =""600"" height = ""600"" style=""position:fixed;top:50%; left:50%; transform: translate(-50%, -50%); border:5px solid black"">","","","","","","","",""
"","3246.169999940321","sequential-stimulus-presentation-old","70","269818","0.0-21.0-1.0","SS1618435641206","trial","","40","500","3746.169999940321","images/stimuli/spore_stims/simple_03_A_b.gif","images/stimuli/spore_stims/simple_04_A_a.gif","self_paced","","6","simple_dissimilar","images/stimuli/spore_stims/simple_04_A_a.gif","","","","",""
"","null","html-keyboard-response","71","270992","0.0-21.0-0.1","SS1618435641206","","","null","","","","","","<p><img src= images/blank.png width =""600"" height = ""600"" style=""position:fixed;top:50%; left:50%; transform: translate(-50%, -50%); border:5px solid black"">","","","","","","","",""
"","731.984999962151","sequential-stimulus-presentation-old","72","272231","0.0-21.0-1.1","SS1618435641206","trial","","40","500","1231.984999962151","images/stimuli/spore_stims/simple_03_A_b.gif","images/stimuli/spore_stims/simple_04_A_a.gif","self_paced","","6","simple_dissimilar","images/stimuli/spore_stims/simple_04_A_a.gif","","","","",""
"","null","html-keyboard-response","73","273249","0.0-21.0-0.2","SS1618435641206","","","null","","","","","","<p><img src= images/blank.png width =""600"" height = ""600"" style=""position:fixed;top:50%; left:50%; transform: translate(-50%, -50%); border:5px solid black"">","","","","","","","",""
"","69.23000002279878","sequential-stimulus-presentation-old","74","273824","0.0-21.0-1.2","SS1618435641206","trial","","40","500","569.2300000227988","images/stimuli/spore_stims/simple_03_A_b.gif","images/stimuli/spore_stims/simple_04_A_a.gif","self_paced","","6","simple_dissimilar","images/stimuli/spore_stims/simple_04_A_a.gif","","","","",""
"","null","html-keyboard-response","75","275093","0.0-21.0-0.3","SS1618435641206","","","null","","","","","","<p><img src= images/blank.png width =""600"" height = ""600"" style=""position:fixed;top:50%; left:50%; transform: translate(-50%, -50%); border:5px solid black"">","","","","","","","",""
"","2168.095000088215","sequential-stimulus-presentation-old","76","277767","0.0-21.0-1.3","SS1618435641206","trial","","40","500","2668.095000088215","images/stimuli/spore_stims/simple_03_A_b.gif","images/stimuli/spore_stims/simple_04_A_a.gif","self_paced","","6","simple_dissimilar","images/stimuli/spore_stims/simple_04_A_a.gif","","","","",""
"","2445.9400000050664","survey-multi-choice","77","280215","0.0-22.0","SS1618435641206","math_question","","","","","","","","","","","","{""Q0"":""11""}","[0]","11","",""
"","null","html-keyboard-response","78","281351","0.0-23.0-0.0","SS1618435641206","","","null","","","","","","<p><img src= images/blank.png width =""600"" height = ""600"" style=""position:fixed;top:50%; left:50%; transform: translate(-50%, -50%); border:5px solid black"">","","","","","","","",""
"","2679.5349998865277","sequential-stimulus-presentation-old","79","284536","0.0-23.0-1.0","SS1618435641206","trial","","40","500","3179.5349998865277","images/stimuli/spore_stims/complex_10_A_a.gif","images/stimuli/spore_stims/complex_02_A_b.gif","self_paced","","7","complex_dissimilar","images/stimuli/spore_stims/complex_02_A_b.gif","","","","",""
"","null","html-keyboard-response","80","285728","0.0-23.0-0.1","SS1618435641206","","","null","","","","","","<p><img src= images/blank.png width =""600"" height = ""600"" style=""position:fixed;top:50%; left:50%; transform: translate(-50%, -50%); border:5px solid black"">","","","","","","","",""
"","77.06499984487891","sequential-stimulus-presentation-old","81","286308","0.0-23.0-1.1","SS1618435641206","trial","","40","500","577.0649998448789","images/stimuli/spore_stims/complex_10_A_a.gif","images/stimuli/spore_stims/complex_02_A_b.gif","self_paced","","7","complex_dissimilar","images/stimuli/spore_stims/complex_02_A_b.gif","","","","",""
"","null","html-keyboard-response","82","287487","0.0-23.0-0.2","SS1618435641206","","","null","","","","","","<p><img src= images/blank.png width =""600"" height = ""600"" style=""position:fixed;top:50%; left:50%; transform: translate(-50%, -50%); border:5px solid black"">","","","","","","","",""
"","3023.049999959767","sequential-stimulus-presentation-old","83","291015","0.0-23.0-1.2","SS1618435641206","trial","","40","500","3523.049999959767","images/stimuli/spore_stims/complex_10_A_a.gif","images/stimuli/spore_stims/complex_02_A_b.gif","self_paced","","7","complex_dissimilar","images/stimuli/spore_stims/complex_02_A_b.gif","","","","",""
"","null","html-keyboard-response","84","291879","0.0-23.0-0.3","SS1618435641206","","","null","","","","","","<p><img src= images/blank.png width =""600"" height = ""600"" style=""position:fixed;top:50%; left:50%; transform: translate(-50%, -50%); border:5px solid black"">","","","","","","","",""
"","67.83500011079013","sequential-stimulus-presentation-old","85","292453","0.0-23.0-1.3","SS1618435641206","trial","","40","500","567.8350001107901","images/stimuli/spore_stims/complex_10_A_a.gif","images/stimuli/spore_stims/complex_02_A_b.gif","self_paced","","7","complex_dissimilar","images/stimuli/spore_stims/complex_10_A_a.gif","","","","",""
"","null","html-keyboard-response","86","293479","0.0-23.0-0.4","SS1618435641206","","","null","","","","","","<p><img src= images/blank.png width =""600"" height = ""600"" style=""position:fixed;top:50%; left:50%; transform: translate(-50%, -50%); border:5px solid black"">","","","","","","","",""
"","141.44999999552965","sequential-stimulus-presentation-old","87","294126","0.0-23.0-1.4","SS1618435641206","trial","","40","500","641.4499999955297","images/stimuli/spore_stims/complex_10_A_a.gif","images/stimuli/spore_stims/complex_02_A_b.gif","self_paced","","7","complex_dissimilar","images/stimuli/spore_stims/complex_02_A_b.gif","","","","",""
"","null","html-keyboard-response","88","295188","0.0-23.0-0.5","SS1618435641206","","","null","","","","","","<p><img src= images/blank.png width =""600"" height = ""600"" style=""position:fixed;top:50%; left:50%; transform: translate(-50%, -50%); border:5px solid black"">","","","","","","","",""
"","675.4399999044836","sequential-stimulus-presentation-old","89","296369","0.0-23.0-1.5","SS1618435641206","trial","","40","500","1175.4399999044836","images/stimuli/spore_stims/complex_10_A_a.gif","images/stimuli/spore_stims/complex_02_A_b.gif","self_paced","","7","complex_dissimilar","images/stimuli/spore_stims/complex_02_A_b.gif","","","","",""
"","3157.0999999530613","survey-multi-choice","90","299530","0.0-24.0","SS1618435641206","math_question","","","","","","","","","","","","{""Q0"":""11""}","[0]","11","",""
"","null","html-keyboard-response","91","300379","0.0-25.0-0.0","SS1618435641206","","","null","","","","","","<p><img src= images/blank.png width =""600"" height = ""600"" style=""position:fixed;top:50%; left:50%; transform: translate(-50%, -50%); border:5px solid black"">","","","","","","","",""
"","1873.20000003092","sequential-stimulus-presentation-old","92","302760","0.0-25.0-1.0","SS1618435641206","trial","","40","500","2373.20000003092","images/stimuli/spore_stims/simple_17_A_b.gif","images/stimuli/spore_stims/simple_06_A_a.gif","self_paced","","8","simple_dissimilar","images/stimuli/spore_stims/simple_06_A_a.gif","","","","",""
"","null","html-keyboard-response","93","303743","0.0-25.0-0.1","SS1618435641206","","","null","","","","","","<p><img src= images/blank.png width =""600"" height = ""600"" style=""position:fixed;top:50%; left:50%; transform: translate(-50%, -50%); border:5px solid black"">","","","","","","","",""
"","3366.440000012517","sequential-stimulus-presentation-old","94","307614","0.0-25.0-1.1","SS1618435641206","trial","","40","500","3866.440000012517","images/stimuli/spore_stims/simple_17_A_b.gif","images/stimuli/spore_stims/simple_06_A_a.gif","self_paced","","8","simple_dissimilar","images/stimuli/spore_stims/simple_06_A_a.gif","","","","",""
"","null","html-keyboard-response","95","308730","0.0-25.0-0.2","SS1618435641206","","","null","","","","","","<p><img src= images/blank.png width =""600"" height = ""600"" style=""position:fixed;top:50%; left:50%; transform: translate(-50%, -50%); border:5px solid black"">","","","","","","","",""
"","135.6099999975413","sequential-stimulus-presentation-old","96","309371","0.0-25.0-1.2","SS1618435641206","trial","","40","500","635.6099999975413","images/stimuli/spore_stims/simple_17_A_b.gif","images/stimuli/spore_stims/simple_06_A_a.gif","self_paced","","8","simple_dissimilar","images/stimuli/spore_stims/simple_17_A_b.gif","","","","",""
"","null","html-keyboard-response","97","310576","0.0-25.0-0.3","SS1618435641206","","","null","","","","","","<p><img src= images/blank.png width =""600"" height = ""600"" style=""position:fixed;top:50%; left:50%; transform: translate(-50%, -50%); border:5px solid black"">","","","","","","","",""
"","167.5950000062585","sequential-stimulus-presentation-old","98","311250","0.0-25.0-1.3","SS1618435641206","trial","","40","500","667.5950000062585","images/stimuli/spore_stims/simple_17_A_b.gif","images/stimuli/spore_stims/simple_06_A_a.gif","self_paced","","8","simple_dissimilar","images/stimuli/spore_stims/simple_17_A_b.gif","","","","",""
"","null","html-keyboard-response","99","312518","0.0-25.0-0.4","SS1618435641206","","","null","","","","","","<p><img src= images/blank.png width =""600"" height = ""600"" style=""position:fixed;top:50%; left:50%; transform: translate(-50%, -50%); border:5px solid black"">","","","","","","","",""
"","90.64999991096556","sequential-stimulus-presentation-old","100","313116","0.0-25.0-1.4","SS1618435641206","trial","","40","500","590.6499999109656","images/stimuli/spore_stims/simple_17_A_b.gif","images/stimuli/spore_stims/simple_06_A_a.gif","self_paced","","8","simple_dissimilar","images/stimuli/spore_stims/simple_06_A_a.gif","","","","",""
"","3977.6200000196695","survey-multi-choice","101","317097","0.0-26.0","SS1618435641206","math_question","","","","","","","","","","","","{""Q0"":""13""}","[0]","13","",""
"","null","html-keyboard-response","102","318350","0.0-27.0-0.0","SS1618435641206","","","null","","","","","","<p><img src= images/blank.png width =""600"" height = ""600"" style=""position:fixed;top:50%; left:50%; transform: translate(-50%, -50%); border:5px solid black"">","","","","","","","",""
"","1007.2800000198185","sequential-stimulus-presentation-old","103","324364","0.0-27.0-1.0","SS1618435641206","trial","","40","500","1507.2800000198185","images/stimuli/spore_stims/simple_09_A_b.gif","images/stimuli/spore_stims/simple_16_A_a.gif","forced_long","","9","simple_dissimilar","images/stimuli/spore_stims/simple_16_A_a.gif","","","","",""
"","null","html-keyboard-response","104","325498","0.0-27.0-0.1","SS1618435641206","","","null","","","","","","<p><img src= images/blank.png width =""600"" height = ""600"" style=""position:fixed;top:50%; left:50%; transform: translate(-50%, -50%); border:5px solid black"">","","","","","","","",""
"","184.1349999886006","sequential-stimulus-presentation-old","105","326189","0.0-27.0-1.1","SS1618435641206","trial","","40","500","684.1349999886006","images/stimuli/spore_stims/simple_09_A_b.gif","images/stimuli/spore_stims/simple_16_A_a.gif","forced_long","","9","simple_dissimilar","images/stimuli/spore_stims/simple_16_A_a.gif","","","","",""
"","null","html-keyboard-response","106","327360","0.0-27.0-0.2","SS1618435641206","","","null","","","","","","<p><img src= images/blank.png width =""600"" height = ""600"" style=""position:fixed;top:50%; left:50%; transform: translate(-50%, -50%); border:5px solid black"">","","","","","","","",""
"","280.21500003524125","sequential-stimulus-presentation-old","107","328145","0.0-27.0-1.2","SS1618435641206","trial","","40","500","780.2150000352412","images/stimuli/spore_stims/simple_09_A_b.gif","images/stimuli/spore_stims/simple_16_A_a.gif","forced_long","","9","simple_dissimilar","images/stimuli/spore_stims/simple_16_A_a.gif","","","","",""
"","null","html-keyboard-response","108","329062","0.0-27.0-0.3","SS1618435641206","","","null","","","","","","<p><img src= images/blank.png width =""600"" height = ""600"" style=""position:fixed;top:50%; left:50%; transform: translate(-50%, -50%); border:5px solid black"">","","","","","","","",""
"","160.27000010944903","sequential-stimulus-presentation-old","109","329729","0.0-27.0-1.3","SS1618435641206","trial","","40","500","660.270000109449","images/stimuli/spore_stims/simple_09_A_b.gif","images/stimuli/spore_stims/simple_16_A_a.gif","forced_long","","9","simple_dissimilar","images/stimuli/spore_stims/simple_16_A_a.gif","","","","",""
"","null","html-keyboard-response","110","330777","0.0-27.0-0.4","SS1618435641206","","","null","","","","","","<p><img src= images/blank.png width =""600"" height = ""600"" style=""position:fixed;top:50%; left:50%; transform: translate(-50%, -50%); border:5px solid black"">","","","","","","","",""
"","137.24999991245568","sequential-stimulus-presentation-old","111","331417","0.0-27.0-1.4","SS1618435641206","trial","","40","500","637.2499999124557","images/stimuli/spore_stims/simple_09_A_b.gif","images/stimuli/spore_stims/simple_16_A_a.gif","forced_long","","9","simple_dissimilar","images/stimuli/spore_stims/simple_16_A_a.gif","","","","",""
"","null","html-keyboard-response","112","332437","0.0-27.0-0.5","SS1618435641206","","","null","","","","","","<p><img src= images/blank.png width =""600"" height = ""600"" style=""position:fixed;top:50%; left:50%; transform: translate(-50%, -50%); border:5px solid black"">","","","","","","","",""
"","383.1549999304116","sequential-stimulus-presentation-old","113","333327","0.0-27.0-1.5","SS1618435641206","trial","","40","500","883.1549999304116","images/stimuli/spore_stims/simple_09_A_b.gif","images/stimuli/spore_stims/simple_16_A_a.gif","forced_long","","9","simple_dissimilar","images/stimuli/spore_stims/simple_09_A_b.gif","","","","",""
"","4647.364999866113","survey-multi-choice","114","337979","0.0-28.0","SS1618435641206","math_question","","","","","","","","","","","","{""Q0"":""15""}","[0]","15","",""
"","null","html-keyboard-response","115","339191","0.0-29.0-0.0","SS1618435641206","","","null","","","","","","<p><img src= images/blank.png width =""600"" height = ""600"" style=""position:fixed;top:50%; left:50%; transform: translate(-50%, -50%); border:5px solid black"">","","","","","","","",""
"","178.64499986171722","sequential-stimulus-presentation-old","116","339877","0.0-29.0-1.0","SS1618435641206","trial","","40","500","678.6449998617172","images/stimuli/spore_stims/complex_14_A_a.gif","images/stimuli/spore_stims/complex_10_A_b.gif","self_paced","","10","complex_dissimilar","images/stimuli/spore_stims/complex_10_A_b.gif","","","","",""
"","null","html-keyboard-response","117","341058","0.0-29.0-0.1","SS1618435641206","","","null","","","","","","<p><img src= images/blank.png width =""600"" height = ""600"" style=""position:fixed;top:50%; left:50%; transform: translate(-50%, -50%); border:5px solid black"">","","","","","","","",""
"","144.2199999000877","sequential-stimulus-presentation-old","118","341710","0.0-29.0-1.1","SS1618435641206","trial","","40","500","644.2199999000877","images/stimuli/spore_stims/complex_14_A_a.gif","images/stimuli/spore_stims/complex_10_A_b.gif","self_paced","","10","complex_dissimilar","images/stimuli/spore_stims/complex_10_A_b.gif","","","","",""
"","null","html-keyboard-response","119","342774","0.0-29.0-0.2","SS1618435641206","","","null","","","","","","<p><img src= images/blank.png width =""600"" height = ""600"" style=""position:fixed;top:50%; left:50%; transform: translate(-50%, -50%); border:5px solid black"">","","","","","","","",""
"","209.7249999642372","sequential-stimulus-presentation-old","120","343487","0.0-29.0-1.2","SS1618435641206","trial","","40","500","709.7249999642372","images/stimuli/spore_stims/complex_14_A_a.gif","images/stimuli/spore_stims/complex_10_A_b.gif","self_paced","","10","complex_dissimilar","images/stimuli/spore_stims/complex_10_A_b.gif","","","","",""
"","null","html-keyboard-response","121","344621","0.0-29.0-0.3","SS1618435641206","","","null","","","","","","<p><img src= images/blank.png width =""600"" height = ""600"" style=""position:fixed;top:50%; left:50%; transform: translate(-50%, -50%); border:5px solid black"">","","","","","","","",""
"","407.609999878332","sequential-stimulus-presentation-old","122","345536","0.0-29.0-1.3","SS1618435641206","trial","","40","500","907.609999878332","images/stimuli/spore_stims/complex_14_A_a.gif","images/stimuli/spore_stims/complex_10_A_b.gif","self_paced","","10","complex_dissimilar","images/stimuli/spore_stims/complex_10_A_b.gif","","","","",""
"","null","html-keyboard-response","123","346626","0.0-29.0-0.4","SS1618435641206","","","null","","","","","","<p><img src= images/blank.png width =""600"" height = ""600"" style=""position:fixed;top:50%; left:50%; transform: translate(-50%, -50%); border:5px solid black"">","","","","","","","",""
"","168.53999998420477","sequential-stimulus-presentation-old","124","347302","0.0-29.0-1.4","SS1618435641206","trial","","40","500","668.5399999842048","images/stimuli/spore_stims/complex_14_A_a.gif","images/stimuli/spore_stims/complex_10_A_b.gif","self_paced","","10","complex_dissimilar","images/stimuli/spore_stims/complex_10_A_b.gif","","","","",""
"","null","html-keyboard-response","125","348473","0.0-29.0-0.5","SS1618435641206","","","null","","","","","","<p><img src= images/blank.png width =""600"" height = ""600"" style=""position:fixed;top:50%; left:50%; transform: translate(-50%, -50%); border:5px solid black"">","","","","","","","",""
"","227.7599999215454","sequential-stimulus-presentation-old","126","349207","0.0-29.0-1.5","SS1618435641206","trial","","40","500","727.7599999215454","images/stimuli/spore_stims/complex_14_A_a.gif","images/stimuli/spore_stims/complex_10_A_b.gif","self_paced","","10","complex_dissimilar","images/stimuli/spore_stims/complex_10_A_b.gif","","","","",""
"","2394.289999967441","survey-multi-choice","127","351604","0.0-30.0","SS1618435641206","math_question","","","","","","","","","","","","{""Q0"":""5""}","[0]","5","",""
"","null","html-keyboard-response","128","352460","0.0-31.0-0.0","SS1618435641206","","","null","","","","","","<p><img src= images/blank.png width =""600"" height = ""600"" style=""position:fixed;top:50%; left:50%; transform: translate(-50%, -50%); border:5px solid black"">","","","","","","","",""
"","509.33499983511865","sequential-stimulus-presentation-old","129","357977","0.0-31.0-1.0","SS1618435641206","trial","","40","500","1009.3349998351187","images/stimuli/spore_stims/complex_19_A_a.gif","images/stimuli/spore_stims/complex_14_A_b.gif","forced_long","","11","complex_dissimilar","images/stimuli/spore_stims/complex_14_A_b.gif","","","","",""
"","null","html-keyboard-response","130","359123","0.0-31.0-0.1","SS1618435641206","","","null","","","","","","<p><img src= images/blank.png width =""600"" height = ""600"" style=""position:fixed;top:50%; left:50%; transform: translate(-50%, -50%); border:5px solid black"">","","","","","","","",""
"","818.8850001897663","sequential-stimulus-presentation-old","131","360446","0.0-31.0-1.1","SS1618435641206","trial","","40","500","1318.8850001897663","images/stimuli/spore_stims/complex_19_A_a.gif","images/stimuli/spore_stims/complex_14_A_b.gif","forced_long","","11","complex_dissimilar","images/stimuli/spore_stims/complex_14_A_b.gif","","","","",""
"","null","html-keyboard-response","132","361725","0.0-31.0-0.2","SS1618435641206","","","null","","","","","","<p><img src= images/blank.png width =""600"" height = ""600"" style=""position:fixed;top:50%; left:50%; transform: translate(-50%, -50%); border:5px solid black"">","","","","","","","",""
"","109.4699997920543","sequential-stimulus-presentation-old","133","362342","0.0-31.0-1.2","SS1618435641206","trial","","40","500","609.4699997920543","images/stimuli/spore_stims/complex_19_A_a.gif","images/stimuli/spore_stims/complex_14_A_b.gif","forced_long","","11","complex_dissimilar","images/stimuli/spore_stims/complex_19_A_a.gif","","","","",""
"","null","html-keyboard-response","134","363313","0.0-31.0-0.3","SS1618435641206","","","null","","","","","","<p><img src= images/blank.png width =""600"" height = ""600"" style=""position:fixed;top:50%; left:50%; transform: translate(-50%, -50%); border:5px solid black"">","","","","","","","",""
"","20.99000010639429","sequential-stimulus-presentation-old","135","363841","0.0-31.0-1.3","SS1618435641206","trial","","40","500","520.9900001063943","images/stimuli/spore_stims/complex_19_A_a.gif","images/stimuli/spore_stims/complex_14_A_b.gif","forced_long","","11","complex_dissimilar","images/stimuli/spore_stims/complex_14_A_b.gif","","","","",""
"","null","html-keyboard-response","136","365011","0.0-31.0-0.4","SS1618435641206","","","null","","","","","","<p><img src= images/blank.png width =""600"" height = ""600"" style=""position:fixed;top:50%; left:50%; transform: translate(-50%, -50%); border:5px solid black"">","","","","","","","",""
"","9980.940000154078","sequential-stimulus-presentation-old","137","375499","0.0-31.0-1.4","SS1618435641206","trial","","40","500","10480.940000154078","images/stimuli/spore_stims/complex_19_A_a.gif","images/stimuli/spore_stims/complex_14_A_b.gif","forced_long","","11","complex_dissimilar","images/stimuli/spore_stims/complex_19_A_a.gif","","","","",""
"[{""page_index"":0,""viewing_time"":10148.170000175014}]","10148.445000173524","instructions","138","385650","0.0-32.0","SS1618435641206","instructions","","","","","","","","","","","","","","","",""
"","5850.749999983236","survey-likert","139","391504","0.0-33.0","SS1618435641206","similarity_question","","","","","","","","","","","","{""Q0"":1}","[0]","","images/stimuli/spore_stims/complex_13_A_a.gif","images/stimuli/spore_stims/complex_01_A_b.gif"
"","2679.520000005141","survey-likert","140","394190","0.0-34.0","SS1618435641206","similarity_question","","","","","","","","","","","","{""Q0"":6}","[0]","","images/stimuli/spore_stims/simple_08_A_b.gif","images/stimuli/spore_stims/simple_19_A_a.gif"
"","4816.879999823868","survey-likert","141","399013","0.0-35.0","SS1618435641206","similarity_question","","","","","","","","","","","","{""Q0"":0}","[0]","","images/stimuli/spore_stims/complex_14_A_a.gif","images/stimuli/spore_stims/complex_10_A_b.gif"
"","2689.689999911934","survey-likert","142","401709","0.0-36.0","SS1618435641206","similarity_question","","","","","","","","","","","","{""Q0"":4}","[0]","","images/stimuli/spore_stims/simple_16_A_a.gif","images/stimuli/spore_stims/simple_09_A_b.gif"
"","2411.4800000097603","survey-likert","143","404128","0.0-37.0","SS1618435641206","similarity_question","","","","","","","","","","","","{""Q0"":4}","[0]","","images/stimuli/spore_stims/simple_07_A_a.gif","images/stimuli/spore_stims/simple_12_A_b.gif"
"","2675.4050001036376","survey-likert","144","406809","0.0-38.0","SS1618435641206","similarity_question","","","","","","","","","","","","{""Q0"":0}","[0]","","images/stimuli/spore_stims/complex_20_A_a.gif","images/stimuli/spore_stims/complex_16_A_b.gif"
"","2092.4800001084805","survey-likert","145","408909","0.0-39.0","SS1618435641206","similarity_question","","","","","","","","","","","","{""Q0"":2}","[0]","","images/stimuli/spore_stims/complex_03_A_b.gif","images/stimuli/spore_stims/complex_18_A_a.gif"
"","4173.269999912009","survey-likert","146","413088","0.0-40.0","SS1618435641206","similarity_question","","","","","","","","","","","","{""Q0"":4}","[0]","","images/stimuli/spore_stims/complex_19_A_a.gif","images/stimuli/spore_stims/complex_14_A_b.gif"
"","2471.2050000671297","survey-likert","147","415565","0.0-41.0","SS1618435641206","similarity_question","","","","","","","","","","","","{""Q0"":4}","[0]","","images/stimuli/spore_stims/simple_03_A_b.gif","images/stimuli/spore_stims/simple_04_A_a.gif"
"","2421.51500005275","survey-likert","148","417993","0.0-42.0","SS1618435641206","similarity_question","","","","","","","","","","","","{""Q0"":3}","[0]","","images/stimuli/spore_stims/complex_10_A_a.gif","images/stimuli/spore_stims/complex_02_A_b.gif"
"","2768.309999955818","survey-likert","149","420768","0.0-43.0","SS1618435641206","similarity_question","","","","","","","","","","","","{""Q0"":4}","[0]","","images/stimuli/spore_stims/simple_14_A_a.gif","images/stimuli/spore_stims/simple_05_A_b.gif"
"","1982.4950001202524","survey-likert","150","422757","0.0-44.0","SS1618435641206","similarity_question","","","","","","","","","","","","{""Q0"":4}","[0]","","images/stimuli/spore_stims/simple_17_A_b.gif","images/stimuli/spore_stims/simple_06_A_a.gif"
"[{""page_index"":0,""viewing_time"":5620.020000031218}]","5620.339999906719","instructions","151","428383","0.0-45.0","SS1618435641206","instructions","","","","","","","","","","","","","","","",""
"","4647.499999962747","survey-likert","152","433034","0.0-46.0","SS1618435641206","","","","","","","","","images/stimuli/spore_stims/complex_16_A_b.gif","","","","{""Q0"":2}","[0]","","",""
"","2781.5600000321865","survey-likert","153","435822","0.0-47.0","SS1618435641206","","","","","","","","","images/stimuli/spore_stims/simple_14_A_a.gif","","","","{""Q0"":6}","[0]","","",""
"","3525.7650001440197","survey-likert","154","439354","0.0-48.0","SS1618435641206","","","","","","","","","images/stimuli/spore_stims/simple_04_A_a.gif","","","","{""Q0"":4}","[0]","","",""
"","2024.3999999947846","survey-likert","155","441385","0.0-49.0","SS1618435641206","","","","","","","","","images/stimuli/spore_stims/complex_14_A_b.gif","","","","{""Q0"":3}","[0]","","",""
"","2222.109999973327","survey-likert","156","443613","0.0-50.0","SS1618435641206","","","","","","","","","images/stimuli/spore_stims/simple_17_A_b.gif","","","","{""Q0"":2}","[0]","","",""
"","1607.3249999899417","survey-likert","157","445227","0.0-51.0","SS1618435641206","","","","","","","","","images/stimuli/spore_stims/simple_07_A_a.gif","","","","{""Q0"":0}","[0]","","",""
"","2188.994999974966","survey-likert","158","447422","0.0-52.0","SS1618435641206","","","","","","","","","images/stimuli/spore_stims/simple_19_A_a.gif","","","","{""Q0"":1}","[0]","","",""
"","1898.6100000329316","survey-likert","159","449327","0.0-53.0","SS1618435641206","","","","","","","","","images/stimuli/spore_stims/complex_10_A_b.gif","","","","{""Q0"":3}","[0]","","",""
"","1142.035000026226","survey-likert","160","450476","0.0-54.0","SS1618435641206","","","","","","","","","images/stimuli/spore_stims/simple_16_A_a.gif","","","","{""Q0"":4}","[0]","","",""
"","4431.809999980032","survey-likert","161","454914","0.0-55.0","SS1618435641206","","","","","","","","","images/stimuli/spore_stims/complex_18_A_a.gif","","","","{""Q0"":6}","[0]","","",""
"","2611.34499986656","survey-likert","162","457532","0.0-56.0","SS1618435641206","","","","","","","","","images/stimuli/spore_stims/complex_10_A_a.gif","","","","{""Q0"":4}","[0]","","",""
"","2037.7499999012798","survey-likert","163","459576","0.0-57.0","SS1618435641206","","","","","","","","","images/stimuli/spore_stims/complex_13_A_a.gif","","","","{""Q0"":3}","[0]","","",""
"[{""page_index"":0,""viewing_time"":1855.8200001716614}]","1856.0750000178814","instructions","164","461438","0.0-58.0","SS1618435641206","instructions","","","","","","","","","","","","","","","",""
"","2142.079999903217","demog-age","165","463585","0.0-59.0","SS1618435641206","","","","","","","","","","","","","{""age"":""21""}","","","",""
"","12354.58999988623","demog-ethnic-US","166","475946","0.0-60.0","SS1618435641206","","","","","","","","","","","","","{""ethnicity"":[""White""]}","[0]","","",""
"","15401.674999855459","demog-gender-and-education","167","491355","0.0-61.0","SS1618435641206","","","","","","","","","","","","","{""gender"":""Male"",""education"":""Some high school""}","[0,1]","","",""
"","12893.064999952912","survey-text","168","504258","0.0-62.0","SS1618435641206","feedback","","","","","","","","","","","","{""Q0"":""Everything was great!""}","","","",""
"[{""page_index"":0,""viewing_time"":2287.6049999613315}]","2287.8449999261647","instructions","169","506548","0.0-63.0","SS1618435641206","instructions","","","","","","","","","","","","","","","",""
