"view_history","rt","trial_type","trial_index","time_elapsed","internal_node_id","subject","stimulus_type","trial_stimulus","key_press","minimum_viewing_duration","trial_looking_time","block_deviant","block_background","exposure_type","stimulus","block_number","block_type","stimulus_displayed","responses","question_order","math_correct_answer","stimulus_left","stimulus_right"
"[{""page_index"":0,""viewing_time"":5581.709999998566}]","5582.354999998643","instructions","0","5587","0.0-0.0","SS1618365019316","","","","","","","","","","","","","","","","",""
"[{""page_index"":0,""viewing_time"":5214.230000005045},{""page_index"":1,""viewing_time"":22880.154999998922}]","28094.660000002477","instructions","1","35698","0.0-1.0","SS1618365019316","instructions","","","","","","","","","","","","","","","",""
"","12305.260000000999","sequential-stimulus-presentation-old","2","48510","0.0-2.0","SS1618365019316","","","40","500","12805.260000000999","null","null","self_paced","","","","","","","","",""
"","15943.970000000263","sequential-stimulus-presentation-old","3","64972","0.0-3.0","SS1618365019316","","","40","500","16443.970000000263","null","null","self_paced","","","","","","","","",""
"[{""page_index"":0,""viewing_time"":28939.805000001797}]","28940.060000000813","instructions","4","93914","0.0-4.0","SS1618365019316","instructions","","","","","","","","","","","","","","","",""
"","7078.544999996666","sequential-stimulus-presentation-old","5","105996","0.0-5.0","SS1618365019316","","","40","500","7578.544999996666","null","null","forced_long","","","","","","","","",""
"","18061.52000000293","sequential-stimulus-presentation-old","6","124116","0.0-6.0","SS1618365019316","","","40","50","18111.52000000293","null","null","forced_long","","","","","","","","",""
"[{""page_index"":0,""viewing_time"":6451.624999994237}]","6451.854999999341","instructions","7","130571","0.0-7.0","SS1618365019316","instructions","","","","","","","","","","","","","","","",""
"[{""page_index"":0,""viewing_time"":20310.7600000003},{""page_index"":1,""viewing_time"":22232.255000002624},{""page_index"":2,""viewing_time"":23279.68499999406},{""page_index"":3,""viewing_time"":2023.9650000003166},{""page_index"":4,""viewing_time"":1720.0599999996484}]","69566.98499999766","instructions","8","200138","0.0-8.0","SS1618365019316","instructions","","","","","","","","","","","","","","","",""
"","null","html-keyboard-response","9","201201","0.0-9.0-0.0","SS1618365019316","","","null","","","","","","<p><img src= images/blank.png width =""600"" height = ""600"" style=""position:fixed;top:50%; left:50%; transform: translate(-50%, -50%); border:5px solid black"">","","","","","","","",""
"","6492.774999998801","sequential-stimulus-presentation-old","10","208204","0.0-9.0-1.0","SS1618365019316","trial","","40","500","6992.774999998801","images/stimuli/spore_stims/complex_07_A_b.gif","images/stimuli/spore_stims/complex_15_A_a.gif","self_paced","","0","complex_dissimilar","images/stimuli/spore_stims/complex_15_A_a.gif","","","","",""
"","null","html-keyboard-response","11","209031","0.0-9.0-0.1","SS1618365019316","","","null","","","","","","<p><img src= images/blank.png width =""600"" height = ""600"" style=""position:fixed;top:50%; left:50%; transform: translate(-50%, -50%); border:5px solid black"">","","","","","","","",""
"","4865.050000000338","sequential-stimulus-presentation-old","12","214410","0.0-9.0-1.1","SS1618365019316","trial","","40","500","5365.050000000338","images/stimuli/spore_stims/complex_07_A_b.gif","images/stimuli/spore_stims/complex_15_A_a.gif","self_paced","","0","complex_dissimilar","images/stimuli/spore_stims/complex_15_A_a.gif","","","","",""
"","null","html-keyboard-response","13","215417","0.0-9.0-0.2","SS1618365019316","","","null","","","","","","<p><img src= images/blank.png width =""600"" height = ""600"" style=""position:fixed;top:50%; left:50%; transform: translate(-50%, -50%); border:5px solid black"">","","","","","","","",""
"","7655.309999994643","sequential-stimulus-presentation-old","14","223580","0.0-9.0-1.2","SS1618365019316","trial","","40","500","8155.309999994643","images/stimuli/spore_stims/complex_07_A_b.gif","images/stimuli/spore_stims/complex_15_A_a.gif","self_paced","","0","complex_dissimilar","images/stimuli/spore_stims/complex_15_A_a.gif","","","","",""
"","null","html-keyboard-response","15","224427","0.0-9.0-0.3","SS1618365019316","","","null","","","","","","<p><img src= images/blank.png width =""600"" height = ""600"" style=""position:fixed;top:50%; left:50%; transform: translate(-50%, -50%); border:5px solid black"">","","","","","","","",""
"","5956.899999997404","sequential-stimulus-presentation-old","16","230892","0.0-9.0-1.3","SS1618365019316","trial","","40","500","6456.899999997404","images/stimuli/spore_stims/complex_07_A_b.gif","images/stimuli/spore_stims/complex_15_A_a.gif","self_paced","","0","complex_dissimilar","images/stimuli/spore_stims/complex_15_A_a.gif","","","","",""
"","null","html-keyboard-response","17","231987","0.0-9.0-0.4","SS1618365019316","","","null","","","","","","<p><img src= images/blank.png width =""600"" height = ""600"" style=""position:fixed;top:50%; left:50%; transform: translate(-50%, -50%); border:5px solid black"">","","","","","","","",""
"","8052.7450000008685","sequential-stimulus-presentation-old","18","240548","0.0-9.0-1.4","SS1618365019316","trial","","40","500","8552.745000000868","images/stimuli/spore_stims/complex_07_A_b.gif","images/stimuli/spore_stims/complex_15_A_a.gif","self_paced","","0","complex_dissimilar","images/stimuli/spore_stims/complex_07_A_b.gif","","","","",""
"","null","html-keyboard-response","19","241859","0.0-9.0-0.5","SS1618365019316","","","null","","","","","","<p><img src= images/blank.png width =""600"" height = ""600"" style=""position:fixed;top:50%; left:50%; transform: translate(-50%, -50%); border:5px solid black"">","","","","","","","",""
"","6913.529999997991","sequential-stimulus-presentation-old","20","249283","0.0-9.0-1.5","SS1618365019316","trial","","40","500","7413.529999997991","images/stimuli/spore_stims/complex_07_A_b.gif","images/stimuli/spore_stims/complex_15_A_a.gif","self_paced","","0","complex_dissimilar","images/stimuli/spore_stims/complex_07_A_b.gif","","","","",""
"","5352.0449999996345","survey-multi-choice","21","254643","0.0-10.0","SS1618365019316","math_question","","","","","","","","","","","","{""Q0"":""17""}","[0]","17","",""
"","null","html-keyboard-response","22","255761","0.0-11.0-0.0","SS1618365019316","","","null","","","","","","<p><img src= images/blank.png width =""600"" height = ""600"" style=""position:fixed;top:50%; left:50%; transform: translate(-50%, -50%); border:5px solid black"">","","","","","","","",""
"","5987.795000000915","sequential-stimulus-presentation-old","23","261803","0.0-11.0-1.0","SS1618365019316","trial","","40","500","6487.795000000915","images/stimuli/spore_stims/simple_19_A_a.gif","images/stimuli/spore_stims/simple_20_A_b.gif","forced_short","","1","simple_dissimilar","images/stimuli/spore_stims/simple_20_A_b.gif","","","","",""
"","null","html-keyboard-response","24","262795","0.0-11.0-0.1","SS1618365019316","","","null","","","","","","<p><img src= images/blank.png width =""600"" height = ""600"" style=""position:fixed;top:50%; left:50%; transform: translate(-50%, -50%); border:5px solid black"">","","","","","","","",""
"","5453.784999997879","sequential-stimulus-presentation-old","25","268757","0.0-11.0-1.1","SS1618365019316","trial","","40","500","5953.784999997879","images/stimuli/spore_stims/simple_19_A_a.gif","images/stimuli/spore_stims/simple_20_A_b.gif","forced_short","","1","simple_dissimilar","images/stimuli/spore_stims/simple_20_A_b.gif","","","","",""
"","null","html-keyboard-response","26","269794","0.0-11.0-0.2","SS1618365019316","","","null","","","","","","<p><img src= images/blank.png width =""600"" height = ""600"" style=""position:fixed;top:50%; left:50%; transform: translate(-50%, -50%); border:5px solid black"">","","","","","","","",""
"","2325.6450000044424","sequential-stimulus-presentation-old","27","272627","0.0-11.0-1.2","SS1618365019316","trial","","40","500","2825.6450000044424","images/stimuli/spore_stims/simple_19_A_a.gif","images/stimuli/spore_stims/simple_20_A_b.gif","forced_short","","1","simple_dissimilar","images/stimuli/spore_stims/simple_20_A_b.gif","","","","",""
"","null","html-keyboard-response","28","273608","0.0-11.0-0.3","SS1618365019316","","","null","","","","","","<p><img src= images/blank.png width =""600"" height = ""600"" style=""position:fixed;top:50%; left:50%; transform: translate(-50%, -50%); border:5px solid black"">","","","","","","","",""
"","2806.4349999986007","sequential-stimulus-presentation-old","29","276923","0.0-11.0-1.3","SS1618365019316","trial","","40","500","3306.4349999986007","images/stimuli/spore_stims/simple_19_A_a.gif","images/stimuli/spore_stims/simple_20_A_b.gif","forced_short","","1","simple_dissimilar","images/stimuli/spore_stims/simple_20_A_b.gif","","","","",""
"","null","html-keyboard-response","30","278120","0.0-11.0-0.4","SS1618365019316","","","null","","","","","","<p><img src= images/blank.png width =""600"" height = ""600"" style=""position:fixed;top:50%; left:50%; transform: translate(-50%, -50%); border:5px solid black"">","","","","","","","",""
"","3989.285000003292","sequential-stimulus-presentation-old","31","282636","0.0-11.0-1.4","SS1618365019316","trial","","40","500","4489.285000003292","images/stimuli/spore_stims/simple_19_A_a.gif","images/stimuli/spore_stims/simple_20_A_b.gif","forced_short","","1","simple_dissimilar","images/stimuli/spore_stims/simple_20_A_b.gif","","","","",""
"","null","html-keyboard-response","32","283913","0.0-11.0-0.5","SS1618365019316","","","null","","","","","","<p><img src= images/blank.png width =""600"" height = ""600"" style=""position:fixed;top:50%; left:50%; transform: translate(-50%, -50%); border:5px solid black"">","","","","","","","",""
"","4398.094999996829","sequential-stimulus-presentation-old","33","288819","0.0-11.0-1.5","SS1618365019316","trial","","40","500","4898.094999996829","images/stimuli/spore_stims/simple_19_A_a.gif","images/stimuli/spore_stims/simple_20_A_b.gif","forced_short","","1","simple_dissimilar","images/stimuli/spore_stims/simple_19_A_a.gif","","","","",""
"","3090.535000003001","survey-multi-choice","34","291914","0.0-12.0","SS1618365019316","math_question","","","","","","","","","","","","{""Q0"":""10""}","[0]","10","",""
"","null","html-keyboard-response","35","292731","0.0-13.0-0.0","SS1618365019316","","","null","","","","","","<p><img src= images/blank.png width =""600"" height = ""600"" style=""position:fixed;top:50%; left:50%; transform: translate(-50%, -50%); border:5px solid black"">","","","","","","","",""
"","1852.8200000000652","sequential-stimulus-presentation-old","36","294644","0.0-13.0-1.0","SS1618365019316","trial","","40","500","2352.820000000065","images/stimuli/spore_stims/complex_11_A_b.gif","images/stimuli/spore_stims/complex_06_A_a.gif","forced_short","","2","complex_dissimilar","images/stimuli/spore_stims/complex_06_A_a.gif","","","","",""
"","null","html-keyboard-response","37","295916","0.0-13.0-0.1","SS1618365019316","","","null","","","","","","<p><img src= images/blank.png width =""600"" height = ""600"" style=""position:fixed;top:50%; left:50%; transform: translate(-50%, -50%); border:5px solid black"">","","","","","","","",""
"","3779.6850000013364","sequential-stimulus-presentation-old","38","300204","0.0-13.0-1.1","SS1618365019316","trial","","40","500","4279.685000001336","images/stimuli/spore_stims/complex_11_A_b.gif","images/stimuli/spore_stims/complex_06_A_a.gif","forced_short","","2","complex_dissimilar","images/stimuli/spore_stims/complex_06_A_a.gif","","","","",""
"","null","html-keyboard-response","39","301062","0.0-13.0-0.2","SS1618365019316","","","null","","","","","","<p><img src= images/blank.png width =""600"" height = ""600"" style=""position:fixed;top:50%; left:50%; transform: translate(-50%, -50%); border:5px solid black"">","","","","","","","",""
"","3016.045000003942","sequential-stimulus-presentation-old","40","304588","0.0-13.0-1.2","SS1618365019316","trial","","40","500","3516.045000003942","images/stimuli/spore_stims/complex_11_A_b.gif","images/stimuli/spore_stims/complex_06_A_a.gif","forced_short","","2","complex_dissimilar","images/stimuli/spore_stims/complex_06_A_a.gif","","","","",""
"","null","html-keyboard-response","41","305518","0.0-13.0-0.3","SS1618365019316","","","null","","","","","","<p><img src= images/blank.png width =""600"" height = ""600"" style=""position:fixed;top:50%; left:50%; transform: translate(-50%, -50%); border:5px solid black"">","","","","","","","",""
"","4273.059999999532","sequential-stimulus-presentation-old","42","310300","0.0-13.0-1.3","SS1618365019316","trial","","40","500","4773.059999999532","images/stimuli/spore_stims/complex_11_A_b.gif","images/stimuli/spore_stims/complex_06_A_a.gif","forced_short","","2","complex_dissimilar","images/stimuli/spore_stims/complex_06_A_a.gif","","","","",""
"","null","html-keyboard-response","43","311218","0.0-13.0-0.4","SS1618365019316","","","null","","","","","","<p><img src= images/blank.png width =""600"" height = ""600"" style=""position:fixed;top:50%; left:50%; transform: translate(-50%, -50%); border:5px solid black"">","","","","","","","",""
"","3840.455000005022","sequential-stimulus-presentation-old","44","315572","0.0-13.0-1.4","SS1618365019316","trial","","40","500","4340.455000005022","images/stimuli/spore_stims/complex_11_A_b.gif","images/stimuli/spore_stims/complex_06_A_a.gif","forced_short","","2","complex_dissimilar","images/stimuli/spore_stims/complex_06_A_a.gif","","","","",""
"","4722.264999996696","survey-multi-choice","45","320298","0.0-14.0","SS1618365019316","math_question","","","","","","","","","","","","{""Q0"":""10""}","[0]","10","",""
"","null","html-keyboard-response","46","321297","0.0-15.0-0.0","SS1618365019316","","","null","","","","","","<p><img src= images/blank.png width =""600"" height = ""600"" style=""position:fixed;top:50%; left:50%; transform: translate(-50%, -50%); border:5px solid black"">","","","","","","","",""
"","6214.76999999868","sequential-stimulus-presentation-old","47","332524","0.0-15.0-1.0","SS1618365019316","trial","","40","500","6714.76999999868","images/stimuli/spore_stims/simple_12_A_a.gif","images/stimuli/spore_stims/simple_08_A_b.gif","forced_long","","3","simple_dissimilar","images/stimuli/spore_stims/simple_08_A_b.gif","","","","",""
"","null","html-keyboard-response","48","333808","0.0-15.0-0.1","SS1618365019316","","","null","","","","","","<p><img src= images/blank.png width =""600"" height = ""600"" style=""position:fixed;top:50%; left:50%; transform: translate(-50%, -50%); border:5px solid black"">","","","","","","","",""
"","1733.3849999995437","sequential-stimulus-presentation-old","49","336052","0.0-15.0-1.1","SS1618365019316","trial","","40","500","2233.3849999995437","images/stimuli/spore_stims/simple_12_A_a.gif","images/stimuli/spore_stims/simple_08_A_b.gif","forced_long","","3","simple_dissimilar","images/stimuli/spore_stims/simple_08_A_b.gif","","","","",""
"","null","html-keyboard-response","50","337125","0.0-15.0-0.2","SS1618365019316","","","null","","","","","","<p><img src= images/blank.png width =""600"" height = ""600"" style=""position:fixed;top:50%; left:50%; transform: translate(-50%, -50%); border:5px solid black"">","","","","","","","",""
"","1307.2350000002189","sequential-stimulus-presentation-old","51","338939","0.0-15.0-1.2","SS1618365019316","trial","","40","500","1807.2350000002189","images/stimuli/spore_stims/simple_12_A_a.gif","images/stimuli/spore_stims/simple_08_A_b.gif","forced_long","","3","simple_dissimilar","images/stimuli/spore_stims/simple_08_A_b.gif","","","","",""
"","null","html-keyboard-response","52","339957","0.0-15.0-0.3","SS1618365019316","","","null","","","","","","<p><img src= images/blank.png width =""600"" height = ""600"" style=""position:fixed;top:50%; left:50%; transform: translate(-50%, -50%); border:5px solid black"">","","","","","","","",""
"","1067.4500000022817","sequential-stimulus-presentation-old","53","341532","0.0-15.0-1.3","SS1618365019316","trial","","40","500","1567.4500000022817","images/stimuli/spore_stims/simple_12_A_a.gif","images/stimuli/spore_stims/simple_08_A_b.gif","forced_long","","3","simple_dissimilar","images/stimuli/spore_stims/simple_08_A_b.gif","","","","",""
"","null","html-keyboard-response","54","342378","0.0-15.0-0.4","SS1618365019316","","","null","","","","","","<p><img src= images/blank.png width =""600"" height = ""600"" style=""position:fixed;top:50%; left:50%; transform: translate(-50%, -50%); border:5px solid black"">","","","","","","","",""
"","1934.4049999999697","sequential-stimulus-presentation-old","55","344819","0.0-15.0-1.4","SS1618365019316","trial","","40","500","2434.4049999999697","images/stimuli/spore_stims/simple_12_A_a.gif","images/stimuli/spore_stims/simple_08_A_b.gif","forced_long","","3","simple_dissimilar","images/stimuli/spore_stims/simple_08_A_b.gif","","","","",""
"","null","html-keyboard-response","56","345698","0.0-15.0-0.5","SS1618365019316","","","null","","","","","","<p><img src= images/blank.png width =""600"" height = ""600"" style=""position:fixed;top:50%; left:50%; transform: translate(-50%, -50%); border:5px solid black"">","","","","","","","",""
"","1853.6149999999907","sequential-stimulus-presentation-old","57","348059","0.0-15.0-1.5","SS1618365019316","trial","","40","500","2353.6149999999907","images/stimuli/spore_stims/simple_12_A_a.gif","images/stimuli/spore_stims/simple_08_A_b.gif","forced_long","","3","simple_dissimilar","images/stimuli/spore_stims/simple_12_A_a.gif","","","","",""
"","3338.450000002922","survey-multi-choice","58","351402","0.0-16.0","SS1618365019316","math_question","","","","","","","","","","","","{""Q0"":""10""}","[0]","10","",""
"","null","html-keyboard-response","59","352574","0.0-17.0-0.0","SS1618365019316","","","null","","","","","","<p><img src= images/blank.png width =""600"" height = ""600"" style=""position:fixed;top:50%; left:50%; transform: translate(-50%, -50%); border:5px solid black"">","","","","","","","",""
"","821.2050000001909","sequential-stimulus-presentation-old","60","358404","0.0-17.0-1.0","SS1618365019316","trial","","40","500","1321.205000000191","images/stimuli/spore_stims/complex_16_A_a.gif","images/stimuli/spore_stims/complex_14_A_b.gif","forced_long","","4","complex_dissimilar","images/stimuli/spore_stims/complex_14_A_b.gif","","","","",""
"","null","html-keyboard-response","61","359267","0.0-17.0-0.1","SS1618365019316","","","null","","","","","","<p><img src= images/blank.png width =""600"" height = ""600"" style=""position:fixed;top:50%; left:50%; transform: translate(-50%, -50%); border:5px solid black"">","","","","","","","",""
"","3570.784999996249","sequential-stimulus-presentation-old","62","363348","0.0-17.0-1.1","SS1618365019316","trial","","40","500","4070.784999996249","images/stimuli/spore_stims/complex_16_A_a.gif","images/stimuli/spore_stims/complex_14_A_b.gif","forced_long","","4","complex_dissimilar","images/stimuli/spore_stims/complex_14_A_b.gif","","","","",""
"","null","html-keyboard-response","63","364335","0.0-17.0-0.2","SS1618365019316","","","null","","","","","","<p><img src= images/blank.png width =""600"" height = ""600"" style=""position:fixed;top:50%; left:50%; transform: translate(-50%, -50%); border:5px solid black"">","","","","","","","",""
"","4816.8600000062725","sequential-stimulus-presentation-old","64","369660","0.0-17.0-1.2","SS1618365019316","trial","","40","500","5316.8600000062725","images/stimuli/spore_stims/complex_16_A_a.gif","images/stimuli/spore_stims/complex_14_A_b.gif","forced_long","","4","complex_dissimilar","images/stimuli/spore_stims/complex_16_A_a.gif","","","","",""
"","null","html-keyboard-response","65","370649","0.0-17.0-0.3","SS1618365019316","","","null","","","","","","<p><img src= images/blank.png width =""600"" height = ""600"" style=""position:fixed;top:50%; left:50%; transform: translate(-50%, -50%); border:5px solid black"">","","","","","","","",""
"","2708.3399999974063","sequential-stimulus-presentation-old","66","373868","0.0-17.0-1.3","SS1618365019316","trial","","40","500","3208.3399999974063","images/stimuli/spore_stims/complex_16_A_a.gif","images/stimuli/spore_stims/complex_14_A_b.gif","forced_long","","4","complex_dissimilar","images/stimuli/spore_stims/complex_14_A_b.gif","","","","",""
"","4889.5899999988615","survey-multi-choice","67","378763","0.0-18.0","SS1618365019316","math_question","","","","","","","","","","","","{""Q0"":""12""}","[0]","12","",""
"","null","html-keyboard-response","68","379669","0.0-19.0-0.0","SS1618365019316","","","null","","","","","","<p><img src= images/blank.png width =""600"" height = ""600"" style=""position:fixed;top:50%; left:50%; transform: translate(-50%, -50%); border:5px solid black"">","","","","","","","",""
"","1653.0950000014855","sequential-stimulus-presentation-old","69","381836","0.0-19.0-1.0","SS1618365019316","trial","","40","500","2153.0950000014855","images/stimuli/spore_stims/complex_18_A_a.gif","images/stimuli/spore_stims/complex_17_A_b.gif","self_paced","","5","complex_dissimilar","images/stimuli/spore_stims/complex_17_A_b.gif","","","","",""
"","null","html-keyboard-response","70","383048","0.0-19.0-0.1","SS1618365019316","","","null","","","","","","<p><img src= images/blank.png width =""600"" height = ""600"" style=""position:fixed;top:50%; left:50%; transform: translate(-50%, -50%); border:5px solid black"">","","","","","","","",""
"","1583.5149999984424","sequential-stimulus-presentation-old","71","385140","0.0-19.0-1.1","SS1618365019316","trial","","40","500","2083.5149999984424","images/stimuli/spore_stims/complex_18_A_a.gif","images/stimuli/spore_stims/complex_17_A_b.gif","self_paced","","5","complex_dissimilar","images/stimuli/spore_stims/complex_17_A_b.gif","","","","",""
"","null","html-keyboard-response","72","386040","0.0-19.0-0.2","SS1618365019316","","","null","","","","","","<p><img src= images/blank.png width =""600"" height = ""600"" style=""position:fixed;top:50%; left:50%; transform: translate(-50%, -50%); border:5px solid black"">","","","","","","","",""
"","2527.040000000852","sequential-stimulus-presentation-old","73","389076","0.0-19.0-1.2","SS1618365019316","trial","","40","500","3027.040000000852","images/stimuli/spore_stims/complex_18_A_a.gif","images/stimuli/spore_stims/complex_17_A_b.gif","self_paced","","5","complex_dissimilar","images/stimuli/spore_stims/complex_17_A_b.gif","","","","",""
"","null","html-keyboard-response","74","389914","0.0-19.0-0.3","SS1618365019316","","","null","","","","","","<p><img src= images/blank.png width =""600"" height = ""600"" style=""position:fixed;top:50%; left:50%; transform: translate(-50%, -50%); border:5px solid black"">","","","","","","","",""
"","1828.0999999988126","sequential-stimulus-presentation-old","75","392252","0.0-19.0-1.3","SS1618365019316","trial","","40","500","2328.0999999988126","images/stimuli/spore_stims/complex_18_A_a.gif","images/stimuli/spore_stims/complex_17_A_b.gif","self_paced","","5","complex_dissimilar","images/stimuli/spore_stims/complex_18_A_a.gif","","","","",""
"","3112.685000000056","survey-multi-choice","76","395370","0.0-20.0","SS1618365019316","math_question","","","","","","","","","","","","{""Q0"":""8""}","[0]","8","",""
"","null","html-keyboard-response","77","396550","0.0-21.0-0.0","SS1618365019316","","","null","","","","","","<p><img src= images/blank.png width =""600"" height = ""600"" style=""position:fixed;top:50%; left:50%; transform: translate(-50%, -50%); border:5px solid black"">","","","","","","","",""
"","1829.0300000007846","sequential-stimulus-presentation-old","78","403388","0.0-21.0-1.0","SS1618365019316","trial","","40","500","2329.0300000007846","images/stimuli/spore_stims/complex_07_A_a.gif","images/stimuli/spore_stims/complex_09_A_b.gif","forced_long","","6","complex_dissimilar","images/stimuli/spore_stims/complex_09_A_b.gif","","","","",""
"","null","html-keyboard-response","79","404542","0.0-21.0-0.1","SS1618365019316","","","null","","","","","","<p><img src= images/blank.png width =""600"" height = ""600"" style=""position:fixed;top:50%; left:50%; transform: translate(-50%, -50%); border:5px solid black"">","","","","","","","",""
"","3479.1499999992084","sequential-stimulus-presentation-old","80","408532","0.0-21.0-1.1","SS1618365019316","trial","","40","500","3979.1499999992084","images/stimuli/spore_stims/complex_07_A_a.gif","images/stimuli/spore_stims/complex_09_A_b.gif","forced_long","","6","complex_dissimilar","images/stimuli/spore_stims/complex_09_A_b.gif","","","","",""
"","null","html-keyboard-response","81","409399","0.0-21.0-0.2","SS1618365019316","","","null","","","","","","<p><img src= images/blank.png width =""600"" height = ""600"" style=""position:fixed;top:50%; left:50%; transform: translate(-50%, -50%); border:5px solid black"">","","","","","","","",""
"","1567.4599999983911","sequential-stimulus-presentation-old","82","411475","0.0-21.0-1.2","SS1618365019316","trial","","40","500","2067.459999998391","images/stimuli/spore_stims/complex_07_A_a.gif","images/stimuli/spore_stims/complex_09_A_b.gif","forced_long","","6","complex_dissimilar","images/stimuli/spore_stims/complex_09_A_b.gif","","","","",""
"","null","html-keyboard-response","83","412681","0.0-21.0-0.3","SS1618365019316","","","null","","","","","","<p><img src= images/blank.png width =""600"" height = ""600"" style=""position:fixed;top:50%; left:50%; transform: translate(-50%, -50%); border:5px solid black"">","","","","","","","",""
"","2142.859999999928","sequential-stimulus-presentation-old","84","415332","0.0-21.0-1.3","SS1618365019316","trial","","40","500","2642.859999999928","images/stimuli/spore_stims/complex_07_A_a.gif","images/stimuli/spore_stims/complex_09_A_b.gif","forced_long","","6","complex_dissimilar","images/stimuli/spore_stims/complex_09_A_b.gif","","","","",""
"","4080.1749999955064","survey-multi-choice","85","419419","0.0-22.0","SS1618365019316","math_question","","","","","","","","","","","","{""Q0"":""8""}","[0]","8","",""
"","null","html-keyboard-response","86","420435","0.0-23.0-0.0","SS1618365019316","","","null","","","","","","<p><img src= images/blank.png width =""600"" height = ""600"" style=""position:fixed;top:50%; left:50%; transform: translate(-50%, -50%); border:5px solid black"">","","","","","","","",""
"","1110.4750000013155","sequential-stimulus-presentation-old","87","426564","0.0-23.0-1.0","SS1618365019316","trial","","40","500","1610.4750000013155","images/stimuli/spore_stims/simple_04_A_b.gif","images/stimuli/spore_stims/simple_01_A_a.gif","forced_long","","7","simple_dissimilar","images/stimuli/spore_stims/simple_01_A_a.gif","","","","",""
"","null","html-keyboard-response","88","427649","0.0-23.0-0.1","SS1618365019316","","","null","","","","","","<p><img src= images/blank.png width =""600"" height = ""600"" style=""position:fixed;top:50%; left:50%; transform: translate(-50%, -50%); border:5px solid black"">","","","","","","","",""
"","2767.554999998538","sequential-stimulus-presentation-old","89","430923","0.0-23.0-1.1","SS1618365019316","trial","","40","500","3267.554999998538","images/stimuli/spore_stims/simple_04_A_b.gif","images/stimuli/spore_stims/simple_01_A_a.gif","forced_long","","7","simple_dissimilar","images/stimuli/spore_stims/simple_01_A_a.gif","","","","",""
"","null","html-keyboard-response","90","431906","0.0-23.0-0.2","SS1618365019316","","","null","","","","","","<p><img src= images/blank.png width =""600"" height = ""600"" style=""position:fixed;top:50%; left:50%; transform: translate(-50%, -50%); border:5px solid black"">","","","","","","","",""
"","2147.9249999974854","sequential-stimulus-presentation-old","91","434563","0.0-23.0-1.2","SS1618365019316","trial","","40","500","2647.9249999974854","images/stimuli/spore_stims/simple_04_A_b.gif","images/stimuli/spore_stims/simple_01_A_a.gif","forced_long","","7","simple_dissimilar","images/stimuli/spore_stims/simple_01_A_a.gif","","","","",""
"","null","html-keyboard-response","92","435508","0.0-23.0-0.3","SS1618365019316","","","null","","","","","","<p><img src= images/blank.png width =""600"" height = ""600"" style=""position:fixed;top:50%; left:50%; transform: translate(-50%, -50%); border:5px solid black"">","","","","","","","",""
"","6410.19999999844","sequential-stimulus-presentation-old","93","442428","0.0-23.0-1.3","SS1618365019316","trial","","40","500","6910.19999999844","images/stimuli/spore_stims/simple_04_A_b.gif","images/stimuli/spore_stims/simple_01_A_a.gif","forced_long","","7","simple_dissimilar","images/stimuli/spore_stims/simple_01_A_a.gif","","","","",""
"","null","html-keyboard-response","94","443410","0.0-23.0-0.4","SS1618365019316","","","null","","","","","","<p><img src= images/blank.png width =""600"" height = ""600"" style=""position:fixed;top:50%; left:50%; transform: translate(-50%, -50%); border:5px solid black"">","","","","","","","",""
"","4779.27500000078","sequential-stimulus-presentation-old","95","448699","0.0-23.0-1.4","SS1618365019316","trial","","40","500","5279.27500000078","images/stimuli/spore_stims/simple_04_A_b.gif","images/stimuli/spore_stims/simple_01_A_a.gif","forced_long","","7","simple_dissimilar","images/stimuli/spore_stims/simple_01_A_a.gif","","","","",""
"","3361.080000002403","survey-multi-choice","96","452066","0.0-24.0","SS1618365019316","math_question","","","","","","","","","","","","{""Q0"":""6""}","[0]","6","",""
"","null","html-keyboard-response","97","452926","0.0-25.0-0.0","SS1618365019316","","","null","","","","","","<p><img src= images/blank.png width =""600"" height = ""600"" style=""position:fixed;top:50%; left:50%; transform: translate(-50%, -50%); border:5px solid black"">","","","","","","","",""
"","1330.1100000026054","sequential-stimulus-presentation-old","98","454316","0.0-25.0-1.0","SS1618365019316","trial","","40","500","1830.1100000026054","images/stimuli/spore_stims/simple_15_A_a.gif","images/stimuli/spore_stims/simple_10_A_b.gif","forced_short","","8","simple_dissimilar","images/stimuli/spore_stims/simple_10_A_b.gif","","","","",""
"","null","html-keyboard-response","99","455364","0.0-25.0-0.1","SS1618365019316","","","null","","","","","","<p><img src= images/blank.png width =""600"" height = ""600"" style=""position:fixed;top:50%; left:50%; transform: translate(-50%, -50%); border:5px solid black"">","","","","","","","",""
"","1329.9149999947986","sequential-stimulus-presentation-old","100","457203","0.0-25.0-1.1","SS1618365019316","trial","","40","500","1829.9149999947986","images/stimuli/spore_stims/simple_15_A_a.gif","images/stimuli/spore_stims/simple_10_A_b.gif","forced_short","","8","simple_dissimilar","images/stimuli/spore_stims/simple_15_A_a.gif","","","","",""
"","null","html-keyboard-response","101","458193","0.0-25.0-0.2","SS1618365019316","","","null","","","","","","<p><img src= images/blank.png width =""600"" height = ""600"" style=""position:fixed;top:50%; left:50%; transform: translate(-50%, -50%); border:5px solid black"">","","","","","","","",""
"","2171.940000000177","sequential-stimulus-presentation-old","102","460875","0.0-25.0-1.2","SS1618365019316","trial","","40","500","2671.940000000177","images/stimuli/spore_stims/simple_15_A_a.gif","images/stimuli/spore_stims/simple_10_A_b.gif","forced_short","","8","simple_dissimilar","images/stimuli/spore_stims/simple_10_A_b.gif","","","","",""
"","null","html-keyboard-response","103","461886","0.0-25.0-0.3","SS1618365019316","","","null","","","","","","<p><img src= images/blank.png width =""600"" height = ""600"" style=""position:fixed;top:50%; left:50%; transform: translate(-50%, -50%); border:5px solid black"">","","","","","","","",""
"","1603.2800000029965","sequential-stimulus-presentation-old","104","464003","0.0-25.0-1.3","SS1618365019316","trial","","40","500","2103.2800000029965","images/stimuli/spore_stims/simple_15_A_a.gif","images/stimuli/spore_stims/simple_10_A_b.gif","forced_short","","8","simple_dissimilar","images/stimuli/spore_stims/simple_10_A_b.gif","","","","",""
"","null","html-keyboard-response","105","464915","0.0-25.0-0.4","SS1618365019316","","","null","","","","","","<p><img src= images/blank.png width =""600"" height = ""600"" style=""position:fixed;top:50%; left:50%; transform: translate(-50%, -50%); border:5px solid black"">","","","","","","","",""
"","542.634999997972","sequential-stimulus-presentation-old","106","465972","0.0-25.0-1.4","SS1618365019316","trial","","40","500","1042.634999997972","images/stimuli/spore_stims/simple_15_A_a.gif","images/stimuli/spore_stims/simple_10_A_b.gif","forced_short","","8","simple_dissimilar","images/stimuli/spore_stims/simple_10_A_b.gif","","","","",""
"","null","html-keyboard-response","107","467277","0.0-25.0-0.5","SS1618365019316","","","null","","","","","","<p><img src= images/blank.png width =""600"" height = ""600"" style=""position:fixed;top:50%; left:50%; transform: translate(-50%, -50%); border:5px solid black"">","","","","","","","",""
"","224.23500000149943","sequential-stimulus-presentation-old","108","468010","0.0-25.0-1.5","SS1618365019316","trial","","40","500","724.2350000014994","images/stimuli/spore_stims/simple_15_A_a.gif","images/stimuli/spore_stims/simple_10_A_b.gif","forced_short","","8","simple_dissimilar","images/stimuli/spore_stims/simple_10_A_b.gif","","","","",""
"","7670.255000004545","survey-multi-choice","109","475682","0.0-26.0","SS1618365019316","math_question","","","","","","","","","","","","{""Q0"":""16""}","[0]","16","",""
"","null","html-keyboard-response","110","476530","0.0-27.0-0.0","SS1618365019316","","","null","","","","","","<p><img src= images/blank.png width =""600"" height = ""600"" style=""position:fixed;top:50%; left:50%; transform: translate(-50%, -50%); border:5px solid black"">","","","","","","","",""
"","1603.4549999967567","sequential-stimulus-presentation-old","111","478196","0.0-27.0-1.0","SS1618365019316","trial","","40","500","2103.4549999967567","images/stimuli/spore_stims/complex_14_A_a.gif","images/stimuli/spore_stims/complex_19_A_b.gif","forced_short","","9","complex_dissimilar","images/stimuli/spore_stims/complex_19_A_b.gif","","","","",""
"","null","html-keyboard-response","112","479484","0.0-27.0-0.1","SS1618365019316","","","null","","","","","","<p><img src= images/blank.png width =""600"" height = ""600"" style=""position:fixed;top:50%; left:50%; transform: translate(-50%, -50%); border:5px solid black"">","","","","","","","",""
"","2190.3000000020256","sequential-stimulus-presentation-old","113","482187","0.0-27.0-1.1","SS1618365019316","trial","","40","500","2690.3000000020256","images/stimuli/spore_stims/complex_14_A_a.gif","images/stimuli/spore_stims/complex_19_A_b.gif","forced_short","","9","complex_dissimilar","images/stimuli/spore_stims/complex_19_A_b.gif","","","","",""
"","null","html-keyboard-response","114","483249","0.0-27.0-0.2","SS1618365019316","","","null","","","","","","<p><img src= images/blank.png width =""600"" height = ""600"" style=""position:fixed;top:50%; left:50%; transform: translate(-50%, -50%); border:5px solid black"">","","","","","","","",""
"","1514.6050000039395","sequential-stimulus-presentation-old","115","485275","0.0-27.0-1.2","SS1618365019316","trial","","40","500","2014.6050000039395","images/stimuli/spore_stims/complex_14_A_a.gif","images/stimuli/spore_stims/complex_19_A_b.gif","forced_short","","9","complex_dissimilar","images/stimuli/spore_stims/complex_19_A_b.gif","","","","",""
"","null","html-keyboard-response","116","486474","0.0-27.0-0.3","SS1618365019316","","","null","","","","","","<p><img src= images/blank.png width =""600"" height = ""600"" style=""position:fixed;top:50%; left:50%; transform: translate(-50%, -50%); border:5px solid black"">","","","","","","","",""
"","1787.7399999997579","sequential-stimulus-presentation-old","117","488772","0.0-27.0-1.3","SS1618365019316","trial","","40","500","2287.739999999758","images/stimuli/spore_stims/complex_14_A_a.gif","images/stimuli/spore_stims/complex_19_A_b.gif","forced_short","","9","complex_dissimilar","images/stimuli/spore_stims/complex_19_A_b.gif","","","","",""
"","null","html-keyboard-response","118","489888","0.0-27.0-0.4","SS1618365019316","","","null","","","","","","<p><img src= images/blank.png width =""600"" height = ""600"" style=""position:fixed;top:50%; left:50%; transform: translate(-50%, -50%); border:5px solid black"">","","","","","","","",""
"","996.9100000016624","sequential-stimulus-presentation-old","119","491395","0.0-27.0-1.4","SS1618365019316","trial","","40","500","1496.9100000016624","images/stimuli/spore_stims/complex_14_A_a.gif","images/stimuli/spore_stims/complex_19_A_b.gif","forced_short","","9","complex_dissimilar","images/stimuli/spore_stims/complex_19_A_b.gif","","","","",""
"","17224.32000000117","survey-multi-choice","120","508626","0.0-28.0","SS1618365019316","math_question","","","","","","","","","","","","{""Q0"":""11""}","[0]","11","",""
"","null","html-keyboard-response","121","509543","0.0-29.0-0.0","SS1618365019316","","","null","","","","","","<p><img src= images/blank.png width =""600"" height = ""600"" style=""position:fixed;top:50%; left:50%; transform: translate(-50%, -50%); border:5px solid black"">","","","","","","","",""
"","2598.2850000000326","sequential-stimulus-presentation-old","122","512651","0.0-29.0-1.0","SS1618365019316","trial","","40","500","3098.2850000000326","images/stimuli/spore_stims/simple_17_A_b.gif","images/stimuli/spore_stims/simple_16_A_a.gif","self_paced","","10","simple_dissimilar","images/stimuli/spore_stims/simple_16_A_a.gif","","","","",""
"","null","html-keyboard-response","123","513842","0.0-29.0-0.1","SS1618365019316","","","null","","","","","","<p><img src= images/blank.png width =""600"" height = ""600"" style=""position:fixed;top:50%; left:50%; transform: translate(-50%, -50%); border:5px solid black"">","","","","","","","",""
"","200.23499999661","sequential-stimulus-presentation-old","124","514555","0.0-29.0-1.1","SS1618365019316","trial","","40","500","700.23499999661","images/stimuli/spore_stims/simple_17_A_b.gif","images/stimuli/spore_stims/simple_16_A_a.gif","self_paced","","10","simple_dissimilar","images/stimuli/spore_stims/simple_16_A_a.gif","","","","",""
"","null","html-keyboard-response","125","515491","0.0-29.0-0.2","SS1618365019316","","","null","","","","","","<p><img src= images/blank.png width =""600"" height = ""600"" style=""position:fixed;top:50%; left:50%; transform: translate(-50%, -50%); border:5px solid black"">","","","","","","","",""
"","602.7249999970081","sequential-stimulus-presentation-old","126","516603","0.0-29.0-1.2","SS1618365019316","trial","","40","500","1102.7249999970081","images/stimuli/spore_stims/simple_17_A_b.gif","images/stimuli/spore_stims/simple_16_A_a.gif","self_paced","","10","simple_dissimilar","images/stimuli/spore_stims/simple_17_A_b.gif","","","","",""
"","null","html-keyboard-response","127","517666","0.0-29.0-0.3","SS1618365019316","","","null","","","","","","<p><img src= images/blank.png width =""600"" height = ""600"" style=""position:fixed;top:50%; left:50%; transform: translate(-50%, -50%); border:5px solid black"">","","","","","","","",""
"","12.0050000041374","sequential-stimulus-presentation-old","128","518187","0.0-29.0-1.3","SS1618365019316","trial","","40","500","512.0050000041374","images/stimuli/spore_stims/simple_17_A_b.gif","images/stimuli/spore_stims/simple_16_A_a.gif","self_paced","","10","simple_dissimilar","images/stimuli/spore_stims/simple_16_A_a.gif","","","","",""
"","null","html-keyboard-response","129","519206","0.0-29.0-0.4","SS1618365019316","","","null","","","","","","<p><img src= images/blank.png width =""600"" height = ""600"" style=""position:fixed;top:50%; left:50%; transform: translate(-50%, -50%); border:5px solid black"">","","","","","","","",""
"","40.764999997918494","sequential-stimulus-presentation-old","130","519756","0.0-29.0-1.4","SS1618365019316","trial","","40","500","540.7649999979185","images/stimuli/spore_stims/simple_17_A_b.gif","images/stimuli/spore_stims/simple_16_A_a.gif","self_paced","","10","simple_dissimilar","images/stimuli/spore_stims/simple_16_A_a.gif","","","","",""
"","null","html-keyboard-response","131","520918","0.0-29.0-0.5","SS1618365019316","","","null","","","","","","<p><img src= images/blank.png width =""600"" height = ""600"" style=""position:fixed;top:50%; left:50%; transform: translate(-50%, -50%); border:5px solid black"">","","","","","","","",""
"","128.5550000029616","sequential-stimulus-presentation-old","132","521555","0.0-29.0-1.5","SS1618365019316","trial","","40","500","628.5550000029616","images/stimuli/spore_stims/simple_17_A_b.gif","images/stimuli/spore_stims/simple_16_A_a.gif","self_paced","","10","simple_dissimilar","images/stimuli/spore_stims/simple_17_A_b.gif","","","","",""
"","3574.8049999965588","survey-multi-choice","133","525138","0.0-30.0","SS1618365019316","math_question","","","","","","","","","","","","{""Q0"":""12""}","[0]","12","",""
"","null","html-keyboard-response","134","526262","0.0-31.0-0.0","SS1618365019316","","","null","","","","","","<p><img src= images/blank.png width =""600"" height = ""600"" style=""position:fixed;top:50%; left:50%; transform: translate(-50%, -50%); border:5px solid black"">","","","","","","","",""
"","2645.130000004312","sequential-stimulus-presentation-old","135","529419","0.0-31.0-1.0","SS1618365019316","trial","","40","500","3145.130000004312","images/stimuli/spore_stims/simple_18_A_a.gif","images/stimuli/spore_stims/simple_11_A_b.gif","self_paced","","11","simple_dissimilar","images/stimuli/spore_stims/simple_11_A_b.gif","","","","",""
"","null","html-keyboard-response","136","530613","0.0-31.0-0.1","SS1618365019316","","","null","","","","","","<p><img src= images/blank.png width =""600"" height = ""600"" style=""position:fixed;top:50%; left:50%; transform: translate(-50%, -50%); border:5px solid black"">","","","","","","","",""
"","1343.4000000051456","sequential-stimulus-presentation-old","137","532468","0.0-31.0-1.1","SS1618365019316","trial","","40","500","1843.4000000051456","images/stimuli/spore_stims/simple_18_A_a.gif","images/stimuli/spore_stims/simple_11_A_b.gif","self_paced","","11","simple_dissimilar","images/stimuli/spore_stims/simple_11_A_b.gif","","","","",""
"","null","html-keyboard-response","138","533641","0.0-31.0-0.2","SS1618365019316","","","null","","","","","","<p><img src= images/blank.png width =""600"" height = ""600"" style=""position:fixed;top:50%; left:50%; transform: translate(-50%, -50%); border:5px solid black"">","","","","","","","",""
"","730.3949999986216","sequential-stimulus-presentation-old","139","534883","0.0-31.0-1.2","SS1618365019316","trial","","40","500","1230.3949999986216","images/stimuli/spore_stims/simple_18_A_a.gif","images/stimuli/spore_stims/simple_11_A_b.gif","self_paced","","11","simple_dissimilar","images/stimuli/spore_stims/simple_11_A_b.gif","","","","",""
"","null","html-keyboard-response","140","536013","0.0-31.0-0.3","SS1618365019316","","","null","","","","","","<p><img src= images/blank.png width =""600"" height = ""600"" style=""position:fixed;top:50%; left:50%; transform: translate(-50%, -50%); border:5px solid black"">","","","","","","","",""
"","818.6149999964982","sequential-stimulus-presentation-old","141","537347","0.0-31.0-1.3","SS1618365019316","trial","","40","500","1318.6149999964982","images/stimuli/spore_stims/simple_18_A_a.gif","images/stimuli/spore_stims/simple_11_A_b.gif","self_paced","","11","simple_dissimilar","images/stimuli/spore_stims/simple_11_A_b.gif","","","","",""
"","null","html-keyboard-response","142","538514","0.0-31.0-0.4","SS1618365019316","","","null","","","","","","<p><img src= images/blank.png width =""600"" height = ""600"" style=""position:fixed;top:50%; left:50%; transform: translate(-50%, -50%); border:5px solid black"">","","","","","","","",""
"","1042.1750000022585","sequential-stimulus-presentation-old","143","540066","0.0-31.0-1.4","SS1618365019316","trial","","40","500","1542.1750000022585","images/stimuli/spore_stims/simple_18_A_a.gif","images/stimuli/spore_stims/simple_11_A_b.gif","self_paced","","11","simple_dissimilar","images/stimuli/spore_stims/simple_11_A_b.gif","","","","",""
"","null","html-keyboard-response","144","541162","0.0-31.0-0.5","SS1618365019316","","","null","","","","","","<p><img src= images/blank.png width =""600"" height = ""600"" style=""position:fixed;top:50%; left:50%; transform: translate(-50%, -50%); border:5px solid black"">","","","","","","","",""
"","3010.645000002114","sequential-stimulus-presentation-old","145","544684","0.0-31.0-1.5","SS1618365019316","trial","","40","500","3510.645000002114","images/stimuli/spore_stims/simple_18_A_a.gif","images/stimuli/spore_stims/simple_11_A_b.gif","self_paced","","11","simple_dissimilar","images/stimuli/spore_stims/simple_18_A_a.gif","","","","",""
"[{""page_index"":0,""viewing_time"":14902.030000004685}]","14902.345000002184","instructions","146","559594","0.0-32.0","SS1618365019316","instructions","","","","","","","","","","","","","","","",""
"","17237.014999998733","survey-likert","147","576834","0.0-33.0","SS1618365019316","similarity_question","","","","","","","","","","","","{""Q0"":3}","[0]","","images/stimuli/spore_stims/simple_12_A_a.gif","images/stimuli/spore_stims/simple_08_A_b.gif"
"","6996.460000002058","survey-likert","148","583834","0.0-34.0","SS1618365019316","similarity_question","","","","","","","","","","","","{""Q0"":2}","[0]","","images/stimuli/spore_stims/simple_16_A_a.gif","images/stimuli/spore_stims/simple_17_A_b.gif"
"","9468.379999998491","survey-likert","149","593306","0.0-35.0","SS1618365019316","similarity_question","","","","","","","","","","","","{""Q0"":1}","[0]","","images/stimuli/spore_stims/complex_09_A_b.gif","images/stimuli/spore_stims/complex_07_A_a.gif"
"","4612.5400000019","survey-likert","150","597922","0.0-36.0","SS1618365019316","similarity_question","","","","","","","","","","","","{""Q0"":2}","[0]","","images/stimuli/spore_stims/simple_01_A_a.gif","images/stimuli/spore_stims/simple_04_A_b.gif"
"","4580.820000002859","survey-likert","151","602506","0.0-37.0","SS1618365019316","similarity_question","","","","","","","","","","","","{""Q0"":4}","[0]","","images/stimuli/spore_stims/complex_18_A_a.gif","images/stimuli/spore_stims/complex_17_A_b.gif"
"","3100.574999996694","survey-likert","152","605610","0.0-38.0","SS1618365019316","similarity_question","","","","","","","","","","","","{""Q0"":3}","[0]","","images/stimuli/spore_stims/simple_15_A_a.gif","images/stimuli/spore_stims/simple_10_A_b.gif"
"","4884.624999998836","survey-likert","153","610498","0.0-39.0","SS1618365019316","similarity_question","","","","","","","","","","","","{""Q0"":4}","[0]","","images/stimuli/spore_stims/complex_14_A_b.gif","images/stimuli/spore_stims/complex_16_A_a.gif"
"","4277.020000001416","survey-likert","154","614778","0.0-40.0","SS1618365019316","similarity_question","","","","","","","","","","","","{""Q0"":5}","[0]","","images/stimuli/spore_stims/complex_19_A_b.gif","images/stimuli/spore_stims/complex_14_A_a.gif"
"","3548.679999999935","survey-likert","155","618330","0.0-41.0","SS1618365019316","similarity_question","","","","","","","","","","","","{""Q0"":6}","[0]","","images/stimuli/spore_stims/simple_20_A_b.gif","images/stimuli/spore_stims/simple_19_A_a.gif"
"","4196.575000001816","survey-likert","156","622530","0.0-42.0","SS1618365019316","similarity_question","","","","","","","","","","","","{""Q0"":1}","[0]","","images/stimuli/spore_stims/complex_11_A_b.gif","images/stimuli/spore_stims/complex_06_A_a.gif"
"","3004.0699999954086","survey-likert","157","625538","0.0-43.0","SS1618365019316","similarity_question","","","","","","","","","","","","{""Q0"":2}","[0]","","images/stimuli/spore_stims/simple_18_A_a.gif","images/stimuli/spore_stims/simple_11_A_b.gif"
"","5196.510000001639","survey-likert","158","630739","0.0-44.0","SS1618365019316","similarity_question","","","","","","","","","","","","{""Q0"":0}","[0]","","images/stimuli/spore_stims/complex_15_A_a.gif","images/stimuli/spore_stims/complex_07_A_b.gif"
"[{""page_index"":0,""viewing_time"":13868.345000002533}]","13868.610000004992","instructions","159","644610","0.0-45.0","SS1618365019316","instructions","","","","","","","","","","","","","","","",""
"","6829.259999998612","survey-likert","160","651442","0.0-46.0","SS1618365019316","","","","","","","","","images/stimuli/spore_stims/complex_14_A_b.gif","","","","{""Q0"":4}","[0]","","",""
"","3916.515000004554","survey-likert","161","655362","0.0-47.0","SS1618365019316","","","","","","","","","images/stimuli/spore_stims/simple_18_A_a.gif","","","","{""Q0"":0}","[0]","","",""
"","6532.59999999858","survey-likert","162","661898","0.0-48.0","SS1618365019316","","","","","","","","","images/stimuli/spore_stims/complex_19_A_b.gif","","","","{""Q0"":5}","[0]","","",""
"","8716.760000003036","survey-likert","163","670618","0.0-49.0","SS1618365019316","","","","","","","","","images/stimuli/spore_stims/simple_12_A_a.gif","","","","{""Q0"":1}","[0]","","",""
"","2460.8099999967963","survey-likert","164","673082","0.0-50.0","SS1618365019316","","","","","","","","","images/stimuli/spore_stims/simple_10_A_b.gif","","","","{""Q0"":0}","[0]","","",""
"","3332.2550000010524","survey-likert","165","676418","0.0-51.0","SS1618365019316","","","","","","","","","images/stimuli/spore_stims/complex_17_A_b.gif","","","","{""Q0"":4}","[0]","","",""
"","2596.900000004098","survey-likert","166","679018","0.0-52.0","SS1618365019316","","","","","","","","","images/stimuli/spore_stims/complex_09_A_b.gif","","","","{""Q0"":5}","[0]","","",""
"","2796.5649999969173","survey-likert","167","681818","0.0-53.0","SS1618365019316","","","","","","","","","images/stimuli/spore_stims/complex_06_A_a.gif","","","","{""Q0"":4}","[0]","","",""
"","2484.4700000031153","survey-likert","168","684306","0.0-54.0","SS1618365019316","","","","","","","","","images/stimuli/spore_stims/simple_19_A_a.gif","","","","{""Q0"":1}","[0]","","",""
"","2804.374999999767","survey-likert","169","687114","0.0-55.0","SS1618365019316","","","","","","","","","images/stimuli/spore_stims/simple_04_A_b.gif","","","","{""Q0"":0}","[0]","","",""
"","2460.7299999989336","survey-likert","170","689578","0.0-56.0","SS1618365019316","","","","","","","","","images/stimuli/spore_stims/simple_17_A_b.gif","","","","{""Q0"":0}","[0]","","",""
"","4116.284999996424","survey-likert","171","693698","0.0-57.0","SS1618365019316","","","","","","","","","images/stimuli/spore_stims/complex_07_A_b.gif","","","","{""Q0"":6}","[0]","","",""
"[{""page_index"":0,""viewing_time"":5012.559999995516}]","5012.83999999566","instructions","172","698713","0.0-58.0","SS1618365019316","instructions","","","","","","","","","","","","","","","",""
"","8060.109999998473","demog-age","173","706778","0.0-59.0","SS1618365019316","","","","","","","","","","","","","{""age"":""25""}","","","",""
"","5890.979999996489","demog-ethnic-US","174","712674","0.0-60.0","SS1618365019316","","","","","","","","","","","","","{""ethnicity"":[""Hispanic or Latino""]}","[0]","","",""
"","13411.814999999478","demog-gender-and-education","175","726090","0.0-61.0","SS1618365019316","","","","","","","","","","","","","{""gender"":""Male"",""education"":""Bachelor's Degree""}","[0,1]","","",""
"","15619.634999995353","survey-text","176","741714","0.0-62.0","SS1618365019316","feedback","","","","","","","","","","","","{""Q0"":""no""}","","","",""
"[{""page_index"":0,""viewing_time"":4533.275000001537}]","4533.530000000494","instructions","177","746250","0.0-63.0","SS1618365019316","instructions","","","","","","","","","","","","","","","",""
