"view_history","rt","trial_type","trial_index","time_elapsed","internal_node_id","subject","stimulus_type","trial_stimulus","key_press","minimum_viewing_duration","trial_looking_time","block_deviant","block_background","exposure_type","stimulus","block_number","block_type","stimulus_displayed","responses","question_order","math_correct_answer","stimulus_left","stimulus_right"
"[{""page_index"":0,""viewing_time"":10723.109999999906}]","10723.5299999993","instructions","0","10725","0.0-0.0","SS1618006483625","","","","","","","","","","","","","","","","",""
"[{""page_index"":0,""viewing_time"":14901.350000000093},{""page_index"":1,""viewing_time"":7391.8449999991935}]","22293.32499999964","instructions","1","35020","0.0-1.0","SS1618006483625","instructions","","","","","","","","","","","","","","","",""
"","8645.429999999578","sequential-stimulus-presentation-old","2","44167","0.0-2.0","SS1618006483625","","","40","500","9145.429999999578","null","null","self_paced","","","","","","","","",""
"","6338.259999999536","sequential-stimulus-presentation-old","3","51007","0.0-3.0","SS1618006483625","","","40","500","6838.259999999536","null","null","self_paced","","","","","","","","",""
"[{""page_index"":0,""viewing_time"":18778.47500000007}]","18778.6100000003","instructions","4","69786","0.0-4.0","SS1618006483625","instructions","","","","","","","","","","","","","","","",""
"","8674.954999999492","sequential-stimulus-presentation-old","5","83463","0.0-5.0","SS1618006483625","","","40","500","9174.954999999492","null","null","forced_long","","","","","","","","",""
"","8195.394999999728","sequential-stimulus-presentation-old","6","91711","0.0-6.0","SS1618006483625","","","40","50","8245.394999999728","null","null","forced_long","","","","","","","","",""
"[{""page_index"":0,""viewing_time"":2577.354999999443}]","2577.4699999992736","instructions","7","94288","0.0-7.0","SS1618006483625","instructions","","","","","","","","","","","","","","","",""
"[{""page_index"":0,""viewing_time"":8672.534999999698},{""page_index"":1,""viewing_time"":7542.890000000625},{""page_index"":2,""viewing_time"":5202.054999999746},{""page_index"":3,""viewing_time"":1204.0950000000448},{""page_index"":4,""viewing_time"":701.8550000002579}]","23323.55499999995","instructions","8","117612","0.0-8.0","SS1618006483625","instructions","","","","","","","","","","","","","","","",""
"","null","html-keyboard-response","9","118705","0.0-9.0-0.0","SS1618006483625","","","null","","","","","","<p><img src= images/blank.png width =""600"" height = ""600"" style=""position:fixed;top:50%; left:50%; transform: translate(-50%, -50%); border:5px solid black"">","","","","","","","",""
"","2290.0999999992637","sequential-stimulus-presentation-old","10","121047","0.0-9.0-1.0","SS1618006483625","trial","","40","500","2790.0999999992637","images/stimuli/spore_stims/simple_20_A_a.gif","images/stimuli/spore_stims/simple_17_A_b.gif","forced_short","","0","simple_dissimilar","images/stimuli/spore_stims/simple_17_A_b.gif","","","","",""
"","null","html-keyboard-response","11","122249","0.0-9.0-0.1","SS1618006483625","","","null","","","","","","<p><img src= images/blank.png width =""600"" height = ""600"" style=""position:fixed;top:50%; left:50%; transform: translate(-50%, -50%); border:5px solid black"">","","","","","","","",""
"","12608.18999999993","sequential-stimulus-presentation-old","12","135358","0.0-9.0-1.1","SS1618006483625","trial","","40","500","13108.18999999993","images/stimuli/spore_stims/simple_20_A_a.gif","images/stimuli/spore_stims/simple_17_A_b.gif","forced_short","","0","simple_dissimilar","images/stimuli/spore_stims/simple_17_A_b.gif","","","","",""
"","null","html-keyboard-response","13","136298","0.0-9.0-0.2","SS1618006483625","","","null","","","","","","<p><img src= images/blank.png width =""600"" height = ""600"" style=""position:fixed;top:50%; left:50%; transform: translate(-50%, -50%); border:5px solid black"">","","","","","","","",""
"","6390.059999999707","sequential-stimulus-presentation-old","14","143190","0.0-9.0-1.2","SS1618006483625","trial","","40","500","6890.059999999707","images/stimuli/spore_stims/simple_20_A_a.gif","images/stimuli/spore_stims/simple_17_A_b.gif","forced_short","","0","simple_dissimilar","images/stimuli/spore_stims/simple_17_A_b.gif","","","","",""
"","null","html-keyboard-response","15","144324","0.0-9.0-0.3","SS1618006483625","","","null","","","","","","<p><img src= images/blank.png width =""600"" height = ""600"" style=""position:fixed;top:50%; left:50%; transform: translate(-50%, -50%); border:5px solid black"">","","","","","","","",""
"","7261.474999999336","sequential-stimulus-presentation-old","16","152086","0.0-9.0-1.3","SS1618006483625","trial","","40","500","7761.474999999336","images/stimuli/spore_stims/simple_20_A_a.gif","images/stimuli/spore_stims/simple_17_A_b.gif","forced_short","","0","simple_dissimilar","images/stimuli/spore_stims/simple_17_A_b.gif","","","","",""
"","6250.645000000077","survey-multi-choice","17","158339","0.0-10.0","SS1618006483625","math_question","","","","","","","","","","","","{""Q0"":""5""}","[0]","5","",""
"","null","html-keyboard-response","18","159339","0.0-11.0-0.0","SS1618006483625","","","null","","","","","","<p><img src= images/blank.png width =""600"" height = ""600"" style=""position:fixed;top:50%; left:50%; transform: translate(-50%, -50%); border:5px solid black"">","","","","","","","",""
"","7133.640000000014","sequential-stimulus-presentation-old","19","166975","0.0-11.0-1.0","SS1618006483625","trial","","40","500","7633.640000000014","images/stimuli/spore_stims/complex_10_A_b.gif","images/stimuli/spore_stims/complex_01_A_a.gif","self_paced","","1","complex_dissimilar","images/stimuli/spore_stims/complex_01_A_a.gif","","","","",""
"","null","html-keyboard-response","20","167831","0.0-11.0-0.1","SS1618006483625","","","null","","","","","","<p><img src= images/blank.png width =""600"" height = ""600"" style=""position:fixed;top:50%; left:50%; transform: translate(-50%, -50%); border:5px solid black"">","","","","","","","",""
"","3969.874999999767","sequential-stimulus-presentation-old","21","172303","0.0-11.0-1.1","SS1618006483625","trial","","40","500","4469.874999999767","images/stimuli/spore_stims/complex_10_A_b.gif","images/stimuli/spore_stims/complex_01_A_a.gif","self_paced","","1","complex_dissimilar","images/stimuli/spore_stims/complex_10_A_b.gif","","","","",""
"","null","html-keyboard-response","22","173564","0.0-11.0-0.2","SS1618006483625","","","null","","","","","","<p><img src= images/blank.png width =""600"" height = ""600"" style=""position:fixed;top:50%; left:50%; transform: translate(-50%, -50%); border:5px solid black"">","","","","","","","",""
"","8500.865000000864","sequential-stimulus-presentation-old","23","182567","0.0-11.0-1.2","SS1618006483625","trial","","40","500","9000.865000000864","images/stimuli/spore_stims/complex_10_A_b.gif","images/stimuli/spore_stims/complex_01_A_a.gif","self_paced","","1","complex_dissimilar","images/stimuli/spore_stims/complex_10_A_b.gif","","","","",""
"","null","html-keyboard-response","24","183542","0.0-11.0-0.3","SS1618006483625","","","null","","","","","","<p><img src= images/blank.png width =""600"" height = ""600"" style=""position:fixed;top:50%; left:50%; transform: translate(-50%, -50%); border:5px solid black"">","","","","","","","",""
"","5690.4699999995355","sequential-stimulus-presentation-old","25","189735","0.0-11.0-1.3","SS1618006483625","trial","","40","500","6190.4699999995355","images/stimuli/spore_stims/complex_10_A_b.gif","images/stimuli/spore_stims/complex_01_A_a.gif","self_paced","","1","complex_dissimilar","images/stimuli/spore_stims/complex_01_A_a.gif","","","","",""
"","null","html-keyboard-response","26","190820","0.0-11.0-0.4","SS1618006483625","","","null","","","","","","<p><img src= images/blank.png width =""600"" height = ""600"" style=""position:fixed;top:50%; left:50%; transform: translate(-50%, -50%); border:5px solid black"">","","","","","","","",""
"","4467.989999999176","sequential-stimulus-presentation-old","27","195791","0.0-11.0-1.4","SS1618006483625","trial","","40","500","4967.989999999176","images/stimuli/spore_stims/complex_10_A_b.gif","images/stimuli/spore_stims/complex_01_A_a.gif","self_paced","","1","complex_dissimilar","images/stimuli/spore_stims/complex_01_A_a.gif","","","","",""
"","3214.8250000000407","survey-multi-choice","28","199007","0.0-12.0","SS1618006483625","math_question","","","","","","","","","","","","{""Q0"":""6""}","[0]","6","",""
"","null","html-keyboard-response","29","200120","0.0-13.0-0.0","SS1618006483625","","","null","","","","","","<p><img src= images/blank.png width =""600"" height = ""600"" style=""position:fixed;top:50%; left:50%; transform: translate(-50%, -50%); border:5px solid black"">","","","","","","","",""
"","2569.2699999999604","sequential-stimulus-presentation-old","30","202743","0.0-13.0-1.0","SS1618006483625","trial","","40","500","3069.2699999999604","images/stimuli/spore_stims/complex_16_A_b.gif","images/stimuli/spore_stims/complex_19_A_a.gif","forced_short","","2","complex_dissimilar","images/stimuli/spore_stims/complex_19_A_a.gif","","","","",""
"","null","html-keyboard-response","31","203895","0.0-13.0-0.1","SS1618006483625","","","null","","","","","","<p><img src= images/blank.png width =""600"" height = ""600"" style=""position:fixed;top:50%; left:50%; transform: translate(-50%, -50%); border:5px solid black"">","","","","","","","",""
"","6169.820000000065","sequential-stimulus-presentation-old","32","210567","0.0-13.0-1.1","SS1618006483625","trial","","40","500","6669.820000000065","images/stimuli/spore_stims/complex_16_A_b.gif","images/stimuli/spore_stims/complex_19_A_a.gif","forced_short","","2","complex_dissimilar","images/stimuli/spore_stims/complex_19_A_a.gif","","","","",""
"","null","html-keyboard-response","33","211434","0.0-13.0-0.2","SS1618006483625","","","null","","","","","","<p><img src= images/blank.png width =""600"" height = ""600"" style=""position:fixed;top:50%; left:50%; transform: translate(-50%, -50%); border:5px solid black"">","","","","","","","",""
"","7014.769999999757","sequential-stimulus-presentation-old","34","218950","0.0-13.0-1.2","SS1618006483625","trial","","40","500","7514.769999999757","images/stimuli/spore_stims/complex_16_A_b.gif","images/stimuli/spore_stims/complex_19_A_a.gif","forced_short","","2","complex_dissimilar","images/stimuli/spore_stims/complex_19_A_a.gif","","","","",""
"","null","html-keyboard-response","35","220061","0.0-13.0-0.3","SS1618006483625","","","null","","","","","","<p><img src= images/blank.png width =""600"" height = ""600"" style=""position:fixed;top:50%; left:50%; transform: translate(-50%, -50%); border:5px solid black"">","","","","","","","",""
"","6787.860000000364","sequential-stimulus-presentation-old","36","227351","0.0-13.0-1.3","SS1618006483625","trial","","40","500","7287.860000000364","images/stimuli/spore_stims/complex_16_A_b.gif","images/stimuli/spore_stims/complex_19_A_a.gif","forced_short","","2","complex_dissimilar","images/stimuli/spore_stims/complex_19_A_a.gif","","","","",""
"","null","html-keyboard-response","37","228646","0.0-13.0-0.4","SS1618006483625","","","null","","","","","","<p><img src= images/blank.png width =""600"" height = ""600"" style=""position:fixed;top:50%; left:50%; transform: translate(-50%, -50%); border:5px solid black"">","","","","","","","",""
"","7426.534999999596","sequential-stimulus-presentation-old","38","236575","0.0-13.0-1.4","SS1618006483625","trial","","40","500","7926.534999999596","images/stimuli/spore_stims/complex_16_A_b.gif","images/stimuli/spore_stims/complex_19_A_a.gif","forced_short","","2","complex_dissimilar","images/stimuli/spore_stims/complex_16_A_b.gif","","","","",""
"","2942.2849999991886","survey-multi-choice","39","239518","0.0-14.0","SS1618006483625","math_question","","","","","","","","","","","","{""Q0"":""12""}","[0]","12","",""
"","null","html-keyboard-response","40","240382","0.0-15.0-0.0","SS1618006483625","","","null","","","","","","<p><img src= images/blank.png width =""600"" height = ""600"" style=""position:fixed;top:50%; left:50%; transform: translate(-50%, -50%); border:5px solid black"">","","","","","","","",""
"","8203.195000000065","sequential-stimulus-presentation-old","41","249087","0.0-15.0-1.0","SS1618006483625","trial","","40","500","8703.195000000065","images/stimuli/spore_stims/complex_08_A_a.gif","images/stimuli/spore_stims/complex_02_A_b.gif","self_paced","","3","complex_dissimilar","images/stimuli/spore_stims/complex_02_A_b.gif","","","","",""
"","null","html-keyboard-response","42","250213","0.0-15.0-0.1","SS1618006483625","","","null","","","","","","<p><img src= images/blank.png width =""600"" height = ""600"" style=""position:fixed;top:50%; left:50%; transform: translate(-50%, -50%); border:5px solid black"">","","","","","","","",""
"","3218.689999999682","sequential-stimulus-presentation-old","43","253935","0.0-15.0-1.1","SS1618006483625","trial","","40","500","3718.689999999682","images/stimuli/spore_stims/complex_08_A_a.gif","images/stimuli/spore_stims/complex_02_A_b.gif","self_paced","","3","complex_dissimilar","images/stimuli/spore_stims/complex_02_A_b.gif","","","","",""
"","null","html-keyboard-response","44","255046","0.0-15.0-0.2","SS1618006483625","","","null","","","","","","<p><img src= images/blank.png width =""600"" height = ""600"" style=""position:fixed;top:50%; left:50%; transform: translate(-50%, -50%); border:5px solid black"">","","","","","","","",""
"","3370.8349999996717","sequential-stimulus-presentation-old","45","258919","0.0-15.0-1.2","SS1618006483625","trial","","40","500","3870.8349999996717","images/stimuli/spore_stims/complex_08_A_a.gif","images/stimuli/spore_stims/complex_02_A_b.gif","self_paced","","3","complex_dissimilar","images/stimuli/spore_stims/complex_02_A_b.gif","","","","",""
"","null","html-keyboard-response","46","260172","0.0-15.0-0.3","SS1618006483625","","","null","","","","","","<p><img src= images/blank.png width =""600"" height = ""600"" style=""position:fixed;top:50%; left:50%; transform: translate(-50%, -50%); border:5px solid black"">","","","","","","","",""
"","3909.475000000384","sequential-stimulus-presentation-old","47","264583","0.0-15.0-1.3","SS1618006483625","trial","","40","500","4409.475000000384","images/stimuli/spore_stims/complex_08_A_a.gif","images/stimuli/spore_stims/complex_02_A_b.gif","self_paced","","3","complex_dissimilar","images/stimuli/spore_stims/complex_02_A_b.gif","","","","",""
"","null","html-keyboard-response","48","265859","0.0-15.0-0.4","SS1618006483625","","","null","","","","","","<p><img src= images/blank.png width =""600"" height = ""600"" style=""position:fixed;top:50%; left:50%; transform: translate(-50%, -50%); border:5px solid black"">","","","","","","","",""
"","6910.390000000014","sequential-stimulus-presentation-old","49","273271","0.0-15.0-1.4","SS1618006483625","trial","","40","500","7410.390000000014","images/stimuli/spore_stims/complex_08_A_a.gif","images/stimuli/spore_stims/complex_02_A_b.gif","self_paced","","3","complex_dissimilar","images/stimuli/spore_stims/complex_08_A_a.gif","","","","",""
"","null","html-keyboard-response","50","274246","0.0-15.0-0.5","SS1618006483625","","","null","","","","","","<p><img src= images/blank.png width =""600"" height = ""600"" style=""position:fixed;top:50%; left:50%; transform: translate(-50%, -50%); border:5px solid black"">","","","","","","","",""
"","2787.3300000001327","sequential-stimulus-presentation-old","51","277535","0.0-15.0-1.5","SS1618006483625","trial","","40","500","3287.3300000001327","images/stimuli/spore_stims/complex_08_A_a.gif","images/stimuli/spore_stims/complex_02_A_b.gif","self_paced","","3","complex_dissimilar","images/stimuli/spore_stims/complex_02_A_b.gif","","","","",""
"","3370.74500000017","survey-multi-choice","52","280907","0.0-16.0","SS1618006483625","math_question","","","","","","","","","","","","{""Q0"":""11""}","[0]","11","",""
"","null","html-keyboard-response","53","282203","0.0-17.0-0.0","SS1618006483625","","","null","","","","","","<p><img src= images/blank.png width =""600"" height = ""600"" style=""position:fixed;top:50%; left:50%; transform: translate(-50%, -50%); border:5px solid black"">","","","","","","","",""
"","2561.870000000461","sequential-stimulus-presentation-old","54","289767","0.0-17.0-1.0","SS1618006483625","trial","","40","500","3061.870000000461","images/stimuli/spore_stims/simple_19_A_b.gif","images/stimuli/spore_stims/simple_17_A_a.gif","forced_long","","4","simple_dissimilar","images/stimuli/spore_stims/simple_17_A_a.gif","","","","",""
"","null","html-keyboard-response","55","291042","0.0-17.0-0.1","SS1618006483625","","","null","","","","","","<p><img src= images/blank.png width =""600"" height = ""600"" style=""position:fixed;top:50%; left:50%; transform: translate(-50%, -50%); border:5px solid black"">","","","","","","","",""
"","9037.900000000256","sequential-stimulus-presentation-old","56","300583","0.0-17.0-1.1","SS1618006483625","trial","","40","500","9537.900000000256","images/stimuli/spore_stims/simple_19_A_b.gif","images/stimuli/spore_stims/simple_17_A_a.gif","forced_long","","4","simple_dissimilar","images/stimuli/spore_stims/simple_17_A_a.gif","","","","",""
"","null","html-keyboard-response","57","301411","0.0-17.0-0.2","SS1618006483625","","","null","","","","","","<p><img src= images/blank.png width =""600"" height = ""600"" style=""position:fixed;top:50%; left:50%; transform: translate(-50%, -50%); border:5px solid black"">","","","","","","","",""
"","7948.54000000027","sequential-stimulus-presentation-old","58","309863","0.0-17.0-1.2","SS1618006483625","trial","","40","500","8448.54000000027","images/stimuli/spore_stims/simple_19_A_b.gif","images/stimuli/spore_stims/simple_17_A_a.gif","forced_long","","4","simple_dissimilar","images/stimuli/spore_stims/simple_19_A_b.gif","","","","",""
"","null","html-keyboard-response","59","310739","0.0-17.0-0.3","SS1618006483625","","","null","","","","","","<p><img src= images/blank.png width =""600"" height = ""600"" style=""position:fixed;top:50%; left:50%; transform: translate(-50%, -50%); border:5px solid black"">","","","","","","","",""
"","4885.239999999641","sequential-stimulus-presentation-old","60","316127","0.0-17.0-1.3","SS1618006483625","trial","","40","500","5385.239999999641","images/stimuli/spore_stims/simple_19_A_b.gif","images/stimuli/spore_stims/simple_17_A_a.gif","forced_long","","4","simple_dissimilar","images/stimuli/spore_stims/simple_17_A_a.gif","","","","",""
"","null","html-keyboard-response","61","317098","0.0-17.0-0.4","SS1618006483625","","","null","","","","","","<p><img src= images/blank.png width =""600"" height = ""600"" style=""position:fixed;top:50%; left:50%; transform: translate(-50%, -50%); border:5px solid black"">","","","","","","","",""
"","9351.410000000207","sequential-stimulus-presentation-old","62","326951","0.0-17.0-1.4","SS1618006483625","trial","","40","500","9851.410000000207","images/stimuli/spore_stims/simple_19_A_b.gif","images/stimuli/spore_stims/simple_17_A_a.gif","forced_long","","4","simple_dissimilar","images/stimuli/spore_stims/simple_17_A_a.gif","","","","",""
"","2394.9050000001444","survey-multi-choice","63","329347","0.0-18.0","SS1618006483625","math_question","","","","","","","","","","","","{""Q0"":""11""}","[0]","11","",""
"","null","html-keyboard-response","64","330607","0.0-19.0-0.0","SS1618006483625","","","null","","","","","","<p><img src= images/blank.png width =""600"" height = ""600"" style=""position:fixed;top:50%; left:50%; transform: translate(-50%, -50%); border:5px solid black"">","","","","","","","",""
"","2077.720000000205","sequential-stimulus-presentation-old","65","337687","0.0-19.0-1.0","SS1618006483625","trial","","40","500","2577.720000000205","images/stimuli/spore_stims/complex_03_A_b.gif","images/stimuli/spore_stims/complex_17_A_a.gif","forced_long","","5","complex_dissimilar","images/stimuli/spore_stims/complex_17_A_a.gif","","","","",""
"","null","html-keyboard-response","66","338609","0.0-19.0-0.1","SS1618006483625","","","null","","","","","","<p><img src= images/blank.png width =""600"" height = ""600"" style=""position:fixed;top:50%; left:50%; transform: translate(-50%, -50%); border:5px solid black"">","","","","","","","",""
"","2695.609999999753","sequential-stimulus-presentation-old","67","341806","0.0-19.0-1.1","SS1618006483625","trial","","40","500","3195.609999999753","images/stimuli/spore_stims/complex_03_A_b.gif","images/stimuli/spore_stims/complex_17_A_a.gif","forced_long","","5","complex_dissimilar","images/stimuli/spore_stims/complex_03_A_b.gif","","","","",""
"","null","html-keyboard-response","68","342830","0.0-19.0-0.2","SS1618006483625","","","null","","","","","","<p><img src= images/blank.png width =""600"" height = ""600"" style=""position:fixed;top:50%; left:50%; transform: translate(-50%, -50%); border:5px solid black"">","","","","","","","",""
"","2321.3450000003213","sequential-stimulus-presentation-old","69","345654","0.0-19.0-1.2","SS1618006483625","trial","","40","500","2821.3450000003213","images/stimuli/spore_stims/complex_03_A_b.gif","images/stimuli/spore_stims/complex_17_A_a.gif","forced_long","","5","complex_dissimilar","images/stimuli/spore_stims/complex_17_A_a.gif","","","","",""
"","null","html-keyboard-response","70","346760","0.0-19.0-0.3","SS1618006483625","","","null","","","","","","<p><img src= images/blank.png width =""600"" height = ""600"" style=""position:fixed;top:50%; left:50%; transform: translate(-50%, -50%); border:5px solid black"">","","","","","","","",""
"","1857.315000000177","sequential-stimulus-presentation-old","71","349119","0.0-19.0-1.3","SS1618006483625","trial","","40","500","2357.315000000177","images/stimuli/spore_stims/complex_03_A_b.gif","images/stimuli/spore_stims/complex_17_A_a.gif","forced_long","","5","complex_dissimilar","images/stimuli/spore_stims/complex_17_A_a.gif","","","","",""
"","null","html-keyboard-response","72","350016","0.0-19.0-0.4","SS1618006483625","","","null","","","","","","<p><img src= images/blank.png width =""600"" height = ""600"" style=""position:fixed;top:50%; left:50%; transform: translate(-50%, -50%); border:5px solid black"">","","","","","","","",""
"","2976.5699999998324","sequential-stimulus-presentation-old","73","353494","0.0-19.0-1.4","SS1618006483625","trial","","40","500","3476.5699999998324","images/stimuli/spore_stims/complex_03_A_b.gif","images/stimuli/spore_stims/complex_17_A_a.gif","forced_long","","5","complex_dissimilar","images/stimuli/spore_stims/complex_03_A_b.gif","","","","",""
"","5518.020000000426","survey-multi-choice","74","359013","0.0-20.0","SS1618006483625","math_question","","","","","","","","","","","","{""Q0"":""16""}","[0]","16","",""
"","null","html-keyboard-response","75","360291","0.0-21.0-0.0","SS1618006483625","","","null","","","","","","<p><img src= images/blank.png width =""600"" height = ""600"" style=""position:fixed;top:50%; left:50%; transform: translate(-50%, -50%); border:5px solid black"">","","","","","","","",""
"","1186.1049999998068","sequential-stimulus-presentation-old","76","366479","0.0-21.0-1.0","SS1618006483625","trial","","40","500","1686.1049999998068","images/stimuli/spore_stims/complex_09_A_a.gif","images/stimuli/spore_stims/complex_12_A_b.gif","forced_long","","6","complex_dissimilar","images/stimuli/spore_stims/complex_12_A_b.gif","","","","",""
"","null","html-keyboard-response","77","367358","0.0-21.0-0.1","SS1618006483625","","","null","","","","","","<p><img src= images/blank.png width =""600"" height = ""600"" style=""position:fixed;top:50%; left:50%; transform: translate(-50%, -50%); border:5px solid black"">","","","","","","","",""
"","1850.04000000027","sequential-stimulus-presentation-old","78","369710","0.0-21.0-1.1","SS1618006483625","trial","","40","500","2350.04000000027","images/stimuli/spore_stims/complex_09_A_a.gif","images/stimuli/spore_stims/complex_12_A_b.gif","forced_long","","6","complex_dissimilar","images/stimuli/spore_stims/complex_12_A_b.gif","","","","",""
"","null","html-keyboard-response","79","370731","0.0-21.0-0.2","SS1618006483625","","","null","","","","","","<p><img src= images/blank.png width =""600"" height = ""600"" style=""position:fixed;top:50%; left:50%; transform: translate(-50%, -50%); border:5px solid black"">","","","","","","","",""
"","1444.529999999737","sequential-stimulus-presentation-old","80","372678","0.0-21.0-1.2","SS1618006483625","trial","","40","500","1944.529999999737","images/stimuli/spore_stims/complex_09_A_a.gif","images/stimuli/spore_stims/complex_12_A_b.gif","forced_long","","6","complex_dissimilar","images/stimuli/spore_stims/complex_12_A_b.gif","","","","",""
"","null","html-keyboard-response","81","373859","0.0-21.0-0.3","SS1618006483625","","","null","","","","","","<p><img src= images/blank.png width =""600"" height = ""600"" style=""position:fixed;top:50%; left:50%; transform: translate(-50%, -50%); border:5px solid black"">","","","","","","","",""
"","2854.1450000002515","sequential-stimulus-presentation-old","82","377215","0.0-21.0-1.3","SS1618006483625","trial","","40","500","3354.1450000002515","images/stimuli/spore_stims/complex_09_A_a.gif","images/stimuli/spore_stims/complex_12_A_b.gif","forced_long","","6","complex_dissimilar","images/stimuli/spore_stims/complex_12_A_b.gif","","","","",""
"","2204.4500000001863","survey-multi-choice","83","379420","0.0-22.0","SS1618006483625","math_question","","","","","","","","","","","","{""Q0"":""10""}","[0]","10","",""
"","null","html-keyboard-response","84","380295","0.0-23.0-0.0","SS1618006483625","","","null","","","","","","<p><img src= images/blank.png width =""600"" height = ""600"" style=""position:fixed;top:50%; left:50%; transform: translate(-50%, -50%); border:5px solid black"">","","","","","","","",""
"","3953.529999999795","sequential-stimulus-presentation-old","85","384750","0.0-23.0-1.0","SS1618006483625","trial","","40","500","4453.529999999795","images/stimuli/spore_stims/simple_03_A_b.gif","images/stimuli/spore_stims/simple_12_A_a.gif","self_paced","","7","simple_dissimilar","images/stimuli/spore_stims/simple_12_A_a.gif","","","","",""
"","null","html-keyboard-response","86","385974","0.0-23.0-0.1","SS1618006483625","","","null","","","","","","<p><img src= images/blank.png width =""600"" height = ""600"" style=""position:fixed;top:50%; left:50%; transform: translate(-50%, -50%); border:5px solid black"">","","","","","","","",""
"","3402.9049999999115","sequential-stimulus-presentation-old","87","389879","0.0-23.0-1.1","SS1618006483625","trial","","40","500","3902.9049999999115","images/stimuli/spore_stims/simple_03_A_b.gif","images/stimuli/spore_stims/simple_12_A_a.gif","self_paced","","7","simple_dissimilar","images/stimuli/spore_stims/simple_03_A_b.gif","","","","",""
"","null","html-keyboard-response","88","391088","0.0-23.0-0.2","SS1618006483625","","","null","","","","","","<p><img src= images/blank.png width =""600"" height = ""600"" style=""position:fixed;top:50%; left:50%; transform: translate(-50%, -50%); border:5px solid black"">","","","","","","","",""
"","3104.489999999758","sequential-stimulus-presentation-old","89","394694","0.0-23.0-1.2","SS1618006483625","trial","","40","500","3604.489999999758","images/stimuli/spore_stims/simple_03_A_b.gif","images/stimuli/spore_stims/simple_12_A_a.gif","self_paced","","7","simple_dissimilar","images/stimuli/spore_stims/simple_12_A_a.gif","","","","",""
"","null","html-keyboard-response","90","395548","0.0-23.0-0.3","SS1618006483625","","","null","","","","","","<p><img src= images/blank.png width =""600"" height = ""600"" style=""position:fixed;top:50%; left:50%; transform: translate(-50%, -50%); border:5px solid black"">","","","","","","","",""
"","3076.5499999997555","sequential-stimulus-presentation-old","91","399126","0.0-23.0-1.3","SS1618006483625","trial","","40","500","3576.5499999997555","images/stimuli/spore_stims/simple_03_A_b.gif","images/stimuli/spore_stims/simple_12_A_a.gif","self_paced","","7","simple_dissimilar","images/stimuli/spore_stims/simple_12_A_a.gif","","","","",""
"","2919.9449999996577","survey-multi-choice","92","402047","0.0-24.0","SS1618006483625","math_question","","","","","","","","","","","","{""Q0"":""12""}","[0]","12","",""
"","null","html-keyboard-response","93","403314","0.0-25.0-0.0","SS1618006483625","","","null","","","","","","<p><img src= images/blank.png width =""600"" height = ""600"" style=""position:fixed;top:50%; left:50%; transform: translate(-50%, -50%); border:5px solid black"">","","","","","","","",""
"","9678.960000000137","sequential-stimulus-presentation-old","94","413494","0.0-25.0-1.0","SS1618006483625","trial","","40","500","10178.960000000137","images/stimuli/spore_stims/simple_06_A_a.gif","images/stimuli/spore_stims/simple_01_A_b.gif","self_paced","","8","simple_dissimilar","images/stimuli/spore_stims/simple_01_A_b.gif","","","","",""
"","null","html-keyboard-response","95","414468","0.0-25.0-0.1","SS1618006483625","","","null","","","","","","<p><img src= images/blank.png width =""600"" height = ""600"" style=""position:fixed;top:50%; left:50%; transform: translate(-50%, -50%); border:5px solid black"">","","","","","","","",""
"","6557.060000000114","sequential-stimulus-presentation-old","96","421526","0.0-25.0-1.1","SS1618006483625","trial","","40","500","7057.060000000114","images/stimuli/spore_stims/simple_06_A_a.gif","images/stimuli/spore_stims/simple_01_A_b.gif","self_paced","","8","simple_dissimilar","images/stimuli/spore_stims/simple_01_A_b.gif","","","","",""
"","null","html-keyboard-response","97","422701","0.0-25.0-0.2","SS1618006483625","","","null","","","","","","<p><img src= images/blank.png width =""600"" height = ""600"" style=""position:fixed;top:50%; left:50%; transform: translate(-50%, -50%); border:5px solid black"">","","","","","","","",""
"","4035.880000000354","sequential-stimulus-presentation-old","98","427239","0.0-25.0-1.2","SS1618006483625","trial","","40","500","4535.880000000354","images/stimuli/spore_stims/simple_06_A_a.gif","images/stimuli/spore_stims/simple_01_A_b.gif","self_paced","","8","simple_dissimilar","images/stimuli/spore_stims/simple_01_A_b.gif","","","","",""
"","null","html-keyboard-response","99","428107","0.0-25.0-0.3","SS1618006483625","","","null","","","","","","<p><img src= images/blank.png width =""600"" height = ""600"" style=""position:fixed;top:50%; left:50%; transform: translate(-50%, -50%); border:5px solid black"">","","","","","","","",""
"","3933.695000000589","sequential-stimulus-presentation-old","100","432542","0.0-25.0-1.3","SS1618006483625","trial","","40","500","4433.695000000589","images/stimuli/spore_stims/simple_06_A_a.gif","images/stimuli/spore_stims/simple_01_A_b.gif","self_paced","","8","simple_dissimilar","images/stimuli/spore_stims/simple_01_A_b.gif","","","","",""
"","null","html-keyboard-response","101","433725","0.0-25.0-0.4","SS1618006483625","","","null","","","","","","<p><img src= images/blank.png width =""600"" height = ""600"" style=""position:fixed;top:50%; left:50%; transform: translate(-50%, -50%); border:5px solid black"">","","","","","","","",""
"","4419.425000000047","sequential-stimulus-presentation-old","102","438646","0.0-25.0-1.4","SS1618006483625","trial","","40","500","4919.425000000047","images/stimuli/spore_stims/simple_06_A_a.gif","images/stimuli/spore_stims/simple_01_A_b.gif","self_paced","","8","simple_dissimilar","images/stimuli/spore_stims/simple_01_A_b.gif","","","","",""
"","null","html-keyboard-response","103","439676","0.0-25.0-0.5","SS1618006483625","","","null","","","","","","<p><img src= images/blank.png width =""600"" height = ""600"" style=""position:fixed;top:50%; left:50%; transform: translate(-50%, -50%); border:5px solid black"">","","","","","","","",""
"","12075.820000000065","sequential-stimulus-presentation-old","104","452255","0.0-25.0-1.5","SS1618006483625","trial","","40","500","12575.820000000065","images/stimuli/spore_stims/simple_06_A_a.gif","images/stimuli/spore_stims/simple_01_A_b.gif","self_paced","","8","simple_dissimilar","images/stimuli/spore_stims/simple_01_A_b.gif","","","","",""
"","2561.9900000001653","survey-multi-choice","105","454818","0.0-26.0","SS1618006483625","math_question","","","","","","","","","","","","{""Q0"":""10""}","[0]","10","",""
"","null","html-keyboard-response","106","456096","0.0-27.0-0.0","SS1618006483625","","","null","","","","","","<p><img src= images/blank.png width =""600"" height = ""600"" style=""position:fixed;top:50%; left:50%; transform: translate(-50%, -50%); border:5px solid black"">","","","","","","","",""
"","2716.04000000027","sequential-stimulus-presentation-old","107","463814","0.0-27.0-1.0","SS1618006483625","trial","","40","500","3216.04000000027","images/stimuli/spore_stims/simple_06_A_b.gif","images/stimuli/spore_stims/simple_07_A_a.gif","forced_long","","9","simple_dissimilar","images/stimuli/spore_stims/simple_07_A_a.gif","","","","",""
"","null","html-keyboard-response","108","465025","0.0-27.0-0.1","SS1618006483625","","","null","","","","","","<p><img src= images/blank.png width =""600"" height = ""600"" style=""position:fixed;top:50%; left:50%; transform: translate(-50%, -50%); border:5px solid black"">","","","","","","","",""
"","5102.50499999983","sequential-stimulus-presentation-old","109","470630","0.0-27.0-1.1","SS1618006483625","trial","","40","500","5602.50499999983","images/stimuli/spore_stims/simple_06_A_b.gif","images/stimuli/spore_stims/simple_07_A_a.gif","forced_long","","9","simple_dissimilar","images/stimuli/spore_stims/simple_07_A_a.gif","","","","",""
"","null","html-keyboard-response","110","471867","0.0-27.0-0.2","SS1618006483625","","","null","","","","","","<p><img src= images/blank.png width =""600"" height = ""600"" style=""position:fixed;top:50%; left:50%; transform: translate(-50%, -50%); border:5px solid black"">","","","","","","","",""
"","5230.104999999632","sequential-stimulus-presentation-old","111","477599","0.0-27.0-1.2","SS1618006483625","trial","","40","500","5730.104999999632","images/stimuli/spore_stims/simple_06_A_b.gif","images/stimuli/spore_stims/simple_07_A_a.gif","forced_long","","9","simple_dissimilar","images/stimuli/spore_stims/simple_07_A_a.gif","","","","",""
"","null","html-keyboard-response","112","478846","0.0-27.0-0.3","SS1618006483625","","","null","","","","","","<p><img src= images/blank.png width =""600"" height = ""600"" style=""position:fixed;top:50%; left:50%; transform: translate(-50%, -50%); border:5px solid black"">","","","","","","","",""
"","6306.335000000254","sequential-stimulus-presentation-old","113","485654","0.0-27.0-1.3","SS1618006483625","trial","","40","500","6806.335000000254","images/stimuli/spore_stims/simple_06_A_b.gif","images/stimuli/spore_stims/simple_07_A_a.gif","forced_long","","9","simple_dissimilar","images/stimuli/spore_stims/simple_06_A_b.gif","","","","",""
"","8811.934999999707","survey-multi-choice","114","494467","0.0-28.0","SS1618006483625","math_question","","","","","","","","","","","","{""Q0"":""15""}","[0]","15","",""
"","null","html-keyboard-response","115","495559","0.0-29.0-0.0","SS1618006483625","","","null","","","","","","<p><img src= images/blank.png width =""600"" height = ""600"" style=""position:fixed;top:50%; left:50%; transform: translate(-50%, -50%); border:5px solid black"">","","","","","","","",""
"","2074.295000000391","sequential-stimulus-presentation-old","116","497686","0.0-29.0-1.0","SS1618006483625","trial","","40","500","2574.295000000391","images/stimuli/spore_stims/complex_03_A_a.gif","images/stimuli/spore_stims/complex_09_A_b.gif","forced_short","","10","complex_dissimilar","images/stimuli/spore_stims/complex_09_A_b.gif","","","","",""
"","null","html-keyboard-response","117","498978","0.0-29.0-0.1","SS1618006483625","","","null","","","","","","<p><img src= images/blank.png width =""600"" height = ""600"" style=""position:fixed;top:50%; left:50%; transform: translate(-50%, -50%); border:5px solid black"">","","","","","","","",""
"","1773.6400000003632","sequential-stimulus-presentation-old","118","501254","0.0-29.0-1.1","SS1618006483625","trial","","40","500","2273.640000000363","images/stimuli/spore_stims/complex_03_A_a.gif","images/stimuli/spore_stims/complex_09_A_b.gif","forced_short","","10","complex_dissimilar","images/stimuli/spore_stims/complex_03_A_a.gif","","","","",""
"","null","html-keyboard-response","119","502103","0.0-29.0-0.2","SS1618006483625","","","null","","","","","","<p><img src= images/blank.png width =""600"" height = ""600"" style=""position:fixed;top:50%; left:50%; transform: translate(-50%, -50%); border:5px solid black"">","","","","","","","",""
"","4865.155000000377","sequential-stimulus-presentation-old","120","507470","0.0-29.0-1.2","SS1618006483625","trial","","40","500","5365.155000000377","images/stimuli/spore_stims/complex_03_A_a.gif","images/stimuli/spore_stims/complex_09_A_b.gif","forced_short","","10","complex_dissimilar","images/stimuli/spore_stims/complex_09_A_b.gif","","","","",""
"","null","html-keyboard-response","121","508461","0.0-29.0-0.3","SS1618006483625","","","null","","","","","","<p><img src= images/blank.png width =""600"" height = ""600"" style=""position:fixed;top:50%; left:50%; transform: translate(-50%, -50%); border:5px solid black"">","","","","","","","",""
"","1139.014999999723","sequential-stimulus-presentation-old","122","510102","0.0-29.0-1.3","SS1618006483625","trial","","40","500","1639.014999999723","images/stimuli/spore_stims/complex_03_A_a.gif","images/stimuli/spore_stims/complex_09_A_b.gif","forced_short","","10","complex_dissimilar","images/stimuli/spore_stims/complex_09_A_b.gif","","","","",""
"","null","html-keyboard-response","123","511353","0.0-29.0-0.4","SS1618006483625","","","null","","","","","","<p><img src= images/blank.png width =""600"" height = ""600"" style=""position:fixed;top:50%; left:50%; transform: translate(-50%, -50%); border:5px solid black"">","","","","","","","",""
"","1478.6299999995972","sequential-stimulus-presentation-old","124","513334","0.0-29.0-1.4","SS1618006483625","trial","","40","500","1978.6299999995972","images/stimuli/spore_stims/complex_03_A_a.gif","images/stimuli/spore_stims/complex_09_A_b.gif","forced_short","","10","complex_dissimilar","images/stimuli/spore_stims/complex_03_A_a.gif","","","","",""
"","2427.6149999995832","survey-multi-choice","125","515763","0.0-30.0","SS1618006483625","math_question","","","","","","","","","","","","{""Q0"":""8""}","[0]","8","",""
"","null","html-keyboard-response","126","516902","0.0-31.0-0.0","SS1618006483625","","","null","","","","","","<p><img src= images/blank.png width =""600"" height = ""600"" style=""position:fixed;top:50%; left:50%; transform: translate(-50%, -50%); border:5px solid black"">","","","","","","","",""
"","2307.754999999772","sequential-stimulus-presentation-old","127","519262","0.0-31.0-1.0","SS1618006483625","trial","","40","500","2807.754999999772","images/stimuli/spore_stims/simple_02_A_a.gif","images/stimuli/spore_stims/simple_11_A_b.gif","forced_short","","11","simple_dissimilar","images/stimuli/spore_stims/simple_11_A_b.gif","","","","",""
"","null","html-keyboard-response","128","520323","0.0-31.0-0.1","SS1618006483625","","","null","","","","","","<p><img src= images/blank.png width =""600"" height = ""600"" style=""position:fixed;top:50%; left:50%; transform: translate(-50%, -50%); border:5px solid black"">","","","","","","","",""
"","6748.280000000726","sequential-stimulus-presentation-old","129","527574","0.0-31.0-1.1","SS1618006483625","trial","","40","500","7248.280000000726","images/stimuli/spore_stims/simple_02_A_a.gif","images/stimuli/spore_stims/simple_11_A_b.gif","forced_short","","11","simple_dissimilar","images/stimuli/spore_stims/simple_02_A_a.gif","","","","",""
"","null","html-keyboard-response","130","528797","0.0-31.0-0.2","SS1618006483625","","","null","","","","","","<p><img src= images/blank.png width =""600"" height = ""600"" style=""position:fixed;top:50%; left:50%; transform: translate(-50%, -50%); border:5px solid black"">","","","","","","","",""
"","2867.1900000008754","sequential-stimulus-presentation-old","131","532167","0.0-31.0-1.2","SS1618006483625","trial","","40","500","3367.1900000008754","images/stimuli/spore_stims/simple_02_A_a.gif","images/stimuli/spore_stims/simple_11_A_b.gif","forced_short","","11","simple_dissimilar","images/stimuli/spore_stims/simple_11_A_b.gif","","","","",""
"","null","html-keyboard-response","132","533028","0.0-31.0-0.3","SS1618006483625","","","null","","","","","","<p><img src= images/blank.png width =""600"" height = ""600"" style=""position:fixed;top:50%; left:50%; transform: translate(-50%, -50%); border:5px solid black"">","","","","","","","",""
"","3075.5749999999534","sequential-stimulus-presentation-old","133","536606","0.0-31.0-1.3","SS1618006483625","trial","","40","500","3575.5749999999534","images/stimuli/spore_stims/simple_02_A_a.gif","images/stimuli/spore_stims/simple_11_A_b.gif","forced_short","","11","simple_dissimilar","images/stimuli/spore_stims/simple_11_A_b.gif","","","","",""
"[{""page_index"":0,""viewing_time"":4611.364999999758}]","4611.479999999632","instructions","134","541219","0.0-32.0","SS1618006483625","instructions","","","","","","","","","","","","","","","",""
"","6313.344999999506","survey-likert","135","547534","0.0-33.0","SS1618006483625","similarity_question","","","","","","","","","","","","{""Q0"":5}","[0]","","images/stimuli/spore_stims/simple_17_A_a.gif","images/stimuli/spore_stims/simple_19_A_b.gif"
"","6300.260000000009","survey-likert","136","553838","0.0-34.0","SS1618006483625","similarity_question","","","","","","","","","","","","{""Q0"":5}","[0]","","images/stimuli/spore_stims/simple_01_A_b.gif","images/stimuli/spore_stims/simple_06_A_a.gif"
"","5168.579999999609","survey-likert","137","559011","0.0-35.0","SS1618006483625","similarity_question","","","","","","","","","","","","{""Q0"":2}","[0]","","images/stimuli/spore_stims/simple_06_A_b.gif","images/stimuli/spore_stims/simple_07_A_a.gif"
"","13079.305000000168","survey-likert","138","572093","0.0-36.0","SS1618006483625","similarity_question","","","","","","","","","","","","{""Q0"":2}","[0]","","images/stimuli/spore_stims/complex_03_A_b.gif","images/stimuli/spore_stims/complex_17_A_a.gif"
"","4431.274999999907","survey-likert","139","576528","0.0-37.0","SS1618006483625","similarity_question","","","","","","","","","","","","{""Q0"":4}","[0]","","images/stimuli/spore_stims/simple_03_A_b.gif","images/stimuli/spore_stims/simple_12_A_a.gif"
"","4122.565000000526","survey-likert","140","580654","0.0-38.0","SS1618006483625","similarity_question","","","","","","","","","","","","{""Q0"":3}","[0]","","images/stimuli/spore_stims/simple_11_A_b.gif","images/stimuli/spore_stims/simple_02_A_a.gif"
"","4514.30999999959","survey-likert","141","585173","0.0-39.0","SS1618006483625","similarity_question","","","","","","","","","","","","{""Q0"":4}","[0]","","images/stimuli/spore_stims/complex_01_A_a.gif","images/stimuli/spore_stims/complex_10_A_b.gif"
"","5799.404999999679","survey-likert","142","590976","0.0-40.0","SS1618006483625","similarity_question","","","","","","","","","","","","{""Q0"":3}","[0]","","images/stimuli/spore_stims/complex_03_A_a.gif","images/stimuli/spore_stims/complex_09_A_b.gif"
"","3832.6750000005122","survey-likert","143","594812","0.0-41.0","SS1618006483625","similarity_question","","","","","","","","","","","","{""Q0"":4}","[0]","","images/stimuli/spore_stims/simple_20_A_a.gif","images/stimuli/spore_stims/simple_17_A_b.gif"
"","5363.23499999987","survey-likert","144","600179","0.0-42.0","SS1618006483625","similarity_question","","","","","","","","","","","","{""Q0"":3}","[0]","","images/stimuli/spore_stims/complex_16_A_b.gif","images/stimuli/spore_stims/complex_19_A_a.gif"
"","8963.415000000154","survey-likert","145","609146","0.0-43.0","SS1618006483625","similarity_question","","","","","","","","","","","","{""Q0"":1}","[0]","","images/stimuli/spore_stims/complex_12_A_b.gif","images/stimuli/spore_stims/complex_09_A_a.gif"
"","3831.530000000377","survey-likert","146","612981","0.0-44.0","SS1618006483625","similarity_question","","","","","","","","","","","","{""Q0"":1}","[0]","","images/stimuli/spore_stims/complex_08_A_a.gif","images/stimuli/spore_stims/complex_02_A_b.gif"
"[{""page_index"":0,""viewing_time"":4148.6599999998}]","4148.785000000265","instructions","147","617134","0.0-45.0","SS1618006483625","instructions","","","","","","","","","","","","","","","",""
"","3902.2799999993294","survey-likert","148","621038","0.0-46.0","SS1618006483625","","","","","","","","","images/stimuli/spore_stims/simple_17_A_b.gif","","","","{""Q0"":1}","[0]","","",""
"","4732.4349999999395","survey-likert","149","625774","0.0-47.0","SS1618006483625","","","","","","","","","images/stimuli/spore_stims/complex_09_A_a.gif","","","","{""Q0"":5}","[0]","","",""
"","6562.129999999423","survey-likert","150","632340","0.0-48.0","SS1618006483625","","","","","","","","","images/stimuli/spore_stims/complex_08_A_a.gif","","","","{""Q0"":4}","[0]","","",""
"","2673.4300000007497","survey-likert","151","635017","0.0-49.0","SS1618006483625","","","","","","","","","images/stimuli/spore_stims/simple_01_A_b.gif","","","","{""Q0"":0}","[0]","","",""
"","2333.20999999973","survey-likert","152","637354","0.0-50.0","SS1618006483625","","","","","","","","","images/stimuli/spore_stims/simple_03_A_b.gif","","","","{""Q0"":1}","[0]","","",""
"","1810.375","survey-likert","153","639168","0.0-51.0","SS1618006483625","","","","","","","","","images/stimuli/spore_stims/simple_02_A_a.gif","","","","{""Q0"":0}","[0]","","",""
"","5241.500000000116","survey-likert","154","644412","0.0-52.0","SS1618006483625","","","","","","","","","images/stimuli/spore_stims/complex_01_A_a.gif","","","","{""Q0"":3}","[0]","","",""
"","2881.2800000004936","survey-likert","155","647297","0.0-53.0","SS1618006483625","","","","","","","","","images/stimuli/spore_stims/simple_07_A_a.gif","","","","{""Q0"":2}","[0]","","",""
"","4218.460000000079","survey-likert","156","651519","0.0-54.0","SS1618006483625","","","","","","","","","images/stimuli/spore_stims/complex_16_A_b.gif","","","","{""Q0"":5}","[0]","","",""
"","1791.3149999994785","survey-likert","157","653314","0.0-55.0","SS1618006483625","","","","","","","","","images/stimuli/spore_stims/simple_17_A_a.gif","","","","{""Q0"":1}","[0]","","",""
"","2633.2499999998836","survey-likert","158","655951","0.0-56.0","SS1618006483625","","","","","","","","","images/stimuli/spore_stims/complex_03_A_a.gif","","","","{""Q0"":4}","[0]","","",""
"","4657.5800000000745","survey-likert","159","660612","0.0-57.0","SS1618006483625","","","","","","","","","images/stimuli/spore_stims/complex_17_A_a.gif","","","","{""Q0"":5}","[0]","","",""
"[{""page_index"":0,""viewing_time"":1910.41500000027}]","1910.5250000001397","instructions","160","662526","0.0-58.0","SS1618006483625","instructions","","","","","","","","","","","","","","","",""
"","2319.194999999949","demog-age","161","664848","0.0-59.0","SS1618006483625","","","","","","","","","","","","","{""age"":""26""}","","","",""
"","3481.824999999837","demog-ethnic-US","162","668333","0.0-60.0","SS1618006483625","","","","","","","","","","","","","{""ethnicity"":[""White""]}","[0]","","",""
"","8143.200000000419","demog-gender-and-education","163","676480","0.0-61.0","SS1618006483625","","","","","","","","","","","","","{""gender"":""Male"",""education"":""High school diploma""}","[0,1]","","",""
"","7640.305000000866","survey-text","164","684125","0.0-62.0","SS1618006483625","feedback","","","","","","","","","","","","{""Q0"":""N/A""}","","","",""
"[{""page_index"":0,""viewing_time"":2441.064999999944}]","2441.189999999595","instructions","165","686568","0.0-63.0","SS1618006483625","instructions","","","","","","","","","","","","","","","",""
