"view_history","rt","trial_type","trial_index","time_elapsed","internal_node_id","subject","stimulus_type","trial_stimulus","key_press","minimum_viewing_duration","trial_looking_time","block_deviant","block_background","exposure_type","stimulus","block_number","block_type","stimulus_displayed","responses","question_order","math_correct_answer"
"[{""page_index"":0,""viewing_time"":1922063.0300000776}]","1922064.6050000796","instructions","0","1922068","0.0-0.0","SS1618365373880","","","","","","","","","","","","","","",""
"[{""page_index"":0,""viewing_time"":2003.5500000230968},{""page_index"":1,""viewing_time"":5304.084999952465}]","7308.055000030436","instructions","1","1931386","0.0-1.0","SS1618365373880","instructions","","","","","","","","","","","","","",""
"","2716.4649999467656","sequential-stimulus-presentation-old","2","1934608","0.0-2.0","SS1618365373880","","","40","500","3216.4649999467656","null","null","self_paced","","","","","","",""
"","4456.095000030473","sequential-stimulus-presentation-old","3","1939573","0.0-3.0","SS1618365373880","","","40","500","4956.095000030473","null","null","self_paced","","","","","","",""
"[{""page_index"":0,""viewing_time"":10377.949999994598}]","10378.395000007004","instructions","4","1949954","0.0-4.0","SS1618365373880","instructions","","","","","","","","","","","","","",""
"","878.8700000150129","sequential-stimulus-presentation-old","5","1955837","0.0-5.0","SS1618365373880","","","40","500","1378.870000015013","null","null","forced_long","","","","","","",""
"","1063.594999955967","sequential-stimulus-presentation-old","6","1956957","0.0-6.0","SS1618365373880","","","40","50","1113.594999955967","null","null","forced_long","","","","","","",""
"[{""page_index"":0,""viewing_time"":2089.934999938123}]","2090.3549999929965","instructions","7","1959049","0.0-7.0","SS1618365373880","instructions","","","","","","","","","","","","","",""
"[{""page_index"":0,""viewing_time"":1486.295000067912},{""page_index"":1,""viewing_time"":1359.7999999765307},{""page_index"":2,""viewing_time"":616.0249999957159},{""page_index"":3,""viewing_time"":1407.8199999639764},{""page_index"":4,""viewing_time"":920.0699999928474}]","5790.465000085533","instructions","8","1964841","0.0-8.0","SS1618365373880","instructions","","","","","","","","","","","","","",""
"","null","html-keyboard-response","9","1965676","0.0-9.0-0.0","SS1618365373880","","","null","","","","","","<p><img src= images/blank.png width =""600"" height = ""600"" style=""position:fixed;top:50%; left:50%; transform: translate(-50%, -50%); border:5px solid black"">","","","","","",""
"","382.6450000051409","sequential-stimulus-presentation-old","10","1971068","0.0-9.0-1.0","SS1618365373880","trial","","40","500","882.6450000051409","images/stimuli/spore_stims/complex_12_A_a.gif","images/stimuli/spore_stims/complex_05_A_b.gif","forced_long","","0","complex_dissimilar","images/stimuli/spore_stims/complex_05_A_b.gif","","",""
"","null","html-keyboard-response","11","1972008","0.0-9.0-0.1","SS1618365373880","","","null","","","","","","<p><img src= images/blank.png width =""600"" height = ""600"" style=""position:fixed;top:50%; left:50%; transform: translate(-50%, -50%); border:5px solid black"">","","","","","",""
"","392.9950000019744","sequential-stimulus-presentation-old","12","1972908","0.0-9.0-1.1","SS1618365373880","trial","","40","500","892.9950000019744","images/stimuli/spore_stims/complex_12_A_a.gif","images/stimuli/spore_stims/complex_05_A_b.gif","forced_long","","0","complex_dissimilar","images/stimuli/spore_stims/complex_05_A_b.gif","","",""
"","null","html-keyboard-response","13","1974150","0.0-9.0-0.2","SS1618365373880","","","null","","","","","","<p><img src= images/blank.png width =""600"" height = ""600"" style=""position:fixed;top:50%; left:50%; transform: translate(-50%, -50%); border:5px solid black"">","","","","","",""
"","28.745000017806888","sequential-stimulus-presentation-old","14","1974692","0.0-9.0-1.2","SS1618365373880","trial","","40","500","528.7450000178069","images/stimuli/spore_stims/complex_12_A_a.gif","images/stimuli/spore_stims/complex_05_A_b.gif","forced_long","","0","complex_dissimilar","images/stimuli/spore_stims/complex_05_A_b.gif","","",""
"","null","html-keyboard-response","15","1975983","0.0-9.0-0.3","SS1618365373880","","","null","","","","","","<p><img src= images/blank.png width =""600"" height = ""600"" style=""position:fixed;top:50%; left:50%; transform: translate(-50%, -50%); border:5px solid black"">","","","","","",""
"","156.9450000533834","sequential-stimulus-presentation-old","16","1976652","0.0-9.0-1.3","SS1618365373880","trial","","40","500","656.9450000533834","images/stimuli/spore_stims/complex_12_A_a.gif","images/stimuli/spore_stims/complex_05_A_b.gif","forced_long","","0","complex_dissimilar","images/stimuli/spore_stims/complex_05_A_b.gif","","",""
"","null","html-keyboard-response","17","1977912","0.0-9.0-0.4","SS1618365373880","","","null","","","","","","<p><img src= images/blank.png width =""600"" height = ""600"" style=""position:fixed;top:50%; left:50%; transform: translate(-50%, -50%); border:5px solid black"">","","","","","",""
"","2544.0050000324845","sequential-stimulus-presentation-old","18","1980972","0.0-9.0-1.4","SS1618365373880","trial","","40","500","3044.0050000324845","images/stimuli/spore_stims/complex_12_A_a.gif","images/stimuli/spore_stims/complex_05_A_b.gif","forced_long","","0","complex_dissimilar","images/stimuli/spore_stims/complex_12_A_a.gif","","",""
"","4907.899999991059","survey-multi-choice","19","1985892","0.0-10.0","SS1618365373880","math_question","","","","","","","","","","","","{""Q0"":""16""}","[0]","16"
"","null","html-keyboard-response","20","1987780","0.0-11.0-0.0","SS1618365373880","","","null","","","","","","<p><img src= images/blank.png width =""600"" height = ""600"" style=""position:fixed;top:50%; left:50%; transform: translate(-50%, -50%); border:5px solid black"">","","","","","",""
"","6613.985000061803","sequential-stimulus-presentation-old","21","1995396","0.0-11.0-1.0","SS1618365373880","trial","","40","500","7113.985000061803","images/stimuli/spore_stims/complex_13_A_a.gif","images/stimuli/spore_stims/complex_12_A_b.gif","forced_short","","1","complex_dissimilar","images/stimuli/spore_stims/complex_12_A_b.gif","","",""
"","null","html-keyboard-response","22","1996459","0.0-11.0-0.1","SS1618365373880","","","null","","","","","","<p><img src= images/blank.png width =""600"" height = ""600"" style=""position:fixed;top:50%; left:50%; transform: translate(-50%, -50%); border:5px solid black"">","","","","","",""
"","1038.994999951683","sequential-stimulus-presentation-old","23","1998013","0.0-11.0-1.1","SS1618365373880","trial","","40","500","1538.994999951683","images/stimuli/spore_stims/complex_13_A_a.gif","images/stimuli/spore_stims/complex_12_A_b.gif","forced_short","","1","complex_dissimilar","images/stimuli/spore_stims/complex_12_A_b.gif","","",""
"","null","html-keyboard-response","24","1998974","0.0-11.0-0.2","SS1618365373880","","","null","","","","","","<p><img src= images/blank.png width =""600"" height = ""600"" style=""position:fixed;top:50%; left:50%; transform: translate(-50%, -50%); border:5px solid black"">","","","","","",""
"","250.2349999267608","sequential-stimulus-presentation-old","25","1999740","0.0-11.0-1.2","SS1618365373880","trial","","40","500","750.2349999267608","images/stimuli/spore_stims/complex_13_A_a.gif","images/stimuli/spore_stims/complex_12_A_b.gif","forced_short","","1","complex_dissimilar","images/stimuli/spore_stims/complex_12_A_b.gif","","",""
"","null","html-keyboard-response","26","2000995","0.0-11.0-0.3","SS1618365373880","","","null","","","","","","<p><img src= images/blank.png width =""600"" height = ""600"" style=""position:fixed;top:50%; left:50%; transform: translate(-50%, -50%); border:5px solid black"">","","","","","",""
"","115.30499998480082","sequential-stimulus-presentation-old","27","2001627","0.0-11.0-1.3","SS1618365373880","trial","","40","500","615.3049999848008","images/stimuli/spore_stims/complex_13_A_a.gif","images/stimuli/spore_stims/complex_12_A_b.gif","forced_short","","1","complex_dissimilar","images/stimuli/spore_stims/complex_12_A_b.gif","","",""
"","null","html-keyboard-response","28","2002610","0.0-11.0-0.4","SS1618365373880","","","null","","","","","","<p><img src= images/blank.png width =""600"" height = ""600"" style=""position:fixed;top:50%; left:50%; transform: translate(-50%, -50%); border:5px solid black"">","","","","","",""
"","118.4600000269711","sequential-stimulus-presentation-old","29","2003243","0.0-11.0-1.4","SS1618365373880","trial","","40","500","618.4600000269711","images/stimuli/spore_stims/complex_13_A_a.gif","images/stimuli/spore_stims/complex_12_A_b.gif","forced_short","","1","complex_dissimilar","images/stimuli/spore_stims/complex_12_A_b.gif","","",""
"","3241.024999995716","survey-multi-choice","30","2006489","0.0-12.0","SS1618365373880","math_question","","","","","","","","","","","","{""Q0"":""6""}","[0]","6"
"","null","html-keyboard-response","31","2007458","0.0-13.0-0.0","SS1618365373880","","","null","","","","","","<p><img src= images/blank.png width =""600"" height = ""600"" style=""position:fixed;top:50%; left:50%; transform: translate(-50%, -50%); border:5px solid black"">","","","","","",""
"","6963.174999924377","sequential-stimulus-presentation-old","32","2014484","0.0-13.0-1.0","SS1618365373880","trial","","40","500","7463.174999924377","images/stimuli/spore_stims/simple_07_A_b.gif","images/stimuli/spore_stims/simple_14_A_a.gif","forced_short","","2","simple_dissimilar","images/stimuli/spore_stims/simple_14_A_a.gif","","",""
"","null","html-keyboard-response","33","2015461","0.0-13.0-0.1","SS1618365373880","","","null","","","","","","<p><img src= images/blank.png width =""600"" height = ""600"" style=""position:fixed;top:50%; left:50%; transform: translate(-50%, -50%); border:5px solid black"">","","","","","",""
"","105.81999993883073","sequential-stimulus-presentation-old","34","2016075","0.0-13.0-1.1","SS1618365373880","trial","","40","500","605.8199999388307","images/stimuli/spore_stims/simple_07_A_b.gif","images/stimuli/spore_stims/simple_14_A_a.gif","forced_short","","2","simple_dissimilar","images/stimuli/spore_stims/simple_14_A_a.gif","","",""
"","null","html-keyboard-response","35","2017230","0.0-13.0-0.2","SS1618365373880","","","null","","","","","","<p><img src= images/blank.png width =""600"" height = ""600"" style=""position:fixed;top:50%; left:50%; transform: translate(-50%, -50%); border:5px solid black"">","","","","","",""
"","884.1200000606477","sequential-stimulus-presentation-old","36","2018622","0.0-13.0-1.2","SS1618365373880","trial","","40","500","1384.1200000606477","images/stimuli/spore_stims/simple_07_A_b.gif","images/stimuli/spore_stims/simple_14_A_a.gif","forced_short","","2","simple_dissimilar","images/stimuli/spore_stims/simple_14_A_a.gif","","",""
"","null","html-keyboard-response","37","2019774","0.0-13.0-0.3","SS1618365373880","","","null","","","","","","<p><img src= images/blank.png width =""600"" height = ""600"" style=""position:fixed;top:50%; left:50%; transform: translate(-50%, -50%); border:5px solid black"">","","","","","",""
"","149.2500000167638","sequential-stimulus-presentation-old","38","2020436","0.0-13.0-1.3","SS1618365373880","trial","","40","500","649.2500000167638","images/stimuli/spore_stims/simple_07_A_b.gif","images/stimuli/spore_stims/simple_14_A_a.gif","forced_short","","2","simple_dissimilar","images/stimuli/spore_stims/simple_14_A_a.gif","","",""
"","3216.619999962859","survey-multi-choice","39","2023657","0.0-14.0","SS1618365373880","math_question","","","","","","","","","","","","{""Q0"":""12""}","[0]","12"
"","null","html-keyboard-response","40","2024587","0.0-15.0-0.0","SS1618365373880","","","null","","","","","","<p><img src= images/blank.png width =""600"" height = ""600"" style=""position:fixed;top:50%; left:50%; transform: translate(-50%, -50%); border:5px solid black"">","","","","","",""
"","1196.3599999435246","sequential-stimulus-presentation-old","41","2026292","0.0-15.0-1.0","SS1618365373880","trial","","40","500","1696.3599999435246","images/stimuli/spore_stims/simple_08_A_b.gif","images/stimuli/spore_stims/simple_04_A_a.gif","self_paced","","3","simple_dissimilar","images/stimuli/spore_stims/simple_04_A_a.gif","","",""
"","null","html-keyboard-response","42","2027260","0.0-15.0-0.1","SS1618365373880","","","null","","","","","","<p><img src= images/blank.png width =""600"" height = ""600"" style=""position:fixed;top:50%; left:50%; transform: translate(-50%, -50%); border:5px solid black"">","","","","","",""
"","468.84500002488494","sequential-stimulus-presentation-old","43","2028243","0.0-15.0-1.1","SS1618365373880","trial","","40","500","968.8450000248849","images/stimuli/spore_stims/simple_08_A_b.gif","images/stimuli/spore_stims/simple_04_A_a.gif","self_paced","","3","simple_dissimilar","images/stimuli/spore_stims/simple_04_A_a.gif","","",""
"","null","html-keyboard-response","44","2029264","0.0-15.0-0.2","SS1618365373880","","","null","","","","","","<p><img src= images/blank.png width =""600"" height = ""600"" style=""position:fixed;top:50%; left:50%; transform: translate(-50%, -50%); border:5px solid black"">","","","","","",""
"","730.4650000296533","sequential-stimulus-presentation-old","45","2030507","0.0-15.0-1.2","SS1618365373880","trial","","40","500","1230.4650000296533","images/stimuli/spore_stims/simple_08_A_b.gif","images/stimuli/spore_stims/simple_04_A_a.gif","self_paced","","3","simple_dissimilar","images/stimuli/spore_stims/simple_04_A_a.gif","","",""
"","null","html-keyboard-response","46","2031534","0.0-15.0-0.3","SS1618365373880","","","null","","","","","","<p><img src= images/blank.png width =""600"" height = ""600"" style=""position:fixed;top:50%; left:50%; transform: translate(-50%, -50%); border:5px solid black"">","","","","","",""
"","945.9550000028685","sequential-stimulus-presentation-old","47","2032987","0.0-15.0-1.3","SS1618365373880","trial","","40","500","1445.9550000028685","images/stimuli/spore_stims/simple_08_A_b.gif","images/stimuli/spore_stims/simple_04_A_a.gif","self_paced","","3","simple_dissimilar","images/stimuli/spore_stims/simple_04_A_a.gif","","",""
"","null","html-keyboard-response","48","2034028","0.0-15.0-0.4","SS1618365373880","","","null","","","","","","<p><img src= images/blank.png width =""600"" height = ""600"" style=""position:fixed;top:50%; left:50%; transform: translate(-50%, -50%); border:5px solid black"">","","","","","",""
"","909.1050000861287","sequential-stimulus-presentation-old","49","2035445","0.0-15.0-1.4","SS1618365373880","trial","","40","500","1409.1050000861287","images/stimuli/spore_stims/simple_08_A_b.gif","images/stimuli/spore_stims/simple_04_A_a.gif","self_paced","","3","simple_dissimilar","images/stimuli/spore_stims/simple_04_A_a.gif","","",""
"","2591.5999999269843","survey-multi-choice","50","2038041","0.0-16.0","SS1618365373880","math_question","","","","","","","","","","","","{""Q0"":""5""}","[0]","5"
"","null","html-keyboard-response","51","2039129","0.0-17.0-0.0","SS1618365373880","","","null","","","","","","<p><img src= images/blank.png width =""600"" height = ""600"" style=""position:fixed;top:50%; left:50%; transform: translate(-50%, -50%); border:5px solid black"">","","","","","",""
"","548.064999980852","sequential-stimulus-presentation-old","52","2044692","0.0-17.0-1.0","SS1618365373880","trial","","40","500","1048.064999980852","images/stimuli/spore_stims/simple_12_A_a.gif","images/stimuli/spore_stims/simple_06_A_b.gif","forced_long","","4","simple_dissimilar","images/stimuli/spore_stims/simple_06_A_b.gif","","",""
"","null","html-keyboard-response","53","2045944","0.0-17.0-0.1","SS1618365373880","","","null","","","","","","<p><img src= images/blank.png width =""600"" height = ""600"" style=""position:fixed;top:50%; left:50%; transform: translate(-50%, -50%); border:5px solid black"">","","","","","",""
"","536.4699999336153","sequential-stimulus-presentation-old","54","2046988","0.0-17.0-1.1","SS1618365373880","trial","","40","500","1036.4699999336153","images/stimuli/spore_stims/simple_12_A_a.gif","images/stimuli/spore_stims/simple_06_A_b.gif","forced_long","","4","simple_dissimilar","images/stimuli/spore_stims/simple_12_A_a.gif","","",""
"","null","html-keyboard-response","55","2048215","0.0-17.0-0.2","SS1618365373880","","","null","","","","","","<p><img src= images/blank.png width =""600"" height = ""600"" style=""position:fixed;top:50%; left:50%; transform: translate(-50%, -50%); border:5px solid black"">","","","","","",""
"","906.8749999860302","sequential-stimulus-presentation-old","56","2049628","0.0-17.0-1.2","SS1618365373880","trial","","40","500","1406.8749999860302","images/stimuli/spore_stims/simple_12_A_a.gif","images/stimuli/spore_stims/simple_06_A_b.gif","forced_long","","4","simple_dissimilar","images/stimuli/spore_stims/simple_06_A_b.gif","","",""
"","null","html-keyboard-response","57","2050631","0.0-17.0-0.3","SS1618365373880","","","null","","","","","","<p><img src= images/blank.png width =""600"" height = ""600"" style=""position:fixed;top:50%; left:50%; transform: translate(-50%, -50%); border:5px solid black"">","","","","","",""
"","463.4150000056252","sequential-stimulus-presentation-old","58","2051604","0.0-17.0-1.3","SS1618365373880","trial","","40","500","963.4150000056252","images/stimuli/spore_stims/simple_12_A_a.gif","images/stimuli/spore_stims/simple_06_A_b.gif","forced_long","","4","simple_dissimilar","images/stimuli/spore_stims/simple_12_A_a.gif","","",""
"","3753.1850000377744","survey-multi-choice","59","2055362","0.0-18.0","SS1618365373880","math_question","","","","","","","","","","","","{""Q0"":""11""}","[0]","11"
"","null","html-keyboard-response","60","2056235","0.0-19.0-0.0","SS1618365373880","","","null","","","","","","<p><img src= images/blank.png width =""600"" height = ""600"" style=""position:fixed;top:50%; left:50%; transform: translate(-50%, -50%); border:5px solid black"">","","","","","",""
"","10065.915000042878","sequential-stimulus-presentation-old","61","2071316","0.0-19.0-1.0","SS1618365373880","trial","","40","500","10565.915000042878","images/stimuli/spore_stims/complex_14_A_a.gif","images/stimuli/spore_stims/complex_04_A_b.gif","forced_long","","5","complex_dissimilar","images/stimuli/spore_stims/complex_04_A_b.gif","","",""
"","null","html-keyboard-response","62","2072255","0.0-19.0-0.1","SS1618365373880","","","null","","","","","","<p><img src= images/blank.png width =""600"" height = ""600"" style=""position:fixed;top:50%; left:50%; transform: translate(-50%, -50%); border:5px solid black"">","","","","","",""
"","572.844999958761","sequential-stimulus-presentation-old","63","2073340","0.0-19.0-1.1","SS1618365373880","trial","","40","500","1072.844999958761","images/stimuli/spore_stims/complex_14_A_a.gif","images/stimuli/spore_stims/complex_04_A_b.gif","forced_long","","5","complex_dissimilar","images/stimuli/spore_stims/complex_04_A_b.gif","","",""
"","null","html-keyboard-response","64","2074461","0.0-19.0-0.2","SS1618365373880","","","null","","","","","","<p><img src= images/blank.png width =""600"" height = ""600"" style=""position:fixed;top:50%; left:50%; transform: translate(-50%, -50%); border:5px solid black"">","","","","","",""
"","1169.7399999247864","sequential-stimulus-presentation-old","65","2076140","0.0-19.0-1.2","SS1618365373880","trial","","40","500","1669.7399999247864","images/stimuli/spore_stims/complex_14_A_a.gif","images/stimuli/spore_stims/complex_04_A_b.gif","forced_long","","5","complex_dissimilar","images/stimuli/spore_stims/complex_04_A_b.gif","","",""
"","null","html-keyboard-response","66","2077039","0.0-19.0-0.3","SS1618365373880","","","null","","","","","","<p><img src= images/blank.png width =""600"" height = ""600"" style=""position:fixed;top:50%; left:50%; transform: translate(-50%, -50%); border:5px solid black"">","","","","","",""
"","905.0699999788776","sequential-stimulus-presentation-old","67","2078452","0.0-19.0-1.3","SS1618365373880","trial","","40","500","1405.0699999788776","images/stimuli/spore_stims/complex_14_A_a.gif","images/stimuli/spore_stims/complex_04_A_b.gif","forced_long","","5","complex_dissimilar","images/stimuli/spore_stims/complex_04_A_b.gif","","",""
"","null","html-keyboard-response","68","2079267","0.0-19.0-0.4","SS1618365373880","","","null","","","","","","<p><img src= images/blank.png width =""600"" height = ""600"" style=""position:fixed;top:50%; left:50%; transform: translate(-50%, -50%); border:5px solid black"">","","","","","",""
"","1118.845000048168","sequential-stimulus-presentation-old","69","2080900","0.0-19.0-1.4","SS1618365373880","trial","","40","500","1618.845000048168","images/stimuli/spore_stims/complex_14_A_a.gif","images/stimuli/spore_stims/complex_04_A_b.gif","forced_long","","5","complex_dissimilar","images/stimuli/spore_stims/complex_04_A_b.gif","","",""
"","null","html-keyboard-response","70","2081990","0.0-19.0-0.5","SS1618365373880","","","null","","","","","","<p><img src= images/blank.png width =""600"" height = ""600"" style=""position:fixed;top:50%; left:50%; transform: translate(-50%, -50%); border:5px solid black"">","","","","","",""
"","927.555000060238","sequential-stimulus-presentation-old","71","2083426","0.0-19.0-1.5","SS1618365373880","trial","","40","500","1427.555000060238","images/stimuli/spore_stims/complex_14_A_a.gif","images/stimuli/spore_stims/complex_04_A_b.gif","forced_long","","5","complex_dissimilar","images/stimuli/spore_stims/complex_04_A_b.gif","","",""
"","2924.6949999360368","survey-multi-choice","72","2086354","0.0-20.0","SS1618365373880","math_question","","","","","","","","","","","","{""Q0"":""9""}","[0]","9"
"","null","html-keyboard-response","73","2087212","0.0-21.0-0.0","SS1618365373880","","","null","","","","","","<p><img src= images/blank.png width =""600"" height = ""600"" style=""position:fixed;top:50%; left:50%; transform: translate(-50%, -50%); border:5px solid black"">","","","","","",""
"","746.0349999601021","sequential-stimulus-presentation-old","74","2088467","0.0-21.0-1.0","SS1618365373880","trial","","40","500","1246.0349999601021","images/stimuli/spore_stims/complex_18_A_b.gif","images/stimuli/spore_stims/complex_11_A_a.gif","self_paced","","6","complex_dissimilar","images/stimuli/spore_stims/complex_11_A_a.gif","","",""
"","null","html-keyboard-response","75","2089704","0.0-21.0-0.1","SS1618365373880","","","null","","","","","","<p><img src= images/blank.png width =""600"" height = ""600"" style=""position:fixed;top:50%; left:50%; transform: translate(-50%, -50%); border:5px solid black"">","","","","","",""
"","406.4749999670312","sequential-stimulus-presentation-old","76","2090620","0.0-21.0-1.1","SS1618365373880","trial","","40","500","906.4749999670312","images/stimuli/spore_stims/complex_18_A_b.gif","images/stimuli/spore_stims/complex_11_A_a.gif","self_paced","","6","complex_dissimilar","images/stimuli/spore_stims/complex_11_A_a.gif","","",""
"","null","html-keyboard-response","77","2091458","0.0-21.0-0.2","SS1618365373880","","","null","","","","","","<p><img src= images/blank.png width =""600"" height = ""600"" style=""position:fixed;top:50%; left:50%; transform: translate(-50%, -50%); border:5px solid black"">","","","","","",""
"","1216.880000079982","sequential-stimulus-presentation-old","78","2093187","0.0-21.0-1.2","SS1618365373880","trial","","40","500","1716.880000079982","images/stimuli/spore_stims/complex_18_A_b.gif","images/stimuli/spore_stims/complex_11_A_a.gif","self_paced","","6","complex_dissimilar","images/stimuli/spore_stims/complex_11_A_a.gif","","",""
"","null","html-keyboard-response","79","2094119","0.0-21.0-0.3","SS1618365373880","","","null","","","","","","<p><img src= images/blank.png width =""600"" height = ""600"" style=""position:fixed;top:50%; left:50%; transform: translate(-50%, -50%); border:5px solid black"">","","","","","",""
"","493.1850000284612","sequential-stimulus-presentation-old","80","2095124","0.0-21.0-1.3","SS1618365373880","trial","","40","500","993.1850000284612","images/stimuli/spore_stims/complex_18_A_b.gif","images/stimuli/spore_stims/complex_11_A_a.gif","self_paced","","6","complex_dissimilar","images/stimuli/spore_stims/complex_18_A_b.gif","","",""
"","null","html-keyboard-response","81","2096383","0.0-21.0-0.4","SS1618365373880","","","null","","","","","","<p><img src= images/blank.png width =""600"" height = ""600"" style=""position:fixed;top:50%; left:50%; transform: translate(-50%, -50%); border:5px solid black"">","","","","","",""
"","614.5650000544265","sequential-stimulus-presentation-old","82","2097515","0.0-21.0-1.4","SS1618365373880","trial","","40","500","1114.5650000544265","images/stimuli/spore_stims/complex_18_A_b.gif","images/stimuli/spore_stims/complex_11_A_a.gif","self_paced","","6","complex_dissimilar","images/stimuli/spore_stims/complex_11_A_a.gif","","",""
"","null","html-keyboard-response","83","2098752","0.0-21.0-0.5","SS1618365373880","","","null","","","","","","<p><img src= images/blank.png width =""600"" height = ""600"" style=""position:fixed;top:50%; left:50%; transform: translate(-50%, -50%); border:5px solid black"">","","","","","",""
"","731.6899999277666","sequential-stimulus-presentation-old","84","2099996","0.0-21.0-1.5","SS1618365373880","trial","","40","500","1231.6899999277666","images/stimuli/spore_stims/complex_18_A_b.gif","images/stimuli/spore_stims/complex_11_A_a.gif","self_paced","","6","complex_dissimilar","images/stimuli/spore_stims/complex_11_A_a.gif","","",""
"","3455.790000036359","survey-multi-choice","85","2103457","0.0-22.0","SS1618365373880","math_question","","","","","","","","","","","","{""Q0"":""3""}","[0]","3"
"","null","html-keyboard-response","86","2104684","0.0-23.0-0.0","SS1618365373880","","","null","","","","","","<p><img src= images/blank.png width =""600"" height = ""600"" style=""position:fixed;top:50%; left:50%; transform: translate(-50%, -50%); border:5px solid black"">","","","","","",""
"","401.95000008679926","sequential-stimulus-presentation-old","87","2105596","0.0-23.0-1.0","SS1618365373880","trial","","40","500","901.9500000867993","images/stimuli/spore_stims/complex_02_A_b.gif","images/stimuli/spore_stims/complex_04_A_a.gif","self_paced","","7","complex_dissimilar","images/stimuli/spore_stims/complex_04_A_a.gif","","",""
"","null","html-keyboard-response","88","2106770","0.0-23.0-0.1","SS1618365373880","","","null","","","","","","<p><img src= images/blank.png width =""600"" height = ""600"" style=""position:fixed;top:50%; left:50%; transform: translate(-50%, -50%); border:5px solid black"">","","","","","",""
"","635.5100000509992","sequential-stimulus-presentation-old","89","2107915","0.0-23.0-1.1","SS1618365373880","trial","","40","500","1135.5100000509992","images/stimuli/spore_stims/complex_02_A_b.gif","images/stimuli/spore_stims/complex_04_A_a.gif","self_paced","","7","complex_dissimilar","images/stimuli/spore_stims/complex_04_A_a.gif","","",""
"","null","html-keyboard-response","90","2108934","0.0-23.0-0.2","SS1618365373880","","","null","","","","","","<p><img src= images/blank.png width =""600"" height = ""600"" style=""position:fixed;top:50%; left:50%; transform: translate(-50%, -50%); border:5px solid black"">","","","","","",""
"","1056.5750000532717","sequential-stimulus-presentation-old","91","2110499","0.0-23.0-1.2","SS1618365373880","trial","","40","500","1556.5750000532717","images/stimuli/spore_stims/complex_02_A_b.gif","images/stimuli/spore_stims/complex_04_A_a.gif","self_paced","","7","complex_dissimilar","images/stimuli/spore_stims/complex_04_A_a.gif","","",""
"","null","html-keyboard-response","92","2111373","0.0-23.0-0.3","SS1618365373880","","","null","","","","","","<p><img src= images/blank.png width =""600"" height = ""600"" style=""position:fixed;top:50%; left:50%; transform: translate(-50%, -50%); border:5px solid black"">","","","","","",""
"","287.23999997600913","sequential-stimulus-presentation-old","93","2112170","0.0-23.0-1.3","SS1618365373880","trial","","40","500","787.2399999760091","images/stimuli/spore_stims/complex_02_A_b.gif","images/stimuli/spore_stims/complex_04_A_a.gif","self_paced","","7","complex_dissimilar","images/stimuli/spore_stims/complex_02_A_b.gif","","",""
"","null","html-keyboard-response","94","2113221","0.0-23.0-0.4","SS1618365373880","","","null","","","","","","<p><img src= images/blank.png width =""600"" height = ""600"" style=""position:fixed;top:50%; left:50%; transform: translate(-50%, -50%); border:5px solid black"">","","","","","",""
"","833.6500000441447","sequential-stimulus-presentation-old","95","2114563","0.0-23.0-1.4","SS1618365373880","trial","","40","500","1333.6500000441447","images/stimuli/spore_stims/complex_02_A_b.gif","images/stimuli/spore_stims/complex_04_A_a.gif","self_paced","","7","complex_dissimilar","images/stimuli/spore_stims/complex_02_A_b.gif","","",""
"","2312.4500000849366","survey-multi-choice","96","2116882","0.0-24.0","SS1618365373880","math_question","","","","","","","","","","","","{""Q0"":""9""}","[0]","9"
"","null","html-keyboard-response","97","2117746","0.0-25.0-0.0","SS1618365373880","","","null","","","","","","<p><img src= images/blank.png width =""600"" height = ""600"" style=""position:fixed;top:50%; left:50%; transform: translate(-50%, -50%); border:5px solid black"">","","","","","",""
"","591.234999941662","sequential-stimulus-presentation-old","98","2118411","0.0-25.0-1.0","SS1618365373880","trial","","40","500","1091.234999941662","images/stimuli/spore_stims/simple_05_A_b.gif","images/stimuli/spore_stims/simple_07_A_a.gif","forced_short","","8","simple_dissimilar","images/stimuli/spore_stims/simple_07_A_a.gif","","",""
"","null","html-keyboard-response","99","2119325","0.0-25.0-0.1","SS1618365373880","","","null","","","","","","<p><img src= images/blank.png width =""600"" height = ""600"" style=""position:fixed;top:50%; left:50%; transform: translate(-50%, -50%); border:5px solid black"">","","","","","",""
"","1.1550000635907054","sequential-stimulus-presentation-old","100","2119835","0.0-25.0-1.1","SS1618365373880","trial","","40","500","501.1550000635907","images/stimuli/spore_stims/simple_05_A_b.gif","images/stimuli/spore_stims/simple_07_A_a.gif","forced_short","","8","simple_dissimilar","images/stimuli/spore_stims/simple_07_A_a.gif","","",""
"","null","html-keyboard-response","101","2120661","0.0-25.0-0.2","SS1618365373880","","","null","","","","","","<p><img src= images/blank.png width =""600"" height = ""600"" style=""position:fixed;top:50%; left:50%; transform: translate(-50%, -50%); border:5px solid black"">","","","","","",""
"","315.47499995213","sequential-stimulus-presentation-old","102","2121490","0.0-25.0-1.2","SS1618365373880","trial","","40","500","815.47499995213","images/stimuli/spore_stims/simple_05_A_b.gif","images/stimuli/spore_stims/simple_07_A_a.gif","forced_short","","8","simple_dissimilar","images/stimuli/spore_stims/simple_07_A_a.gif","","",""
"","null","html-keyboard-response","103","2122762","0.0-25.0-0.3","SS1618365373880","","","null","","","","","","<p><img src= images/blank.png width =""600"" height = ""600"" style=""position:fixed;top:50%; left:50%; transform: translate(-50%, -50%); border:5px solid black"">","","","","","",""
"","559.3149999622256","sequential-stimulus-presentation-old","104","2123835","0.0-25.0-1.3","SS1618365373880","trial","","40","500","1059.3149999622256","images/stimuli/spore_stims/simple_05_A_b.gif","images/stimuli/spore_stims/simple_07_A_a.gif","forced_short","","8","simple_dissimilar","images/stimuli/spore_stims/simple_07_A_a.gif","","",""
"","null","html-keyboard-response","105","2125145","0.0-25.0-0.4","SS1618365373880","","","null","","","","","","<p><img src= images/blank.png width =""600"" height = ""600"" style=""position:fixed;top:50%; left:50%; transform: translate(-50%, -50%); border:5px solid black"">","","","","","",""
"","536.9299999438226","sequential-stimulus-presentation-old","106","2126195","0.0-25.0-1.4","SS1618365373880","trial","","40","500","1036.9299999438226","images/stimuli/spore_stims/simple_05_A_b.gif","images/stimuli/spore_stims/simple_07_A_a.gif","forced_short","","8","simple_dissimilar","images/stimuli/spore_stims/simple_07_A_a.gif","","",""
"","2775.0750000122935","survey-multi-choice","107","2128977","0.0-26.0","SS1618365373880","math_question","","","","","","","","","","","","{""Q0"":""10""}","[0]","10"
"","null","html-keyboard-response","108","2130222","0.0-27.0-0.0","SS1618365373880","","","null","","","","","","<p><img src= images/blank.png width =""600"" height = ""600"" style=""position:fixed;top:50%; left:50%; transform: translate(-50%, -50%); border:5px solid black"">","","","","","",""
"","4414.199999999255","sequential-stimulus-presentation-old","109","2134699","0.0-27.0-1.0","SS1618365373880","trial","","40","500","4914.199999999255","images/stimuli/spore_stims/complex_05_A_a.gif","images/stimuli/spore_stims/complex_03_A_b.gif","forced_short","","9","complex_dissimilar","images/stimuli/spore_stims/complex_03_A_b.gif","","",""
"","null","html-keyboard-response","110","2135662","0.0-27.0-0.1","SS1618365373880","","","null","","","","","","<p><img src= images/blank.png width =""600"" height = ""600"" style=""position:fixed;top:50%; left:50%; transform: translate(-50%, -50%); border:5px solid black"">","","","","","",""
"","237.7400000113994","sequential-stimulus-presentation-old","111","2136411","0.0-27.0-1.1","SS1618365373880","trial","","40","500","737.7400000113994","images/stimuli/spore_stims/complex_05_A_a.gif","images/stimuli/spore_stims/complex_03_A_b.gif","forced_short","","9","complex_dissimilar","images/stimuli/spore_stims/complex_03_A_b.gif","","",""
"","null","html-keyboard-response","112","2137307","0.0-27.0-0.2","SS1618365373880","","","null","","","","","","<p><img src= images/blank.png width =""600"" height = ""600"" style=""position:fixed;top:50%; left:50%; transform: translate(-50%, -50%); border:5px solid black"">","","","","","",""
"","1035.9900000039488","sequential-stimulus-presentation-old","113","2138859","0.0-27.0-1.2","SS1618365373880","trial","","40","500","1535.9900000039488","images/stimuli/spore_stims/complex_05_A_a.gif","images/stimuli/spore_stims/complex_03_A_b.gif","forced_short","","9","complex_dissimilar","images/stimuli/spore_stims/complex_03_A_b.gif","","",""
"","null","html-keyboard-response","114","2139747","0.0-27.0-0.3","SS1618365373880","","","null","","","","","","<p><img src= images/blank.png width =""600"" height = ""600"" style=""position:fixed;top:50%; left:50%; transform: translate(-50%, -50%); border:5px solid black"">","","","","","",""
"","1119.8500000173226","sequential-stimulus-presentation-old","115","2141376","0.0-27.0-1.3","SS1618365373880","trial","","40","500","1619.8500000173226","images/stimuli/spore_stims/complex_05_A_a.gif","images/stimuli/spore_stims/complex_03_A_b.gif","forced_short","","9","complex_dissimilar","images/stimuli/spore_stims/complex_03_A_b.gif","","",""
"","null","html-keyboard-response","116","2142686","0.0-27.0-0.4","SS1618365373880","","","null","","","","","","<p><img src= images/blank.png width =""600"" height = ""600"" style=""position:fixed;top:50%; left:50%; transform: translate(-50%, -50%); border:5px solid black"">","","","","","",""
"","418.3249999769032","sequential-stimulus-presentation-old","117","2143613","0.0-27.0-1.4","SS1618365373880","trial","","40","500","918.3249999769032","images/stimuli/spore_stims/complex_05_A_a.gif","images/stimuli/spore_stims/complex_03_A_b.gif","forced_short","","9","complex_dissimilar","images/stimuli/spore_stims/complex_05_A_a.gif","","",""
"","3564.669999992475","survey-multi-choice","118","2147185","0.0-28.0","SS1618365373880","math_question","","","","","","","","","","","","{""Q0"":""7""}","[0]","7"
"","null","html-keyboard-response","119","2148205","0.0-29.0-0.0","SS1618365373880","","","null","","","","","","<p><img src= images/blank.png width =""600"" height = ""600"" style=""position:fixed;top:50%; left:50%; transform: translate(-50%, -50%); border:5px solid black"">","","","","","",""
"","12407.760000089183","sequential-stimulus-presentation-old","120","2161138","0.0-29.0-1.0","SS1618365373880","trial","","40","500","12907.760000089183","images/stimuli/spore_stims/simple_18_A_b.gif","images/stimuli/spore_stims/simple_20_A_a.gif","self_paced","","10","simple_dissimilar","images/stimuli/spore_stims/simple_20_A_a.gif","","",""
"","null","html-keyboard-response","121","2162199","0.0-29.0-0.1","SS1618365373880","","","null","","","","","","<p><img src= images/blank.png width =""600"" height = ""600"" style=""position:fixed;top:50%; left:50%; transform: translate(-50%, -50%); border:5px solid black"">","","","","","",""
"","921.2250000564381","sequential-stimulus-presentation-old","122","2163635","0.0-29.0-1.1","SS1618365373880","trial","","40","500","1421.2250000564381","images/stimuli/spore_stims/simple_18_A_b.gif","images/stimuli/spore_stims/simple_20_A_a.gif","self_paced","","10","simple_dissimilar","images/stimuli/spore_stims/simple_20_A_a.gif","","",""
"","null","html-keyboard-response","123","2164788","0.0-29.0-0.2","SS1618365373880","","","null","","","","","","<p><img src= images/blank.png width =""600"" height = ""600"" style=""position:fixed;top:50%; left:50%; transform: translate(-50%, -50%); border:5px solid black"">","","","","","",""
"","12100.570000009611","sequential-stimulus-presentation-old","124","2177890","0.0-29.0-1.2","SS1618365373880","trial","","40","500","12600.570000009611","images/stimuli/spore_stims/simple_18_A_b.gif","images/stimuli/spore_stims/simple_20_A_a.gif","self_paced","","10","simple_dissimilar","images/stimuli/spore_stims/simple_20_A_a.gif","","",""
"","null","html-keyboard-response","125","2179038","0.0-29.0-0.3","SS1618365373880","","","null","","","","","","<p><img src= images/blank.png width =""600"" height = ""600"" style=""position:fixed;top:50%; left:50%; transform: translate(-50%, -50%); border:5px solid black"">","","","","","",""
"","1065.0649999734014","sequential-stimulus-presentation-old","126","2180618","0.0-29.0-1.3","SS1618365373880","trial","","40","500","1565.0649999734014","images/stimuli/spore_stims/simple_18_A_b.gif","images/stimuli/spore_stims/simple_20_A_a.gif","self_paced","","10","simple_dissimilar","images/stimuli/spore_stims/simple_20_A_a.gif","","",""
"","5431.985000032","survey-multi-choice","127","2186056","0.0-30.0","SS1618365373880","math_question","","","","","","","","","","","","{""Q0"":""13""}","[0]","13"
"","null","html-keyboard-response","128","2187105","0.0-31.0-0.0","SS1618365373880","","","null","","","","","","<p><img src= images/blank.png width =""600"" height = ""600"" style=""position:fixed;top:50%; left:50%; transform: translate(-50%, -50%); border:5px solid black"">","","","","","",""
"","414.1199999721721","sequential-stimulus-presentation-old","129","2192529","0.0-31.0-1.0","SS1618365373880","trial","","40","500","914.1199999721721","images/stimuli/spore_stims/simple_05_A_a.gif","images/stimuli/spore_stims/simple_17_A_b.gif","forced_long","","11","simple_dissimilar","images/stimuli/spore_stims/simple_17_A_b.gif","","",""
"","null","html-keyboard-response","130","2193375","0.0-31.0-0.1","SS1618365373880","","","null","","","","","","<p><img src= images/blank.png width =""600"" height = ""600"" style=""position:fixed;top:50%; left:50%; transform: translate(-50%, -50%); border:5px solid black"">","","","","","",""
"","1184.9699999438599","sequential-stimulus-presentation-old","131","2195075","0.0-31.0-1.1","SS1618365373880","trial","","40","500","1684.9699999438599","images/stimuli/spore_stims/simple_05_A_a.gif","images/stimuli/spore_stims/simple_17_A_b.gif","forced_long","","11","simple_dissimilar","images/stimuli/spore_stims/simple_17_A_b.gif","","",""
"","null","html-keyboard-response","132","2196143","0.0-31.0-0.2","SS1618365373880","","","null","","","","","","<p><img src= images/blank.png width =""600"" height = ""600"" style=""position:fixed;top:50%; left:50%; transform: translate(-50%, -50%); border:5px solid black"">","","","","","",""
"","211.64500003214926","sequential-stimulus-presentation-old","133","2196866","0.0-31.0-1.2","SS1618365373880","trial","","40","500","711.6450000321493","images/stimuli/spore_stims/simple_05_A_a.gif","images/stimuli/spore_stims/simple_17_A_b.gif","forced_long","","11","simple_dissimilar","images/stimuli/spore_stims/simple_05_A_a.gif","","",""
"","null","html-keyboard-response","134","2197757","0.0-31.0-0.3","SS1618365373880","","","null","","","","","","<p><img src= images/blank.png width =""600"" height = ""600"" style=""position:fixed;top:50%; left:50%; transform: translate(-50%, -50%); border:5px solid black"">","","","","","",""
"","687.7000000094995","sequential-stimulus-presentation-old","135","2198962","0.0-31.0-1.3","SS1618365373880","trial","","40","500","1187.7000000094995","images/stimuli/spore_stims/simple_05_A_a.gif","images/stimuli/spore_stims/simple_17_A_b.gif","forced_long","","11","simple_dissimilar","images/stimuli/spore_stims/simple_17_A_b.gif","","",""
"","null","html-keyboard-response","136","2199808","0.0-31.0-0.4","SS1618365373880","","","null","","","","","","<p><img src= images/blank.png width =""600"" height = ""600"" style=""position:fixed;top:50%; left:50%; transform: translate(-50%, -50%); border:5px solid black"">","","","","","",""
"","116.2250000052154","sequential-stimulus-presentation-old","137","2200435","0.0-31.0-1.4","SS1618365373880","trial","","40","500","616.2250000052154","images/stimuli/spore_stims/simple_05_A_a.gif","images/stimuli/spore_stims/simple_17_A_b.gif","forced_long","","11","simple_dissimilar","images/stimuli/spore_stims/simple_05_A_a.gif","","",""
"[{""page_index"":0,""viewing_time"":2157.604999956675}]","2158.0449999310076","instructions","138","2202600","0.0-32.0","SS1618365373880","instructions","","","","","","","","","","","","","",""
