"view_history","rt","trial_type","trial_index","time_elapsed","internal_node_id","subject","stimulus_type","trial_stimulus","key_press","minimum_viewing_duration","trial_looking_time","block_deviant","block_background","exposure_type","stimulus","block_number","block_type","stimulus_displayed","responses","question_order","math_correct_answer","stimulus_left","stimulus_right"
"[{""page_index"":0,""viewing_time"":14683.109999983571}]","14683.980000001611","instructions","0","14685","0.0-0.0","SS1618435644968","","","","","","","","","","","","","","","","",""
"[{""page_index"":0,""viewing_time"":8209.954999998445},{""page_index"":1,""viewing_time"":4677.765000000363}]","12888.079999975162","instructions","1","29576","0.0-1.0","SS1618435644968","instructions","","","","","","","","","","","","","","","",""
"","4434.590000018943","sequential-stimulus-presentation-old","2","34517","0.0-2.0","SS1618435644968","","","40","500","4934.590000018943","null","null","self_paced","","","","","","","","",""
"","3461.6499999829102","sequential-stimulus-presentation-old","3","38483","0.0-3.0","SS1618435644968","","","40","500","3961.6499999829102","null","null","self_paced","","","","","","","","",""
"[{""page_index"":0,""viewing_time"":17027.174999995623}]","17027.564999996684","instructions","4","55513","0.0-4.0","SS1618435644968","instructions","","","","","","","","","","","","","","","",""
"","1018.0399999953806","sequential-stimulus-presentation-old","5","61534","0.0-5.0","SS1618435644968","","","40","500","1518.0399999953806","null","null","forced_long","","","","","","","","",""
"","7133.154999988619","sequential-stimulus-presentation-old","6","68729","0.0-6.0","SS1618435644968","","","40","50","7183.154999988619","null","null","forced_long","","","","","","","","",""
"[{""page_index"":0,""viewing_time"":3121.964999998454}]","3122.3949999839533","instructions","7","71853","0.0-7.0","SS1618435644968","instructions","","","","","","","","","","","","","","","",""
"[{""page_index"":0,""viewing_time"":7468.174999987241},{""page_index"":1,""viewing_time"":11981.635000003735},{""page_index"":2,""viewing_time"":4457.745000021532},{""page_index"":3,""viewing_time"":1522.7199999790173},{""page_index"":4,""viewing_time"":1369.765000010375}]","26800.51500000991","instructions","8","98655","0.0-8.0","SS1618435644968","instructions","","","","","","","","","","","","","","","",""
"","null","html-keyboard-response","9","99583","0.0-9.0-0.0","SS1618435644968","","","null","","","","","","<p><img src= images/blank.png width =""600"" height = ""600"" style=""position:fixed;top:50%; left:50%; transform: translate(-50%, -50%); border:5px solid black"">","","","","","","","",""
"","7888.719999988098","sequential-stimulus-presentation-old","10","107529","0.0-9.0-1.0","SS1618435644968","trial","","40","500","8388.719999988098","images/stimuli/spore_stims/complex_10_A_b.gif","images/stimuli/spore_stims/complex_01_A_a.gif","forced_short","","0","complex_dissimilar","images/stimuli/spore_stims/complex_01_A_a.gif","","","","",""
"","null","html-keyboard-response","11","108661","0.0-9.0-0.1","SS1618435644968","","","null","","","","","","<p><img src= images/blank.png width =""600"" height = ""600"" style=""position:fixed;top:50%; left:50%; transform: translate(-50%, -50%); border:5px solid black"">","","","","","","","",""
"","5553.190000005998","sequential-stimulus-presentation-old","12","114720","0.0-9.0-1.1","SS1618435644968","trial","","40","500","6053.190000005998","images/stimuli/spore_stims/complex_10_A_b.gif","images/stimuli/spore_stims/complex_01_A_a.gif","forced_short","","0","complex_dissimilar","images/stimuli/spore_stims/complex_10_A_b.gif","","","","",""
"","null","html-keyboard-response","13","115559","0.0-9.0-0.2","SS1618435644968","","","null","","","","","","<p><img src= images/blank.png width =""600"" height = ""600"" style=""position:fixed;top:50%; left:50%; transform: translate(-50%, -50%); border:5px solid black"">","","","","","","","",""
"","5951.050000003306","sequential-stimulus-presentation-old","14","122016","0.0-9.0-1.2","SS1618435644968","trial","","40","500","6451.050000003306","images/stimuli/spore_stims/complex_10_A_b.gif","images/stimuli/spore_stims/complex_01_A_a.gif","forced_short","","0","complex_dissimilar","images/stimuli/spore_stims/complex_01_A_a.gif","","","","",""
"","null","html-keyboard-response","15","123318","0.0-9.0-0.3","SS1618435644968","","","null","","","","","","<p><img src= images/blank.png width =""600"" height = ""600"" style=""position:fixed;top:50%; left:50%; transform: translate(-50%, -50%); border:5px solid black"">","","","","","","","",""
"","3074.6199999994133","sequential-stimulus-presentation-old","16","126903","0.0-9.0-1.3","SS1618435644968","trial","","40","500","3574.6199999994133","images/stimuli/spore_stims/complex_10_A_b.gif","images/stimuli/spore_stims/complex_01_A_a.gif","forced_short","","0","complex_dissimilar","images/stimuli/spore_stims/complex_01_A_a.gif","","","","",""
"","null","html-keyboard-response","17","127707","0.0-9.0-0.4","SS1618435644968","","","null","","","","","","<p><img src= images/blank.png width =""600"" height = ""600"" style=""position:fixed;top:50%; left:50%; transform: translate(-50%, -50%); border:5px solid black"">","","","","","","","",""
"","1684.2750000068918","sequential-stimulus-presentation-old","18","129902","0.0-9.0-1.4","SS1618435644968","trial","","40","500","2184.275000006892","images/stimuli/spore_stims/complex_10_A_b.gif","images/stimuli/spore_stims/complex_01_A_a.gif","forced_short","","0","complex_dissimilar","images/stimuli/spore_stims/complex_01_A_a.gif","","","","",""
"","8958.524999994552","survey-multi-choice","19","138865","0.0-10.0","SS1618435644968","math_question","","","","","","","","","","","","{""Q0"":""11""}","[0]","11","",""
"","null","html-keyboard-response","20","139970","0.0-11.0-0.0","SS1618435644968","","","null","","","","","","<p><img src= images/blank.png width =""600"" height = ""600"" style=""position:fixed;top:50%; left:50%; transform: translate(-50%, -50%); border:5px solid black"">","","","","","","","",""
"","3594.710000004852","sequential-stimulus-presentation-old","21","144078","0.0-11.0-1.0","SS1618435644968","trial","","40","500","4094.710000004852","images/stimuli/spore_stims/simple_11_A_b.gif","images/stimuli/spore_stims/simple_05_A_a.gif","self_paced","","1","simple_dissimilar","images/stimuli/spore_stims/simple_05_A_a.gif","","","","",""
"","null","html-keyboard-response","22","145071","0.0-11.0-0.1","SS1618435644968","","","null","","","","","","<p><img src= images/blank.png width =""600"" height = ""600"" style=""position:fixed;top:50%; left:50%; transform: translate(-50%, -50%); border:5px solid black"">","","","","","","","",""
"","2855.505000014091","sequential-stimulus-presentation-old","23","148432","0.0-11.0-1.1","SS1618435644968","trial","","40","500","3355.505000014091","images/stimuli/spore_stims/simple_11_A_b.gif","images/stimuli/spore_stims/simple_05_A_a.gif","self_paced","","1","simple_dissimilar","images/stimuli/spore_stims/simple_05_A_a.gif","","","","",""
"","null","html-keyboard-response","24","149597","0.0-11.0-0.2","SS1618435644968","","","null","","","","","","<p><img src= images/blank.png width =""600"" height = ""600"" style=""position:fixed;top:50%; left:50%; transform: translate(-50%, -50%); border:5px solid black"">","","","","","","","",""
"","3493.080000014743","sequential-stimulus-presentation-old","25","153601","0.0-11.0-1.2","SS1618435644968","trial","","40","500","3993.080000014743","images/stimuli/spore_stims/simple_11_A_b.gif","images/stimuli/spore_stims/simple_05_A_a.gif","self_paced","","1","simple_dissimilar","images/stimuli/spore_stims/simple_05_A_a.gif","","","","",""
"","null","html-keyboard-response","26","154878","0.0-11.0-0.3","SS1618435644968","","","null","","","","","","<p><img src= images/blank.png width =""600"" height = ""600"" style=""position:fixed;top:50%; left:50%; transform: translate(-50%, -50%); border:5px solid black"">","","","","","","","",""
"","961.940000008326","sequential-stimulus-presentation-old","27","156343","0.0-11.0-1.3","SS1618435644968","trial","","40","500","1461.940000008326","images/stimuli/spore_stims/simple_11_A_b.gif","images/stimuli/spore_stims/simple_05_A_a.gif","self_paced","","1","simple_dissimilar","images/stimuli/spore_stims/simple_05_A_a.gif","","","","",""
"","null","html-keyboard-response","28","157162","0.0-11.0-0.4","SS1618435644968","","","null","","","","","","<p><img src= images/blank.png width =""600"" height = ""600"" style=""position:fixed;top:50%; left:50%; transform: translate(-50%, -50%); border:5px solid black"">","","","","","","","",""
"","3067.2300000151154","sequential-stimulus-presentation-old","29","160733","0.0-11.0-1.4","SS1618435644968","trial","","40","500","3567.2300000151154","images/stimuli/spore_stims/simple_11_A_b.gif","images/stimuli/spore_stims/simple_05_A_a.gif","self_paced","","1","simple_dissimilar","images/stimuli/spore_stims/simple_05_A_a.gif","","","","",""
"","5832.865000003949","survey-multi-choice","30","166569","0.0-12.0","SS1618435644968","math_question","","","","","","","","","","","","{""Q0"":""11""}","[0]","11","",""
"","null","html-keyboard-response","31","167712","0.0-13.0-0.0","SS1618435644968","","","null","","","","","","<p><img src= images/blank.png width =""600"" height = ""600"" style=""position:fixed;top:50%; left:50%; transform: translate(-50%, -50%); border:5px solid black"">","","","","","","","",""
"","4812.1050000190735","sequential-stimulus-presentation-old","32","173028","0.0-13.0-1.0","SS1618435644968","trial","","40","500","5312.1050000190735","images/stimuli/spore_stims/complex_18_A_a.gif","images/stimuli/spore_stims/complex_12_A_b.gif","self_paced","","2","complex_dissimilar","images/stimuli/spore_stims/complex_12_A_b.gif","","","","",""
"","null","html-keyboard-response","33","173945","0.0-13.0-0.1","SS1618435644968","","","null","","","","","","<p><img src= images/blank.png width =""600"" height = ""600"" style=""position:fixed;top:50%; left:50%; transform: translate(-50%, -50%); border:5px solid black"">","","","","","","","",""
"","5565.080000000307","sequential-stimulus-presentation-old","34","180014","0.0-13.0-1.1","SS1618435644968","trial","","40","500","6065.080000000307","images/stimuli/spore_stims/complex_18_A_a.gif","images/stimuli/spore_stims/complex_12_A_b.gif","self_paced","","2","complex_dissimilar","images/stimuli/spore_stims/complex_18_A_a.gif","","","","",""
"","null","html-keyboard-response","35","180998","0.0-13.0-0.2","SS1618435644968","","","null","","","","","","<p><img src= images/blank.png width =""600"" height = ""600"" style=""position:fixed;top:50%; left:50%; transform: translate(-50%, -50%); border:5px solid black"">","","","","","","","",""
"","3329.744999995455","sequential-stimulus-presentation-old","36","184832","0.0-13.0-1.2","SS1618435644968","trial","","40","500","3829.744999995455","images/stimuli/spore_stims/complex_18_A_a.gif","images/stimuli/spore_stims/complex_12_A_b.gif","self_paced","","2","complex_dissimilar","images/stimuli/spore_stims/complex_12_A_b.gif","","","","",""
"","null","html-keyboard-response","37","185670","0.0-13.0-0.3","SS1618435644968","","","null","","","","","","<p><img src= images/blank.png width =""600"" height = ""600"" style=""position:fixed;top:50%; left:50%; transform: translate(-50%, -50%); border:5px solid black"">","","","","","","","",""
"","1560.475000005681","sequential-stimulus-presentation-old","38","187747","0.0-13.0-1.3","SS1618435644968","trial","","40","500","2060.475000005681","images/stimuli/spore_stims/complex_18_A_a.gif","images/stimuli/spore_stims/complex_12_A_b.gif","self_paced","","2","complex_dissimilar","images/stimuli/spore_stims/complex_18_A_a.gif","","","","",""
"","null","html-keyboard-response","39","188841","0.0-13.0-0.4","SS1618435644968","","","null","","","","","","<p><img src= images/blank.png width =""600"" height = ""600"" style=""position:fixed;top:50%; left:50%; transform: translate(-50%, -50%); border:5px solid black"">","","","","","","","",""
"","2278.6550000018906","sequential-stimulus-presentation-old","40","191635","0.0-13.0-1.4","SS1618435644968","trial","","40","500","2778.6550000018906","images/stimuli/spore_stims/complex_18_A_a.gif","images/stimuli/spore_stims/complex_12_A_b.gif","self_paced","","2","complex_dissimilar","images/stimuli/spore_stims/complex_12_A_b.gif","","","","",""
"","null","html-keyboard-response","41","192635","0.0-13.0-0.5","SS1618435644968","","","null","","","","","","<p><img src= images/blank.png width =""600"" height = ""600"" style=""position:fixed;top:50%; left:50%; transform: translate(-50%, -50%); border:5px solid black"">","","","","","","","",""
"","925.2750000159722","sequential-stimulus-presentation-old","42","194067","0.0-13.0-1.5","SS1618435644968","trial","","40","500","1425.2750000159722","images/stimuli/spore_stims/complex_18_A_a.gif","images/stimuli/spore_stims/complex_12_A_b.gif","self_paced","","2","complex_dissimilar","images/stimuli/spore_stims/complex_12_A_b.gif","","","","",""
"","4611.914999986766","survey-multi-choice","43","198680","0.0-14.0","SS1618435644968","math_question","","","","","","","","","","","","{""Q0"":""15""}","[0]","15","",""
"","null","html-keyboard-response","44","199669","0.0-15.0-0.0","SS1618435644968","","","null","","","","","","<p><img src= images/blank.png width =""600"" height = ""600"" style=""position:fixed;top:50%; left:50%; transform: translate(-50%, -50%); border:5px solid black"">","","","","","","","",""
"","2901.5650000073947","sequential-stimulus-presentation-old","45","202625","0.0-15.0-1.0","SS1618435644968","trial","","40","500","3401.5650000073947","images/stimuli/spore_stims/simple_15_A_a.gif","images/stimuli/spore_stims/simple_07_A_b.gif","forced_short","","3","simple_dissimilar","images/stimuli/spore_stims/simple_07_A_b.gif","","","","",""
"","null","html-keyboard-response","46","203590","0.0-15.0-0.1","SS1618435644968","","","null","","","","","","<p><img src= images/blank.png width =""600"" height = ""600"" style=""position:fixed;top:50%; left:50%; transform: translate(-50%, -50%); border:5px solid black"">","","","","","","","",""
"","2086.29999999539","sequential-stimulus-presentation-old","47","206183","0.0-15.0-1.1","SS1618435644968","trial","","40","500","2586.29999999539","images/stimuli/spore_stims/simple_15_A_a.gif","images/stimuli/spore_stims/simple_07_A_b.gif","forced_short","","3","simple_dissimilar","images/stimuli/spore_stims/simple_07_A_b.gif","","","","",""
"","null","html-keyboard-response","48","207244","0.0-15.0-0.2","SS1618435644968","","","null","","","","","","<p><img src= images/blank.png width =""600"" height = ""600"" style=""position:fixed;top:50%; left:50%; transform: translate(-50%, -50%); border:5px solid black"">","","","","","","","",""
"","248.0949999880977","sequential-stimulus-presentation-old","49","208003","0.0-15.0-1.2","SS1618435644968","trial","","40","500","748.0949999880977","images/stimuli/spore_stims/simple_15_A_a.gif","images/stimuli/spore_stims/simple_07_A_b.gif","forced_short","","3","simple_dissimilar","images/stimuli/spore_stims/simple_07_A_b.gif","","","","",""
"","null","html-keyboard-response","50","208975","0.0-15.0-0.3","SS1618435644968","","","null","","","","","","<p><img src= images/blank.png width =""600"" height = ""600"" style=""position:fixed;top:50%; left:50%; transform: translate(-50%, -50%); border:5px solid black"">","","","","","","","",""
"","91.99000001535751","sequential-stimulus-presentation-old","51","209582","0.0-15.0-1.3","SS1618435644968","trial","","40","500","591.9900000153575","images/stimuli/spore_stims/simple_15_A_a.gif","images/stimuli/spore_stims/simple_07_A_b.gif","forced_short","","3","simple_dissimilar","images/stimuli/spore_stims/simple_07_A_b.gif","","","","",""
"","null","html-keyboard-response","52","210581","0.0-15.0-0.4","SS1618435644968","","","null","","","","","","<p><img src= images/blank.png width =""600"" height = ""600"" style=""position:fixed;top:50%; left:50%; transform: translate(-50%, -50%); border:5px solid black"">","","","","","","","",""
"","83.1449999823235","sequential-stimulus-presentation-old","53","211169","0.0-15.0-1.4","SS1618435644968","trial","","40","500","583.1449999823235","images/stimuli/spore_stims/simple_15_A_a.gif","images/stimuli/spore_stims/simple_07_A_b.gif","forced_short","","3","simple_dissimilar","images/stimuli/spore_stims/simple_07_A_b.gif","","","","",""
"","null","html-keyboard-response","54","212466","0.0-15.0-0.5","SS1618435644968","","","null","","","","","","<p><img src= images/blank.png width =""600"" height = ""600"" style=""position:fixed;top:50%; left:50%; transform: translate(-50%, -50%); border:5px solid black"">","","","","","","","",""
"","56.64500000420958","sequential-stimulus-presentation-old","55","213040","0.0-15.0-1.5","SS1618435644968","trial","","40","500","556.6450000042096","images/stimuli/spore_stims/simple_15_A_a.gif","images/stimuli/spore_stims/simple_07_A_b.gif","forced_short","","3","simple_dissimilar","images/stimuli/spore_stims/simple_07_A_b.gif","","","","",""
"","3458.0649999843445","survey-multi-choice","56","216500","0.0-16.0","SS1618435644968","math_question","","","","","","","","","","","","{""Q0"":""17""}","[0]","17","",""
"","null","html-keyboard-response","57","217672","0.0-17.0-0.0","SS1618435644968","","","null","","","","","","<p><img src= images/blank.png width =""600"" height = ""600"" style=""position:fixed;top:50%; left:50%; transform: translate(-50%, -50%); border:5px solid black"">","","","","","","","",""
"","3133.3450000092853","sequential-stimulus-presentation-old","58","225811","0.0-17.0-1.0","SS1618435644968","trial","","40","500","3633.3450000092853","images/stimuli/spore_stims/complex_02_A_b.gif","images/stimuli/spore_stims/complex_11_A_a.gif","forced_long","","4","complex_dissimilar","images/stimuli/spore_stims/complex_11_A_a.gif","","","","",""
"","null","html-keyboard-response","59","226826","0.0-17.0-0.1","SS1618435644968","","","null","","","","","","<p><img src= images/blank.png width =""600"" height = ""600"" style=""position:fixed;top:50%; left:50%; transform: translate(-50%, -50%); border:5px solid black"">","","","","","","","",""
"","2211.489999986952","sequential-stimulus-presentation-old","60","229543","0.0-17.0-1.1","SS1618435644968","trial","","40","500","2711.489999986952","images/stimuli/spore_stims/complex_02_A_b.gif","images/stimuli/spore_stims/complex_11_A_a.gif","forced_long","","4","complex_dissimilar","images/stimuli/spore_stims/complex_11_A_a.gif","","","","",""
"","null","html-keyboard-response","61","230453","0.0-17.0-0.2","SS1618435644968","","","null","","","","","","<p><img src= images/blank.png width =""600"" height = ""600"" style=""position:fixed;top:50%; left:50%; transform: translate(-50%, -50%); border:5px solid black"">","","","","","","","",""
"","1143.549999978859","sequential-stimulus-presentation-old","62","232112","0.0-17.0-1.2","SS1618435644968","trial","","40","500","1643.549999978859","images/stimuli/spore_stims/complex_02_A_b.gif","images/stimuli/spore_stims/complex_11_A_a.gif","forced_long","","4","complex_dissimilar","images/stimuli/spore_stims/complex_11_A_a.gif","","","","",""
"","null","html-keyboard-response","63","232972","0.0-17.0-0.3","SS1618435644968","","","null","","","","","","<p><img src= images/blank.png width =""600"" height = ""600"" style=""position:fixed;top:50%; left:50%; transform: translate(-50%, -50%); border:5px solid black"">","","","","","","","",""
"","394.39499998115934","sequential-stimulus-presentation-old","64","233883","0.0-17.0-1.3","SS1618435644968","trial","","40","500","894.3949999811593","images/stimuli/spore_stims/complex_02_A_b.gif","images/stimuli/spore_stims/complex_11_A_a.gif","forced_long","","4","complex_dissimilar","images/stimuli/spore_stims/complex_11_A_a.gif","","","","",""
"","null","html-keyboard-response","65","235016","0.0-17.0-0.4","SS1618435644968","","","null","","","","","","<p><img src= images/blank.png width =""600"" height = ""600"" style=""position:fixed;top:50%; left:50%; transform: translate(-50%, -50%); border:5px solid black"">","","","","","","","",""
"","843.559999979334","sequential-stimulus-presentation-old","66","236368","0.0-17.0-1.4","SS1618435644968","trial","","40","500","1343.559999979334","images/stimuli/spore_stims/complex_02_A_b.gif","images/stimuli/spore_stims/complex_11_A_a.gif","forced_long","","4","complex_dissimilar","images/stimuli/spore_stims/complex_11_A_a.gif","","","","",""
"","null","html-keyboard-response","67","237332","0.0-17.0-0.5","SS1618435644968","","","null","","","","","","<p><img src= images/blank.png width =""600"" height = ""600"" style=""position:fixed;top:50%; left:50%; transform: translate(-50%, -50%); border:5px solid black"">","","","","","","","",""
"","1032.5899999879766","sequential-stimulus-presentation-old","68","238877","0.0-17.0-1.5","SS1618435644968","trial","","40","500","1532.5899999879766","images/stimuli/spore_stims/complex_02_A_b.gif","images/stimuli/spore_stims/complex_11_A_a.gif","forced_long","","4","complex_dissimilar","images/stimuli/spore_stims/complex_02_A_b.gif","","","","",""
"","4075.0649999827147","survey-multi-choice","69","242955","0.0-18.0","SS1618435644968","math_question","","","","","","","","","","","","{""Q0"":""10""}","[0]","10","",""
"","null","html-keyboard-response","70","243881","0.0-19.0-0.0","SS1618435644968","","","null","","","","","","<p><img src= images/blank.png width =""600"" height = ""600"" style=""position:fixed;top:50%; left:50%; transform: translate(-50%, -50%); border:5px solid black"">","","","","","","","",""
"","987.4450000061188","sequential-stimulus-presentation-old","71","249876","0.0-19.0-1.0","SS1618435644968","trial","","40","500","1487.4450000061188","images/stimuli/spore_stims/complex_15_A_b.gif","images/stimuli/spore_stims/complex_02_A_a.gif","forced_long","","5","complex_dissimilar","images/stimuli/spore_stims/complex_02_A_a.gif","","","","",""
"","null","html-keyboard-response","72","251009","0.0-19.0-0.1","SS1618435644968","","","null","","","","","","<p><img src= images/blank.png width =""600"" height = ""600"" style=""position:fixed;top:50%; left:50%; transform: translate(-50%, -50%); border:5px solid black"">","","","","","","","",""
"","528.5399999993388","sequential-stimulus-presentation-old","73","252049","0.0-19.0-1.1","SS1618435644968","trial","","40","500","1028.5399999993388","images/stimuli/spore_stims/complex_15_A_b.gif","images/stimuli/spore_stims/complex_02_A_a.gif","forced_long","","5","complex_dissimilar","images/stimuli/spore_stims/complex_02_A_a.gif","","","","",""
"","null","html-keyboard-response","74","253162","0.0-19.0-0.2","SS1618435644968","","","null","","","","","","<p><img src= images/blank.png width =""600"" height = ""600"" style=""position:fixed;top:50%; left:50%; transform: translate(-50%, -50%); border:5px solid black"">","","","","","","","",""
"","1130.7050000177696","sequential-stimulus-presentation-old","75","254807","0.0-19.0-1.2","SS1618435644968","trial","","40","500","1630.7050000177696","images/stimuli/spore_stims/complex_15_A_b.gif","images/stimuli/spore_stims/complex_02_A_a.gif","forced_long","","5","complex_dissimilar","images/stimuli/spore_stims/complex_02_A_a.gif","","","","",""
"","null","html-keyboard-response","76","256030","0.0-19.0-0.3","SS1618435644968","","","null","","","","","","<p><img src= images/blank.png width =""600"" height = ""600"" style=""position:fixed;top:50%; left:50%; transform: translate(-50%, -50%); border:5px solid black"">","","","","","","","",""
"","741.5299999993294","sequential-stimulus-presentation-old","77","257288","0.0-19.0-1.3","SS1618435644968","trial","","40","500","1241.5299999993294","images/stimuli/spore_stims/complex_15_A_b.gif","images/stimuli/spore_stims/complex_02_A_a.gif","forced_long","","5","complex_dissimilar","images/stimuli/spore_stims/complex_02_A_a.gif","","","","",""
"","2587.8450000018347","survey-multi-choice","78","259881","0.0-20.0","SS1618435644968","math_question","","","","","","","","","","","","{""Q0"":""8""}","[0]","8","",""
"","null","html-keyboard-response","79","260731","0.0-21.0-0.0","SS1618435644968","","","null","","","","","","<p><img src= images/blank.png width =""600"" height = ""600"" style=""position:fixed;top:50%; left:50%; transform: translate(-50%, -50%); border:5px solid black"">","","","","","","","",""
"","803.1900000059977","sequential-stimulus-presentation-old","80","261590","0.0-21.0-1.0","SS1618435644968","trial","","40","500","1303.1900000059977","images/stimuli/spore_stims/complex_05_A_a.gif","images/stimuli/spore_stims/complex_16_A_b.gif","forced_short","","6","complex_dissimilar","images/stimuli/spore_stims/complex_16_A_b.gif","","","","",""
"","null","html-keyboard-response","81","262472","0.0-21.0-0.1","SS1618435644968","","","null","","","","","","<p><img src= images/blank.png width =""600"" height = ""600"" style=""position:fixed;top:50%; left:50%; transform: translate(-50%, -50%); border:5px solid black"">","","","","","","","",""
"","1303.730000014184","sequential-stimulus-presentation-old","82","264293","0.0-21.0-1.1","SS1618435644968","trial","","40","500","1803.730000014184","images/stimuli/spore_stims/complex_05_A_a.gif","images/stimuli/spore_stims/complex_16_A_b.gif","forced_short","","6","complex_dissimilar","images/stimuli/spore_stims/complex_16_A_b.gif","","","","",""
"","null","html-keyboard-response","83","265175","0.0-21.0-0.2","SS1618435644968","","","null","","","","","","<p><img src= images/blank.png width =""600"" height = ""600"" style=""position:fixed;top:50%; left:50%; transform: translate(-50%, -50%); border:5px solid black"">","","","","","","","",""
"","773.2600000163075","sequential-stimulus-presentation-old","84","266453","0.0-21.0-1.2","SS1618435644968","trial","","40","500","1273.2600000163075","images/stimuli/spore_stims/complex_05_A_a.gif","images/stimuli/spore_stims/complex_16_A_b.gif","forced_short","","6","complex_dissimilar","images/stimuli/spore_stims/complex_16_A_b.gif","","","","",""
"","null","html-keyboard-response","85","267595","0.0-21.0-0.3","SS1618435644968","","","null","","","","","","<p><img src= images/blank.png width =""600"" height = ""600"" style=""position:fixed;top:50%; left:50%; transform: translate(-50%, -50%); border:5px solid black"">","","","","","","","",""
"","1368.205000006128","sequential-stimulus-presentation-old","86","269480","0.0-21.0-1.3","SS1618435644968","trial","","40","500","1868.205000006128","images/stimuli/spore_stims/complex_05_A_a.gif","images/stimuli/spore_stims/complex_16_A_b.gif","forced_short","","6","complex_dissimilar","images/stimuli/spore_stims/complex_16_A_b.gif","","","","",""
"","null","html-keyboard-response","87","270393","0.0-21.0-0.4","SS1618435644968","","","null","","","","","","<p><img src= images/blank.png width =""600"" height = ""600"" style=""position:fixed;top:50%; left:50%; transform: translate(-50%, -50%); border:5px solid black"">","","","","","","","",""
"","973.230000003241","sequential-stimulus-presentation-old","88","271870","0.0-21.0-1.4","SS1618435644968","trial","","40","500","1473.230000003241","images/stimuli/spore_stims/complex_05_A_a.gif","images/stimuli/spore_stims/complex_16_A_b.gif","forced_short","","6","complex_dissimilar","images/stimuli/spore_stims/complex_16_A_b.gif","","","","",""
"","null","html-keyboard-response","89","273011","0.0-21.0-0.5","SS1618435644968","","","null","","","","","","<p><img src= images/blank.png width =""600"" height = ""600"" style=""position:fixed;top:50%; left:50%; transform: translate(-50%, -50%); border:5px solid black"">","","","","","","","",""
"","503.50999998045154","sequential-stimulus-presentation-old","90","274021","0.0-21.0-1.5","SS1618435644968","trial","","40","500","1003.5099999804515","images/stimuli/spore_stims/complex_05_A_a.gif","images/stimuli/spore_stims/complex_16_A_b.gif","forced_short","","6","complex_dissimilar","images/stimuli/spore_stims/complex_05_A_a.gif","","","","",""
"","2896.724999998696","survey-multi-choice","91","276921","0.0-22.0","SS1618435644968","math_question","","","","","","","","","","","","{""Q0"":""8""}","[0]","8","",""
"","null","html-keyboard-response","92","277922","0.0-23.0-0.0","SS1618435644968","","","null","","","","","","<p><img src= images/blank.png width =""600"" height = ""600"" style=""position:fixed;top:50%; left:50%; transform: translate(-50%, -50%); border:5px solid black"">","","","","","","","",""
"","142.6999999966938","sequential-stimulus-presentation-old","93","278569","0.0-23.0-1.0","SS1618435644968","trial","","40","500","642.6999999966938","images/stimuli/spore_stims/complex_07_A_b.gif","images/stimuli/spore_stims/complex_03_A_a.gif","self_paced","","7","complex_dissimilar","images/stimuli/spore_stims/complex_03_A_a.gif","","","","",""
"","null","html-keyboard-response","94","279741","0.0-23.0-0.1","SS1618435644968","","","null","","","","","","<p><img src= images/blank.png width =""600"" height = ""600"" style=""position:fixed;top:50%; left:50%; transform: translate(-50%, -50%); border:5px solid black"">","","","","","","","",""
"","1282.180000009248","sequential-stimulus-presentation-old","95","281537","0.0-23.0-1.1","SS1618435644968","trial","","40","500","1782.180000009248","images/stimuli/spore_stims/complex_07_A_b.gif","images/stimuli/spore_stims/complex_03_A_a.gif","self_paced","","7","complex_dissimilar","images/stimuli/spore_stims/complex_03_A_a.gif","","","","",""
"","null","html-keyboard-response","96","282394","0.0-23.0-0.2","SS1618435644968","","","null","","","","","","<p><img src= images/blank.png width =""600"" height = ""600"" style=""position:fixed;top:50%; left:50%; transform: translate(-50%, -50%); border:5px solid black"">","","","","","","","",""
"","1064.2050000024028","sequential-stimulus-presentation-old","97","283975","0.0-23.0-1.2","SS1618435644968","trial","","40","500","1564.2050000024028","images/stimuli/spore_stims/complex_07_A_b.gif","images/stimuli/spore_stims/complex_03_A_a.gif","self_paced","","7","complex_dissimilar","images/stimuli/spore_stims/complex_03_A_a.gif","","","","",""
"","null","html-keyboard-response","98","285255","0.0-23.0-0.3","SS1618435644968","","","null","","","","","","<p><img src= images/blank.png width =""600"" height = ""600"" style=""position:fixed;top:50%; left:50%; transform: translate(-50%, -50%); border:5px solid black"">","","","","","","","",""
"","67.50500001362525","sequential-stimulus-presentation-old","99","285831","0.0-23.0-1.3","SS1618435644968","trial","","40","500","567.5050000136252","images/stimuli/spore_stims/complex_07_A_b.gif","images/stimuli/spore_stims/complex_03_A_a.gif","self_paced","","7","complex_dissimilar","images/stimuli/spore_stims/complex_03_A_a.gif","","","","",""
"","null","html-keyboard-response","100","286815","0.0-23.0-0.4","SS1618435644968","","","null","","","","","","<p><img src= images/blank.png width =""600"" height = ""600"" style=""position:fixed;top:50%; left:50%; transform: translate(-50%, -50%); border:5px solid black"">","","","","","","","",""
"","1258.4100000094622","sequential-stimulus-presentation-old","101","288581","0.0-23.0-1.4","SS1618435644968","trial","","40","500","1758.4100000094622","images/stimuli/spore_stims/complex_07_A_b.gif","images/stimuli/spore_stims/complex_03_A_a.gif","self_paced","","7","complex_dissimilar","images/stimuli/spore_stims/complex_03_A_a.gif","","","","",""
"","null","html-keyboard-response","102","289432","0.0-23.0-0.5","SS1618435644968","","","null","","","","","","<p><img src= images/blank.png width =""600"" height = ""600"" style=""position:fixed;top:50%; left:50%; transform: translate(-50%, -50%); border:5px solid black"">","","","","","","","",""
"","2741.3050000031944","sequential-stimulus-presentation-old","103","292693","0.0-23.0-1.5","SS1618435644968","trial","","40","500","3241.3050000031944","images/stimuli/spore_stims/complex_07_A_b.gif","images/stimuli/spore_stims/complex_03_A_a.gif","self_paced","","7","complex_dissimilar","images/stimuli/spore_stims/complex_03_A_a.gif","","","","",""
"","4177.419999992708","survey-multi-choice","104","296874","0.0-24.0","SS1618435644968","math_question","","","","","","","","","","","","{""Q0"":""8""}","[0]","8","",""
"","null","html-keyboard-response","105","297921","0.0-25.0-0.0","SS1618435644968","","","null","","","","","","<p><img src= images/blank.png width =""600"" height = ""600"" style=""position:fixed;top:50%; left:50%; transform: translate(-50%, -50%); border:5px solid black"">","","","","","","","",""
"","2181.7399999999907","sequential-stimulus-presentation-old","106","300608","0.0-25.0-1.0","SS1618435644968","trial","","40","500","2681.7399999999907","images/stimuli/spore_stims/simple_06_A_b.gif","images/stimuli/spore_stims/simple_18_A_a.gif","self_paced","","8","simple_dissimilar","images/stimuli/spore_stims/simple_18_A_a.gif","","","","",""
"","null","html-keyboard-response","107","301886","0.0-25.0-0.1","SS1618435644968","","","null","","","","","","<p><img src= images/blank.png width =""600"" height = ""600"" style=""position:fixed;top:50%; left:50%; transform: translate(-50%, -50%); border:5px solid black"">","","","","","","","",""
"","583.714999986114","sequential-stimulus-presentation-old","108","302974","0.0-25.0-1.1","SS1618435644968","trial","","40","500","1083.714999986114","images/stimuli/spore_stims/simple_06_A_b.gif","images/stimuli/spore_stims/simple_18_A_a.gif","self_paced","","8","simple_dissimilar","images/stimuli/spore_stims/simple_06_A_b.gif","","","","",""
"","null","html-keyboard-response","109","303799","0.0-25.0-0.2","SS1618435644968","","","null","","","","","","<p><img src= images/blank.png width =""600"" height = ""600"" style=""position:fixed;top:50%; left:50%; transform: translate(-50%, -50%); border:5px solid black"">","","","","","","","",""
"","173.1900000013411","sequential-stimulus-presentation-old","110","304477","0.0-25.0-1.2","SS1618435644968","trial","","40","500","673.1900000013411","images/stimuli/spore_stims/simple_06_A_b.gif","images/stimuli/spore_stims/simple_18_A_a.gif","self_paced","","8","simple_dissimilar","images/stimuli/spore_stims/simple_18_A_a.gif","","","","",""
"","null","html-keyboard-response","111","305414","0.0-25.0-0.3","SS1618435644968","","","null","","","","","","<p><img src= images/blank.png width =""600"" height = ""600"" style=""position:fixed;top:50%; left:50%; transform: translate(-50%, -50%); border:5px solid black"">","","","","","","","",""
"","280.3849999909289","sequential-stimulus-presentation-old","112","306200","0.0-25.0-1.3","SS1618435644968","trial","","40","500","780.3849999909289","images/stimuli/spore_stims/simple_06_A_b.gif","images/stimuli/spore_stims/simple_18_A_a.gif","self_paced","","8","simple_dissimilar","images/stimuli/spore_stims/simple_18_A_a.gif","","","","",""
"","null","html-keyboard-response","113","307373","0.0-25.0-0.4","SS1618435644968","","","null","","","","","","<p><img src= images/blank.png width =""600"" height = ""600"" style=""position:fixed;top:50%; left:50%; transform: translate(-50%, -50%); border:5px solid black"">","","","","","","","",""
"","286.1200000043027","sequential-stimulus-presentation-old","114","308165","0.0-25.0-1.4","SS1618435644968","trial","","40","500","786.1200000043027","images/stimuli/spore_stims/simple_06_A_b.gif","images/stimuli/spore_stims/simple_18_A_a.gif","self_paced","","8","simple_dissimilar","images/stimuli/spore_stims/simple_18_A_a.gif","","","","",""
"","null","html-keyboard-response","115","309015","0.0-25.0-0.5","SS1618435644968","","","null","","","","","","<p><img src= images/blank.png width =""600"" height = ""600"" style=""position:fixed;top:50%; left:50%; transform: translate(-50%, -50%); border:5px solid black"">","","","","","","","",""
"","1297.9549999872688","sequential-stimulus-presentation-old","116","310817","0.0-25.0-1.5","SS1618435644968","trial","","40","500","1797.9549999872688","images/stimuli/spore_stims/simple_06_A_b.gif","images/stimuli/spore_stims/simple_18_A_a.gif","self_paced","","8","simple_dissimilar","images/stimuli/spore_stims/simple_18_A_a.gif","","","","",""
"","4306.039999995846","survey-multi-choice","117","315126","0.0-26.0","SS1618435644968","math_question","","","","","","","","","","","","{""Q0"":""8""}","[0]","8","",""
"","null","html-keyboard-response","118","316138","0.0-27.0-0.0","SS1618435644968","","","null","","","","","","<p><img src= images/blank.png width =""600"" height = ""600"" style=""position:fixed;top:50%; left:50%; transform: translate(-50%, -50%); border:5px solid black"">","","","","","","","",""
"","6308.399999979883","sequential-stimulus-presentation-old","119","327907","0.0-27.0-1.0","SS1618435644968","trial","","40","500","6808.399999979883","images/stimuli/spore_stims/simple_10_A_a.gif","images/stimuli/spore_stims/simple_08_A_b.gif","forced_long","","9","simple_dissimilar","images/stimuli/spore_stims/simple_08_A_b.gif","","","","",""
"","null","html-keyboard-response","120","328745","0.0-27.0-0.1","SS1618435644968","","","null","","","","","","<p><img src= images/blank.png width =""600"" height = ""600"" style=""position:fixed;top:50%; left:50%; transform: translate(-50%, -50%); border:5px solid black"">","","","","","","","",""
"","85.22999999695458","sequential-stimulus-presentation-old","121","329340","0.0-27.0-1.1","SS1618435644968","trial","","40","500","585.2299999969546","images/stimuli/spore_stims/simple_10_A_a.gif","images/stimuli/spore_stims/simple_08_A_b.gif","forced_long","","9","simple_dissimilar","images/stimuli/spore_stims/simple_08_A_b.gif","","","","",""
"","null","html-keyboard-response","122","330379","0.0-27.0-0.2","SS1618435644968","","","null","","","","","","<p><img src= images/blank.png width =""600"" height = ""600"" style=""position:fixed;top:50%; left:50%; transform: translate(-50%, -50%); border:5px solid black"">","","","","","","","",""
"","339.73999999579974","sequential-stimulus-presentation-old","123","331231","0.0-27.0-1.2","SS1618435644968","trial","","40","500","839.7399999957997","images/stimuli/spore_stims/simple_10_A_a.gif","images/stimuli/spore_stims/simple_08_A_b.gif","forced_long","","9","simple_dissimilar","images/stimuli/spore_stims/simple_08_A_b.gif","","","","",""
"","null","html-keyboard-response","124","332055","0.0-27.0-0.3","SS1618435644968","","","null","","","","","","<p><img src= images/blank.png width =""600"" height = ""600"" style=""position:fixed;top:50%; left:50%; transform: translate(-50%, -50%); border:5px solid black"">","","","","","","","",""
"","727.0600000047125","sequential-stimulus-presentation-old","125","333291","0.0-27.0-1.3","SS1618435644968","trial","","40","500","1227.0600000047125","images/stimuli/spore_stims/simple_10_A_a.gif","images/stimuli/spore_stims/simple_08_A_b.gif","forced_long","","9","simple_dissimilar","images/stimuli/spore_stims/simple_10_A_a.gif","","","","",""
"","null","html-keyboard-response","126","334117","0.0-27.0-0.4","SS1618435644968","","","null","","","","","","<p><img src= images/blank.png width =""600"" height = ""600"" style=""position:fixed;top:50%; left:50%; transform: translate(-50%, -50%); border:5px solid black"">","","","","","","","",""
"","473.0600000184495","sequential-stimulus-presentation-old","127","335099","0.0-27.0-1.4","SS1618435644968","trial","","40","500","973.0600000184495","images/stimuli/spore_stims/simple_10_A_a.gif","images/stimuli/spore_stims/simple_08_A_b.gif","forced_long","","9","simple_dissimilar","images/stimuli/spore_stims/simple_08_A_b.gif","","","","",""
"","null","html-keyboard-response","128","336301","0.0-27.0-0.5","SS1618435644968","","","null","","","","","","<p><img src= images/blank.png width =""600"" height = ""600"" style=""position:fixed;top:50%; left:50%; transform: translate(-50%, -50%); border:5px solid black"">","","","","","","","",""
"","392.90999999502674","sequential-stimulus-presentation-old","129","337213","0.0-27.0-1.5","SS1618435644968","trial","","40","500","892.9099999950267","images/stimuli/spore_stims/simple_10_A_a.gif","images/stimuli/spore_stims/simple_08_A_b.gif","forced_long","","9","simple_dissimilar","images/stimuli/spore_stims/simple_08_A_b.gif","","","","",""
"","5514.020000002347","survey-multi-choice","130","342731","0.0-28.0","SS1618435644968","math_question","","","","","","","","","","","","{""Q0"":""14""}","[0]","14","",""
"","null","html-keyboard-response","131","344109","0.0-29.0-0.0","SS1618435644968","","","null","","","","","","<p><img src= images/blank.png width =""600"" height = ""600"" style=""position:fixed;top:50%; left:50%; transform: translate(-50%, -50%); border:5px solid black"">","","","","","","","",""
"","7958.634999988135","sequential-stimulus-presentation-old","132","352189","0.0-29.0-1.0","SS1618435644968","trial","","40","500","8458.634999988135","images/stimuli/spore_stims/simple_16_A_a.gif","images/stimuli/spore_stims/simple_18_A_b.gif","forced_short","","10","simple_dissimilar","images/stimuli/spore_stims/simple_18_A_b.gif","","","","",""
"","null","html-keyboard-response","133","353369","0.0-29.0-0.1","SS1618435644968","","","null","","","","","","<p><img src= images/blank.png width =""600"" height = ""600"" style=""position:fixed;top:50%; left:50%; transform: translate(-50%, -50%); border:5px solid black"">","","","","","","","",""
"","602.8250000090338","sequential-stimulus-presentation-old","134","354486","0.0-29.0-1.1","SS1618435644968","trial","","40","500","1102.8250000090338","images/stimuli/spore_stims/simple_16_A_a.gif","images/stimuli/spore_stims/simple_18_A_b.gif","forced_short","","10","simple_dissimilar","images/stimuli/spore_stims/simple_16_A_a.gif","","","","",""
"","null","html-keyboard-response","135","355725","0.0-29.0-0.2","SS1618435644968","","","null","","","","","","<p><img src= images/blank.png width =""600"" height = ""600"" style=""position:fixed;top:50%; left:50%; transform: translate(-50%, -50%); border:5px solid black"">","","","","","","","",""
"","254.4449999986682","sequential-stimulus-presentation-old","136","356498","0.0-29.0-1.2","SS1618435644968","trial","","40","500","754.4449999986682","images/stimuli/spore_stims/simple_16_A_a.gif","images/stimuli/spore_stims/simple_18_A_b.gif","forced_short","","10","simple_dissimilar","images/stimuli/spore_stims/simple_18_A_b.gif","","","","",""
"","null","html-keyboard-response","137","357704","0.0-29.0-0.3","SS1618435644968","","","null","","","","","","<p><img src= images/blank.png width =""600"" height = ""600"" style=""position:fixed;top:50%; left:50%; transform: translate(-50%, -50%); border:5px solid black"">","","","","","","","",""
"","600.109999999404","sequential-stimulus-presentation-old","138","358816","0.0-29.0-1.3","SS1618435644968","trial","","40","500","1100.109999999404","images/stimuli/spore_stims/simple_16_A_a.gif","images/stimuli/spore_stims/simple_18_A_b.gif","forced_short","","10","simple_dissimilar","images/stimuli/spore_stims/simple_18_A_b.gif","","","","",""
"","5373.744999989867","survey-multi-choice","139","364195","0.0-30.0","SS1618435644968","math_question","","","","","","","","","","","","{""Q0"":""13""}","[0]","13","",""
"","null","html-keyboard-response","140","365101","0.0-31.0-0.0","SS1618435644968","","","null","","","","","","<p><img src= images/blank.png width =""600"" height = ""600"" style=""position:fixed;top:50%; left:50%; transform: translate(-50%, -50%); border:5px solid black"">","","","","","","","",""
"","3858.715000009397","sequential-stimulus-presentation-old","141","373969","0.0-31.0-1.0","SS1618435644968","trial","","40","500","4358.715000009397","images/stimuli/spore_stims/simple_12_A_b.gif","images/stimuli/spore_stims/simple_02_A_a.gif","forced_long","","11","simple_dissimilar","images/stimuli/spore_stims/simple_02_A_a.gif","","","","",""
"","null","html-keyboard-response","142","375047","0.0-31.0-0.1","SS1618435644968","","","null","","","","","","<p><img src= images/blank.png width =""600"" height = ""600"" style=""position:fixed;top:50%; left:50%; transform: translate(-50%, -50%); border:5px solid black"">","","","","","","","",""
"","362.9650000075344","sequential-stimulus-presentation-old","143","375924","0.0-31.0-1.1","SS1618435644968","trial","","40","500","862.9650000075344","images/stimuli/spore_stims/simple_12_A_b.gif","images/stimuli/spore_stims/simple_02_A_a.gif","forced_long","","11","simple_dissimilar","images/stimuli/spore_stims/simple_02_A_a.gif","","","","",""
"","null","html-keyboard-response","144","377065","0.0-31.0-0.2","SS1618435644968","","","null","","","","","","<p><img src= images/blank.png width =""600"" height = ""600"" style=""position:fixed;top:50%; left:50%; transform: translate(-50%, -50%); border:5px solid black"">","","","","","","","",""
"","414.38999999081716","sequential-stimulus-presentation-old","145","377989","0.0-31.0-1.2","SS1618435644968","trial","","40","500","914.3899999908172","images/stimuli/spore_stims/simple_12_A_b.gif","images/stimuli/spore_stims/simple_02_A_a.gif","forced_long","","11","simple_dissimilar","images/stimuli/spore_stims/simple_12_A_b.gif","","","","",""
"","null","html-keyboard-response","146","379033","0.0-31.0-0.3","SS1618435644968","","","null","","","","","","<p><img src= images/blank.png width =""600"" height = ""600"" style=""position:fixed;top:50%; left:50%; transform: translate(-50%, -50%); border:5px solid black"">","","","","","","","",""
"","467.33499999390915","sequential-stimulus-presentation-old","147","380009","0.0-31.0-1.3","SS1618435644968","trial","","40","500","967.3349999939092","images/stimuli/spore_stims/simple_12_A_b.gif","images/stimuli/spore_stims/simple_02_A_a.gif","forced_long","","11","simple_dissimilar","images/stimuli/spore_stims/simple_02_A_a.gif","","","","",""
"","null","html-keyboard-response","148","380955","0.0-31.0-0.4","SS1618435644968","","","null","","","","","","<p><img src= images/blank.png width =""600"" height = ""600"" style=""position:fixed;top:50%; left:50%; transform: translate(-50%, -50%); border:5px solid black"">","","","","","","","",""
"","451.824999996461","sequential-stimulus-presentation-old","149","381921","0.0-31.0-1.4","SS1618435644968","trial","","40","500","951.824999996461","images/stimuli/spore_stims/simple_12_A_b.gif","images/stimuli/spore_stims/simple_02_A_a.gif","forced_long","","11","simple_dissimilar","images/stimuli/spore_stims/simple_02_A_a.gif","","","","",""
"","null","html-keyboard-response","150","382737","0.0-31.0-0.5","SS1618435644968","","","null","","","","","","<p><img src= images/blank.png width =""600"" height = ""600"" style=""position:fixed;top:50%; left:50%; transform: translate(-50%, -50%); border:5px solid black"">","","","","","","","",""
"","282.6000000059139","sequential-stimulus-presentation-old","151","383532","0.0-31.0-1.5","SS1618435644968","trial","","40","500","782.6000000059139","images/stimuli/spore_stims/simple_12_A_b.gif","images/stimuli/spore_stims/simple_02_A_a.gif","forced_long","","11","simple_dissimilar","images/stimuli/spore_stims/simple_12_A_b.gif","","","","",""
"[{""page_index"":0,""viewing_time"":5432.960000005551}]","5434.1500000155065","instructions","152","388969","0.0-32.0","SS1618435644968","instructions","","","","","","","","","","","","","","","",""
"","11735.214999993332","survey-likert","153","400711","0.0-33.0","SS1618435644968","similarity_question","","","","","","","","","","","","{""Q0"":1}","[0]","","images/stimuli/spore_stims/complex_16_A_b.gif","images/stimuli/spore_stims/complex_05_A_a.gif"
"","5293.865000014193","survey-likert","154","406016","0.0-34.0","SS1618435644968","similarity_question","","","","","","","","","","","","{""Q0"":1}","[0]","","images/stimuli/spore_stims/complex_11_A_a.gif","images/stimuli/spore_stims/complex_02_A_b.gif"
"","4726.360000000568","survey-likert","155","410751","0.0-35.0","SS1618435644968","similarity_question","","","","","","","","","","","","{""Q0"":4}","[0]","","images/stimuli/spore_stims/simple_07_A_b.gif","images/stimuli/spore_stims/simple_15_A_a.gif"
"","4612.3549999902025","survey-likert","156","415375","0.0-36.0","SS1618435644968","similarity_question","","","","","","","","","","","","{""Q0"":1}","[0]","","images/stimuli/spore_stims/complex_15_A_b.gif","images/stimuli/spore_stims/complex_02_A_a.gif"
"","5002.81500001438","survey-likert","157","420388","0.0-37.0","SS1618435644968","similarity_question","","","","","","","","","","","","{""Q0"":2}","[0]","","images/stimuli/spore_stims/simple_11_A_b.gif","images/stimuli/spore_stims/simple_05_A_a.gif"
"","2567.5950000004377","survey-likert","158","422967","0.0-38.0","SS1618435644968","similarity_question","","","","","","","","","","","","{""Q0"":1}","[0]","","images/stimuli/spore_stims/complex_07_A_b.gif","images/stimuli/spore_stims/complex_03_A_a.gif"
"","2049.0649999992456","survey-likert","159","425026","0.0-39.0","SS1618435644968","similarity_question","","","","","","","","","","","","{""Q0"":3}","[0]","","images/stimuli/spore_stims/simple_18_A_b.gif","images/stimuli/spore_stims/simple_16_A_a.gif"
"","4465.754999982892","survey-likert","160","429504","0.0-40.0","SS1618435644968","similarity_question","","","","","","","","","","","","{""Q0"":4}","[0]","","images/stimuli/spore_stims/complex_12_A_b.gif","images/stimuli/spore_stims/complex_18_A_a.gif"
"","3772.5900000077672","survey-likert","161","433286","0.0-41.0","SS1618435644968","similarity_question","","","","","","","","","","","","{""Q0"":5}","[0]","","images/stimuli/spore_stims/simple_10_A_a.gif","images/stimuli/spore_stims/simple_08_A_b.gif"
"","3295.7750000059605","survey-likert","162","436594","0.0-42.0","SS1618435644968","similarity_question","","","","","","","","","","","","{""Q0"":2}","[0]","","images/stimuli/spore_stims/complex_10_A_b.gif","images/stimuli/spore_stims/complex_01_A_a.gif"
"","2257.0750000013504","survey-likert","163","438861","0.0-43.0","SS1618435644968","similarity_question","","","","","","","","","","","","{""Q0"":3}","[0]","","images/stimuli/spore_stims/simple_02_A_a.gif","images/stimuli/spore_stims/simple_12_A_b.gif"
"","2271.905000001425","survey-likert","164","441144","0.0-44.0","SS1618435644968","similarity_question","","","","","","","","","","","","{""Q0"":4}","[0]","","images/stimuli/spore_stims/simple_18_A_a.gif","images/stimuli/spore_stims/simple_06_A_b.gif"
"[{""page_index"":0,""viewing_time"":4893.925000011222}]","4894.400000019232","instructions","165","446047","0.0-45.0","SS1618435644968","instructions","","","","","","","","","","","","","","","",""
"","4378.379999980098","survey-likert","166","450433","0.0-46.0","SS1618435644968","","","","","","","","","images/stimuli/spore_stims/complex_18_A_a.gif","","","","{""Q0"":4}","[0]","","",""
"","3970.24500000407","survey-likert","167","454417","0.0-47.0","SS1618435644968","","","","","","","","","images/stimuli/spore_stims/complex_16_A_b.gif","","","","{""Q0"":4}","[0]","","",""
"","2730.565000005299","survey-likert","168","457157","0.0-48.0","SS1618435644968","","","","","","","","","images/stimuli/spore_stims/simple_07_A_b.gif","","","","{""Q0"":0}","[0]","","",""
"","3002.4649999977555","survey-likert","169","460169","0.0-49.0","SS1618435644968","","","","","","","","","images/stimuli/spore_stims/simple_08_A_b.gif","","","","{""Q0"":1}","[0]","","",""
"","3275.0949999899603","survey-likert","170","463453","0.0-50.0","SS1618435644968","","","","","","","","","images/stimuli/spore_stims/complex_11_A_a.gif","","","","{""Q0"":3}","[0]","","",""
"","3318.2699999888428","survey-likert","171","466780","0.0-51.0","SS1618435644968","","","","","","","","","images/stimuli/spore_stims/complex_03_A_a.gif","","","","{""Q0"":3}","[0]","","",""
"","3015.2600000146776","survey-likert","172","469807","0.0-52.0","SS1618435644968","","","","","","","","","images/stimuli/spore_stims/simple_06_A_b.gif","","","","{""Q0"":1}","[0]","","",""
"","2110.3599999914877","survey-likert","173","471929","0.0-53.0","SS1618435644968","","","","","","","","","images/stimuli/spore_stims/simple_18_A_b.gif","","","","{""Q0"":0}","[0]","","",""
"","2914.5950000092853","survey-likert","174","474854","0.0-54.0","SS1618435644968","","","","","","","","","images/stimuli/spore_stims/simple_12_A_b.gif","","","","{""Q0"":0}","[0]","","",""
"","2546.910000004573","survey-likert","175","477410","0.0-55.0","SS1618435644968","","","","","","","","","images/stimuli/spore_stims/simple_05_A_a.gif","","","","{""Q0"":0}","[0]","","",""
"","4268.8600000110455","survey-likert","176","481688","0.0-56.0","SS1618435644968","","","","","","","","","images/stimuli/spore_stims/complex_01_A_a.gif","","","","{""Q0"":4}","[0]","","",""
"","2500.1249999913853","survey-likert","177","484201","0.0-57.0","SS1618435644968","","","","","","","","","images/stimuli/spore_stims/complex_15_A_b.gif","","","","{""Q0"":5}","[0]","","",""
"[{""page_index"":0,""viewing_time"":1602.4349999788683}]","1603.0299999983981","instructions","178","485811","0.0-58.0","SS1618435644968","instructions","","","","","","","","","","","","","","","",""
"","2617.565000022296","demog-age","179","488441","0.0-59.0","SS1618435644968","","","","","","","","","","","","","{""age"":""22""}","","","",""
"","1924.0799999970477","demog-ethnic-US","180","490379","0.0-60.0","SS1618435644968","","","","","","","","","","","","","{""ethnicity"":[""White""]}","[0]","","",""
"","4087.965000013355","demog-gender-and-education","181","494479","0.0-61.0","SS1618435644968","","","","","","","","","","","","","{""gender"":""Male"",""education"":""Bachelor's Degree""}","[0,1]","","",""
"","31276.63000000757","survey-text","182","525768","0.0-62.0","SS1618435644968","feedback","","","","","","","","","","","","{""Q0"":""The animation wasnt laggy""}","","","",""
"[{""page_index"":0,""viewing_time"":2576.120000012452}]","2576.45500000217","instructions","183","528348","0.0-63.0","SS1618435644968","instructions","","","","","","","","","","","","","","","",""
