"view_history","rt","trial_type","trial_index","time_elapsed","internal_node_id","subject","stimulus_type","trial_stimulus","key_press","minimum_viewing_duration","trial_looking_time","block_deviant","block_background","exposure_type","stimulus","block_number","block_type","stimulus_displayed","responses","question_order","math_correct_answer","stimulus_left","stimulus_right"
"[{""page_index"":0,""viewing_time"":3447.2650000825524}]","3448.1949999462813","instructions","0","3450","0.0-0.0","SS1618435648695","","","","","","","","","","","","","","","","",""
"[{""page_index"":0,""viewing_time"":9728.52999996394},{""page_index"":1,""viewing_time"":5339.910000097007}]","15068.800000008196","instructions","1","20531","0.0-1.0","SS1618435648695","instructions","","","","","","","","","","","","","","","",""
"","6116.120000137016","sequential-stimulus-presentation-old","2","27165","0.0-2.0","SS1618435648695","","","40","500","6616.120000137016","null","null","self_paced","","","","","","","","",""
"","5439.974999986589","sequential-stimulus-presentation-old","3","33107","0.0-3.0","SS1618435648695","","","40","500","5939.974999986589","null","null","self_paced","","","","","","","","",""
"[{""page_index"":0,""viewing_time"":11891.690000193194}]","11892.06500002183","instructions","4","45000","0.0-4.0","SS1618435648695","instructions","","","","","","","","","","","","","","","",""
"","112.1300000231713","sequential-stimulus-presentation-old","5","50115","0.0-5.0","SS1618435648695","","","40","500","612.1300000231713","null","null","forced_long","","","","","","","","",""
"","3219.4400001317263","sequential-stimulus-presentation-old","6","53387","0.0-6.0","SS1618435648695","","","40","50","3269.4400001317263","null","null","forced_long","","","","","","","","",""
"[{""page_index"":0,""viewing_time"":2649.9099999200553}]","2650.2999998629093","instructions","7","56038","0.0-7.0","SS1618435648695","instructions","","","","","","","","","","","","","","","",""
"[{""page_index"":0,""viewing_time"":8214.189999969676},{""page_index"":1,""viewing_time"":8879.990000044927},{""page_index"":2,""viewing_time"":2711.9650000240654},{""page_index"":3,""viewing_time"":1635.9699999447912},{""page_index"":4,""viewing_time"":1083.98999995552}]","22526.50999999605","instructions","8","78566","0.0-8.0","SS1618435648695","instructions","","","","","","","","","","","","","","","",""
"","null","html-keyboard-response","9","79472","0.0-9.0-0.0","SS1618435648695","","","null","","","","","","<p><img src= images/blank.png width =""600"" height = ""600"" style=""position:fixed;top:50%; left:50%; transform: translate(-50%, -50%); border:5px solid black"">","","","","","","","",""
"","683.8200001511723","sequential-stimulus-presentation-old","10","80211","0.0-9.0-1.0","SS1618435648695","trial","","40","500","1183.8200001511723","images/stimuli/spore_stims/complex_17_A_a.gif","images/stimuli/spore_stims/complex_20_A_b.gif","forced_short","","0","complex_dissimilar","images/stimuli/spore_stims/complex_20_A_b.gif","","","","",""
"","null","html-keyboard-response","11","81064","0.0-9.0-0.1","SS1618435648695","","","null","","","","","","<p><img src= images/blank.png width =""600"" height = ""600"" style=""position:fixed;top:50%; left:50%; transform: translate(-50%, -50%); border:5px solid black"">","","","","","","","",""
"","1980.0400000531226","sequential-stimulus-presentation-old","12","83547","0.0-9.0-1.1","SS1618435648695","trial","","40","500","2480.0400000531226","images/stimuli/spore_stims/complex_17_A_a.gif","images/stimuli/spore_stims/complex_20_A_b.gif","forced_short","","0","complex_dissimilar","images/stimuli/spore_stims/complex_20_A_b.gif","","","","",""
"","null","html-keyboard-response","13","84418","0.0-9.0-0.2","SS1618435648695","","","null","","","","","","<p><img src= images/blank.png width =""600"" height = ""600"" style=""position:fixed;top:50%; left:50%; transform: translate(-50%, -50%); border:5px solid black"">","","","","","","","",""
"","2673.054999904707","sequential-stimulus-presentation-old","14","87594","0.0-9.0-1.2","SS1618435648695","trial","","40","500","3173.054999904707","images/stimuli/spore_stims/complex_17_A_a.gif","images/stimuli/spore_stims/complex_20_A_b.gif","forced_short","","0","complex_dissimilar","images/stimuli/spore_stims/complex_20_A_b.gif","","","","",""
"","null","html-keyboard-response","15","88756","0.0-9.0-0.3","SS1618435648695","","","null","","","","","","<p><img src= images/blank.png width =""600"" height = ""600"" style=""position:fixed;top:50%; left:50%; transform: translate(-50%, -50%); border:5px solid black"">","","","","","","","",""
"","342.84499986097217","sequential-stimulus-presentation-old","16","89602","0.0-9.0-1.3","SS1618435648695","trial","","40","500","842.8449998609722","images/stimuli/spore_stims/complex_17_A_a.gif","images/stimuli/spore_stims/complex_20_A_b.gif","forced_short","","0","complex_dissimilar","images/stimuli/spore_stims/complex_20_A_b.gif","","","","",""
"","3978.639999870211","survey-multi-choice","17","93584","0.0-10.0","SS1618435648695","math_question","","","","","","","","","","","","{""Q0"":""7""}","[0]","7","",""
"","null","html-keyboard-response","18","94688","0.0-11.0-0.0","SS1618435648695","","","null","","","","","","<p><img src= images/blank.png width =""600"" height = ""600"" style=""position:fixed;top:50%; left:50%; transform: translate(-50%, -50%); border:5px solid black"">","","","","","","","",""
"","635.7400000561029","sequential-stimulus-presentation-old","19","95379","0.0-11.0-1.0","SS1618435648695","trial","","40","500","1135.7400000561029","images/stimuli/spore_stims/simple_14_A_a.gif","images/stimuli/spore_stims/simple_02_A_b.gif","forced_short","","1","simple_dissimilar","images/stimuli/spore_stims/simple_02_A_b.gif","","","","",""
"","null","html-keyboard-response","20","96513","0.0-11.0-0.1","SS1618435648695","","","null","","","","","","<p><img src= images/blank.png width =""600"" height = ""600"" style=""position:fixed;top:50%; left:50%; transform: translate(-50%, -50%); border:5px solid black"">","","","","","","","",""
"","1793.8100001774728","sequential-stimulus-presentation-old","21","98810","0.0-11.0-1.1","SS1618435648695","trial","","40","500","2293.810000177473","images/stimuli/spore_stims/simple_14_A_a.gif","images/stimuli/spore_stims/simple_02_A_b.gif","forced_short","","1","simple_dissimilar","images/stimuli/spore_stims/simple_02_A_b.gif","","","","",""
"","null","html-keyboard-response","22","100101","0.0-11.0-0.2","SS1618435648695","","","null","","","","","","<p><img src= images/blank.png width =""600"" height = ""600"" style=""position:fixed;top:50%; left:50%; transform: translate(-50%, -50%); border:5px solid black"">","","","","","","","",""
"","2438.079999992624","sequential-stimulus-presentation-old","23","103042","0.0-11.0-1.2","SS1618435648695","trial","","40","500","2938.079999992624","images/stimuli/spore_stims/simple_14_A_a.gif","images/stimuli/spore_stims/simple_02_A_b.gif","forced_short","","1","simple_dissimilar","images/stimuli/spore_stims/simple_02_A_b.gif","","","","",""
"","null","html-keyboard-response","24","104229","0.0-11.0-0.3","SS1618435648695","","","null","","","","","","<p><img src= images/blank.png width =""600"" height = ""600"" style=""position:fixed;top:50%; left:50%; transform: translate(-50%, -50%); border:5px solid black"">","","","","","","","",""
"","2741.3099999539554","sequential-stimulus-presentation-old","25","107474","0.0-11.0-1.3","SS1618435648695","trial","","40","500","3241.3099999539554","images/stimuli/spore_stims/simple_14_A_a.gif","images/stimuli/spore_stims/simple_02_A_b.gif","forced_short","","1","simple_dissimilar","images/stimuli/spore_stims/simple_14_A_a.gif","","","","",""
"","6447.200000053272","survey-multi-choice","26","113924","0.0-12.0","SS1618435648695","math_question","","","","","","","","","","","","{""Q0"":""15""}","[0]","15","",""
"","null","html-keyboard-response","27","114910","0.0-13.0-0.0","SS1618435648695","","","null","","","","","","<p><img src= images/blank.png width =""600"" height = ""600"" style=""position:fixed;top:50%; left:50%; transform: translate(-50%, -50%); border:5px solid black"">","","","","","","","",""
"","3469.069999875501","sequential-stimulus-presentation-old","28","118883","0.0-13.0-1.0","SS1618435648695","trial","","40","500","3969.069999875501","images/stimuli/spore_stims/complex_07_A_b.gif","images/stimuli/spore_stims/complex_12_A_a.gif","self_paced","","2","complex_dissimilar","images/stimuli/spore_stims/complex_12_A_a.gif","","","","",""
"","null","html-keyboard-response","29","119752","0.0-13.0-0.1","SS1618435648695","","","null","","","","","","<p><img src= images/blank.png width =""600"" height = ""600"" style=""position:fixed;top:50%; left:50%; transform: translate(-50%, -50%); border:5px solid black"">","","","","","","","",""
"","323.7850000150502","sequential-stimulus-presentation-old","30","120578","0.0-13.0-1.1","SS1618435648695","trial","","40","500","823.7850000150502","images/stimuli/spore_stims/complex_07_A_b.gif","images/stimuli/spore_stims/complex_12_A_a.gif","self_paced","","2","complex_dissimilar","images/stimuli/spore_stims/complex_12_A_a.gif","","","","",""
"","null","html-keyboard-response","31","121575","0.0-13.0-0.2","SS1618435648695","","","null","","","","","","<p><img src= images/blank.png width =""600"" height = ""600"" style=""position:fixed;top:50%; left:50%; transform: translate(-50%, -50%); border:5px solid black"">","","","","","","","",""
"","3044.444999890402","sequential-stimulus-presentation-old","32","125122","0.0-13.0-1.2","SS1618435648695","trial","","40","500","3544.444999890402","images/stimuli/spore_stims/complex_07_A_b.gif","images/stimuli/spore_stims/complex_12_A_a.gif","self_paced","","2","complex_dissimilar","images/stimuli/spore_stims/complex_12_A_a.gif","","","","",""
"","null","html-keyboard-response","33","126204","0.0-13.0-0.3","SS1618435648695","","","null","","","","","","<p><img src= images/blank.png width =""600"" height = ""600"" style=""position:fixed;top:50%; left:50%; transform: translate(-50%, -50%); border:5px solid black"">","","","","","","","",""
"","3182.909999974072","sequential-stimulus-presentation-old","34","129890","0.0-13.0-1.3","SS1618435648695","trial","","40","500","3682.909999974072","images/stimuli/spore_stims/complex_07_A_b.gif","images/stimuli/spore_stims/complex_12_A_a.gif","self_paced","","2","complex_dissimilar","images/stimuli/spore_stims/complex_07_A_b.gif","","","","",""
"","null","html-keyboard-response","35","130761","0.0-13.0-0.4","SS1618435648695","","","null","","","","","","<p><img src= images/blank.png width =""600"" height = ""600"" style=""position:fixed;top:50%; left:50%; transform: translate(-50%, -50%); border:5px solid black"">","","","","","","","",""
"","3394.550000084564","sequential-stimulus-presentation-old","36","134658","0.0-13.0-1.4","SS1618435648695","trial","","40","500","3894.550000084564","images/stimuli/spore_stims/complex_07_A_b.gif","images/stimuli/spore_stims/complex_12_A_a.gif","self_paced","","2","complex_dissimilar","images/stimuli/spore_stims/complex_12_A_a.gif","","","","",""
"","null","html-keyboard-response","37","135472","0.0-13.0-0.5","SS1618435648695","","","null","","","","","","<p><img src= images/blank.png width =""600"" height = ""600"" style=""position:fixed;top:50%; left:50%; transform: translate(-50%, -50%); border:5px solid black"">","","","","","","","",""
"","2521.9699998851866","sequential-stimulus-presentation-old","38","138498","0.0-13.0-1.5","SS1618435648695","trial","","40","500","3021.9699998851866","images/stimuli/spore_stims/complex_07_A_b.gif","images/stimuli/spore_stims/complex_12_A_a.gif","self_paced","","2","complex_dissimilar","images/stimuli/spore_stims/complex_12_A_a.gif","","","","",""
"","2943.334999959916","survey-multi-choice","39","141444","0.0-14.0","SS1618435648695","math_question","","","","","","","","","","","","{""Q0"":""7""}","[0]","7","",""
"","null","html-keyboard-response","40","142705","0.0-15.0-0.0","SS1618435648695","","","null","","","","","","<p><img src= images/blank.png width =""600"" height = ""600"" style=""position:fixed;top:50%; left:50%; transform: translate(-50%, -50%); border:5px solid black"">","","","","","","","",""
"","1829.6250000130385","sequential-stimulus-presentation-old","41","149538","0.0-15.0-1.0","SS1618435648695","trial","","40","500","2329.6250000130385","images/stimuli/spore_stims/complex_15_A_a.gif","images/stimuli/spore_stims/complex_18_A_b.gif","forced_long","","3","complex_dissimilar","images/stimuli/spore_stims/complex_18_A_b.gif","","","","",""
"","null","html-keyboard-response","42","150498","0.0-15.0-0.1","SS1618435648695","","","null","","","","","","<p><img src= images/blank.png width =""600"" height = ""600"" style=""position:fixed;top:50%; left:50%; transform: translate(-50%, -50%); border:5px solid black"">","","","","","","","",""
"","761.0400000121444","sequential-stimulus-presentation-old","43","151762","0.0-15.0-1.1","SS1618435648695","trial","","40","500","1261.0400000121444","images/stimuli/spore_stims/complex_15_A_a.gif","images/stimuli/spore_stims/complex_18_A_b.gif","forced_long","","3","complex_dissimilar","images/stimuli/spore_stims/complex_18_A_b.gif","","","","",""
"","null","html-keyboard-response","44","152770","0.0-15.0-0.2","SS1618435648695","","","null","","","","","","<p><img src= images/blank.png width =""600"" height = ""600"" style=""position:fixed;top:50%; left:50%; transform: translate(-50%, -50%); border:5px solid black"">","","","","","","","",""
"","400.6650000810623","sequential-stimulus-presentation-old","45","153674","0.0-15.0-1.2","SS1618435648695","trial","","40","500","900.6650000810623","images/stimuli/spore_stims/complex_15_A_a.gif","images/stimuli/spore_stims/complex_18_A_b.gif","forced_long","","3","complex_dissimilar","images/stimuli/spore_stims/complex_18_A_b.gif","","","","",""
"","null","html-keyboard-response","46","154956","0.0-15.0-0.3","SS1618435648695","","","null","","","","","","<p><img src= images/blank.png width =""600"" height = ""600"" style=""position:fixed;top:50%; left:50%; transform: translate(-50%, -50%); border:5px solid black"">","","","","","","","",""
"","479.28999993018806","sequential-stimulus-presentation-old","47","155938","0.0-15.0-1.3","SS1618435648695","trial","","40","500","979.2899999301881","images/stimuli/spore_stims/complex_15_A_a.gif","images/stimuli/spore_stims/complex_18_A_b.gif","forced_long","","3","complex_dissimilar","images/stimuli/spore_stims/complex_18_A_b.gif","","","","",""
"","null","html-keyboard-response","48","156978","0.0-15.0-0.4","SS1618435648695","","","null","","","","","","<p><img src= images/blank.png width =""600"" height = ""600"" style=""position:fixed;top:50%; left:50%; transform: translate(-50%, -50%); border:5px solid black"">","","","","","","","",""
"","2056.3349998556077","sequential-stimulus-presentation-old","49","159538","0.0-15.0-1.4","SS1618435648695","trial","","40","500","2556.3349998556077","images/stimuli/spore_stims/complex_15_A_a.gif","images/stimuli/spore_stims/complex_18_A_b.gif","forced_long","","3","complex_dissimilar","images/stimuli/spore_stims/complex_15_A_a.gif","","","","",""
"","null","html-keyboard-response","50","160404","0.0-15.0-0.5","SS1618435648695","","","null","","","","","","<p><img src= images/blank.png width =""600"" height = ""600"" style=""position:fixed;top:50%; left:50%; transform: translate(-50%, -50%); border:5px solid black"">","","","","","","","",""
"","8526.605000020936","sequential-stimulus-presentation-old","51","169434","0.0-15.0-1.5","SS1618435648695","trial","","40","500","9026.605000020936","images/stimuli/spore_stims/complex_15_A_a.gif","images/stimuli/spore_stims/complex_18_A_b.gif","forced_long","","3","complex_dissimilar","images/stimuli/spore_stims/complex_18_A_b.gif","","","","",""
"","3155.269999988377","survey-multi-choice","52","172591","0.0-16.0","SS1618435648695","math_question","","","","","","","","","","","","{""Q0"":""11""}","[0]","11","",""
"","null","html-keyboard-response","53","173647","0.0-17.0-0.0","SS1618435648695","","","null","","","","","","<p><img src= images/blank.png width =""600"" height = ""600"" style=""position:fixed;top:50%; left:50%; transform: translate(-50%, -50%); border:5px solid black"">","","","","","","","",""
"","2862.7250001300126","sequential-stimulus-presentation-old","54","181514","0.0-17.0-1.0","SS1618435648695","trial","","40","500","3362.7250001300126","images/stimuli/spore_stims/simple_02_A_a.gif","images/stimuli/spore_stims/simple_18_A_b.gif","forced_long","","4","simple_dissimilar","images/stimuli/spore_stims/simple_18_A_b.gif","","","","",""
"","null","html-keyboard-response","55","182345","0.0-17.0-0.1","SS1618435648695","","","null","","","","","","<p><img src= images/blank.png width =""600"" height = ""600"" style=""position:fixed;top:50%; left:50%; transform: translate(-50%, -50%); border:5px solid black"">","","","","","","","",""
"","137.24999991245568","sequential-stimulus-presentation-old","56","182986","0.0-17.0-1.1","SS1618435648695","trial","","40","500","637.2499999124557","images/stimuli/spore_stims/simple_02_A_a.gif","images/stimuli/spore_stims/simple_18_A_b.gif","forced_long","","4","simple_dissimilar","images/stimuli/spore_stims/simple_18_A_b.gif","","","","",""
"","null","html-keyboard-response","57","184084","0.0-17.0-0.2","SS1618435648695","","","null","","","","","","<p><img src= images/blank.png width =""600"" height = ""600"" style=""position:fixed;top:50%; left:50%; transform: translate(-50%, -50%); border:5px solid black"">","","","","","","","",""
"","414.92500016465783","sequential-stimulus-presentation-old","58","185002","0.0-17.0-1.2","SS1618435648695","trial","","40","500","914.9250001646578","images/stimuli/spore_stims/simple_02_A_a.gif","images/stimuli/spore_stims/simple_18_A_b.gif","forced_long","","4","simple_dissimilar","images/stimuli/spore_stims/simple_02_A_a.gif","","","","",""
"","null","html-keyboard-response","59","185809","0.0-17.0-0.3","SS1618435648695","","","null","","","","","","<p><img src= images/blank.png width =""600"" height = ""600"" style=""position:fixed;top:50%; left:50%; transform: translate(-50%, -50%); border:5px solid black"">","","","","","","","",""
"","1609.6200000029057","sequential-stimulus-presentation-old","60","187922","0.0-17.0-1.3","SS1618435648695","trial","","40","500","2109.6200000029057","images/stimuli/spore_stims/simple_02_A_a.gif","images/stimuli/spore_stims/simple_18_A_b.gif","forced_long","","4","simple_dissimilar","images/stimuli/spore_stims/simple_18_A_b.gif","","","","",""
"","null","html-keyboard-response","61","188726","0.0-17.0-0.4","SS1618435648695","","","null","","","","","","<p><img src= images/blank.png width =""600"" height = ""600"" style=""position:fixed;top:50%; left:50%; transform: translate(-50%, -50%); border:5px solid black"">","","","","","","","",""
"","2051.7899999395013","sequential-stimulus-presentation-old","62","191282","0.0-17.0-1.4","SS1618435648695","trial","","40","500","2551.7899999395013","images/stimuli/spore_stims/simple_02_A_a.gif","images/stimuli/spore_stims/simple_18_A_b.gif","forced_long","","4","simple_dissimilar","images/stimuli/spore_stims/simple_02_A_a.gif","","","","",""
"","12467.255000025034","survey-multi-choice","63","203751","0.0-18.0","SS1618435648695","math_question","","","","","","","","","","","","{""Q0"":""15""}","[0]","15","",""
"","null","html-keyboard-response","64","205002","0.0-19.0-0.0","SS1618435648695","","","null","","","","","","<p><img src= images/blank.png width =""600"" height = ""600"" style=""position:fixed;top:50%; left:50%; transform: translate(-50%, -50%); border:5px solid black"">","","","","","","","",""
"","2202.8349998872727","sequential-stimulus-presentation-old","65","212210","0.0-19.0-1.0","SS1618435648695","trial","","40","500","2702.8349998872727","images/stimuli/spore_stims/complex_12_A_b.gif","images/stimuli/spore_stims/complex_18_A_a.gif","forced_long","","5","complex_dissimilar","images/stimuli/spore_stims/complex_18_A_a.gif","","","","",""
"","null","html-keyboard-response","66","213106","0.0-19.0-0.1","SS1618435648695","","","null","","","","","","<p><img src= images/blank.png width =""600"" height = ""600"" style=""position:fixed;top:50%; left:50%; transform: translate(-50%, -50%); border:5px solid black"">","","","","","","","",""
"","1655.7700000703335","sequential-stimulus-presentation-old","67","215266","0.0-19.0-1.1","SS1618435648695","trial","","40","500","2155.7700000703335","images/stimuli/spore_stims/complex_12_A_b.gif","images/stimuli/spore_stims/complex_18_A_a.gif","forced_long","","5","complex_dissimilar","images/stimuli/spore_stims/complex_18_A_a.gif","","","","",""
"","null","html-keyboard-response","68","216286","0.0-19.0-0.2","SS1618435648695","","","null","","","","","","<p><img src= images/blank.png width =""600"" height = ""600"" style=""position:fixed;top:50%; left:50%; transform: translate(-50%, -50%); border:5px solid black"">","","","","","","","",""
"","1969.3750001024455","sequential-stimulus-presentation-old","69","218761","0.0-19.0-1.2","SS1618435648695","trial","","40","500","2469.3750001024455","images/stimuli/spore_stims/complex_12_A_b.gif","images/stimuli/spore_stims/complex_18_A_a.gif","forced_long","","5","complex_dissimilar","images/stimuli/spore_stims/complex_18_A_a.gif","","","","",""
"","null","html-keyboard-response","70","219725","0.0-19.0-0.3","SS1618435648695","","","null","","","","","","<p><img src= images/blank.png width =""600"" height = ""600"" style=""position:fixed;top:50%; left:50%; transform: translate(-50%, -50%); border:5px solid black"">","","","","","","","",""
"","1796.95999994874","sequential-stimulus-presentation-old","71","222025","0.0-19.0-1.3","SS1618435648695","trial","","40","500","2296.95999994874","images/stimuli/spore_stims/complex_12_A_b.gif","images/stimuli/spore_stims/complex_18_A_a.gif","forced_long","","5","complex_dissimilar","images/stimuli/spore_stims/complex_18_A_a.gif","","","","",""
"","null","html-keyboard-response","72","223151","0.0-19.0-0.4","SS1618435648695","","","null","","","","","","<p><img src= images/blank.png width =""600"" height = ""600"" style=""position:fixed;top:50%; left:50%; transform: translate(-50%, -50%); border:5px solid black"">","","","","","","","",""
"","946.4549999684095","sequential-stimulus-presentation-old","73","224602","0.0-19.0-1.4","SS1618435648695","trial","","40","500","1446.4549999684095","images/stimuli/spore_stims/complex_12_A_b.gif","images/stimuli/spore_stims/complex_18_A_a.gif","forced_long","","5","complex_dissimilar","images/stimuli/spore_stims/complex_18_A_a.gif","","","","",""
"","2846.7449999880046","survey-multi-choice","74","227451","0.0-20.0","SS1618435648695","math_question","","","","","","","","","","","","{""Q0"":""10""}","[0]","10","",""
"","null","html-keyboard-response","75","228390","0.0-21.0-0.0","SS1618435648695","","","null","","","","","","<p><img src= images/blank.png width =""600"" height = ""600"" style=""position:fixed;top:50%; left:50%; transform: translate(-50%, -50%); border:5px solid black"">","","","","","","","",""
"","1212.7300000283867","sequential-stimulus-presentation-old","76","229657","0.0-21.0-1.0","SS1618435648695","trial","","40","500","1712.7300000283867","images/stimuli/spore_stims/complex_03_A_b.gif","images/stimuli/spore_stims/complex_02_A_a.gif","forced_short","","6","complex_dissimilar","images/stimuli/spore_stims/complex_02_A_a.gif","","","","",""
"","null","html-keyboard-response","77","230758","0.0-21.0-0.1","SS1618435648695","","","null","","","","","","<p><img src= images/blank.png width =""600"" height = ""600"" style=""position:fixed;top:50%; left:50%; transform: translate(-50%, -50%); border:5px solid black"">","","","","","","","",""
"","3131.264999974519","sequential-stimulus-presentation-old","78","234393","0.0-21.0-1.1","SS1618435648695","trial","","40","500","3631.264999974519","images/stimuli/spore_stims/complex_03_A_b.gif","images/stimuli/spore_stims/complex_02_A_a.gif","forced_short","","6","complex_dissimilar","images/stimuli/spore_stims/complex_02_A_a.gif","","","","",""
"","null","html-keyboard-response","79","235585","0.0-21.0-0.2","SS1618435648695","","","null","","","","","","<p><img src= images/blank.png width =""600"" height = ""600"" style=""position:fixed;top:50%; left:50%; transform: translate(-50%, -50%); border:5px solid black"">","","","","","","","",""
"","2080.060000065714","sequential-stimulus-presentation-old","80","238169","0.0-21.0-1.2","SS1618435648695","trial","","40","500","2580.060000065714","images/stimuli/spore_stims/complex_03_A_b.gif","images/stimuli/spore_stims/complex_02_A_a.gif","forced_short","","6","complex_dissimilar","images/stimuli/spore_stims/complex_02_A_a.gif","","","","",""
"","null","html-keyboard-response","81","239443","0.0-21.0-0.3","SS1618435648695","","","null","","","","","","<p><img src= images/blank.png width =""600"" height = ""600"" style=""position:fixed;top:50%; left:50%; transform: translate(-50%, -50%); border:5px solid black"">","","","","","","","",""
"","1870.1700000092387","sequential-stimulus-presentation-old","82","241817","0.0-21.0-1.3","SS1618435648695","trial","","40","500","2370.1700000092387","images/stimuli/spore_stims/complex_03_A_b.gif","images/stimuli/spore_stims/complex_02_A_a.gif","forced_short","","6","complex_dissimilar","images/stimuli/spore_stims/complex_02_A_a.gif","","","","",""
"","null","html-keyboard-response","83","242728","0.0-21.0-0.4","SS1618435648695","","","null","","","","","","<p><img src= images/blank.png width =""600"" height = ""600"" style=""position:fixed;top:50%; left:50%; transform: translate(-50%, -50%); border:5px solid black"">","","","","","","","",""
"","1864.2649999819696","sequential-stimulus-presentation-old","84","245097","0.0-21.0-1.4","SS1618435648695","trial","","40","500","2364.2649999819696","images/stimuli/spore_stims/complex_03_A_b.gif","images/stimuli/spore_stims/complex_02_A_a.gif","forced_short","","6","complex_dissimilar","images/stimuli/spore_stims/complex_02_A_a.gif","","","","",""
"","3184.499999973923","survey-multi-choice","85","248285","0.0-22.0","SS1618435648695","math_question","","","","","","","","","","","","{""Q0"":""17""}","[0]","17","",""
"","null","html-keyboard-response","86","249561","0.0-23.0-0.0","SS1618435648695","","","null","","","","","","<p><img src= images/blank.png width =""600"" height = ""600"" style=""position:fixed;top:50%; left:50%; transform: translate(-50%, -50%); border:5px solid black"">","","","","","","","",""
"","2697.039999999106","sequential-stimulus-presentation-old","87","252761","0.0-23.0-1.0","SS1618435648695","trial","","40","500","3197.039999999106","images/stimuli/spore_stims/simple_12_A_a.gif","images/stimuli/spore_stims/simple_10_A_b.gif","self_paced","","7","simple_dissimilar","images/stimuli/spore_stims/simple_10_A_b.gif","","","","",""
"","null","html-keyboard-response","88","253756","0.0-23.0-0.1","SS1618435648695","","","null","","","","","","<p><img src= images/blank.png width =""600"" height = ""600"" style=""position:fixed;top:50%; left:50%; transform: translate(-50%, -50%); border:5px solid black"">","","","","","","","",""
"","1052.9799999203533","sequential-stimulus-presentation-old","89","255313","0.0-23.0-1.1","SS1618435648695","trial","","40","500","1552.9799999203533","images/stimuli/spore_stims/simple_12_A_a.gif","images/stimuli/spore_stims/simple_10_A_b.gif","self_paced","","7","simple_dissimilar","images/stimuli/spore_stims/simple_10_A_b.gif","","","","",""
"","null","html-keyboard-response","90","256208","0.0-23.0-0.2","SS1618435648695","","","null","","","","","","<p><img src= images/blank.png width =""600"" height = ""600"" style=""position:fixed;top:50%; left:50%; transform: translate(-50%, -50%); border:5px solid black"">","","","","","","","",""
"","568.8300000037998","sequential-stimulus-presentation-old","91","257281","0.0-23.0-1.2","SS1618435648695","trial","","40","500","1068.8300000037998","images/stimuli/spore_stims/simple_12_A_a.gif","images/stimuli/spore_stims/simple_10_A_b.gif","self_paced","","7","simple_dissimilar","images/stimuli/spore_stims/simple_10_A_b.gif","","","","",""
"","null","html-keyboard-response","92","258497","0.0-23.0-0.3","SS1618435648695","","","null","","","","","","<p><img src= images/blank.png width =""600"" height = ""600"" style=""position:fixed;top:50%; left:50%; transform: translate(-50%, -50%); border:5px solid black"">","","","","","","","",""
"","631.5550000872463","sequential-stimulus-presentation-old","93","259633","0.0-23.0-1.3","SS1618435648695","trial","","40","500","1131.5550000872463","images/stimuli/spore_stims/simple_12_A_a.gif","images/stimuli/spore_stims/simple_10_A_b.gif","self_paced","","7","simple_dissimilar","images/stimuli/spore_stims/simple_12_A_a.gif","","","","",""
"","null","html-keyboard-response","94","260906","0.0-23.0-0.4","SS1618435648695","","","null","","","","","","<p><img src= images/blank.png width =""600"" height = ""600"" style=""position:fixed;top:50%; left:50%; transform: translate(-50%, -50%); border:5px solid black"">","","","","","","","",""
"","23.090000031515956","sequential-stimulus-presentation-old","95","261433","0.0-23.0-1.4","SS1618435648695","trial","","40","500","523.090000031516","images/stimuli/spore_stims/simple_12_A_a.gif","images/stimuli/spore_stims/simple_10_A_b.gif","self_paced","","7","simple_dissimilar","images/stimuli/spore_stims/simple_10_A_b.gif","","","","",""
"","null","html-keyboard-response","96","262351","0.0-23.0-0.5","SS1618435648695","","","null","","","","","","<p><img src= images/blank.png width =""600"" height = ""600"" style=""position:fixed;top:50%; left:50%; transform: translate(-50%, -50%); border:5px solid black"">","","","","","","","",""
"","1762.1049999725074","sequential-stimulus-presentation-old","97","264617","0.0-23.0-1.5","SS1618435648695","trial","","40","500","2262.1049999725074","images/stimuli/spore_stims/simple_12_A_a.gif","images/stimuli/spore_stims/simple_10_A_b.gif","self_paced","","7","simple_dissimilar","images/stimuli/spore_stims/simple_12_A_a.gif","","","","",""
"","3188.755000010133","survey-multi-choice","98","267808","0.0-24.0","SS1618435648695","math_question","","","","","","","","","","","","{""Q0"":""11""}","[0]","11","",""
"","null","html-keyboard-response","99","268888","0.0-25.0-0.0","SS1618435648695","","","null","","","","","","<p><img src= images/blank.png width =""600"" height = ""600"" style=""position:fixed;top:50%; left:50%; transform: translate(-50%, -50%); border:5px solid black"">","","","","","","","",""
"","2623.619999969378","sequential-stimulus-presentation-old","100","272017","0.0-25.0-1.0","SS1618435648695","trial","","40","500","3123.619999969378","images/stimuli/spore_stims/simple_08_A_b.gif","images/stimuli/spore_stims/simple_03_A_a.gif","self_paced","","8","simple_dissimilar","images/stimuli/spore_stims/simple_03_A_a.gif","","","","",""
"","null","html-keyboard-response","101","273265","0.0-25.0-0.1","SS1618435648695","","","null","","","","","","<p><img src= images/blank.png width =""600"" height = ""600"" style=""position:fixed;top:50%; left:50%; transform: translate(-50%, -50%); border:5px solid black"">","","","","","","","",""
"","880.1399997901171","sequential-stimulus-presentation-old","102","274649","0.0-25.0-1.1","SS1618435648695","trial","","40","500","1380.1399997901171","images/stimuli/spore_stims/simple_08_A_b.gif","images/stimuli/spore_stims/simple_03_A_a.gif","self_paced","","8","simple_dissimilar","images/stimuli/spore_stims/simple_03_A_a.gif","","","","",""
"","null","html-keyboard-response","103","275509","0.0-25.0-0.2","SS1618435648695","","","null","","","","","","<p><img src= images/blank.png width =""600"" height = ""600"" style=""position:fixed;top:50%; left:50%; transform: translate(-50%, -50%); border:5px solid black"">","","","","","","","",""
"","1811.6900001186877","sequential-stimulus-presentation-old","104","277826","0.0-25.0-1.2","SS1618435648695","trial","","40","500","2311.6900001186877","images/stimuli/spore_stims/simple_08_A_b.gif","images/stimuli/spore_stims/simple_03_A_a.gif","self_paced","","8","simple_dissimilar","images/stimuli/spore_stims/simple_03_A_a.gif","","","","",""
"","null","html-keyboard-response","105","278940","0.0-25.0-0.3","SS1618435648695","","","null","","","","","","<p><img src= images/blank.png width =""600"" height = ""600"" style=""position:fixed;top:50%; left:50%; transform: translate(-50%, -50%); border:5px solid black"">","","","","","","","",""
"","1083.9299999643117","sequential-stimulus-presentation-old","106","280529","0.0-25.0-1.3","SS1618435648695","trial","","40","500","1583.9299999643117","images/stimuli/spore_stims/simple_08_A_b.gif","images/stimuli/spore_stims/simple_03_A_a.gif","self_paced","","8","simple_dissimilar","images/stimuli/spore_stims/simple_08_A_b.gif","","","","",""
"","null","html-keyboard-response","107","281665","0.0-25.0-0.4","SS1618435648695","","","null","","","","","","<p><img src= images/blank.png width =""600"" height = ""600"" style=""position:fixed;top:50%; left:50%; transform: translate(-50%, -50%); border:5px solid black"">","","","","","","","",""
"","1072.4899999331683","sequential-stimulus-presentation-old","108","283241","0.0-25.0-1.4","SS1618435648695","trial","","40","500","1572.4899999331683","images/stimuli/spore_stims/simple_08_A_b.gif","images/stimuli/spore_stims/simple_03_A_a.gif","self_paced","","8","simple_dissimilar","images/stimuli/spore_stims/simple_08_A_b.gif","","","","",""
"","4146.524999989197","survey-multi-choice","109","287390","0.0-26.0","SS1618435648695","math_question","","","","","","","","","","","","{""Q0"":""12""}","[0]","12","",""
"","null","html-keyboard-response","110","288293","0.0-27.0-0.0","SS1618435648695","","","null","","","","","","<p><img src= images/blank.png width =""600"" height = ""600"" style=""position:fixed;top:50%; left:50%; transform: translate(-50%, -50%); border:5px solid black"">","","","","","","","",""
"","1652.8549999929965","sequential-stimulus-presentation-old","111","290001","0.0-27.0-1.0","SS1618435648695","trial","","40","500","2152.8549999929965","images/stimuli/spore_stims/simple_06_A_a.gif","images/stimuli/spore_stims/simple_16_A_b.gif","forced_short","","9","simple_dissimilar","images/stimuli/spore_stims/simple_16_A_b.gif","","","","",""
"","null","html-keyboard-response","112","291011","0.0-27.0-0.1","SS1618435648695","","","null","","","","","","<p><img src= images/blank.png width =""600"" height = ""600"" style=""position:fixed;top:50%; left:50%; transform: translate(-50%, -50%); border:5px solid black"">","","","","","","","",""
"","1580.5549998767674","sequential-stimulus-presentation-old","113","293097","0.0-27.0-1.1","SS1618435648695","trial","","40","500","2080.5549998767674","images/stimuli/spore_stims/simple_06_A_a.gif","images/stimuli/spore_stims/simple_16_A_b.gif","forced_short","","9","simple_dissimilar","images/stimuli/spore_stims/simple_06_A_a.gif","","","","",""
"","null","html-keyboard-response","114","293918","0.0-27.0-0.2","SS1618435648695","","","null","","","","","","<p><img src= images/blank.png width =""600"" height = ""600"" style=""position:fixed;top:50%; left:50%; transform: translate(-50%, -50%); border:5px solid black"">","","","","","","","",""
"","1930.7799998205155","sequential-stimulus-presentation-old","115","296353","0.0-27.0-1.2","SS1618435648695","trial","","40","500","2430.7799998205155","images/stimuli/spore_stims/simple_06_A_a.gif","images/stimuli/spore_stims/simple_16_A_b.gif","forced_short","","9","simple_dissimilar","images/stimuli/spore_stims/simple_16_A_b.gif","","","","",""
"","null","html-keyboard-response","116","297354","0.0-27.0-0.3","SS1618435648695","","","null","","","","","","<p><img src= images/blank.png width =""600"" height = ""600"" style=""position:fixed;top:50%; left:50%; transform: translate(-50%, -50%); border:5px solid black"">","","","","","","","",""
"","1662.9649999085814","sequential-stimulus-presentation-old","117","299521","0.0-27.0-1.3","SS1618435648695","trial","","40","500","2162.9649999085814","images/stimuli/spore_stims/simple_06_A_a.gif","images/stimuli/spore_stims/simple_16_A_b.gif","forced_short","","9","simple_dissimilar","images/stimuli/spore_stims/simple_16_A_b.gif","","","","",""
"","4396.059999940917","survey-multi-choice","118","303920","0.0-28.0","SS1618435648695","math_question","","","","","","","","","","","","{""Q0"":""10""}","[0]","10","",""
"","null","html-keyboard-response","119","304755","0.0-29.0-0.0","SS1618435648695","","","null","","","","","","<p><img src= images/blank.png width =""600"" height = ""600"" style=""position:fixed;top:50%; left:50%; transform: translate(-50%, -50%); border:5px solid black"">","","","","","","","",""
"","2165.81999999471","sequential-stimulus-presentation-old","120","307425","0.0-29.0-1.0","SS1618435648695","trial","","40","500","2665.81999999471","images/stimuli/spore_stims/complex_09_A_a.gif","images/stimuli/spore_stims/complex_19_A_b.gif","self_paced","","10","complex_dissimilar","images/stimuli/spore_stims/complex_19_A_b.gif","","","","",""
"","null","html-keyboard-response","121","308241","0.0-29.0-0.1","SS1618435648695","","","null","","","","","","<p><img src= images/blank.png width =""600"" height = ""600"" style=""position:fixed;top:50%; left:50%; transform: translate(-50%, -50%); border:5px solid black"">","","","","","","","",""
"","2079.054999863729","sequential-stimulus-presentation-old","122","310825","0.0-29.0-1.1","SS1618435648695","trial","","40","500","2579.054999863729","images/stimuli/spore_stims/complex_09_A_a.gif","images/stimuli/spore_stims/complex_19_A_b.gif","self_paced","","10","complex_dissimilar","images/stimuli/spore_stims/complex_19_A_b.gif","","","","",""
"","null","html-keyboard-response","123","312062","0.0-29.0-0.2","SS1618435648695","","","null","","","","","","<p><img src= images/blank.png width =""600"" height = ""600"" style=""position:fixed;top:50%; left:50%; transform: translate(-50%, -50%); border:5px solid black"">","","","","","","","",""
"","2634.2849999200553","sequential-stimulus-presentation-old","124","315201","0.0-29.0-1.2","SS1618435648695","trial","","40","500","3134.2849999200553","images/stimuli/spore_stims/complex_09_A_a.gif","images/stimuli/spore_stims/complex_19_A_b.gif","self_paced","","10","complex_dissimilar","images/stimuli/spore_stims/complex_09_A_a.gif","","","","",""
"","null","html-keyboard-response","125","316203","0.0-29.0-0.3","SS1618435648695","","","null","","","","","","<p><img src= images/blank.png width =""600"" height = ""600"" style=""position:fixed;top:50%; left:50%; transform: translate(-50%, -50%); border:5px solid black"">","","","","","","","",""
"","2181.7950000986457","sequential-stimulus-presentation-old","126","318889","0.0-29.0-1.3","SS1618435648695","trial","","40","500","2681.7950000986457","images/stimuli/spore_stims/complex_09_A_a.gif","images/stimuli/spore_stims/complex_19_A_b.gif","self_paced","","10","complex_dissimilar","images/stimuli/spore_stims/complex_19_A_b.gif","","","","",""
"","null","html-keyboard-response","127","319901","0.0-29.0-0.4","SS1618435648695","","","null","","","","","","<p><img src= images/blank.png width =""600"" height = ""600"" style=""position:fixed;top:50%; left:50%; transform: translate(-50%, -50%); border:5px solid black"">","","","","","","","",""
"","1972.1450000070035","sequential-stimulus-presentation-old","128","322377","0.0-29.0-1.4","SS1618435648695","trial","","40","500","2472.1450000070035","images/stimuli/spore_stims/complex_09_A_a.gif","images/stimuli/spore_stims/complex_19_A_b.gif","self_paced","","10","complex_dissimilar","images/stimuli/spore_stims/complex_19_A_b.gif","","","","",""
"","4353.630000026897","survey-multi-choice","129","326734","0.0-30.0","SS1618435648695","math_question","","","","","","","","","","","","{""Q0"":""6""}","[0]","6","",""
"","null","html-keyboard-response","130","327651","0.0-31.0-0.0","SS1618435648695","","","null","","","","","","<p><img src= images/blank.png width =""600"" height = ""600"" style=""position:fixed;top:50%; left:50%; transform: translate(-50%, -50%); border:5px solid black"">","","","","","","","",""
"","2521.035000216216","sequential-stimulus-presentation-old","131","335177","0.0-31.0-1.0","SS1618435648695","trial","","40","500","3021.035000216216","images/stimuli/spore_stims/simple_11_A_b.gif","images/stimuli/spore_stims/simple_07_A_a.gif","forced_long","","11","simple_dissimilar","images/stimuli/spore_stims/simple_07_A_a.gif","","","","",""
"","null","html-keyboard-response","132","336287","0.0-31.0-0.1","SS1618435648695","","","null","","","","","","<p><img src= images/blank.png width =""600"" height = ""600"" style=""position:fixed;top:50%; left:50%; transform: translate(-50%, -50%); border:5px solid black"">","","","","","","","",""
"","4960.119999945164","sequential-stimulus-presentation-old","133","341753","0.0-31.0-1.1","SS1618435648695","trial","","40","500","5460.119999945164","images/stimuli/spore_stims/simple_11_A_b.gif","images/stimuli/spore_stims/simple_07_A_a.gif","forced_long","","11","simple_dissimilar","images/stimuli/spore_stims/simple_07_A_a.gif","","","","",""
"","null","html-keyboard-response","134","342645","0.0-31.0-0.2","SS1618435648695","","","null","","","","","","<p><img src= images/blank.png width =""600"" height = ""600"" style=""position:fixed;top:50%; left:50%; transform: translate(-50%, -50%); border:5px solid black"">","","","","","","","",""
"","7842.48000010848","sequential-stimulus-presentation-old","135","350993","0.0-31.0-1.2","SS1618435648695","trial","","40","500","8342.48000010848","images/stimuli/spore_stims/simple_11_A_b.gif","images/stimuli/spore_stims/simple_07_A_a.gif","forced_long","","11","simple_dissimilar","images/stimuli/spore_stims/simple_11_A_b.gif","","","","",""
"","null","html-keyboard-response","136","352234","0.0-31.0-0.3","SS1618435648695","","","null","","","","","","<p><img src= images/blank.png width =""600"" height = ""600"" style=""position:fixed;top:50%; left:50%; transform: translate(-50%, -50%); border:5px solid black"">","","","","","","","",""
"","5821.215000003576","sequential-stimulus-presentation-old","137","358560","0.0-31.0-1.3","SS1618435648695","trial","","40","500","6321.215000003576","images/stimuli/spore_stims/simple_11_A_b.gif","images/stimuli/spore_stims/simple_07_A_a.gif","forced_long","","11","simple_dissimilar","images/stimuli/spore_stims/simple_07_A_a.gif","","","","",""
"","null","html-keyboard-response","138","359556","0.0-31.0-0.4","SS1618435648695","","","null","","","","","","<p><img src= images/blank.png width =""600"" height = ""600"" style=""position:fixed;top:50%; left:50%; transform: translate(-50%, -50%); border:5px solid black"">","","","","","","","",""
"","2746.4250000193715","sequential-stimulus-presentation-old","139","362808","0.0-31.0-1.4","SS1618435648695","trial","","40","500","3246.4250000193715","images/stimuli/spore_stims/simple_11_A_b.gif","images/stimuli/spore_stims/simple_07_A_a.gif","forced_long","","11","simple_dissimilar","images/stimuli/spore_stims/simple_11_A_b.gif","","","","",""
"","null","html-keyboard-response","140","363996","0.0-31.0-0.5","SS1618435648695","","","null","","","","","","<p><img src= images/blank.png width =""600"" height = ""600"" style=""position:fixed;top:50%; left:50%; transform: translate(-50%, -50%); border:5px solid black"">","","","","","","","",""
"","1986.5250000730157","sequential-stimulus-presentation-old","141","366488","0.0-31.0-1.5","SS1618435648695","trial","","40","500","2486.5250000730157","images/stimuli/spore_stims/simple_11_A_b.gif","images/stimuli/spore_stims/simple_07_A_a.gif","forced_long","","11","simple_dissimilar","images/stimuli/spore_stims/simple_07_A_a.gif","","","","",""
"[{""page_index"":0,""viewing_time"":4324.310000054538}]","4324.670000001788","instructions","142","370815","0.0-32.0","SS1618435648695","instructions","","","","","","","","","","","","","","","",""
"","9759.800000116229","survey-likert","143","380579","0.0-33.0","SS1618435648695","similarity_question","","","","","","","","","","","","{""Q0"":3}","[0]","","images/stimuli/spore_stims/complex_09_A_a.gif","images/stimuli/spore_stims/complex_19_A_b.gif"
"","4203.029999975115","survey-likert","144","384787","0.0-34.0","SS1618435648695","similarity_question","","","","","","","","","","","","{""Q0"":4}","[0]","","images/stimuli/spore_stims/simple_03_A_a.gif","images/stimuli/spore_stims/simple_08_A_b.gif"
"","2747.044999850914","survey-likert","145","387539","0.0-35.0","SS1618435648695","similarity_question","","","","","","","","","","","","{""Q0"":5}","[0]","","images/stimuli/spore_stims/simple_06_A_a.gif","images/stimuli/spore_stims/simple_16_A_b.gif"
"","2484.6400001551956","survey-likert","146","390029","0.0-36.0","SS1618435648695","similarity_question","","","","","","","","","","","","{""Q0"":4}","[0]","","images/stimuli/spore_stims/simple_02_A_a.gif","images/stimuli/spore_stims/simple_18_A_b.gif"
"","3739.7499999497086","survey-likert","147","393774","0.0-37.0","SS1618435648695","similarity_question","","","","","","","","","","","","{""Q0"":5}","[0]","","images/stimuli/spore_stims/simple_12_A_a.gif","images/stimuli/spore_stims/simple_10_A_b.gif"
"","2134.9899999331683","survey-likert","148","395913","0.0-38.0","SS1618435648695","similarity_question","","","","","","","","","","","","{""Q0"":4}","[0]","","images/stimuli/spore_stims/simple_07_A_a.gif","images/stimuli/spore_stims/simple_11_A_b.gif"
"","5129.334999946877","survey-likert","149","401047","0.0-39.0","SS1618435648695","similarity_question","","","","","","","","","","","","{""Q0"":3}","[0]","","images/stimuli/spore_stims/complex_07_A_b.gif","images/stimuli/spore_stims/complex_12_A_a.gif"
"","2389.8150001186877","survey-likert","150","403441","0.0-40.0","SS1618435648695","similarity_question","","","","","","","","","","","","{""Q0"":3}","[0]","","images/stimuli/spore_stims/complex_03_A_b.gif","images/stimuli/spore_stims/complex_02_A_a.gif"
"","1378.5049999132752","survey-likert","151","404825","0.0-41.0","SS1618435648695","similarity_question","","","","","","","","","","","","{""Q0"":3}","[0]","","images/stimuli/spore_stims/complex_12_A_b.gif","images/stimuli/spore_stims/complex_18_A_a.gif"
"","2207.2399999015033","survey-likert","152","407037","0.0-42.0","SS1618435648695","similarity_question","","","","","","","","","","","","{""Q0"":4}","[0]","","images/stimuli/spore_stims/simple_02_A_b.gif","images/stimuli/spore_stims/simple_14_A_a.gif"
"","2741.6100001428276","survey-likert","153","409783","0.0-43.0","SS1618435648695","similarity_question","","","","","","","","","","","","{""Q0"":4}","[0]","","images/stimuli/spore_stims/complex_15_A_a.gif","images/stimuli/spore_stims/complex_18_A_b.gif"
"","2425.4949998576194","survey-likert","154","412214","0.0-44.0","SS1618435648695","similarity_question","","","","","","","","","","","","{""Q0"":3}","[0]","","images/stimuli/spore_stims/complex_17_A_a.gif","images/stimuli/spore_stims/complex_20_A_b.gif"
"[{""page_index"":0,""viewing_time"":2905.6799998506904}]","2906.0799998696893","instructions","155","415123","0.0-45.0","SS1618435648695","instructions","","","","","","","","","","","","","","","",""
"","4358.435000060126","survey-likert","156","419486","0.0-46.0","SS1618435648695","","","","","","","","","images/stimuli/spore_stims/complex_12_A_b.gif","","","","{""Q0"":5}","[0]","","",""
"","2407.420000061393","survey-likert","157","421898","0.0-47.0","SS1618435648695","","","","","","","","","images/stimuli/spore_stims/simple_03_A_a.gif","","","","{""Q0"":1}","[0]","","",""
"","1449.494999833405","survey-likert","158","423352","0.0-48.0","SS1618435648695","","","","","","","","","images/stimuli/spore_stims/simple_02_A_b.gif","","","","{""Q0"":1}","[0]","","",""
"","2353.795000119135","survey-likert","159","425710","0.0-49.0","SS1618435648695","","","","","","","","","images/stimuli/spore_stims/simple_06_A_a.gif","","","","{""Q0"":1}","[0]","","",""
"","2999.3749998975545","survey-likert","160","428713","0.0-50.0","SS1618435648695","","","","","","","","","images/stimuli/spore_stims/complex_15_A_a.gif","","","","{""Q0"":5}","[0]","","",""
"","3415.5449999962","survey-likert","161","432134","0.0-51.0","SS1618435648695","","","","","","","","","images/stimuli/spore_stims/complex_19_A_b.gif","","","","{""Q0"":1}","[0]","","",""
"","2549.674999900162","survey-likert","162","434687","0.0-52.0","SS1618435648695","","","","","","","","","images/stimuli/spore_stims/complex_17_A_a.gif","","","","{""Q0"":5}","[0]","","",""
"","2355.3700000047684","survey-likert","163","437047","0.0-53.0","SS1618435648695","","","","","","","","","images/stimuli/spore_stims/simple_10_A_b.gif","","","","{""Q0"":1}","[0]","","",""
"","3040.775000117719","survey-likert","164","440093","0.0-54.0","SS1618435648695","","","","","","","","","images/stimuli/spore_stims/complex_07_A_b.gif","","","","{""Q0"":5}","[0]","","",""
"","4339.57999991253","survey-likert","165","444437","0.0-55.0","SS1618435648695","","","","","","","","","images/stimuli/spore_stims/simple_11_A_b.gif","","","","{""Q0"":2}","[0]","","",""
"","3047.780000139028","survey-likert","166","447489","0.0-56.0","SS1618435648695","","","","","","","","","images/stimuli/spore_stims/complex_03_A_b.gif","","","","{""Q0"":6}","[0]","","",""
"","3413.600000087172","survey-likert","167","450907","0.0-57.0","SS1618435648695","","","","","","","","","images/stimuli/spore_stims/simple_18_A_b.gif","","","","{""Q0"":1}","[0]","","",""
"[{""page_index"":0,""viewing_time"":2087.644999846816}]","2088.0899999756366","instructions","168","452999","0.0-58.0","SS1618435648695","instructions","","","","","","","","","","","","","","","",""
"","2890.394999878481","demog-age","169","455895","0.0-59.0","SS1618435648695","","","","","","","","","","","","","{""age"":""19""}","","","",""
"","6661.575000034645","demog-ethnic-US","170","462564","0.0-60.0","SS1618435648695","","","","","","","","","","","","","{""ethnicity"":[""Hispanic or Latino"",""White""]}","[0]","","",""
"","9978.305000113323","demog-gender-and-education","171","472547","0.0-61.0","SS1618435648695","","","","","","","","","","","","","{""gender"":""Male"",""education"":""Bachelor's Degree""}","[0,1]","","",""
"","5531.845000106841","survey-text","172","478085","0.0-62.0","SS1618435648695","feedback","","","","","","","","","","","","{""Q0"":""no""}","","","",""
"[{""page_index"":0,""viewing_time"":2211.8999999947846}]","2212.2400000225753","instructions","173","480300","0.0-63.0","SS1618435648695","instructions","","","","","","","","","","","","","","","",""
