"view_history","rt","trial_type","trial_index","time_elapsed","internal_node_id","subject","stimulus_type","trial_stimulus","key_press","minimum_viewing_duration","trial_looking_time","block_deviant","block_background","exposure_type","stimulus","block_number","block_type","stimulus_displayed","responses","question_order","math_correct_answer","stimulus_left","stimulus_right"
"[{""page_index"":0,""viewing_time"":56470.30000016093}]","56471.04000020772","instructions","0","56474","0.0-0.0","SS1618365447088","","","","","","","","","","","","","","","","",""
"[{""page_index"":0,""viewing_time"":13037.435000296682},{""page_index"":1,""viewing_time"":50771.714999806136}]","63809.72500005737","instructions","1","122845","0.0-1.0","SS1618365447088","instructions","","","","","","","","","","","","","","","",""
"","5774.869999848306","sequential-stimulus-presentation-old","2","129127","0.0-2.0","SS1618365447088","","","40","500","6274.869999848306","null","null","self_paced","","","","","","","","",""
"","4337.660000193864","sequential-stimulus-presentation-old","3","133969","0.0-3.0","SS1618365447088","","","40","500","4837.660000193864","null","null","self_paced","","","","","","","","",""
"[{""page_index"":0,""viewing_time"":13456.199999898672}]","13456.89499983564","instructions","4","147428","0.0-4.0","SS1618365447088","instructions","","","","","","","","","","","","","","","",""
"","3506.030000280589","sequential-stimulus-presentation-old","5","155939","0.0-5.0","SS1618365447088","","","40","500","4006.030000280589","null","null","forced_long","","","","","","","","",""
"","3881.2949997372925","sequential-stimulus-presentation-old","6","159876","0.0-6.0","SS1618365447088","","","40","50","3931.2949997372925","null","null","forced_long","","","","","","","","",""
"[{""page_index"":0,""viewing_time"":2467.780000064522}]","2468.310000374913","instructions","7","162346","0.0-7.0","SS1618365447088","instructions","","","","","","","","","","","","","","","",""
"[{""page_index"":0,""viewing_time"":11797.879999969155},{""page_index"":1,""viewing_time"":7466.560000088066},{""page_index"":2,""viewing_time"":4087.8599998541176},{""page_index"":3,""viewing_time"":1189.7900002077222},{""page_index"":4,""viewing_time"":1528.0200000852346}]","26070.815000217408","instructions","8","188421","0.0-8.0","SS1618365447088","instructions","","","","","","","","","","","","","","","",""
"","null","html-keyboard-response","9","189565","0.0-9.0-0.0","SS1618365447088","","","null","","","","","","<p><img src= images/blank.png width =""600"" height = ""600"" style=""position:fixed;top:50%; left:50%; transform: translate(-50%, -50%); border:5px solid black"">","","","","","","","",""
"","2394.079999998212","sequential-stimulus-presentation-old","10","192017","0.0-9.0-1.0","SS1618365447088","trial","","40","500","2894.079999998212","images/stimuli/spore_stims/simple_17_A_a.gif","images/stimuli/spore_stims/simple_14_A_b.gif","forced_short","","0","simple_dissimilar","images/stimuli/spore_stims/simple_14_A_b.gif","","","","",""
"","null","html-keyboard-response","11","193264","0.0-9.0-0.1","SS1618365447088","","","null","","","","","","<p><img src= images/blank.png width =""600"" height = ""600"" style=""position:fixed;top:50%; left:50%; transform: translate(-50%, -50%); border:5px solid black"">","","","","","","","",""
"","3029.580000322312","sequential-stimulus-presentation-old","12","196799","0.0-9.0-1.1","SS1618365447088","trial","","40","500","3529.580000322312","images/stimuli/spore_stims/simple_17_A_a.gif","images/stimuli/spore_stims/simple_14_A_b.gif","forced_short","","0","simple_dissimilar","images/stimuli/spore_stims/simple_14_A_b.gif","","","","",""
"","null","html-keyboard-response","13","198009","0.0-9.0-0.2","SS1618365447088","","","null","","","","","","<p><img src= images/blank.png width =""600"" height = ""600"" style=""position:fixed;top:50%; left:50%; transform: translate(-50%, -50%); border:5px solid black"">","","","","","","","",""
"","4271.200000308454","sequential-stimulus-presentation-old","14","202786","0.0-9.0-1.2","SS1618365447088","trial","","40","500","4771.200000308454","images/stimuli/spore_stims/simple_17_A_a.gif","images/stimuli/spore_stims/simple_14_A_b.gif","forced_short","","0","simple_dissimilar","images/stimuli/spore_stims/simple_14_A_b.gif","","","","",""
"","null","html-keyboard-response","15","203989","0.0-9.0-0.3","SS1618365447088","","","null","","","","","","<p><img src= images/blank.png width =""600"" height = ""600"" style=""position:fixed;top:50%; left:50%; transform: translate(-50%, -50%); border:5px solid black"">","","","","","","","",""
"","3261.0949999652803","sequential-stimulus-presentation-old","16","207754","0.0-9.0-1.3","SS1618365447088","trial","","40","500","3761.0949999652803","images/stimuli/spore_stims/simple_17_A_a.gif","images/stimuli/spore_stims/simple_14_A_b.gif","forced_short","","0","simple_dissimilar","images/stimuli/spore_stims/simple_17_A_a.gif","","","","",""
"","null","html-keyboard-response","17","209007","0.0-9.0-0.4","SS1618365447088","","","null","","","","","","<p><img src= images/blank.png width =""600"" height = ""600"" style=""position:fixed;top:50%; left:50%; transform: translate(-50%, -50%); border:5px solid black"">","","","","","","","",""
"","3938.469999935478","sequential-stimulus-presentation-old","18","213452","0.0-9.0-1.4","SS1618365447088","trial","","40","500","4438.469999935478","images/stimuli/spore_stims/simple_17_A_a.gif","images/stimuli/spore_stims/simple_14_A_b.gif","forced_short","","0","simple_dissimilar","images/stimuli/spore_stims/simple_17_A_a.gif","","","","",""
"","4148.77500012517","survey-multi-choice","19","217608","0.0-10.0","SS1618365447088","math_question","","","","","","","","","","","","{""Q0"":""11""}","[0]","11","",""
"","null","html-keyboard-response","20","218491","0.0-11.0-0.0","SS1618365447088","","","null","","","","","","<p><img src= images/blank.png width =""600"" height = ""600"" style=""position:fixed;top:50%; left:50%; transform: translate(-50%, -50%); border:5px solid black"">","","","","","","","",""
"","2962.6699998043478","sequential-stimulus-presentation-old","21","221960","0.0-11.0-1.0","SS1618365447088","trial","","40","500","3462.6699998043478","images/stimuli/spore_stims/complex_08_A_a.gif","images/stimuli/spore_stims/complex_19_A_b.gif","self_paced","","1","complex_dissimilar","images/stimuli/spore_stims/complex_19_A_b.gif","","","","",""
"","null","html-keyboard-response","22","223251","0.0-11.0-0.1","SS1618365447088","","","null","","","","","","<p><img src= images/blank.png width =""600"" height = ""600"" style=""position:fixed;top:50%; left:50%; transform: translate(-50%, -50%); border:5px solid black"">","","","","","","","",""
"","3798.0399997904897","sequential-stimulus-presentation-old","23","227556","0.0-11.0-1.1","SS1618365447088","trial","","40","500","4298.03999979049","images/stimuli/spore_stims/complex_08_A_a.gif","images/stimuli/spore_stims/complex_19_A_b.gif","self_paced","","1","complex_dissimilar","images/stimuli/spore_stims/complex_19_A_b.gif","","","","",""
"","null","html-keyboard-response","24","228810","0.0-11.0-0.2","SS1618365447088","","","null","","","","","","<p><img src= images/blank.png width =""600"" height = ""600"" style=""position:fixed;top:50%; left:50%; transform: translate(-50%, -50%); border:5px solid black"">","","","","","","","",""
"","3723.780000116676","sequential-stimulus-presentation-old","25","233041","0.0-11.0-1.2","SS1618365447088","trial","","40","500","4223.780000116676","images/stimuli/spore_stims/complex_08_A_a.gif","images/stimuli/spore_stims/complex_19_A_b.gif","self_paced","","1","complex_dissimilar","images/stimuli/spore_stims/complex_08_A_a.gif","","","","",""
"","null","html-keyboard-response","26","234140","0.0-11.0-0.3","SS1618365447088","","","null","","","","","","<p><img src= images/blank.png width =""600"" height = ""600"" style=""position:fixed;top:50%; left:50%; transform: translate(-50%, -50%); border:5px solid black"">","","","","","","","",""
"","3163.040000014007","sequential-stimulus-presentation-old","27","237810","0.0-11.0-1.3","SS1618365447088","trial","","40","500","3663.040000014007","images/stimuli/spore_stims/complex_08_A_a.gif","images/stimuli/spore_stims/complex_19_A_b.gif","self_paced","","1","complex_dissimilar","images/stimuli/spore_stims/complex_19_A_b.gif","","","","",""
"","null","html-keyboard-response","28","238853","0.0-11.0-0.4","SS1618365447088","","","null","","","","","","<p><img src= images/blank.png width =""600"" height = ""600"" style=""position:fixed;top:50%; left:50%; transform: translate(-50%, -50%); border:5px solid black"">","","","","","","","",""
"","2890.4900001361966","sequential-stimulus-presentation-old","29","242249","0.0-11.0-1.4","SS1618365447088","trial","","40","500","3390.4900001361966","images/stimuli/spore_stims/complex_08_A_a.gif","images/stimuli/spore_stims/complex_19_A_b.gif","self_paced","","1","complex_dissimilar","images/stimuli/spore_stims/complex_19_A_b.gif","","","","",""
"","null","html-keyboard-response","30","243144","0.0-11.0-0.5","SS1618365447088","","","null","","","","","","<p><img src= images/blank.png width =""600"" height = ""600"" style=""position:fixed;top:50%; left:50%; transform: translate(-50%, -50%); border:5px solid black"">","","","","","","","",""
"","3171.8949996866286","sequential-stimulus-presentation-old","31","246822","0.0-11.0-1.5","SS1618365447088","trial","","40","500","3671.8949996866286","images/stimuli/spore_stims/complex_08_A_a.gif","images/stimuli/spore_stims/complex_19_A_b.gif","self_paced","","1","complex_dissimilar","images/stimuli/spore_stims/complex_19_A_b.gif","","","","",""
"","6420.615000184625","survey-multi-choice","32","253247","0.0-12.0","SS1618365447088","math_question","","","","","","","","","","","","{""Q0"":""12""}","[0]","12","",""
"","null","html-keyboard-response","33","254281","0.0-13.0-0.0","SS1618365447088","","","null","","","","","","<p><img src= images/blank.png width =""600"" height = ""600"" style=""position:fixed;top:50%; left:50%; transform: translate(-50%, -50%); border:5px solid black"">","","","","","","","",""
"","1481.7849998362362","sequential-stimulus-presentation-old","34","260770","0.0-13.0-1.0","SS1618365447088","trial","","40","500","1981.7849998362362","images/stimuli/spore_stims/complex_03_A_a.gif","images/stimuli/spore_stims/complex_16_A_b.gif","forced_long","","2","complex_dissimilar","images/stimuli/spore_stims/complex_16_A_b.gif","","","","",""
"","null","html-keyboard-response","35","261890","0.0-13.0-0.1","SS1618365447088","","","null","","","","","","<p><img src= images/blank.png width =""600"" height = ""600"" style=""position:fixed;top:50%; left:50%; transform: translate(-50%, -50%); border:5px solid black"">","","","","","","","",""
"","2225.190000142902","sequential-stimulus-presentation-old","36","264620","0.0-13.0-1.1","SS1618365447088","trial","","40","500","2725.190000142902","images/stimuli/spore_stims/complex_03_A_a.gif","images/stimuli/spore_stims/complex_16_A_b.gif","forced_long","","2","complex_dissimilar","images/stimuli/spore_stims/complex_16_A_b.gif","","","","",""
"","null","html-keyboard-response","37","265713","0.0-13.0-0.2","SS1618365447088","","","null","","","","","","<p><img src= images/blank.png width =""600"" height = ""600"" style=""position:fixed;top:50%; left:50%; transform: translate(-50%, -50%); border:5px solid black"">","","","","","","","",""
"","1750.2150000073016","sequential-stimulus-presentation-old","38","267969","0.0-13.0-1.2","SS1618365447088","trial","","40","500","2250.2150000073016","images/stimuli/spore_stims/complex_03_A_a.gif","images/stimuli/spore_stims/complex_16_A_b.gif","forced_long","","2","complex_dissimilar","images/stimuli/spore_stims/complex_16_A_b.gif","","","","",""
"","null","html-keyboard-response","39","269044","0.0-13.0-0.3","SS1618365447088","","","null","","","","","","<p><img src= images/blank.png width =""600"" height = ""600"" style=""position:fixed;top:50%; left:50%; transform: translate(-50%, -50%); border:5px solid black"">","","","","","","","",""
"","3190.8100000582635","sequential-stimulus-presentation-old","40","272740","0.0-13.0-1.3","SS1618365447088","trial","","40","500","3690.8100000582635","images/stimuli/spore_stims/complex_03_A_a.gif","images/stimuli/spore_stims/complex_16_A_b.gif","forced_long","","2","complex_dissimilar","images/stimuli/spore_stims/complex_16_A_b.gif","","","","",""
"","null","html-keyboard-response","41","273640","0.0-13.0-0.4","SS1618365447088","","","null","","","","","","<p><img src= images/blank.png width =""600"" height = ""600"" style=""position:fixed;top:50%; left:50%; transform: translate(-50%, -50%); border:5px solid black"">","","","","","","","",""
"","4750.934999901801","sequential-stimulus-presentation-old","42","278897","0.0-13.0-1.4","SS1618365447088","trial","","40","500","5250.934999901801","images/stimuli/spore_stims/complex_03_A_a.gif","images/stimuli/spore_stims/complex_16_A_b.gif","forced_long","","2","complex_dissimilar","images/stimuli/spore_stims/complex_16_A_b.gif","","","","",""
"","null","html-keyboard-response","43","279913","0.0-13.0-0.5","SS1618365447088","","","null","","","","","","<p><img src= images/blank.png width =""600"" height = ""600"" style=""position:fixed;top:50%; left:50%; transform: translate(-50%, -50%); border:5px solid black"">","","","","","","","",""
"","5485.4599996469915","sequential-stimulus-presentation-old","44","285906","0.0-13.0-1.5","SS1618365447088","trial","","40","500","5985.4599996469915","images/stimuli/spore_stims/complex_03_A_a.gif","images/stimuli/spore_stims/complex_16_A_b.gif","forced_long","","2","complex_dissimilar","images/stimuli/spore_stims/complex_16_A_b.gif","","","","",""
"","2852.4249996989965","survey-multi-choice","45","288763","0.0-14.0","SS1618365447088","math_question","","","","","","","","","","","","{""Q0"":""6""}","[0]","6","",""
"","null","html-keyboard-response","46","289863","0.0-15.0-0.0","SS1618365447088","","","null","","","","","","<p><img src= images/blank.png width =""600"" height = ""600"" style=""position:fixed;top:50%; left:50%; transform: translate(-50%, -50%); border:5px solid black"">","","","","","","","",""
"","1822.120000142604","sequential-stimulus-presentation-old","47","291742","0.0-15.0-1.0","SS1618365447088","trial","","40","500","2322.120000142604","images/stimuli/spore_stims/complex_03_A_b.gif","images/stimuli/spore_stims/complex_10_A_a.gif","forced_short","","3","complex_dissimilar","images/stimuli/spore_stims/complex_10_A_a.gif","","","","",""
"","null","html-keyboard-response","48","292847","0.0-15.0-0.1","SS1618365447088","","","null","","","","","","<p><img src= images/blank.png width =""600"" height = ""600"" style=""position:fixed;top:50%; left:50%; transform: translate(-50%, -50%); border:5px solid black"">","","","","","","","",""
"","3268.025000113994","sequential-stimulus-presentation-old","49","296621","0.0-15.0-1.1","SS1618365447088","trial","","40","500","3768.025000113994","images/stimuli/spore_stims/complex_03_A_b.gif","images/stimuli/spore_stims/complex_10_A_a.gif","forced_short","","3","complex_dissimilar","images/stimuli/spore_stims/complex_10_A_a.gif","","","","",""
"","null","html-keyboard-response","50","297674","0.0-15.0-0.2","SS1618365447088","","","null","","","","","","<p><img src= images/blank.png width =""600"" height = ""600"" style=""position:fixed;top:50%; left:50%; transform: translate(-50%, -50%); border:5px solid black"">","","","","","","","",""
"","1621.1600000970066","sequential-stimulus-presentation-old","51","299802","0.0-15.0-1.2","SS1618365447088","trial","","40","500","2121.1600000970066","images/stimuli/spore_stims/complex_03_A_b.gif","images/stimuli/spore_stims/complex_10_A_a.gif","forced_short","","3","complex_dissimilar","images/stimuli/spore_stims/complex_10_A_a.gif","","","","",""
"","null","html-keyboard-response","52","300684","0.0-15.0-0.3","SS1618365447088","","","null","","","","","","<p><img src= images/blank.png width =""600"" height = ""600"" style=""position:fixed;top:50%; left:50%; transform: translate(-50%, -50%); border:5px solid black"">","","","","","","","",""
"","2759.1650001704693","sequential-stimulus-presentation-old","53","303949","0.0-15.0-1.3","SS1618365447088","trial","","40","500","3259.1650001704693","images/stimuli/spore_stims/complex_03_A_b.gif","images/stimuli/spore_stims/complex_10_A_a.gif","forced_short","","3","complex_dissimilar","images/stimuli/spore_stims/complex_10_A_a.gif","","","","",""
"","null","html-keyboard-response","54","305146","0.0-15.0-0.4","SS1618365447088","","","null","","","","","","<p><img src= images/blank.png width =""600"" height = ""600"" style=""position:fixed;top:50%; left:50%; transform: translate(-50%, -50%); border:5px solid black"">","","","","","","","",""
"","4069.6250000037253","sequential-stimulus-presentation-old","55","309722","0.0-15.0-1.4","SS1618365447088","trial","","40","500","4569.625000003725","images/stimuli/spore_stims/complex_03_A_b.gif","images/stimuli/spore_stims/complex_10_A_a.gif","forced_short","","3","complex_dissimilar","images/stimuli/spore_stims/complex_10_A_a.gif","","","","",""
"","null","html-keyboard-response","56","310683","0.0-15.0-0.5","SS1618365447088","","","null","","","","","","<p><img src= images/blank.png width =""600"" height = ""600"" style=""position:fixed;top:50%; left:50%; transform: translate(-50%, -50%); border:5px solid black"">","","","","","","","",""
"","3810.2549999020994","sequential-stimulus-presentation-old","57","314999","0.0-15.0-1.5","SS1618365447088","trial","","40","500","4310.254999902099","images/stimuli/spore_stims/complex_03_A_b.gif","images/stimuli/spore_stims/complex_10_A_a.gif","forced_short","","3","complex_dissimilar","images/stimuli/spore_stims/complex_10_A_a.gif","","","","",""
"","2380.394999869168","survey-multi-choice","58","317382","0.0-16.0","SS1618365447088","math_question","","","","","","","","","","","","{""Q0"":""18""}","[0]","18","",""
"","null","html-keyboard-response","59","318209","0.0-17.0-0.0","SS1618365447088","","","null","","","","","","<p><img src= images/blank.png width =""600"" height = ""600"" style=""position:fixed;top:50%; left:50%; transform: translate(-50%, -50%); border:5px solid black"">","","","","","","","",""
"","1234.704999718815","sequential-stimulus-presentation-old","60","319951","0.0-17.0-1.0","SS1618365447088","trial","","40","500","1734.704999718815","images/stimuli/spore_stims/simple_06_A_b.gif","images/stimuli/spore_stims/simple_04_A_a.gif","self_paced","","4","simple_dissimilar","images/stimuli/spore_stims/simple_04_A_a.gif","","","","",""
"","null","html-keyboard-response","61","320970","0.0-17.0-0.1","SS1618365447088","","","null","","","","","","<p><img src= images/blank.png width =""600"" height = ""600"" style=""position:fixed;top:50%; left:50%; transform: translate(-50%, -50%); border:5px solid black"">","","","","","","","",""
"","1303.2299997285008","sequential-stimulus-presentation-old","62","322776","0.0-17.0-1.1","SS1618365447088","trial","","40","500","1803.2299997285008","images/stimuli/spore_stims/simple_06_A_b.gif","images/stimuli/spore_stims/simple_04_A_a.gif","self_paced","","4","simple_dissimilar","images/stimuli/spore_stims/simple_04_A_a.gif","","","","",""
"","null","html-keyboard-response","63","323742","0.0-17.0-0.2","SS1618365447088","","","null","","","","","","<p><img src= images/blank.png width =""600"" height = ""600"" style=""position:fixed;top:50%; left:50%; transform: translate(-50%, -50%); border:5px solid black"">","","","","","","","",""
"","1458.4000003524125","sequential-stimulus-presentation-old","64","325708","0.0-17.0-1.2","SS1618365447088","trial","","40","500","1958.4000003524125","images/stimuli/spore_stims/simple_06_A_b.gif","images/stimuli/spore_stims/simple_04_A_a.gif","self_paced","","4","simple_dissimilar","images/stimuli/spore_stims/simple_04_A_a.gif","","","","",""
"","null","html-keyboard-response","65","326852","0.0-17.0-0.3","SS1618365447088","","","null","","","","","","<p><img src= images/blank.png width =""600"" height = ""600"" style=""position:fixed;top:50%; left:50%; transform: translate(-50%, -50%); border:5px solid black"">","","","","","","","",""
"","1265.7950003631413","sequential-stimulus-presentation-old","66","328625","0.0-17.0-1.3","SS1618365447088","trial","","40","500","1765.7950003631413","images/stimuli/spore_stims/simple_06_A_b.gif","images/stimuli/spore_stims/simple_04_A_a.gif","self_paced","","4","simple_dissimilar","images/stimuli/spore_stims/simple_04_A_a.gif","","","","",""
"","4714.64499970898","survey-multi-choice","67","333344","0.0-18.0","SS1618365447088","math_question","","","","","","","","","","","","{""Q0"":""15""}","[0]","15","",""
"","null","html-keyboard-response","68","334511","0.0-19.0-0.0","SS1618365447088","","","null","","","","","","<p><img src= images/blank.png width =""600"" height = ""600"" style=""position:fixed;top:50%; left:50%; transform: translate(-50%, -50%); border:5px solid black"">","","","","","","","",""
"","1518.524999730289","sequential-stimulus-presentation-old","69","336087","0.0-19.0-1.0","SS1618365447088","trial","","40","500","2018.524999730289","images/stimuli/spore_stims/simple_15_A_a.gif","images/stimuli/spore_stims/simple_04_A_b.gif","forced_short","","5","simple_dissimilar","images/stimuli/spore_stims/simple_04_A_b.gif","","","","",""
"","null","html-keyboard-response","70","337142","0.0-19.0-0.1","SS1618365447088","","","null","","","","","","<p><img src= images/blank.png width =""600"" height = ""600"" style=""position:fixed;top:50%; left:50%; transform: translate(-50%, -50%); border:5px solid black"">","","","","","","","",""
"","6162.324999924749","sequential-stimulus-presentation-old","71","343811","0.0-19.0-1.1","SS1618365447088","trial","","40","500","6662.324999924749","images/stimuli/spore_stims/simple_15_A_a.gif","images/stimuli/spore_stims/simple_04_A_b.gif","forced_short","","5","simple_dissimilar","images/stimuli/spore_stims/simple_15_A_a.gif","","","","",""
"","null","html-keyboard-response","72","344910","0.0-19.0-0.2","SS1618365447088","","","null","","","","","","<p><img src= images/blank.png width =""600"" height = ""600"" style=""position:fixed;top:50%; left:50%; transform: translate(-50%, -50%); border:5px solid black"">","","","","","","","",""
"","4288.11000008136","sequential-stimulus-presentation-old","73","349707","0.0-19.0-1.2","SS1618365447088","trial","","40","500","4788.11000008136","images/stimuli/spore_stims/simple_15_A_a.gif","images/stimuli/spore_stims/simple_04_A_b.gif","forced_short","","5","simple_dissimilar","images/stimuli/spore_stims/simple_04_A_b.gif","","","","",""
"","null","html-keyboard-response","74","350633","0.0-19.0-0.3","SS1618365447088","","","null","","","","","","<p><img src= images/blank.png width =""600"" height = ""600"" style=""position:fixed;top:50%; left:50%; transform: translate(-50%, -50%); border:5px solid black"">","","","","","","","",""
"","2406.839999835938","sequential-stimulus-presentation-old","75","353547","0.0-19.0-1.3","SS1618365447088","trial","","40","500","2906.839999835938","images/stimuli/spore_stims/simple_15_A_a.gif","images/stimuli/spore_stims/simple_04_A_b.gif","forced_short","","5","simple_dissimilar","images/stimuli/spore_stims/simple_04_A_b.gif","","","","",""
"","null","html-keyboard-response","76","354445","0.0-19.0-0.4","SS1618365447088","","","null","","","","","","<p><img src= images/blank.png width =""600"" height = ""600"" style=""position:fixed;top:50%; left:50%; transform: translate(-50%, -50%); border:5px solid black"">","","","","","","","",""
"","2554.6200000680983","sequential-stimulus-presentation-old","77","357503","0.0-19.0-1.4","SS1618365447088","trial","","40","500","3054.6200000680983","images/stimuli/spore_stims/simple_15_A_a.gif","images/stimuli/spore_stims/simple_04_A_b.gif","forced_short","","5","simple_dissimilar","images/stimuli/spore_stims/simple_04_A_b.gif","","","","",""
"","null","html-keyboard-response","78","358716","0.0-19.0-0.5","SS1618365447088","","","null","","","","","","<p><img src= images/blank.png width =""600"" height = ""600"" style=""position:fixed;top:50%; left:50%; transform: translate(-50%, -50%); border:5px solid black"">","","","","","","","",""
"","4859.33499969542","sequential-stimulus-presentation-old","79","364079","0.0-19.0-1.5","SS1618365447088","trial","","40","500","5359.33499969542","images/stimuli/spore_stims/simple_15_A_a.gif","images/stimuli/spore_stims/simple_04_A_b.gif","forced_short","","5","simple_dissimilar","images/stimuli/spore_stims/simple_15_A_a.gif","","","","",""
"","3435.9850003384054","survey-multi-choice","80","367521","0.0-20.0","SS1618365447088","math_question","","","","","","","","","","","","{""Q0"":""18""}","[0]","18","",""
"","null","html-keyboard-response","81","368539","0.0-21.0-0.0","SS1618365447088","","","null","","","","","","<p><img src= images/blank.png width =""600"" height = ""600"" style=""position:fixed;top:50%; left:50%; transform: translate(-50%, -50%); border:5px solid black"">","","","","","","","",""
"","527.3049999959767","sequential-stimulus-presentation-old","82","374071","0.0-21.0-1.0","SS1618365447088","trial","","40","500","1027.3049999959767","images/stimuli/spore_stims/complex_16_A_a.gif","images/stimuli/spore_stims/complex_10_A_b.gif","forced_long","","6","complex_dissimilar","images/stimuli/spore_stims/complex_10_A_b.gif","","","","",""
"","null","html-keyboard-response","83","375203","0.0-21.0-0.1","SS1618365447088","","","null","","","","","","<p><img src= images/blank.png width =""600"" height = ""600"" style=""position:fixed;top:50%; left:50%; transform: translate(-50%, -50%); border:5px solid black"">","","","","","","","",""
"","1936.9199997745454","sequential-stimulus-presentation-old","84","377647","0.0-21.0-1.1","SS1618365447088","trial","","40","500","2436.9199997745454","images/stimuli/spore_stims/complex_16_A_a.gif","images/stimuli/spore_stims/complex_10_A_b.gif","forced_long","","6","complex_dissimilar","images/stimuli/spore_stims/complex_10_A_b.gif","","","","",""
"","null","html-keyboard-response","85","378467","0.0-21.0-0.2","SS1618365447088","","","null","","","","","","<p><img src= images/blank.png width =""600"" height = ""600"" style=""position:fixed;top:50%; left:50%; transform: translate(-50%, -50%); border:5px solid black"">","","","","","","","",""
"","1673.7300003878772","sequential-stimulus-presentation-old","86","380647","0.0-21.0-1.2","SS1618365447088","trial","","40","500","2173.730000387877","images/stimuli/spore_stims/complex_16_A_a.gif","images/stimuli/spore_stims/complex_10_A_b.gif","forced_long","","6","complex_dissimilar","images/stimuli/spore_stims/complex_10_A_b.gif","","","","",""
"","null","html-keyboard-response","87","381899","0.0-21.0-0.3","SS1618365447088","","","null","","","","","","<p><img src= images/blank.png width =""600"" height = ""600"" style=""position:fixed;top:50%; left:50%; transform: translate(-50%, -50%); border:5px solid black"">","","","","","","","",""
"","3273.1299996376038","sequential-stimulus-presentation-old","88","385679","0.0-21.0-1.3","SS1618365447088","trial","","40","500","3773.1299996376038","images/stimuli/spore_stims/complex_16_A_a.gif","images/stimuli/spore_stims/complex_10_A_b.gif","forced_long","","6","complex_dissimilar","images/stimuli/spore_stims/complex_16_A_a.gif","","","","",""
"","null","html-keyboard-response","89","386714","0.0-21.0-0.4","SS1618365447088","","","null","","","","","","<p><img src= images/blank.png width =""600"" height = ""600"" style=""position:fixed;top:50%; left:50%; transform: translate(-50%, -50%); border:5px solid black"">","","","","","","","",""
"","2557.204999960959","sequential-stimulus-presentation-old","90","389778","0.0-21.0-1.4","SS1618365447088","trial","","40","500","3057.204999960959","images/stimuli/spore_stims/complex_16_A_a.gif","images/stimuli/spore_stims/complex_10_A_b.gif","forced_long","","6","complex_dissimilar","images/stimuli/spore_stims/complex_10_A_b.gif","","","","",""
"","null","html-keyboard-response","91","390968","0.0-21.0-0.5","SS1618365447088","","","null","","","","","","<p><img src= images/blank.png width =""600"" height = ""600"" style=""position:fixed;top:50%; left:50%; transform: translate(-50%, -50%); border:5px solid black"">","","","","","","","",""
"","2772.2149998880923","sequential-stimulus-presentation-old","92","394244","0.0-21.0-1.5","SS1618365447088","trial","","40","500","3272.2149998880923","images/stimuli/spore_stims/complex_16_A_a.gif","images/stimuli/spore_stims/complex_10_A_b.gif","forced_long","","6","complex_dissimilar","images/stimuli/spore_stims/complex_16_A_a.gif","","","","",""
"","4248.699999880046","survey-multi-choice","93","398499","0.0-22.0","SS1618365447088","math_question","","","","","","","","","","","","{""Q0"":""11""}","[0]","11","",""
"","null","html-keyboard-response","94","399663","0.0-23.0-0.0","SS1618365447088","","","null","","","","","","<p><img src= images/blank.png width =""600"" height = ""600"" style=""position:fixed;top:50%; left:50%; transform: translate(-50%, -50%); border:5px solid black"">","","","","","","","",""
"","1661.9349997490644","sequential-stimulus-presentation-old","95","406697","0.0-23.0-1.0","SS1618365447088","trial","","40","500","2161.9349997490644","images/stimuli/spore_stims/simple_13_A_a.gif","images/stimuli/spore_stims/simple_15_A_b.gif","forced_long","","7","simple_dissimilar","images/stimuli/spore_stims/simple_15_A_b.gif","","","","",""
"","null","html-keyboard-response","96","407983","0.0-23.0-0.1","SS1618365447088","","","null","","","","","","<p><img src= images/blank.png width =""600"" height = ""600"" style=""position:fixed;top:50%; left:50%; transform: translate(-50%, -50%); border:5px solid black"">","","","","","","","",""
"","2228.9350000210106","sequential-stimulus-presentation-old","97","410717","0.0-23.0-1.1","SS1618365447088","trial","","40","500","2728.9350000210106","images/stimuli/spore_stims/simple_13_A_a.gif","images/stimuli/spore_stims/simple_15_A_b.gif","forced_long","","7","simple_dissimilar","images/stimuli/spore_stims/simple_15_A_b.gif","","","","",""
"","null","html-keyboard-response","98","411784","0.0-23.0-0.2","SS1618365447088","","","null","","","","","","<p><img src= images/blank.png width =""600"" height = ""600"" style=""position:fixed;top:50%; left:50%; transform: translate(-50%, -50%); border:5px solid black"">","","","","","","","",""
"","1211.8600001558661","sequential-stimulus-presentation-old","99","413503","0.0-23.0-1.2","SS1618365447088","trial","","40","500","1711.8600001558661","images/stimuli/spore_stims/simple_13_A_a.gif","images/stimuli/spore_stims/simple_15_A_b.gif","forced_long","","7","simple_dissimilar","images/stimuli/spore_stims/simple_15_A_b.gif","","","","",""
"","null","html-keyboard-response","100","414688","0.0-23.0-0.3","SS1618365447088","","","null","","","","","","<p><img src= images/blank.png width =""600"" height = ""600"" style=""position:fixed;top:50%; left:50%; transform: translate(-50%, -50%); border:5px solid black"">","","","","","","","",""
"","5001.724999863654","sequential-stimulus-presentation-old","101","420194","0.0-23.0-1.3","SS1618365447088","trial","","40","500","5501.724999863654","images/stimuli/spore_stims/simple_13_A_a.gif","images/stimuli/spore_stims/simple_15_A_b.gif","forced_long","","7","simple_dissimilar","images/stimuli/spore_stims/simple_13_A_a.gif","","","","",""
"","null","html-keyboard-response","102","421011","0.0-23.0-0.4","SS1618365447088","","","null","","","","","","<p><img src= images/blank.png width =""600"" height = ""600"" style=""position:fixed;top:50%; left:50%; transform: translate(-50%, -50%); border:5px solid black"">","","","","","","","",""
"","5371.999999973923","sequential-stimulus-presentation-old","103","426891","0.0-23.0-1.4","SS1618365447088","trial","","40","500","5871.999999973923","images/stimuli/spore_stims/simple_13_A_a.gif","images/stimuli/spore_stims/simple_15_A_b.gif","forced_long","","7","simple_dissimilar","images/stimuli/spore_stims/simple_15_A_b.gif","","","","",""
"","null","html-keyboard-response","104","428012","0.0-23.0-0.5","SS1618365447088","","","null","","","","","","<p><img src= images/blank.png width =""600"" height = ""600"" style=""position:fixed;top:50%; left:50%; transform: translate(-50%, -50%); border:5px solid black"">","","","","","","","",""
"","5670.940000098199","sequential-stimulus-presentation-old","105","434190","0.0-23.0-1.5","SS1618365447088","trial","","40","500","6170.940000098199","images/stimuli/spore_stims/simple_13_A_a.gif","images/stimuli/spore_stims/simple_15_A_b.gif","forced_long","","7","simple_dissimilar","images/stimuli/spore_stims/simple_13_A_a.gif","","","","",""
"","2601.2849998660386","survey-multi-choice","106","436798","0.0-24.0","SS1618365447088","math_question","","","","","","","","","","","","{""Q0"":""6""}","[0]","6","",""
"","null","html-keyboard-response","107","438036","0.0-25.0-0.0","SS1618365447088","","","null","","","","","","<p><img src= images/blank.png width =""600"" height = ""600"" style=""position:fixed;top:50%; left:50%; transform: translate(-50%, -50%); border:5px solid black"">","","","","","","","",""
"","1388.0849997512996","sequential-stimulus-presentation-old","108","439482","0.0-25.0-1.0","SS1618365447088","trial","","40","500","1888.0849997512996","images/stimuli/spore_stims/complex_17_A_a.gif","images/stimuli/spore_stims/complex_04_A_b.gif","forced_short","","8","complex_dissimilar","images/stimuli/spore_stims/complex_04_A_b.gif","","","","",""
"","null","html-keyboard-response","109","440673","0.0-25.0-0.1","SS1618365447088","","","null","","","","","","<p><img src= images/blank.png width =""600"" height = ""600"" style=""position:fixed;top:50%; left:50%; transform: translate(-50%, -50%); border:5px solid black"">","","","","","","","",""
"","1756.5600001253188","sequential-stimulus-presentation-old","110","442937","0.0-25.0-1.1","SS1618365447088","trial","","40","500","2256.5600001253188","images/stimuli/spore_stims/complex_17_A_a.gif","images/stimuli/spore_stims/complex_04_A_b.gif","forced_short","","8","complex_dissimilar","images/stimuli/spore_stims/complex_04_A_b.gif","","","","",""
"","null","html-keyboard-response","111","443855","0.0-25.0-0.2","SS1618365447088","","","null","","","","","","<p><img src= images/blank.png width =""600"" height = ""600"" style=""position:fixed;top:50%; left:50%; transform: translate(-50%, -50%); border:5px solid black"">","","","","","","","",""
"","1400.2000000327826","sequential-stimulus-presentation-old","112","445760","0.0-25.0-1.2","SS1618365447088","trial","","40","500","1900.2000000327826","images/stimuli/spore_stims/complex_17_A_a.gif","images/stimuli/spore_stims/complex_04_A_b.gif","forced_short","","8","complex_dissimilar","images/stimuli/spore_stims/complex_04_A_b.gif","","","","",""
"","null","html-keyboard-response","113","446718","0.0-25.0-0.3","SS1618365447088","","","null","","","","","","<p><img src= images/blank.png width =""600"" height = ""600"" style=""position:fixed;top:50%; left:50%; transform: translate(-50%, -50%); border:5px solid black"">","","","","","","","",""
"","1553.0900000594556","sequential-stimulus-presentation-old","114","448779","0.0-25.0-1.3","SS1618365447088","trial","","40","500","2053.0900000594556","images/stimuli/spore_stims/complex_17_A_a.gif","images/stimuli/spore_stims/complex_04_A_b.gif","forced_short","","8","complex_dissimilar","images/stimuli/spore_stims/complex_04_A_b.gif","","","","",""
"","null","html-keyboard-response","115","449969","0.0-25.0-0.4","SS1618365447088","","","null","","","","","","<p><img src= images/blank.png width =""600"" height = ""600"" style=""position:fixed;top:50%; left:50%; transform: translate(-50%, -50%); border:5px solid black"">","","","","","","","",""
"","1564.4950000569224","sequential-stimulus-presentation-old","116","452041","0.0-25.0-1.4","SS1618365447088","trial","","40","500","2064.4950000569224","images/stimuli/spore_stims/complex_17_A_a.gif","images/stimuli/spore_stims/complex_04_A_b.gif","forced_short","","8","complex_dissimilar","images/stimuli/spore_stims/complex_04_A_b.gif","","","","",""
"","null","html-keyboard-response","117","452933","0.0-25.0-0.5","SS1618365447088","","","null","","","","","","<p><img src= images/blank.png width =""600"" height = ""600"" style=""position:fixed;top:50%; left:50%; transform: translate(-50%, -50%); border:5px solid black"">","","","","","","","",""
"","3878.354999702424","sequential-stimulus-presentation-old","118","457318","0.0-25.0-1.5","SS1618365447088","trial","","40","500","4378.354999702424","images/stimuli/spore_stims/complex_17_A_a.gif","images/stimuli/spore_stims/complex_04_A_b.gif","forced_short","","8","complex_dissimilar","images/stimuli/spore_stims/complex_17_A_a.gif","","","","",""
"","3710.9249997884035","survey-multi-choice","119","461040","0.0-26.0","SS1618365447088","math_question","","","","","","","","","","","","{""Q0"":""11""}","[0]","11","",""
"","null","html-keyboard-response","120","462120","0.0-27.0-0.0","SS1618365447088","","","null","","","","","","<p><img src= images/blank.png width =""600"" height = ""600"" style=""position:fixed;top:50%; left:50%; transform: translate(-50%, -50%); border:5px solid black"">","","","","","","","",""
"","2049.864999949932","sequential-stimulus-presentation-old","121","464676","0.0-27.0-1.0","SS1618365447088","trial","","40","500","2549.864999949932","images/stimuli/spore_stims/complex_12_A_a.gif","images/stimuli/spore_stims/complex_14_A_b.gif","self_paced","","9","complex_dissimilar","images/stimuli/spore_stims/complex_14_A_b.gif","","","","",""
"","null","html-keyboard-response","122","465967","0.0-27.0-0.1","SS1618365447088","","","null","","","","","","<p><img src= images/blank.png width =""600"" height = ""600"" style=""position:fixed;top:50%; left:50%; transform: translate(-50%, -50%); border:5px solid black"">","","","","","","","",""
"","2469.099999871105","sequential-stimulus-presentation-old","123","468943","0.0-27.0-1.1","SS1618365447088","trial","","40","500","2969.099999871105","images/stimuli/spore_stims/complex_12_A_a.gif","images/stimuli/spore_stims/complex_14_A_b.gif","self_paced","","9","complex_dissimilar","images/stimuli/spore_stims/complex_14_A_b.gif","","","","",""
"","null","html-keyboard-response","124","470034","0.0-27.0-0.2","SS1618365447088","","","null","","","","","","<p><img src= images/blank.png width =""600"" height = ""600"" style=""position:fixed;top:50%; left:50%; transform: translate(-50%, -50%); border:5px solid black"">","","","","","","","",""
"","3813.004999887198","sequential-stimulus-presentation-old","125","474352","0.0-27.0-1.2","SS1618365447088","trial","","40","500","4313.004999887198","images/stimuli/spore_stims/complex_12_A_a.gif","images/stimuli/spore_stims/complex_14_A_b.gif","self_paced","","9","complex_dissimilar","images/stimuli/spore_stims/complex_12_A_a.gif","","","","",""
"","null","html-keyboard-response","126","475243","0.0-27.0-0.3","SS1618365447088","","","null","","","","","","<p><img src= images/blank.png width =""600"" height = ""600"" style=""position:fixed;top:50%; left:50%; transform: translate(-50%, -50%); border:5px solid black"">","","","","","","","",""
"","3307.99000011757","sequential-stimulus-presentation-old","127","479058","0.0-27.0-1.3","SS1618365447088","trial","","40","500","3807.99000011757","images/stimuli/spore_stims/complex_12_A_a.gif","images/stimuli/spore_stims/complex_14_A_b.gif","self_paced","","9","complex_dissimilar","images/stimuli/spore_stims/complex_14_A_b.gif","","","","",""
"","null","html-keyboard-response","128","480317","0.0-27.0-0.4","SS1618365447088","","","null","","","","","","<p><img src= images/blank.png width =""600"" height = ""600"" style=""position:fixed;top:50%; left:50%; transform: translate(-50%, -50%); border:5px solid black"">","","","","","","","",""
"","549.1300001740456","sequential-stimulus-presentation-old","129","481373","0.0-27.0-1.4","SS1618365447088","trial","","40","500","1049.1300001740456","images/stimuli/spore_stims/complex_12_A_a.gif","images/stimuli/spore_stims/complex_14_A_b.gif","self_paced","","9","complex_dissimilar","images/stimuli/spore_stims/complex_14_A_b.gif","","","","",""
"","null","html-keyboard-response","130","482440","0.0-27.0-0.5","SS1618365447088","","","null","","","","","","<p><img src= images/blank.png width =""600"" height = ""600"" style=""position:fixed;top:50%; left:50%; transform: translate(-50%, -50%); border:5px solid black"">","","","","","","","",""
"","1529.9900001846254","sequential-stimulus-presentation-old","131","484477","0.0-27.0-1.5","SS1618365447088","trial","","40","500","2029.9900001846254","images/stimuli/spore_stims/complex_12_A_a.gif","images/stimuli/spore_stims/complex_14_A_b.gif","self_paced","","9","complex_dissimilar","images/stimuli/spore_stims/complex_12_A_a.gif","","","","",""
"","3566.98999973014","survey-multi-choice","132","488050","0.0-28.0","SS1618365447088","math_question","","","","","","","","","","","","{""Q0"":""13""}","[0]","13","",""
"","null","html-keyboard-response","133","489059","0.0-29.0-0.0","SS1618365447088","","","null","","","","","","<p><img src= images/blank.png width =""600"" height = ""600"" style=""position:fixed;top:50%; left:50%; transform: translate(-50%, -50%); border:5px solid black"">","","","","","","","",""
"","861.7250001989305","sequential-stimulus-presentation-old","134","490430","0.0-29.0-1.0","SS1618365447088","trial","","40","500","1361.7250001989305","images/stimuli/spore_stims/simple_08_A_a.gif","images/stimuli/spore_stims/simple_12_A_b.gif","self_paced","","10","simple_dissimilar","images/stimuli/spore_stims/simple_12_A_b.gif","","","","",""
"","null","html-keyboard-response","135","491712","0.0-29.0-0.1","SS1618365447088","","","null","","","","","","<p><img src= images/blank.png width =""600"" height = ""600"" style=""position:fixed;top:50%; left:50%; transform: translate(-50%, -50%); border:5px solid black"">","","","","","","","",""
"","1155.5099999532104","sequential-stimulus-presentation-old","136","493373","0.0-29.0-1.1","SS1618365447088","trial","","40","500","1655.5099999532104","images/stimuli/spore_stims/simple_08_A_a.gif","images/stimuli/spore_stims/simple_12_A_b.gif","self_paced","","10","simple_dissimilar","images/stimuli/spore_stims/simple_08_A_a.gif","","","","",""
"","null","html-keyboard-response","137","494290","0.0-29.0-0.2","SS1618365447088","","","null","","","","","","<p><img src= images/blank.png width =""600"" height = ""600"" style=""position:fixed;top:50%; left:50%; transform: translate(-50%, -50%); border:5px solid black"">","","","","","","","",""
"","1727.3450000211596","sequential-stimulus-presentation-old","138","496524","0.0-29.0-1.2","SS1618365447088","trial","","40","500","2227.3450000211596","images/stimuli/spore_stims/simple_08_A_a.gif","images/stimuli/spore_stims/simple_12_A_b.gif","self_paced","","10","simple_dissimilar","images/stimuli/spore_stims/simple_12_A_b.gif","","","","",""
"","null","html-keyboard-response","139","497399","0.0-29.0-0.3","SS1618365447088","","","null","","","","","","<p><img src= images/blank.png width =""600"" height = ""600"" style=""position:fixed;top:50%; left:50%; transform: translate(-50%, -50%); border:5px solid black"">","","","","","","","",""
"","1180.2150001749396","sequential-stimulus-presentation-old","140","499084","0.0-29.0-1.3","SS1618365447088","trial","","40","500","1680.2150001749396","images/stimuli/spore_stims/simple_08_A_a.gif","images/stimuli/spore_stims/simple_12_A_b.gif","self_paced","","10","simple_dissimilar","images/stimuli/spore_stims/simple_12_A_b.gif","","","","",""
"","null","html-keyboard-response","141","499916","0.0-29.0-0.4","SS1618365447088","","","null","","","","","","<p><img src= images/blank.png width =""600"" height = ""600"" style=""position:fixed;top:50%; left:50%; transform: translate(-50%, -50%); border:5px solid black"">","","","","","","","",""
"","495.17500028014183","sequential-stimulus-presentation-old","142","500920","0.0-29.0-1.4","SS1618365447088","trial","","40","500","995.1750002801418","images/stimuli/spore_stims/simple_08_A_a.gif","images/stimuli/spore_stims/simple_12_A_b.gif","self_paced","","10","simple_dissimilar","images/stimuli/spore_stims/simple_12_A_b.gif","","","","",""
"","2847.629999741912","survey-multi-choice","143","503774","0.0-30.0","SS1618365447088","math_question","","","","","","","","","","","","{""Q0"":""11""}","[0]","11","",""
"","null","html-keyboard-response","144","504587","0.0-31.0-0.0","SS1618365447088","","","null","","","","","","<p><img src= images/blank.png width =""600"" height = ""600"" style=""position:fixed;top:50%; left:50%; transform: translate(-50%, -50%); border:5px solid black"">","","","","","","","",""
"","592.4450000748038","sequential-stimulus-presentation-old","145","510185","0.0-31.0-1.0","SS1618365447088","trial","","40","500","1092.4450000748038","images/stimuli/spore_stims/simple_19_A_a.gif","images/stimuli/spore_stims/simple_09_A_b.gif","forced_long","","11","simple_dissimilar","images/stimuli/spore_stims/simple_09_A_b.gif","","","","",""
"","null","html-keyboard-response","146","511276","0.0-31.0-0.1","SS1618365447088","","","null","","","","","","<p><img src= images/blank.png width =""600"" height = ""600"" style=""position:fixed;top:50%; left:50%; transform: translate(-50%, -50%); border:5px solid black"">","","","","","","","",""
"","1400.9000002406538","sequential-stimulus-presentation-old","147","513185","0.0-31.0-1.1","SS1618365447088","trial","","40","500","1900.9000002406538","images/stimuli/spore_stims/simple_19_A_a.gif","images/stimuli/spore_stims/simple_09_A_b.gif","forced_long","","11","simple_dissimilar","images/stimuli/spore_stims/simple_09_A_b.gif","","","","",""
"","null","html-keyboard-response","148","514189","0.0-31.0-0.2","SS1618365447088","","","null","","","","","","<p><img src= images/blank.png width =""600"" height = ""600"" style=""position:fixed;top:50%; left:50%; transform: translate(-50%, -50%); border:5px solid black"">","","","","","","","",""
"","895.1900000683963","sequential-stimulus-presentation-old","149","515592","0.0-31.0-1.2","SS1618365447088","trial","","40","500","1395.1900000683963","images/stimuli/spore_stims/simple_19_A_a.gif","images/stimuli/spore_stims/simple_09_A_b.gif","forced_long","","11","simple_dissimilar","images/stimuli/spore_stims/simple_09_A_b.gif","","","","",""
"","null","html-keyboard-response","150","516522","0.0-31.0-0.3","SS1618365447088","","","null","","","","","","<p><img src= images/blank.png width =""600"" height = ""600"" style=""position:fixed;top:50%; left:50%; transform: translate(-50%, -50%); border:5px solid black"">","","","","","","","",""
"","1140.9249999560416","sequential-stimulus-presentation-old","151","518169","0.0-31.0-1.3","SS1618365447088","trial","","40","500","1640.9249999560416","images/stimuli/spore_stims/simple_19_A_a.gif","images/stimuli/spore_stims/simple_09_A_b.gif","forced_long","","11","simple_dissimilar","images/stimuli/spore_stims/simple_09_A_b.gif","","","","",""
"[{""page_index"":0,""viewing_time"":3393.255000002682}]","3393.5100003145635","instructions","152","521570","0.0-32.0","SS1618365447088","instructions","","","","","","","","","","","","","","","",""
"","4062.770000193268","survey-likert","153","525638","0.0-33.0","SS1618365447088","similarity_question","","","","","","","","","","","","{""Q0"":4}","[0]","","images/stimuli/spore_stims/simple_13_A_a.gif","images/stimuli/spore_stims/simple_15_A_b.gif"
"","6344.769999850541","survey-likert","154","531995","0.0-34.0","SS1618365447088","similarity_question","","","","","","","","","","","","{""Q0"":4}","[0]","","images/stimuli/spore_stims/simple_04_A_b.gif","images/stimuli/spore_stims/simple_15_A_a.gif"
"","4500.415000133216","survey-likert","155","536501","0.0-35.0","SS1618365447088","similarity_question","","","","","","","","","","","","{""Q0"":2}","[0]","","images/stimuli/spore_stims/complex_10_A_a.gif","images/stimuli/spore_stims/complex_03_A_b.gif"
"","6653.859999962151","survey-likert","156","543162","0.0-36.0","SS1618365447088","similarity_question","","","","","","","","","","","","{""Q0"":1}","[0]","","images/stimuli/spore_stims/complex_12_A_a.gif","images/stimuli/spore_stims/complex_14_A_b.gif"
"","3500.069999601692","survey-likert","157","546674","0.0-37.0","SS1618365447088","similarity_question","","","","","","","","","","","","{""Q0"":4}","[0]","","images/stimuli/spore_stims/simple_09_A_b.gif","images/stimuli/spore_stims/simple_19_A_a.gif"
"","5207.415000069886","survey-likert","158","551894","0.0-38.0","SS1618365447088","similarity_question","","","","","","","","","","","","{""Q0"":1}","[0]","","images/stimuli/spore_stims/complex_03_A_a.gif","images/stimuli/spore_stims/complex_16_A_b.gif"
"","6289.744999725372","survey-likert","159","558194","0.0-39.0","SS1618365447088","similarity_question","","","","","","","","","","","","{""Q0"":1}","[0]","","images/stimuli/spore_stims/complex_17_A_a.gif","images/stimuli/spore_stims/complex_04_A_b.gif"
"","4085.9500002115965","survey-likert","160","562287","0.0-40.0","SS1618365447088","similarity_question","","","","","","","","","","","","{""Q0"":2}","[0]","","images/stimuli/spore_stims/complex_08_A_a.gif","images/stimuli/spore_stims/complex_19_A_b.gif"
"","4537.490000016987","survey-likert","161","566837","0.0-41.0","SS1618365447088","similarity_question","","","","","","","","","","","","{""Q0"":4}","[0]","","images/stimuli/spore_stims/simple_17_A_a.gif","images/stimuli/spore_stims/simple_14_A_b.gif"
"","9094.250000081956","survey-likert","162","575936","0.0-42.0","SS1618365447088","similarity_question","","","","","","","","","","","","{""Q0"":1}","[0]","","images/stimuli/spore_stims/complex_16_A_a.gif","images/stimuli/spore_stims/complex_10_A_b.gif"
"","5148.455000016838","survey-likert","163","581098","0.0-43.0","SS1618365447088","similarity_question","","","","","","","","","","","","{""Q0"":5}","[0]","","images/stimuli/spore_stims/simple_08_A_a.gif","images/stimuli/spore_stims/simple_12_A_b.gif"
"","2723.7299997359514","survey-likert","164","583833","0.0-44.0","SS1618365447088","similarity_question","","","","","","","","","","","","{""Q0"":4}","[0]","","images/stimuli/spore_stims/simple_04_A_a.gif","images/stimuli/spore_stims/simple_06_A_b.gif"
"[{""page_index"":0,""viewing_time"":2551.099999807775}]","2551.7699997872114","instructions","165","586388","0.0-45.0","SS1618365447088","instructions","","","","","","","","","","","","","","","",""
"","5604.849999770522","survey-likert","166","591999","0.0-46.0","SS1618365447088","","","","","","","","","images/stimuli/spore_stims/simple_19_A_a.gif","","","","{""Q0"":1}","[0]","","",""
"","4146.885000169277","survey-likert","167","596150","0.0-47.0","SS1618365447088","","","","","","","","","images/stimuli/spore_stims/complex_04_A_b.gif","","","","{""Q0"":4}","[0]","","",""
"","2411.2550001591444","survey-likert","168","598565","0.0-48.0","SS1618365447088","","","","","","","","","images/stimuli/spore_stims/complex_19_A_b.gif","","","","{""Q0"":5}","[0]","","",""
"","3582.449999637902","survey-likert","169","602152","0.0-49.0","SS1618365447088","","","","","","","","","images/stimuli/spore_stims/simple_12_A_b.gif","","","","{""Q0"":0}","[0]","","",""
"","2774.4200001470745","survey-likert","170","604933","0.0-50.0","SS1618365447088","","","","","","","","","images/stimuli/spore_stims/complex_16_A_b.gif","","","","{""Q0"":6}","[0]","","",""
"","2597.825000062585","survey-likert","171","607542","0.0-51.0","SS1618365447088","","","","","","","","","images/stimuli/spore_stims/simple_06_A_b.gif","","","","{""Q0"":0}","[0]","","",""
"","2175.5149997770786","survey-likert","172","609730","0.0-52.0","SS1618365447088","","","","","","","","","images/stimuli/spore_stims/simple_17_A_a.gif","","","","{""Q0"":1}","[0]","","",""
"","2760.2799995802343","survey-likert","173","612503","0.0-53.0","SS1618365447088","","","","","","","","","images/stimuli/spore_stims/simple_13_A_a.gif","","","","{""Q0"":1}","[0]","","",""
"","3491.34000018239","survey-likert","174","616006","0.0-54.0","SS1618365447088","","","","","","","","","images/stimuli/spore_stims/complex_14_A_b.gif","","","","{""Q0"":4}","[0]","","",""
"","5579.239999875426","survey-likert","175","621593","0.0-55.0","SS1618365447088","","","","","","","","","images/stimuli/spore_stims/complex_03_A_b.gif","","","","{""Q0"":4}","[0]","","",""
"","4355.16499960795","survey-likert","176","625959","0.0-56.0","SS1618365447088","","","","","","","","","images/stimuli/spore_stims/simple_04_A_b.gif","","","","{""Q0"":1}","[0]","","",""
"","4029.4650001451373","survey-likert","177","629994","0.0-57.0","SS1618365447088","","","","","","","","","images/stimuli/spore_stims/complex_10_A_b.gif","","","","{""Q0"":4}","[0]","","",""
"[{""page_index"":0,""viewing_time"":1451.979999896139}]","1452.5750000029802","instructions","178","631455","0.0-58.0","SS1618365447088","instructions","","","","","","","","","","","","","","","",""
"","2901.605000253767","demog-age","179","634372","0.0-59.0","SS1618365447088","","","","","","","","","","","","","{""age"":""27""}","","","",""
"","4338.190000038594","demog-ethnic-US","180","638720","0.0-60.0","SS1618365447088","","","","","","","","","","","","","{""ethnicity"":[""White""]}","[0]","","",""
"","6659.9099999293685","demog-gender-and-education","181","645387","0.0-61.0","SS1618365447088","","","","","","","","","","","","","{""gender"":""Non-binary"",""education"":""Associate Degree/Technical certification""}","[0,1]","","",""
"","4551.5749999322","survey-text","182","649945","0.0-62.0","SS1618365447088","feedback","","","","","","","","","","","","{""Q0"":""no""}","","","",""
