"view_history","rt","trial_type","trial_index","time_elapsed","internal_node_id","subject","stimulus_type","trial_stimulus","key_press","minimum_viewing_duration","trial_looking_time","block_deviant","block_background","exposure_type","stimulus","block_number","block_type","stimulus_displayed","responses","question_order","math_correct_answer","stimulus_left","stimulus_right"
"[{""page_index"":0,""viewing_time"":5649.650000035763}]","5650.550000020303","instructions","0","5652","0.0-0.0","SS1618435639576","","","","","","","","","","","","","","","","",""
"[{""page_index"":0,""viewing_time"":9987.680000020191},{""page_index"":1,""viewing_time"":14663.13999996055}]","24651.465000002645","instructions","1","32305","0.0-1.0","SS1618435639576","instructions","","","","","","","","","","","","","","","",""
"","7965.85000003688","sequential-stimulus-presentation-old","2","40777","0.0-2.0","SS1618435639576","","","40","500","8465.85000003688","null","null","self_paced","","","","","","","","",""
"","3537.1899999445304","sequential-stimulus-presentation-old","3","44821","0.0-3.0","SS1618435639576","","","40","500","4037.1899999445304","null","null","self_paced","","","","","","","","",""
"[{""page_index"":0,""viewing_time"":10058.88500000583}]","10059.175000002142","instructions","4","54881","0.0-4.0","SS1618435639576","instructions","","","","","","","","","","","","","","","",""
"","2162.809999950696","sequential-stimulus-presentation-old","5","62049","0.0-5.0","SS1618435639576","","","40","500","2662.809999950696","null","null","forced_long","","","","","","","","",""
"","4782.420000003185","sequential-stimulus-presentation-old","6","66886","0.0-6.0","SS1618435639576","","","40","50","4832.420000003185","null","null","forced_long","","","","","","","","",""
"[{""page_index"":0,""viewing_time"":4265.755000000354}]","4266.00000000326","instructions","7","71153","0.0-7.0","SS1618435639576","instructions","","","","","","","","","","","","","","","",""
"[{""page_index"":0,""viewing_time"":1285.974999947939},{""page_index"":1,""viewing_time"":7864.745000028051},{""page_index"":2,""viewing_time"":7882.994999992661},{""page_index"":3,""viewing_time"":2090.729999996256},{""page_index"":4,""viewing_time"":1254.1949999867938}]","20378.92499996815","instructions","8","91533","0.0-8.0","SS1618435639576","instructions","","","","","","","","","","","","","","","",""
"","null","html-keyboard-response","9","92438","0.0-9.0-0.0","SS1618435639576","","","null","","","","","","<p><img src= images/blank.png width =""600"" height = ""600"" style=""position:fixed;top:50%; left:50%; transform: translate(-50%, -50%); border:5px solid black"">","","","","","","","",""
"","663.219999987632","sequential-stimulus-presentation-old","10","93160","0.0-9.0-1.0","SS1618435639576","trial","","40","500","1163.219999987632","images/stimuli/spore_stims/simple_17_A_b.gif","images/stimuli/spore_stims/simple_15_A_a.gif","forced_short","","0","simple_dissimilar","images/stimuli/spore_stims/simple_15_A_a.gif","","","","",""
"","null","html-keyboard-response","11","94345","0.0-9.0-0.1","SS1618435639576","","","null","","","","","","<p><img src= images/blank.png width =""600"" height = ""600"" style=""position:fixed;top:50%; left:50%; transform: translate(-50%, -50%); border:5px solid black"">","","","","","","","",""
"","1565.2349999872968","sequential-stimulus-presentation-old","12","96418","0.0-9.0-1.1","SS1618435639576","trial","","40","500","2065.2349999872968","images/stimuli/spore_stims/simple_17_A_b.gif","images/stimuli/spore_stims/simple_15_A_a.gif","forced_short","","0","simple_dissimilar","images/stimuli/spore_stims/simple_15_A_a.gif","","","","",""
"","null","html-keyboard-response","13","97536","0.0-9.0-0.2","SS1618435639576","","","null","","","","","","<p><img src= images/blank.png width =""600"" height = ""600"" style=""position:fixed;top:50%; left:50%; transform: translate(-50%, -50%); border:5px solid black"">","","","","","","","",""
"","660.6000000028871","sequential-stimulus-presentation-old","14","98704","0.0-9.0-1.2","SS1618435639576","trial","","40","500","1160.600000002887","images/stimuli/spore_stims/simple_17_A_b.gif","images/stimuli/spore_stims/simple_15_A_a.gif","forced_short","","0","simple_dissimilar","images/stimuli/spore_stims/simple_15_A_a.gif","","","","",""
"","null","html-keyboard-response","15","99691","0.0-9.0-0.3","SS1618435639576","","","null","","","","","","<p><img src= images/blank.png width =""600"" height = ""600"" style=""position:fixed;top:50%; left:50%; transform: translate(-50%, -50%); border:5px solid black"">","","","","","","","",""
"","7987.665000022389","sequential-stimulus-presentation-old","16","108187","0.0-9.0-1.3","SS1618435639576","trial","","40","500","8487.665000022389","images/stimuli/spore_stims/simple_17_A_b.gif","images/stimuli/spore_stims/simple_15_A_a.gif","forced_short","","0","simple_dissimilar","images/stimuli/spore_stims/simple_17_A_b.gif","","","","",""
"","7577.470000018366","survey-multi-choice","17","115767","0.0-10.0","SS1618435639576","math_question","","","","","","","","","","","","{""Q0"":""9""}","[0]","9","",""
"","null","html-keyboard-response","18","116827","0.0-11.0-0.0","SS1618435639576","","","null","","","","","","<p><img src= images/blank.png width =""600"" height = ""600"" style=""position:fixed;top:50%; left:50%; transform: translate(-50%, -50%); border:5px solid black"">","","","","","","","",""
"","466.6599999764003","sequential-stimulus-presentation-old","19","122300","0.0-11.0-1.0","SS1618435639576","trial","","40","500","966.6599999764003","images/stimuli/spore_stims/complex_01_A_a.gif","images/stimuli/spore_stims/complex_05_A_b.gif","forced_long","","1","complex_dissimilar","images/stimuli/spore_stims/complex_05_A_b.gif","","","","",""
"","null","html-keyboard-response","20","123432","0.0-11.0-0.1","SS1618435639576","","","null","","","","","","<p><img src= images/blank.png width =""600"" height = ""600"" style=""position:fixed;top:50%; left:50%; transform: translate(-50%, -50%); border:5px solid black"">","","","","","","","",""
"","2323.445000045467","sequential-stimulus-presentation-old","21","126263","0.0-11.0-1.1","SS1618435639576","trial","","40","500","2823.445000045467","images/stimuli/spore_stims/complex_01_A_a.gif","images/stimuli/spore_stims/complex_05_A_b.gif","forced_long","","1","complex_dissimilar","images/stimuli/spore_stims/complex_05_A_b.gif","","","","",""
"","null","html-keyboard-response","22","127211","0.0-11.0-0.2","SS1618435639576","","","null","","","","","","<p><img src= images/blank.png width =""600"" height = ""600"" style=""position:fixed;top:50%; left:50%; transform: translate(-50%, -50%); border:5px solid black"">","","","","","","","",""
"","2868.9050000393763","sequential-stimulus-presentation-old","23","130583","0.0-11.0-1.2","SS1618435639576","trial","","40","500","3368.9050000393763","images/stimuli/spore_stims/complex_01_A_a.gif","images/stimuli/spore_stims/complex_05_A_b.gif","forced_long","","1","complex_dissimilar","images/stimuli/spore_stims/complex_05_A_b.gif","","","","",""
"","null","html-keyboard-response","24","131475","0.0-11.0-0.3","SS1618435639576","","","null","","","","","","<p><img src= images/blank.png width =""600"" height = ""600"" style=""position:fixed;top:50%; left:50%; transform: translate(-50%, -50%); border:5px solid black"">","","","","","","","",""
"","4410.090000019409","sequential-stimulus-presentation-old","25","136392","0.0-11.0-1.3","SS1618435639576","trial","","40","500","4910.090000019409","images/stimuli/spore_stims/complex_01_A_a.gif","images/stimuli/spore_stims/complex_05_A_b.gif","forced_long","","1","complex_dissimilar","images/stimuli/spore_stims/complex_05_A_b.gif","","","","",""
"","3087.0950000244193","survey-multi-choice","26","139481","0.0-12.0","SS1618435639576","math_question","","","","","","","","","","","","{""Q0"":""5""}","[0]","5","",""
"","null","html-keyboard-response","27","140505","0.0-13.0-0.0","SS1618435639576","","","null","","","","","","<p><img src= images/blank.png width =""600"" height = ""600"" style=""position:fixed;top:50%; left:50%; transform: translate(-50%, -50%); border:5px solid black"">","","","","","","","",""
"","1435.730000026524","sequential-stimulus-presentation-old","28","146946","0.0-13.0-1.0","SS1618435639576","trial","","40","500","1935.730000026524","images/stimuli/spore_stims/simple_12_A_a.gif","images/stimuli/spore_stims/simple_15_A_b.gif","forced_long","","2","simple_dissimilar","images/stimuli/spore_stims/simple_15_A_b.gif","","","","",""
"","null","html-keyboard-response","29","147999","0.0-13.0-0.1","SS1618435639576","","","null","","","","","","<p><img src= images/blank.png width =""600"" height = ""600"" style=""position:fixed;top:50%; left:50%; transform: translate(-50%, -50%); border:5px solid black"">","","","","","","","",""
"","3886.774999962654","sequential-stimulus-presentation-old","30","152391","0.0-13.0-1.1","SS1618435639576","trial","","40","500","4386.774999962654","images/stimuli/spore_stims/simple_12_A_a.gif","images/stimuli/spore_stims/simple_15_A_b.gif","forced_long","","2","simple_dissimilar","images/stimuli/spore_stims/simple_15_A_b.gif","","","","",""
"","null","html-keyboard-response","31","153240","0.0-13.0-0.2","SS1618435639576","","","null","","","","","","<p><img src= images/blank.png width =""600"" height = ""600"" style=""position:fixed;top:50%; left:50%; transform: translate(-50%, -50%); border:5px solid black"">","","","","","","","",""
"","2537.860000040382","sequential-stimulus-presentation-old","32","156286","0.0-13.0-1.2","SS1618435639576","trial","","40","500","3037.860000040382","images/stimuli/spore_stims/simple_12_A_a.gif","images/stimuli/spore_stims/simple_15_A_b.gif","forced_long","","2","simple_dissimilar","images/stimuli/spore_stims/simple_15_A_b.gif","","","","",""
"","null","html-keyboard-response","33","157411","0.0-13.0-0.3","SS1618435639576","","","null","","","","","","<p><img src= images/blank.png width =""600"" height = ""600"" style=""position:fixed;top:50%; left:50%; transform: translate(-50%, -50%); border:5px solid black"">","","","","","","","",""
"","2899.2100000032224","sequential-stimulus-presentation-old","34","160818","0.0-13.0-1.3","SS1618435639576","trial","","40","500","3399.2100000032224","images/stimuli/spore_stims/simple_12_A_a.gif","images/stimuli/spore_stims/simple_15_A_b.gif","forced_long","","2","simple_dissimilar","images/stimuli/spore_stims/simple_15_A_b.gif","","","","",""
"","3015.4399999883026","survey-multi-choice","35","163835","0.0-14.0","SS1618435639576","math_question","","","","","","","","","","","","{""Q0"":""6""}","[0]","6","",""
"","null","html-keyboard-response","36","164648","0.0-15.0-0.0","SS1618435639576","","","null","","","","","","<p><img src= images/blank.png width =""600"" height = ""600"" style=""position:fixed;top:50%; left:50%; transform: translate(-50%, -50%); border:5px solid black"">","","","","","","","",""
"","3656.399999978021","sequential-stimulus-presentation-old","37","168812","0.0-15.0-1.0","SS1618435639576","trial","","40","500","4156.399999978021","images/stimuli/spore_stims/complex_06_A_a.gif","images/stimuli/spore_stims/complex_19_A_b.gif","self_paced","","3","complex_dissimilar","images/stimuli/spore_stims/complex_19_A_b.gif","","","","",""
"","null","html-keyboard-response","38","169618","0.0-15.0-0.1","SS1618435639576","","","null","","","","","","<p><img src= images/blank.png width =""600"" height = ""600"" style=""position:fixed;top:50%; left:50%; transform: translate(-50%, -50%); border:5px solid black"">","","","","","","","",""
"","2732.83499997342","sequential-stimulus-presentation-old","39","172858","0.0-15.0-1.1","SS1618435639576","trial","","40","500","3232.83499997342","images/stimuli/spore_stims/complex_06_A_a.gif","images/stimuli/spore_stims/complex_19_A_b.gif","self_paced","","3","complex_dissimilar","images/stimuli/spore_stims/complex_19_A_b.gif","","","","",""
"","null","html-keyboard-response","40","174003","0.0-15.0-0.2","SS1618435639576","","","null","","","","","","<p><img src= images/blank.png width =""600"" height = ""600"" style=""position:fixed;top:50%; left:50%; transform: translate(-50%, -50%); border:5px solid black"">","","","","","","","",""
"","2272.530000016559","sequential-stimulus-presentation-old","41","176783","0.0-15.0-1.2","SS1618435639576","trial","","40","500","2772.530000016559","images/stimuli/spore_stims/complex_06_A_a.gif","images/stimuli/spore_stims/complex_19_A_b.gif","self_paced","","3","complex_dissimilar","images/stimuli/spore_stims/complex_19_A_b.gif","","","","",""
"","null","html-keyboard-response","42","177612","0.0-15.0-0.3","SS1618435639576","","","null","","","","","","<p><img src= images/blank.png width =""600"" height = ""600"" style=""position:fixed;top:50%; left:50%; transform: translate(-50%, -50%); border:5px solid black"">","","","","","","","",""
"","2592.0550000155345","sequential-stimulus-presentation-old","43","180709","0.0-15.0-1.3","SS1618435639576","trial","","40","500","3092.0550000155345","images/stimuli/spore_stims/complex_06_A_a.gif","images/stimuli/spore_stims/complex_19_A_b.gif","self_paced","","3","complex_dissimilar","images/stimuli/spore_stims/complex_19_A_b.gif","","","","",""
"","null","html-keyboard-response","44","181874","0.0-15.0-0.4","SS1618435639576","","","null","","","","","","<p><img src= images/blank.png width =""600"" height = ""600"" style=""position:fixed;top:50%; left:50%; transform: translate(-50%, -50%); border:5px solid black"">","","","","","","","",""
"","9908.460000006016","sequential-stimulus-presentation-old","45","192287","0.0-15.0-1.4","SS1618435639576","trial","","40","500","10408.460000006016","images/stimuli/spore_stims/complex_06_A_a.gif","images/stimuli/spore_stims/complex_19_A_b.gif","self_paced","","3","complex_dissimilar","images/stimuli/spore_stims/complex_19_A_b.gif","","","","",""
"","null","html-keyboard-response","46","193455","0.0-15.0-0.5","SS1618435639576","","","null","","","","","","<p><img src= images/blank.png width =""600"" height = ""600"" style=""position:fixed;top:50%; left:50%; transform: translate(-50%, -50%); border:5px solid black"">","","","","","","","",""
"","10477.949999971315","sequential-stimulus-presentation-old","47","204440","0.0-15.0-1.5","SS1618435639576","trial","","40","500","10977.949999971315","images/stimuli/spore_stims/complex_06_A_a.gif","images/stimuli/spore_stims/complex_19_A_b.gif","self_paced","","3","complex_dissimilar","images/stimuli/spore_stims/complex_19_A_b.gif","","","","",""
"","11804.684999980964","survey-multi-choice","48","216247","0.0-16.0","SS1618435639576","math_question","","","","","","","","","","","","{""Q0"":""13""}","[0]","13","",""
"","null","html-keyboard-response","49","217549","0.0-17.0-0.0","SS1618435639576","","","null","","","","","","<p><img src= images/blank.png width =""600"" height = ""600"" style=""position:fixed;top:50%; left:50%; transform: translate(-50%, -50%); border:5px solid black"">","","","","","","","",""
"","448.93000001320615","sequential-stimulus-presentation-old","50","223003","0.0-17.0-1.0","SS1618435639576","trial","","40","500","948.9300000132062","images/stimuli/spore_stims/simple_13_A_a.gif","images/stimuli/spore_stims/simple_16_A_b.gif","forced_long","","4","simple_dissimilar","images/stimuli/spore_stims/simple_16_A_b.gif","","","","",""
"","null","html-keyboard-response","51","223834","0.0-17.0-0.1","SS1618435639576","","","null","","","","","","<p><img src= images/blank.png width =""600"" height = ""600"" style=""position:fixed;top:50%; left:50%; transform: translate(-50%, -50%); border:5px solid black"">","","","","","","","",""
"","5354.794999992009","sequential-stimulus-presentation-old","52","229692","0.0-17.0-1.1","SS1618435639576","trial","","40","500","5854.794999992009","images/stimuli/spore_stims/simple_13_A_a.gif","images/stimuli/spore_stims/simple_16_A_b.gif","forced_long","","4","simple_dissimilar","images/stimuli/spore_stims/simple_16_A_b.gif","","","","",""
"","null","html-keyboard-response","53","230868","0.0-17.0-0.2","SS1618435639576","","","null","","","","","","<p><img src= images/blank.png width =""600"" height = ""600"" style=""position:fixed;top:50%; left:50%; transform: translate(-50%, -50%); border:5px solid black"">","","","","","","","",""
"","5368.750000023283","sequential-stimulus-presentation-old","54","236745","0.0-17.0-1.2","SS1618435639576","trial","","40","500","5868.750000023283","images/stimuli/spore_stims/simple_13_A_a.gif","images/stimuli/spore_stims/simple_16_A_b.gif","forced_long","","4","simple_dissimilar","images/stimuli/spore_stims/simple_16_A_b.gif","","","","",""
"","null","html-keyboard-response","55","237730","0.0-17.0-0.3","SS1618435639576","","","null","","","","","","<p><img src= images/blank.png width =""600"" height = ""600"" style=""position:fixed;top:50%; left:50%; transform: translate(-50%, -50%); border:5px solid black"">","","","","","","","",""
"","2163.5600000154227","sequential-stimulus-presentation-old","56","240397","0.0-17.0-1.3","SS1618435639576","trial","","40","500","2663.5600000154227","images/stimuli/spore_stims/simple_13_A_a.gif","images/stimuli/spore_stims/simple_16_A_b.gif","forced_long","","4","simple_dissimilar","images/stimuli/spore_stims/simple_13_A_a.gif","","","","",""
"","null","html-keyboard-response","57","241685","0.0-17.0-0.4","SS1618435639576","","","null","","","","","","<p><img src= images/blank.png width =""600"" height = ""600"" style=""position:fixed;top:50%; left:50%; transform: translate(-50%, -50%); border:5px solid black"">","","","","","","","",""
"","4135.565000004135","sequential-stimulus-presentation-old","58","246328","0.0-17.0-1.4","SS1618435639576","trial","","40","500","4635.565000004135","images/stimuli/spore_stims/simple_13_A_a.gif","images/stimuli/spore_stims/simple_16_A_b.gif","forced_long","","4","simple_dissimilar","images/stimuli/spore_stims/simple_13_A_a.gif","","","","",""
"","3717.895000008866","survey-multi-choice","59","250049","0.0-18.0","SS1618435639576","math_question","","","","","","","","","","","","{""Q0"":""9""}","[0]","9","",""
"","null","html-keyboard-response","60","251021","0.0-19.0-0.0","SS1618435639576","","","null","","","","","","<p><img src= images/blank.png width =""600"" height = ""600"" style=""position:fixed;top:50%; left:50%; transform: translate(-50%, -50%); border:5px solid black"">","","","","","","","",""
"","696.8900000210851","sequential-stimulus-presentation-old","61","251772","0.0-19.0-1.0","SS1618435639576","trial","","40","500","1196.8900000210851","images/stimuli/spore_stims/complex_09_A_a.gif","images/stimuli/spore_stims/complex_20_A_b.gif","forced_short","","5","complex_dissimilar","images/stimuli/spore_stims/complex_20_A_b.gif","","","","",""
"","null","html-keyboard-response","62","252988","0.0-19.0-0.1","SS1618435639576","","","null","","","","","","<p><img src= images/blank.png width =""600"" height = ""600"" style=""position:fixed;top:50%; left:50%; transform: translate(-50%, -50%); border:5px solid black"">","","","","","","","",""
"","13906.480000005104","sequential-stimulus-presentation-old","63","267399","0.0-19.0-1.1","SS1618435639576","trial","","40","500","14406.480000005104","images/stimuli/spore_stims/complex_09_A_a.gif","images/stimuli/spore_stims/complex_20_A_b.gif","forced_short","","5","complex_dissimilar","images/stimuli/spore_stims/complex_09_A_a.gif","","","","",""
"","null","html-keyboard-response","64","268462","0.0-19.0-0.2","SS1618435639576","","","null","","","","","","<p><img src= images/blank.png width =""600"" height = ""600"" style=""position:fixed;top:50%; left:50%; transform: translate(-50%, -50%); border:5px solid black"">","","","","","","","",""
"","5025.959999999031","sequential-stimulus-presentation-old","65","273996","0.0-19.0-1.2","SS1618435639576","trial","","40","500","5525.959999999031","images/stimuli/spore_stims/complex_09_A_a.gif","images/stimuli/spore_stims/complex_20_A_b.gif","forced_short","","5","complex_dissimilar","images/stimuli/spore_stims/complex_20_A_b.gif","","","","",""
"","null","html-keyboard-response","66","274976","0.0-19.0-0.3","SS1618435639576","","","null","","","","","","<p><img src= images/blank.png width =""600"" height = ""600"" style=""position:fixed;top:50%; left:50%; transform: translate(-50%, -50%); border:5px solid black"">","","","","","","","",""
"","2832.0550000062212","sequential-stimulus-presentation-old","67","278317","0.0-19.0-1.3","SS1618435639576","trial","","40","500","3332.0550000062212","images/stimuli/spore_stims/complex_09_A_a.gif","images/stimuli/spore_stims/complex_20_A_b.gif","forced_short","","5","complex_dissimilar","images/stimuli/spore_stims/complex_09_A_a.gif","","","","",""
"","10462.360000004992","survey-multi-choice","68","288781","0.0-20.0","SS1618435639576","math_question","","","","","","","","","","","","{""Q0"":""14""}","[0]","14","",""
"","null","html-keyboard-response","69","289963","0.0-21.0-0.0","SS1618435639576","","","null","","","","","","<p><img src= images/blank.png width =""600"" height = ""600"" style=""position:fixed;top:50%; left:50%; transform: translate(-50%, -50%); border:5px solid black"">","","","","","","","",""
"","2642.634999996517","sequential-stimulus-presentation-old","70","293114","0.0-21.0-1.0","SS1618435639576","trial","","40","500","3142.634999996517","images/stimuli/spore_stims/simple_08_A_a.gif","images/stimuli/spore_stims/simple_14_A_b.gif","self_paced","","6","simple_dissimilar","images/stimuli/spore_stims/simple_14_A_b.gif","","","","",""
"","null","html-keyboard-response","71","294128","0.0-21.0-0.1","SS1618435639576","","","null","","","","","","<p><img src= images/blank.png width =""600"" height = ""600"" style=""position:fixed;top:50%; left:50%; transform: translate(-50%, -50%); border:5px solid black"">","","","","","","","",""
"","3953.444999991916","sequential-stimulus-presentation-old","72","298589","0.0-21.0-1.1","SS1618435639576","trial","","40","500","4453.444999991916","images/stimuli/spore_stims/simple_08_A_a.gif","images/stimuli/spore_stims/simple_14_A_b.gif","self_paced","","6","simple_dissimilar","images/stimuli/spore_stims/simple_14_A_b.gif","","","","",""
"","null","html-keyboard-response","73","299787","0.0-21.0-0.2","SS1618435639576","","","null","","","","","","<p><img src= images/blank.png width =""600"" height = ""600"" style=""position:fixed;top:50%; left:50%; transform: translate(-50%, -50%); border:5px solid black"">","","","","","","","",""
"","4984.345000004396","sequential-stimulus-presentation-old","74","305278","0.0-21.0-1.2","SS1618435639576","trial","","40","500","5484.345000004396","images/stimuli/spore_stims/simple_08_A_a.gif","images/stimuli/spore_stims/simple_14_A_b.gif","self_paced","","6","simple_dissimilar","images/stimuli/spore_stims/simple_14_A_b.gif","","","","",""
"","null","html-keyboard-response","75","306099","0.0-21.0-0.3","SS1618435639576","","","null","","","","","","<p><img src= images/blank.png width =""600"" height = ""600"" style=""position:fixed;top:50%; left:50%; transform: translate(-50%, -50%); border:5px solid black"">","","","","","","","",""
"","836.0749999992549","sequential-stimulus-presentation-old","76","307442","0.0-21.0-1.3","SS1618435639576","trial","","40","500","1336.074999999255","images/stimuli/spore_stims/simple_08_A_a.gif","images/stimuli/spore_stims/simple_14_A_b.gif","self_paced","","6","simple_dissimilar","images/stimuli/spore_stims/simple_14_A_b.gif","","","","",""
"","null","html-keyboard-response","77","308511","0.0-21.0-0.4","SS1618435639576","","","null","","","","","","<p><img src= images/blank.png width =""600"" height = ""600"" style=""position:fixed;top:50%; left:50%; transform: translate(-50%, -50%); border:5px solid black"">","","","","","","","",""
"","4535.399999993388","sequential-stimulus-presentation-old","78","313554","0.0-21.0-1.4","SS1618435639576","trial","","40","500","5035.399999993388","images/stimuli/spore_stims/simple_08_A_a.gif","images/stimuli/spore_stims/simple_14_A_b.gif","self_paced","","6","simple_dissimilar","images/stimuli/spore_stims/simple_14_A_b.gif","","","","",""
"","null","html-keyboard-response","79","314545","0.0-21.0-0.5","SS1618435639576","","","null","","","","","","<p><img src= images/blank.png width =""600"" height = ""600"" style=""position:fixed;top:50%; left:50%; transform: translate(-50%, -50%); border:5px solid black"">","","","","","","","",""
"","7740.61499995878","sequential-stimulus-presentation-old","80","322793","0.0-21.0-1.5","SS1618435639576","trial","","40","500","8240.61499995878","images/stimuli/spore_stims/simple_08_A_a.gif","images/stimuli/spore_stims/simple_14_A_b.gif","self_paced","","6","simple_dissimilar","images/stimuli/spore_stims/simple_08_A_a.gif","","","","",""
"","2184.9849999998696","survey-multi-choice","81","324980","0.0-22.0","SS1618435639576","math_question","","","","","","","","","","","","{""Q0"":""9""}","[0]","9","",""
"","null","html-keyboard-response","82","326099","0.0-23.0-0.0","SS1618435639576","","","null","","","","","","<p><img src= images/blank.png width =""600"" height = ""600"" style=""position:fixed;top:50%; left:50%; transform: translate(-50%, -50%); border:5px solid black"">","","","","","","","",""
"","3907.0499999797903","sequential-stimulus-presentation-old","83","330514","0.0-23.0-1.0","SS1618435639576","trial","","40","500","4407.04999997979","images/stimuli/spore_stims/complex_02_A_b.gif","images/stimuli/spore_stims/complex_18_A_a.gif","self_paced","","7","complex_dissimilar","images/stimuli/spore_stims/complex_18_A_a.gif","","","","",""
"","null","html-keyboard-response","84","331590","0.0-23.0-0.1","SS1618435639576","","","null","","","","","","<p><img src= images/blank.png width =""600"" height = ""600"" style=""position:fixed;top:50%; left:50%; transform: translate(-50%, -50%); border:5px solid black"">","","","","","","","",""
"","3526.3199999462813","sequential-stimulus-presentation-old","85","335624","0.0-23.0-1.1","SS1618435639576","trial","","40","500","4026.3199999462813","images/stimuli/spore_stims/complex_02_A_b.gif","images/stimuli/spore_stims/complex_18_A_a.gif","self_paced","","7","complex_dissimilar","images/stimuli/spore_stims/complex_18_A_a.gif","","","","",""
"","null","html-keyboard-response","86","336769","0.0-23.0-0.2","SS1618435639576","","","null","","","","","","<p><img src= images/blank.png width =""600"" height = ""600"" style=""position:fixed;top:50%; left:50%; transform: translate(-50%, -50%); border:5px solid black"">","","","","","","","",""
"","3459.5100000151433","sequential-stimulus-presentation-old","87","340734","0.0-23.0-1.2","SS1618435639576","trial","","40","500","3959.5100000151433","images/stimuli/spore_stims/complex_02_A_b.gif","images/stimuli/spore_stims/complex_18_A_a.gif","self_paced","","7","complex_dissimilar","images/stimuli/spore_stims/complex_18_A_a.gif","","","","",""
"","null","html-keyboard-response","88","341760","0.0-23.0-0.3","SS1618435639576","","","null","","","","","","<p><img src= images/blank.png width =""600"" height = ""600"" style=""position:fixed;top:50%; left:50%; transform: translate(-50%, -50%); border:5px solid black"">","","","","","","","",""
"","54.75000001024455","sequential-stimulus-presentation-old","89","342321","0.0-23.0-1.3","SS1618435639576","trial","","40","500","554.7500000102445","images/stimuli/spore_stims/complex_02_A_b.gif","images/stimuli/spore_stims/complex_18_A_a.gif","self_paced","","7","complex_dissimilar","images/stimuli/spore_stims/complex_18_A_a.gif","","","","",""
"","null","html-keyboard-response","90","343248","0.0-23.0-0.4","SS1618435639576","","","null","","","","","","<p><img src= images/blank.png width =""600"" height = ""600"" style=""position:fixed;top:50%; left:50%; transform: translate(-50%, -50%); border:5px solid black"">","","","","","","","",""
"","485.8799999929033","sequential-stimulus-presentation-old","91","344242","0.0-23.0-1.4","SS1618435639576","trial","","40","500","985.8799999929033","images/stimuli/spore_stims/complex_02_A_b.gif","images/stimuli/spore_stims/complex_18_A_a.gif","self_paced","","7","complex_dissimilar","images/stimuli/spore_stims/complex_18_A_a.gif","","","","",""
"","4641.294999979436","survey-multi-choice","92","348886","0.0-24.0","SS1618435639576","math_question","","","","","","","","","","","","{""Q0"":""12""}","[0]","12","",""
"","null","html-keyboard-response","93","349901","0.0-25.0-0.0","SS1618435639576","","","null","","","","","","<p><img src= images/blank.png width =""600"" height = ""600"" style=""position:fixed;top:50%; left:50%; transform: translate(-50%, -50%); border:5px solid black"">","","","","","","","",""
"","442.429999995511","sequential-stimulus-presentation-old","94","355350","0.0-25.0-1.0","SS1618435639576","trial","","40","500","942.429999995511","images/stimuli/spore_stims/complex_18_A_b.gif","images/stimuli/spore_stims/complex_07_A_a.gif","forced_long","","8","complex_dissimilar","images/stimuli/spore_stims/complex_07_A_a.gif","","","","",""
"","null","html-keyboard-response","95","356491","0.0-25.0-0.1","SS1618435639576","","","null","","","","","","<p><img src= images/blank.png width =""600"" height = ""600"" style=""position:fixed;top:50%; left:50%; transform: translate(-50%, -50%); border:5px solid black"">","","","","","","","",""
"","432.8000000095926","sequential-stimulus-presentation-old","96","357431","0.0-25.0-1.1","SS1618435639576","trial","","40","500","932.8000000095926","images/stimuli/spore_stims/complex_18_A_b.gif","images/stimuli/spore_stims/complex_07_A_a.gif","forced_long","","8","complex_dissimilar","images/stimuli/spore_stims/complex_07_A_a.gif","","","","",""
"","null","html-keyboard-response","97","358319","0.0-25.0-0.2","SS1618435639576","","","null","","","","","","<p><img src= images/blank.png width =""600"" height = ""600"" style=""position:fixed;top:50%; left:50%; transform: translate(-50%, -50%); border:5px solid black"">","","","","","","","",""
"","3596.6900000348687","sequential-stimulus-presentation-old","98","362419","0.0-25.0-1.2","SS1618435639576","trial","","40","500","4096.690000034869","images/stimuli/spore_stims/complex_18_A_b.gif","images/stimuli/spore_stims/complex_07_A_a.gif","forced_long","","8","complex_dissimilar","images/stimuli/spore_stims/complex_07_A_a.gif","","","","",""
"","null","html-keyboard-response","99","363378","0.0-25.0-0.3","SS1618435639576","","","null","","","","","","<p><img src= images/blank.png width =""600"" height = ""600"" style=""position:fixed;top:50%; left:50%; transform: translate(-50%, -50%); border:5px solid black"">","","","","","","","",""
"","2829.4699999969453","sequential-stimulus-presentation-old","100","366710","0.0-25.0-1.3","SS1618435639576","trial","","40","500","3329.4699999969453","images/stimuli/spore_stims/complex_18_A_b.gif","images/stimuli/spore_stims/complex_07_A_a.gif","forced_long","","8","complex_dissimilar","images/stimuli/spore_stims/complex_07_A_a.gif","","","","",""
"","null","html-keyboard-response","101","367806","0.0-25.0-0.4","SS1618435639576","","","null","","","","","","<p><img src= images/blank.png width =""600"" height = ""600"" style=""position:fixed;top:50%; left:50%; transform: translate(-50%, -50%); border:5px solid black"">","","","","","","","",""
"","3540.035000012722","sequential-stimulus-presentation-old","102","371849","0.0-25.0-1.4","SS1618435639576","trial","","40","500","4040.035000012722","images/stimuli/spore_stims/complex_18_A_b.gif","images/stimuli/spore_stims/complex_07_A_a.gif","forced_long","","8","complex_dissimilar","images/stimuli/spore_stims/complex_07_A_a.gif","","","","",""
"","6860.660000005737","survey-multi-choice","103","378712","0.0-26.0","SS1618435639576","math_question","","","","","","","","","","","","{""Q0"":""16""}","[0]","16","",""
"","null","html-keyboard-response","104","379738","0.0-27.0-0.0","SS1618435639576","","","null","","","","","","<p><img src= images/blank.png width =""600"" height = ""600"" style=""position:fixed;top:50%; left:50%; transform: translate(-50%, -50%); border:5px solid black"">","","","","","","","",""
"","1020.810000016354","sequential-stimulus-presentation-old","105","380815","0.0-27.0-1.0","SS1618435639576","trial","","40","500","1520.810000016354","images/stimuli/spore_stims/simple_19_A_b.gif","images/stimuli/spore_stims/simple_03_A_a.gif","forced_short","","9","simple_dissimilar","images/stimuli/spore_stims/simple_03_A_a.gif","","","","",""
"","null","html-keyboard-response","106","381698","0.0-27.0-0.1","SS1618435639576","","","null","","","","","","<p><img src= images/blank.png width =""600"" height = ""600"" style=""position:fixed;top:50%; left:50%; transform: translate(-50%, -50%); border:5px solid black"">","","","","","","","",""
"","4046.9150000135414","sequential-stimulus-presentation-old","107","386253","0.0-27.0-1.1","SS1618435639576","trial","","40","500","4546.915000013541","images/stimuli/spore_stims/simple_19_A_b.gif","images/stimuli/spore_stims/simple_03_A_a.gif","forced_short","","9","simple_dissimilar","images/stimuli/spore_stims/simple_03_A_a.gif","","","","",""
"","null","html-keyboard-response","108","387391","0.0-27.0-0.2","SS1618435639576","","","null","","","","","","<p><img src= images/blank.png width =""600"" height = ""600"" style=""position:fixed;top:50%; left:50%; transform: translate(-50%, -50%); border:5px solid black"">","","","","","","","",""
"","281.5800000098534","sequential-stimulus-presentation-old","109","388181","0.0-27.0-1.2","SS1618435639576","trial","","40","500","781.5800000098534","images/stimuli/spore_stims/simple_19_A_b.gif","images/stimuli/spore_stims/simple_03_A_a.gif","forced_short","","9","simple_dissimilar","images/stimuli/spore_stims/simple_03_A_a.gif","","","","",""
"","null","html-keyboard-response","110","389483","0.0-27.0-0.3","SS1618435639576","","","null","","","","","","<p><img src= images/blank.png width =""600"" height = ""600"" style=""position:fixed;top:50%; left:50%; transform: translate(-50%, -50%); border:5px solid black"">","","","","","","","",""
"","308.57499997364357","sequential-stimulus-presentation-old","111","390300","0.0-27.0-1.3","SS1618435639576","trial","","40","500","808.5749999736436","images/stimuli/spore_stims/simple_19_A_b.gif","images/stimuli/spore_stims/simple_03_A_a.gif","forced_short","","9","simple_dissimilar","images/stimuli/spore_stims/simple_03_A_a.gif","","","","",""
"","null","html-keyboard-response","112","391319","0.0-27.0-0.4","SS1618435639576","","","null","","","","","","<p><img src= images/blank.png width =""600"" height = ""600"" style=""position:fixed;top:50%; left:50%; transform: translate(-50%, -50%); border:5px solid black"">","","","","","","","",""
"","612.6649999641813","sequential-stimulus-presentation-old","113","392434","0.0-27.0-1.4","SS1618435639576","trial","","40","500","1112.6649999641813","images/stimuli/spore_stims/simple_19_A_b.gif","images/stimuli/spore_stims/simple_03_A_a.gif","forced_short","","9","simple_dissimilar","images/stimuli/spore_stims/simple_03_A_a.gif","","","","",""
"","null","html-keyboard-response","114","393439","0.0-27.0-0.5","SS1618435639576","","","null","","","","","","<p><img src= images/blank.png width =""600"" height = ""600"" style=""position:fixed;top:50%; left:50%; transform: translate(-50%, -50%); border:5px solid black"">","","","","","","","",""
"","2200.989999982994","sequential-stimulus-presentation-old","115","396146","0.0-27.0-1.5","SS1618435639576","trial","","40","500","2700.989999982994","images/stimuli/spore_stims/simple_19_A_b.gif","images/stimuli/spore_stims/simple_03_A_a.gif","forced_short","","9","simple_dissimilar","images/stimuli/spore_stims/simple_03_A_a.gif","","","","",""
"","3782.0449999999255","survey-multi-choice","116","399931","0.0-28.0","SS1618435639576","math_question","","","","","","","","","","","","{""Q0"":""18""}","[0]","18","",""
"","null","html-keyboard-response","117","400912","0.0-29.0-0.0","SS1618435639576","","","null","","","","","","<p><img src= images/blank.png width =""600"" height = ""600"" style=""position:fixed;top:50%; left:50%; transform: translate(-50%, -50%); border:5px solid black"">","","","","","","","",""
"","5996.534999983851","sequential-stimulus-presentation-old","118","406965","0.0-29.0-1.0","SS1618435639576","trial","","40","500","6496.534999983851","images/stimuli/spore_stims/complex_15_A_b.gif","images/stimuli/spore_stims/complex_02_A_a.gif","forced_short","","10","complex_dissimilar","images/stimuli/spore_stims/complex_02_A_a.gif","","","","",""
"","null","html-keyboard-response","119","408139","0.0-29.0-0.1","SS1618435639576","","","null","","","","","","<p><img src= images/blank.png width =""600"" height = ""600"" style=""position:fixed;top:50%; left:50%; transform: translate(-50%, -50%); border:5px solid black"">","","","","","","","",""
"","9390.780000016093","sequential-stimulus-presentation-old","120","418034","0.0-29.0-1.1","SS1618435639576","trial","","40","500","9890.780000016093","images/stimuli/spore_stims/complex_15_A_b.gif","images/stimuli/spore_stims/complex_02_A_a.gif","forced_short","","10","complex_dissimilar","images/stimuli/spore_stims/complex_15_A_b.gif","","","","",""
"","null","html-keyboard-response","121","418889","0.0-29.0-0.2","SS1618435639576","","","null","","","","","","<p><img src= images/blank.png width =""600"" height = ""600"" style=""position:fixed;top:50%; left:50%; transform: translate(-50%, -50%); border:5px solid black"">","","","","","","","",""
"","4992.444999981672","sequential-stimulus-presentation-old","122","424389","0.0-29.0-1.2","SS1618435639576","trial","","40","500","5492.444999981672","images/stimuli/spore_stims/complex_15_A_b.gif","images/stimuli/spore_stims/complex_02_A_a.gif","forced_short","","10","complex_dissimilar","images/stimuli/spore_stims/complex_02_A_a.gif","","","","",""
"","null","html-keyboard-response","123","425319","0.0-29.0-0.3","SS1618435639576","","","null","","","","","","<p><img src= images/blank.png width =""600"" height = ""600"" style=""position:fixed;top:50%; left:50%; transform: translate(-50%, -50%); border:5px solid black"">","","","","","","","",""
"","392.69000000786036","sequential-stimulus-presentation-old","124","426219","0.0-29.0-1.3","SS1618435639576","trial","","40","500","892.6900000078604","images/stimuli/spore_stims/complex_15_A_b.gif","images/stimuli/spore_stims/complex_02_A_a.gif","forced_short","","10","complex_dissimilar","images/stimuli/spore_stims/complex_02_A_a.gif","","","","",""
"","null","html-keyboard-response","125","427071","0.0-29.0-0.4","SS1618435639576","","","null","","","","","","<p><img src= images/blank.png width =""600"" height = ""600"" style=""position:fixed;top:50%; left:50%; transform: translate(-50%, -50%); border:5px solid black"">","","","","","","","",""
"","1715.7650000299327","sequential-stimulus-presentation-old","126","429294","0.0-29.0-1.4","SS1618435639576","trial","","40","500","2215.7650000299327","images/stimuli/spore_stims/complex_15_A_b.gif","images/stimuli/spore_stims/complex_02_A_a.gif","forced_short","","10","complex_dissimilar","images/stimuli/spore_stims/complex_15_A_b.gif","","","","",""
"","3015.929999994114","survey-multi-choice","127","432313","0.0-30.0","SS1618435639576","math_question","","","","","","","","","","","","{""Q0"":""4""}","[0]","4","",""
"","null","html-keyboard-response","128","433147","0.0-31.0-0.0","SS1618435639576","","","null","","","","","","<p><img src= images/blank.png width =""600"" height = ""600"" style=""position:fixed;top:50%; left:50%; transform: translate(-50%, -50%); border:5px solid black"">","","","","","","","",""
"","871.3899999856949","sequential-stimulus-presentation-old","129","434526","0.0-31.0-1.0","SS1618435639576","trial","","40","500","1371.3899999856949","images/stimuli/spore_stims/simple_18_A_a.gif","images/stimuli/spore_stims/simple_08_A_b.gif","self_paced","","11","simple_dissimilar","images/stimuli/spore_stims/simple_08_A_b.gif","","","","",""
"","null","html-keyboard-response","130","435461","0.0-31.0-0.1","SS1618435639576","","","null","","","","","","<p><img src= images/blank.png width =""600"" height = ""600"" style=""position:fixed;top:50%; left:50%; transform: translate(-50%, -50%); border:5px solid black"">","","","","","","","",""
"","570.0249999645166","sequential-stimulus-presentation-old","131","436539","0.0-31.0-1.1","SS1618435639576","trial","","40","500","1070.0249999645166","images/stimuli/spore_stims/simple_18_A_a.gif","images/stimuli/spore_stims/simple_08_A_b.gif","self_paced","","11","simple_dissimilar","images/stimuli/spore_stims/simple_08_A_b.gif","","","","",""
"","null","html-keyboard-response","132","437716","0.0-31.0-0.2","SS1618435639576","","","null","","","","","","<p><img src= images/blank.png width =""600"" height = ""600"" style=""position:fixed;top:50%; left:50%; transform: translate(-50%, -50%); border:5px solid black"">","","","","","","","",""
"","2970.9750000038184","sequential-stimulus-presentation-old","133","441192","0.0-31.0-1.2","SS1618435639576","trial","","40","500","3470.9750000038184","images/stimuli/spore_stims/simple_18_A_a.gif","images/stimuli/spore_stims/simple_08_A_b.gif","self_paced","","11","simple_dissimilar","images/stimuli/spore_stims/simple_18_A_a.gif","","","","",""
"","null","html-keyboard-response","134","442094","0.0-31.0-0.3","SS1618435639576","","","null","","","","","","<p><img src= images/blank.png width =""600"" height = ""600"" style=""position:fixed;top:50%; left:50%; transform: translate(-50%, -50%); border:5px solid black"">","","","","","","","",""
"","3699.635000026319","sequential-stimulus-presentation-old","135","446301","0.0-31.0-1.3","SS1618435639576","trial","","40","500","4199.635000026319","images/stimuli/spore_stims/simple_18_A_a.gif","images/stimuli/spore_stims/simple_08_A_b.gif","self_paced","","11","simple_dissimilar","images/stimuli/spore_stims/simple_08_A_b.gif","","","","",""
"","null","html-keyboard-response","136","447370","0.0-31.0-0.4","SS1618435639576","","","null","","","","","","<p><img src= images/blank.png width =""600"" height = ""600"" style=""position:fixed;top:50%; left:50%; transform: translate(-50%, -50%); border:5px solid black"">","","","","","","","",""
"","2106.610000017099","sequential-stimulus-presentation-old","137","449984","0.0-31.0-1.4","SS1618435639576","trial","","40","500","2606.610000017099","images/stimuli/spore_stims/simple_18_A_a.gif","images/stimuli/spore_stims/simple_08_A_b.gif","self_paced","","11","simple_dissimilar","images/stimuli/spore_stims/simple_18_A_a.gif","","","","",""
"","null","html-keyboard-response","138","450852","0.0-31.0-0.5","SS1618435639576","","","null","","","","","","<p><img src= images/blank.png width =""600"" height = ""600"" style=""position:fixed;top:50%; left:50%; transform: translate(-50%, -50%); border:5px solid black"">","","","","","","","",""
"","1635.420000005979","sequential-stimulus-presentation-old","139","452998","0.0-31.0-1.5","SS1618435639576","trial","","40","500","2135.420000005979","images/stimuli/spore_stims/simple_18_A_a.gif","images/stimuli/spore_stims/simple_08_A_b.gif","self_paced","","11","simple_dissimilar","images/stimuli/spore_stims/simple_08_A_b.gif","","","","",""
"[{""page_index"":0,""viewing_time"":7675.385000009555}]","7676.129999978002","instructions","140","460677","0.0-32.0","SS1618435639576","instructions","","","","","","","","","","","","","","","",""
"","7039.64500001166","survey-likert","141","467721","0.0-33.0","SS1618435639576","similarity_question","","","","","","","","","","","","{""Q0"":2}","[0]","","images/stimuli/spore_stims/simple_18_A_a.gif","images/stimuli/spore_stims/simple_08_A_b.gif"
"","2447.9649999993853","survey-likert","142","470177","0.0-34.0","SS1618435639576","similarity_question","","","","","","","","","","","","{""Q0"":2}","[0]","","images/stimuli/spore_stims/simple_13_A_a.gif","images/stimuli/spore_stims/simple_16_A_b.gif"
"","2366.184999991674","survey-likert","143","472550","0.0-35.0","SS1618435639576","similarity_question","","","","","","","","","","","","{""Q0"":4}","[0]","","images/stimuli/spore_stims/complex_06_A_a.gif","images/stimuli/spore_stims/complex_19_A_b.gif"
"","2517.5300000119023","survey-likert","144","475073","0.0-36.0","SS1618435639576","similarity_question","","","","","","","","","","","","{""Q0"":2}","[0]","","images/stimuli/spore_stims/complex_07_A_a.gif","images/stimuli/spore_stims/complex_18_A_b.gif"
"","1904.8450000118464","survey-likert","145","476984","0.0-37.0","SS1618435639576","similarity_question","","","","","","","","","","","","{""Q0"":2}","[0]","","images/stimuli/spore_stims/complex_20_A_b.gif","images/stimuli/spore_stims/complex_09_A_a.gif"
"","3782.7999999863096","survey-likert","146","480773","0.0-38.0","SS1618435639576","similarity_question","","","","","","","","","","","","{""Q0"":5}","[0]","","images/stimuli/spore_stims/simple_14_A_b.gif","images/stimuli/spore_stims/simple_08_A_a.gif"
"","2209.2549999943003","survey-likert","147","482987","0.0-39.0","SS1618435639576","similarity_question","","","","","","","","","","","","{""Q0"":5}","[0]","","images/stimuli/spore_stims/simple_12_A_a.gif","images/stimuli/spore_stims/simple_15_A_b.gif"
"","4218.229999998584","survey-likert","148","487212","0.0-40.0","SS1618435639576","similarity_question","","","","","","","","","","","","{""Q0"":2}","[0]","","images/stimuli/spore_stims/simple_17_A_b.gif","images/stimuli/spore_stims/simple_15_A_a.gif"
"","2522.560000012163","survey-likert","149","489742","0.0-41.0","SS1618435639576","similarity_question","","","","","","","","","","","","{""Q0"":2}","[0]","","images/stimuli/spore_stims/complex_18_A_a.gif","images/stimuli/spore_stims/complex_02_A_b.gif"
"","4560.920000018086","survey-likert","150","494310","0.0-42.0","SS1618435639576","similarity_question","","","","","","","","","","","","{""Q0"":4}","[0]","","images/stimuli/spore_stims/simple_19_A_b.gif","images/stimuli/spore_stims/simple_03_A_a.gif"
"","3503.000000026077","survey-likert","151","497819","0.0-43.0","SS1618435639576","similarity_question","","","","","","","","","","","","{""Q0"":2}","[0]","","images/stimuli/spore_stims/complex_01_A_a.gif","images/stimuli/spore_stims/complex_05_A_b.gif"
"","2446.5000000200234","survey-likert","152","500274","0.0-44.0","SS1618435639576","similarity_question","","","","","","","","","","","","{""Q0"":2}","[0]","","images/stimuli/spore_stims/complex_15_A_b.gif","images/stimuli/spore_stims/complex_02_A_a.gif"
"[{""page_index"":0,""viewing_time"":4731.9400000269525}]","4732.47500002617","instructions","153","505012","0.0-45.0","SS1618435639576","instructions","","","","","","","","","","","","","","","",""
"","4944.430000032298","survey-likert","154","509960","0.0-46.0","SS1618435639576","","","","","","","","","images/stimuli/spore_stims/simple_08_A_b.gif","","","","{""Q0"":2}","[0]","","",""
"","5457.040000008419","survey-likert","155","515425","0.0-47.0","SS1618435639576","","","","","","","","","images/stimuli/spore_stims/simple_14_A_b.gif","","","","{""Q0"":4}","[0]","","",""
"","2226.3399999937974","survey-likert","156","517659","0.0-48.0","SS1618435639576","","","","","","","","","images/stimuli/spore_stims/simple_16_A_b.gif","","","","{""Q0"":2}","[0]","","",""
"","1322.0100000035018","survey-likert","157","518988","0.0-49.0","SS1618435639576","","","","","","","","","images/stimuli/spore_stims/simple_17_A_b.gif","","","","{""Q0"":2}","[0]","","",""
"","3377.3050000309013","survey-likert","158","522372","0.0-50.0","SS1618435639576","","","","","","","","","images/stimuli/spore_stims/simple_03_A_a.gif","","","","{""Q0"":2}","[0]","","",""
"","1840.0050000054762","survey-likert","159","524219","0.0-51.0","SS1618435639576","","","","","","","","","images/stimuli/spore_stims/complex_02_A_a.gif","","","","{""Q0"":2}","[0]","","",""
"","1345.0450000236742","survey-likert","160","525571","0.0-52.0","SS1618435639576","","","","","","","","","images/stimuli/spore_stims/complex_01_A_a.gif","","","","{""Q0"":3}","[0]","","",""
"","1491.2550000008196","survey-likert","161","527069","0.0-53.0","SS1618435639576","","","","","","","","","images/stimuli/spore_stims/complex_18_A_b.gif","","","","{""Q0"":4}","[0]","","",""
"","1789.234999974724","survey-likert","162","528865","0.0-54.0","SS1618435639576","","","","","","","","","images/stimuli/spore_stims/complex_20_A_b.gif","","","","{""Q0"":4}","[0]","","",""
"","3211.3349999999627","survey-likert","163","532083","0.0-55.0","SS1618435639576","","","","","","","","","images/stimuli/spore_stims/complex_18_A_a.gif","","","","{""Q0"":4}","[0]","","",""
"","2023.1299999868497","survey-likert","164","534112","0.0-56.0","SS1618435639576","","","","","","","","","images/stimuli/spore_stims/complex_06_A_a.gif","","","","{""Q0"":5}","[0]","","",""
"","2973.119999980554","survey-likert","165","537091","0.0-57.0","SS1618435639576","","","","","","","","","images/stimuli/spore_stims/simple_12_A_a.gif","","","","{""Q0"":1}","[0]","","",""
"[{""page_index"":0,""viewing_time"":2507.0100000011735}]","2507.32000003336","instructions","166","539605","0.0-58.0","SS1618435639576","instructions","","","","","","","","","","","","","","","",""
"","3670.9150000242516","demog-age","167","543283","0.0-59.0","SS1618435639576","","","","","","","","","","","","","{""age"":""19""}","","","",""
"","5187.350000021979","demog-ethnic-US","168","548476","0.0-60.0","SS1618435639576","","","","","","","","","","","","","{""ethnicity"":[""White""]}","[0]","","",""
"","11225.024999992456","demog-gender-and-education","169","559708","0.0-61.0","SS1618435639576","","","","","","","","","","","","","{""gender"":""Male"",""education"":""Associate Degree/Technical certification""}","[0,1]","","",""
"","17225.290000031237","survey-text","170","576942","0.0-62.0","SS1618435639576","feedback","","","","","","","","","","","","{""Q0"":""No""}","","","",""
"[{""page_index"":0,""viewing_time"":2535.6400000164285}]","2535.950000048615","instructions","171","579480","0.0-63.0","SS1618435639576","instructions","","","","","","","","","","","","","","","",""
