"view_history","rt","trial_type","trial_index","time_elapsed","internal_node_id","subject","stimulus_type","trial_stimulus","key_press","minimum_viewing_duration","trial_looking_time","block_deviant","block_background","exposure_type","stimulus","block_number","block_type","stimulus_displayed","responses","question_order","math_correct_answer","stimulus_left","stimulus_right"
"[{""page_index"":0,""viewing_time"":6023.200000010547}]","6024.095000000671","instructions","0","6026","0.0-0.0","SS1618365885795","","","","","","","","","","","","","","","","",""
"[{""page_index"":0,""viewing_time"":19978.830000007292},{""page_index"":1,""viewing_time"":5862.624999994296}]","25841.830000004848","instructions","1","33874","0.0-1.0","SS1618365885795","instructions","","","","","","","","","","","","","","","",""
"","39523.199999995995","sequential-stimulus-presentation-old","2","73901","0.0-2.0","SS1618365885795","","","40","500","40023.199999995995","null","null","self_paced","","","","","","","","",""
"","8442.079999993439","sequential-stimulus-presentation-old","3","82846","0.0-3.0","SS1618365885795","","","40","500","8942.079999993439","null","null","self_paced","","","","","","","","",""
"[{""page_index"":0,""viewing_time"":24537.544999999227}]","24537.819999997737","instructions","4","107386","0.0-4.0","SS1618365885795","instructions","","","","","","","","","","","","","","","",""
"","23943.51499999175","sequential-stimulus-presentation-old","5","136338","0.0-5.0","SS1618365885795","","","40","500","24443.51499999175","null","null","forced_long","","","","","","","","",""
"","5404.865000004065","sequential-stimulus-presentation-old","6","141798","0.0-6.0","SS1618365885795","","","40","50","5454.865000004065","null","null","forced_long","","","","","","","","",""
"[{""page_index"":0,""viewing_time"":5338.359999994282}]","5338.739999991958","instructions","7","147138","0.0-7.0","SS1618365885795","instructions","","","","","","","","","","","","","","","",""
"[{""page_index"":0,""viewing_time"":7954.3050000065705},{""page_index"":1,""viewing_time"":8450.179999999818},{""page_index"":2,""viewing_time"":5587.440000002971},{""page_index"":3,""viewing_time"":1972.1900000004098},{""page_index"":4,""viewing_time"":1263.8549999974202}]","25228.270000006887","instructions","8","172367","0.0-8.0","SS1618365885795","instructions","","","","","","","","","","","","","","","",""
"","null","html-keyboard-response","9","173412","0.0-9.0-0.0","SS1618365885795","","","null","","","","","","<p><img src= images/blank.png width =""600"" height = ""600"" style=""position:fixed;top:50%; left:50%; transform: translate(-50%, -50%); border:5px solid black"">","","","","","","","",""
"","4624.82500000624","sequential-stimulus-presentation-old","10","178549","0.0-9.0-1.0","SS1618365885795","trial","","40","500","5124.82500000624","images/stimuli/spore_stims/complex_06_A_b.gif","images/stimuli/spore_stims/complex_14_A_a.gif","self_paced","","0","complex_dissimilar","images/stimuli/spore_stims/complex_14_A_a.gif","","","","",""
"","null","html-keyboard-response","11","179413","0.0-9.0-0.1","SS1618365885795","","","null","","","","","","<p><img src= images/blank.png width =""600"" height = ""600"" style=""position:fixed;top:50%; left:50%; transform: translate(-50%, -50%); border:5px solid black"">","","","","","","","",""
"","2969.340000010561","sequential-stimulus-presentation-old","12","182894","0.0-9.0-1.1","SS1618365885795","trial","","40","500","3469.340000010561","images/stimuli/spore_stims/complex_06_A_b.gif","images/stimuli/spore_stims/complex_14_A_a.gif","self_paced","","0","complex_dissimilar","images/stimuli/spore_stims/complex_06_A_b.gif","","","","",""
"","null","html-keyboard-response","13","184066","0.0-9.0-0.2","SS1618365885795","","","null","","","","","","<p><img src= images/blank.png width =""600"" height = ""600"" style=""position:fixed;top:50%; left:50%; transform: translate(-50%, -50%); border:5px solid black"">","","","","","","","",""
"","2328.2449999969685","sequential-stimulus-presentation-old","14","186899","0.0-9.0-1.2","SS1618365885795","trial","","40","500","2828.2449999969685","images/stimuli/spore_stims/complex_06_A_b.gif","images/stimuli/spore_stims/complex_14_A_a.gif","self_paced","","0","complex_dissimilar","images/stimuli/spore_stims/complex_06_A_b.gif","","","","",""
"","null","html-keyboard-response","15","188058","0.0-9.0-0.3","SS1618365885795","","","null","","","","","","<p><img src= images/blank.png width =""600"" height = ""600"" style=""position:fixed;top:50%; left:50%; transform: translate(-50%, -50%); border:5px solid black"">","","","","","","","",""
"","9389.764999999898","sequential-stimulus-presentation-old","16","197967","0.0-9.0-1.3","SS1618365885795","trial","","40","500","9889.764999999898","images/stimuli/spore_stims/complex_06_A_b.gif","images/stimuli/spore_stims/complex_14_A_a.gif","self_paced","","0","complex_dissimilar","images/stimuli/spore_stims/complex_14_A_a.gif","","","","",""
"","null","html-keyboard-response","17","198874","0.0-9.0-0.4","SS1618365885795","","","null","","","","","","<p><img src= images/blank.png width =""600"" height = ""600"" style=""position:fixed;top:50%; left:50%; transform: translate(-50%, -50%); border:5px solid black"">","","","","","","","",""
"","2406.6299999976764","sequential-stimulus-presentation-old","18","201797","0.0-9.0-1.4","SS1618365885795","trial","","40","500","2906.6299999976764","images/stimuli/spore_stims/complex_06_A_b.gif","images/stimuli/spore_stims/complex_14_A_a.gif","self_paced","","0","complex_dissimilar","images/stimuli/spore_stims/complex_14_A_a.gif","","","","",""
"","null","html-keyboard-response","19","202893","0.0-9.0-0.5","SS1618365885795","","","null","","","","","","<p><img src= images/blank.png width =""600"" height = ""600"" style=""position:fixed;top:50%; left:50%; transform: translate(-50%, -50%); border:5px solid black"">","","","","","","","",""
"","3394.830000004731","sequential-stimulus-presentation-old","20","206798","0.0-9.0-1.5","SS1618365885795","trial","","40","500","3894.830000004731","images/stimuli/spore_stims/complex_06_A_b.gif","images/stimuli/spore_stims/complex_14_A_a.gif","self_paced","","0","complex_dissimilar","images/stimuli/spore_stims/complex_14_A_a.gif","","","","",""
"","3479.54000000027","survey-multi-choice","21","210283","0.0-10.0","SS1618365885795","math_question","","","","","","","","","","","","{""Q0"":""7""}","[0]","7","",""
"","null","html-keyboard-response","22","211464","0.0-11.0-0.0","SS1618365885795","","","null","","","","","","<p><img src= images/blank.png width =""600"" height = ""600"" style=""position:fixed;top:50%; left:50%; transform: translate(-50%, -50%); border:5px solid black"">","","","","","","","",""
"","2859.8300000012387","sequential-stimulus-presentation-old","23","219343","0.0-11.0-1.0","SS1618365885795","trial","","40","500","3359.8300000012387","images/stimuli/spore_stims/complex_04_A_b.gif","images/stimuli/spore_stims/complex_16_A_a.gif","forced_long","","1","complex_dissimilar","images/stimuli/spore_stims/complex_16_A_a.gif","","","","",""
"","null","html-keyboard-response","24","220222","0.0-11.0-0.1","SS1618365885795","","","null","","","","","","<p><img src= images/blank.png width =""600"" height = ""600"" style=""position:fixed;top:50%; left:50%; transform: translate(-50%, -50%); border:5px solid black"">","","","","","","","",""
"","2707.85999999498","sequential-stimulus-presentation-old","25","223447","0.0-11.0-1.1","SS1618365885795","trial","","40","500","3207.85999999498","images/stimuli/spore_stims/complex_04_A_b.gif","images/stimuli/spore_stims/complex_16_A_a.gif","forced_long","","1","complex_dissimilar","images/stimuli/spore_stims/complex_04_A_b.gif","","","","",""
"","null","html-keyboard-response","26","224407","0.0-11.0-0.2","SS1618365885795","","","null","","","","","","<p><img src= images/blank.png width =""600"" height = ""600"" style=""position:fixed;top:50%; left:50%; transform: translate(-50%, -50%); border:5px solid black"">","","","","","","","",""
"","2482.449999995879","sequential-stimulus-presentation-old","27","227404","0.0-11.0-1.2","SS1618365885795","trial","","40","500","2982.449999995879","images/stimuli/spore_stims/complex_04_A_b.gif","images/stimuli/spore_stims/complex_16_A_a.gif","forced_long","","1","complex_dissimilar","images/stimuli/spore_stims/complex_16_A_a.gif","","","","",""
"","null","html-keyboard-response","28","228324","0.0-11.0-0.3","SS1618365885795","","","null","","","","","","<p><img src= images/blank.png width =""600"" height = ""600"" style=""position:fixed;top:50%; left:50%; transform: translate(-50%, -50%); border:5px solid black"">","","","","","","","",""
"","5458.63000000827","sequential-stimulus-presentation-old","29","234302","0.0-11.0-1.3","SS1618365885795","trial","","40","500","5958.63000000827","images/stimuli/spore_stims/complex_04_A_b.gif","images/stimuli/spore_stims/complex_16_A_a.gif","forced_long","","1","complex_dissimilar","images/stimuli/spore_stims/complex_16_A_a.gif","","","","",""
"","null","html-keyboard-response","30","235527","0.0-11.0-0.4","SS1618365885795","","","null","","","","","","<p><img src= images/blank.png width =""600"" height = ""600"" style=""position:fixed;top:50%; left:50%; transform: translate(-50%, -50%); border:5px solid black"">","","","","","","","",""
"","949.6900000085589","sequential-stimulus-presentation-old","31","236993","0.0-11.0-1.4","SS1618365885795","trial","","40","500","1449.6900000085589","images/stimuli/spore_stims/complex_04_A_b.gif","images/stimuli/spore_stims/complex_16_A_a.gif","forced_long","","1","complex_dissimilar","images/stimuli/spore_stims/complex_16_A_a.gif","","","","",""
"","null","html-keyboard-response","32","238038","0.0-11.0-0.5","SS1618365885795","","","null","","","","","","<p><img src= images/blank.png width =""600"" height = ""600"" style=""position:fixed;top:50%; left:50%; transform: translate(-50%, -50%); border:5px solid black"">","","","","","","","",""
"","3306.0049999912735","sequential-stimulus-presentation-old","33","241861","0.0-11.0-1.5","SS1618365885795","trial","","40","500","3806.0049999912735","images/stimuli/spore_stims/complex_04_A_b.gif","images/stimuli/spore_stims/complex_16_A_a.gif","forced_long","","1","complex_dissimilar","images/stimuli/spore_stims/complex_04_A_b.gif","","","","",""
"","3197.010000003502","survey-multi-choice","34","245062","0.0-12.0","SS1618365885795","math_question","","","","","","","","","","","","{""Q0"":""12""}","[0]","12","",""
"","null","html-keyboard-response","35","246159","0.0-13.0-0.0","SS1618365885795","","","null","","","","","","<p><img src= images/blank.png width =""600"" height = ""600"" style=""position:fixed;top:50%; left:50%; transform: translate(-50%, -50%); border:5px solid black"">","","","","","","","",""
"","5577.954999986105","sequential-stimulus-presentation-old","36","256743","0.0-13.0-1.0","SS1618365885795","trial","","40","500","6077.954999986105","images/stimuli/spore_stims/simple_18_A_b.gif","images/stimuli/spore_stims/simple_14_A_a.gif","forced_long","","2","simple_dissimilar","images/stimuli/spore_stims/simple_14_A_a.gif","","","","",""
"","null","html-keyboard-response","37","257938","0.0-13.0-0.1","SS1618365885795","","","null","","","","","","<p><img src= images/blank.png width =""600"" height = ""600"" style=""position:fixed;top:50%; left:50%; transform: translate(-50%, -50%); border:5px solid black"">","","","","","","","",""
"","2987.43999999715","sequential-stimulus-presentation-old","38","261432","0.0-13.0-1.1","SS1618365885795","trial","","40","500","3487.43999999715","images/stimuli/spore_stims/simple_18_A_b.gif","images/stimuli/spore_stims/simple_14_A_a.gif","forced_long","","2","simple_dissimilar","images/stimuli/spore_stims/simple_14_A_a.gif","","","","",""
"","null","html-keyboard-response","39","262384","0.0-13.0-0.2","SS1618365885795","","","null","","","","","","<p><img src= images/blank.png width =""600"" height = ""600"" style=""position:fixed;top:50%; left:50%; transform: translate(-50%, -50%); border:5px solid black"">","","","","","","","",""
"","9367.360000003828","sequential-stimulus-presentation-old","40","272258","0.0-13.0-1.2","SS1618365885795","trial","","40","500","9867.360000003828","images/stimuli/spore_stims/simple_18_A_b.gif","images/stimuli/spore_stims/simple_14_A_a.gif","forced_long","","2","simple_dissimilar","images/stimuli/spore_stims/simple_14_A_a.gif","","","","",""
"","null","html-keyboard-response","41","273090","0.0-13.0-0.3","SS1618365885795","","","null","","","","","","<p><img src= images/blank.png width =""600"" height = ""600"" style=""position:fixed;top:50%; left:50%; transform: translate(-50%, -50%); border:5px solid black"">","","","","","","","",""
"","13257.324999998673","sequential-stimulus-presentation-old","42","286855","0.0-13.0-1.3","SS1618365885795","trial","","40","500","13757.324999998673","images/stimuli/spore_stims/simple_18_A_b.gif","images/stimuli/spore_stims/simple_14_A_a.gif","forced_long","","2","simple_dissimilar","images/stimuli/spore_stims/simple_18_A_b.gif","","","","",""
"","null","html-keyboard-response","43","287771","0.0-13.0-0.4","SS1618365885795","","","null","","","","","","<p><img src= images/blank.png width =""600"" height = ""600"" style=""position:fixed;top:50%; left:50%; transform: translate(-50%, -50%); border:5px solid black"">","","","","","","","",""
"","7495.080000007874","sequential-stimulus-presentation-old","44","295772","0.0-13.0-1.4","SS1618365885795","trial","","40","500","7995.080000007874","images/stimuli/spore_stims/simple_18_A_b.gif","images/stimuli/spore_stims/simple_14_A_a.gif","forced_long","","2","simple_dissimilar","images/stimuli/spore_stims/simple_18_A_b.gif","","","","",""
"","2612.294999998994","survey-multi-choice","45","298388","0.0-14.0","SS1618365885795","math_question","","","","","","","","","","","","{""Q0"":""11""}","[0]","11","",""
"","null","html-keyboard-response","46","299290","0.0-15.0-0.0","SS1618365885795","","","null","","","","","","<p><img src= images/blank.png width =""600"" height = ""600"" style=""position:fixed;top:50%; left:50%; transform: translate(-50%, -50%); border:5px solid black"">","","","","","","","",""
"","15357.000000003609","sequential-stimulus-presentation-old","47","315160","0.0-15.0-1.0","SS1618365885795","trial","","40","500","15857.000000003609","images/stimuli/spore_stims/complex_09_A_a.gif","images/stimuli/spore_stims/complex_07_A_b.gif","self_paced","","3","complex_dissimilar","images/stimuli/spore_stims/complex_07_A_b.gif","","","","",""
"","null","html-keyboard-response","48","316208","0.0-15.0-0.1","SS1618365885795","","","null","","","","","","<p><img src= images/blank.png width =""600"" height = ""600"" style=""position:fixed;top:50%; left:50%; transform: translate(-50%, -50%); border:5px solid black"">","","","","","","","",""
"","12973.005000007106","sequential-stimulus-presentation-old","49","329689","0.0-15.0-1.1","SS1618365885795","trial","","40","500","13473.005000007106","images/stimuli/spore_stims/complex_09_A_a.gif","images/stimuli/spore_stims/complex_07_A_b.gif","self_paced","","3","complex_dissimilar","images/stimuli/spore_stims/complex_07_A_b.gif","","","","",""
"","null","html-keyboard-response","50","330916","0.0-15.0-0.2","SS1618365885795","","","null","","","","","","<p><img src= images/blank.png width =""600"" height = ""600"" style=""position:fixed;top:50%; left:50%; transform: translate(-50%, -50%); border:5px solid black"">","","","","","","","",""
"","402.25999998801854","sequential-stimulus-presentation-old","51","331824","0.0-15.0-1.2","SS1618365885795","trial","","40","500","902.2599999880185","images/stimuli/spore_stims/complex_09_A_a.gif","images/stimuli/spore_stims/complex_07_A_b.gif","self_paced","","3","complex_dissimilar","images/stimuli/spore_stims/complex_07_A_b.gif","","","","",""
"","null","html-keyboard-response","52","332775","0.0-15.0-0.3","SS1618365885795","","","null","","","","","","<p><img src= images/blank.png width =""600"" height = ""600"" style=""position:fixed;top:50%; left:50%; transform: translate(-50%, -50%); border:5px solid black"">","","","","","","","",""
"","372.3699999973178","sequential-stimulus-presentation-old","53","333654","0.0-15.0-1.3","SS1618365885795","trial","","40","500","872.3699999973178","images/stimuli/spore_stims/complex_09_A_a.gif","images/stimuli/spore_stims/complex_07_A_b.gif","self_paced","","3","complex_dissimilar","images/stimuli/spore_stims/complex_07_A_b.gif","","","","",""
"","null","html-keyboard-response","54","334706","0.0-15.0-0.4","SS1618365885795","","","null","","","","","","<p><img src= images/blank.png width =""600"" height = ""600"" style=""position:fixed;top:50%; left:50%; transform: translate(-50%, -50%); border:5px solid black"">","","","","","","","",""
"","14346.9150000019","sequential-stimulus-presentation-old","55","349558","0.0-15.0-1.4","SS1618365885795","trial","","40","500","14846.9150000019","images/stimuli/spore_stims/complex_09_A_a.gif","images/stimuli/spore_stims/complex_07_A_b.gif","self_paced","","3","complex_dissimilar","images/stimuli/spore_stims/complex_09_A_a.gif","","","","",""
"","2721.5050000086194","survey-multi-choice","56","352283","0.0-16.0","SS1618365885795","math_question","","","","","","","","","","","","{""Q0"":""16""}","[0]","16","",""
"","null","html-keyboard-response","57","353237","0.0-17.0-0.0","SS1618365885795","","","null","","","","","","<p><img src= images/blank.png width =""600"" height = ""600"" style=""position:fixed;top:50%; left:50%; transform: translate(-50%, -50%); border:5px solid black"">","","","","","","","",""
"","10911.240000001271","sequential-stimulus-presentation-old","58","369157","0.0-17.0-1.0","SS1618365885795","trial","","40","500","11411.240000001271","images/stimuli/spore_stims/complex_20_A_a.gif","images/stimuli/spore_stims/complex_15_A_b.gif","forced_long","","4","complex_dissimilar","images/stimuli/spore_stims/complex_15_A_b.gif","","","","",""
"","null","html-keyboard-response","59","370127","0.0-17.0-0.1","SS1618365885795","","","null","","","","","","<p><img src= images/blank.png width =""600"" height = ""600"" style=""position:fixed;top:50%; left:50%; transform: translate(-50%, -50%); border:5px solid black"">","","","","","","","",""
"","2565.1100000104634","sequential-stimulus-presentation-old","60","373202","0.0-17.0-1.1","SS1618365885795","trial","","40","500","3065.1100000104634","images/stimuli/spore_stims/complex_20_A_a.gif","images/stimuli/spore_stims/complex_15_A_b.gif","forced_long","","4","complex_dissimilar","images/stimuli/spore_stims/complex_15_A_b.gif","","","","",""
"","null","html-keyboard-response","61","374301","0.0-17.0-0.2","SS1618365885795","","","null","","","","","","<p><img src= images/blank.png width =""600"" height = ""600"" style=""position:fixed;top:50%; left:50%; transform: translate(-50%, -50%); border:5px solid black"">","","","","","","","",""
"","5244.760000001406","sequential-stimulus-presentation-old","62","380052","0.0-17.0-1.2","SS1618365885795","trial","","40","500","5744.760000001406","images/stimuli/spore_stims/complex_20_A_a.gif","images/stimuli/spore_stims/complex_15_A_b.gif","forced_long","","4","complex_dissimilar","images/stimuli/spore_stims/complex_15_A_b.gif","","","","",""
"","null","html-keyboard-response","63","381329","0.0-17.0-0.3","SS1618365885795","","","null","","","","","","<p><img src= images/blank.png width =""600"" height = ""600"" style=""position:fixed;top:50%; left:50%; transform: translate(-50%, -50%); border:5px solid black"">","","","","","","","",""
"","1567.4999999901047","sequential-stimulus-presentation-old","64","383405","0.0-17.0-1.3","SS1618365885795","trial","","40","500","2067.4999999901047","images/stimuli/spore_stims/complex_20_A_a.gif","images/stimuli/spore_stims/complex_15_A_b.gif","forced_long","","4","complex_dissimilar","images/stimuli/spore_stims/complex_15_A_b.gif","","","","",""
"","null","html-keyboard-response","65","384569","0.0-17.0-0.4","SS1618365885795","","","null","","","","","","<p><img src= images/blank.png width =""600"" height = ""600"" style=""position:fixed;top:50%; left:50%; transform: translate(-50%, -50%); border:5px solid black"">","","","","","","","",""
"","814.1899999900488","sequential-stimulus-presentation-old","66","385890","0.0-17.0-1.4","SS1618365885795","trial","","40","500","1314.1899999900488","images/stimuli/spore_stims/complex_20_A_a.gif","images/stimuli/spore_stims/complex_15_A_b.gif","forced_long","","4","complex_dissimilar","images/stimuli/spore_stims/complex_20_A_a.gif","","","","",""
"","4245.309999998426","survey-multi-choice","67","390140","0.0-18.0","SS1618365885795","math_question","","","","","","","","","","","","{""Q0"":""14""}","[0]","14","",""
"","null","html-keyboard-response","68","391359","0.0-19.0-0.0","SS1618365885795","","","null","","","","","","<p><img src= images/blank.png width =""600"" height = ""600"" style=""position:fixed;top:50%; left:50%; transform: translate(-50%, -50%); border:5px solid black"">","","","","","","","",""
"","2257.4400000012247","sequential-stimulus-presentation-old","69","393677","0.0-19.0-1.0","SS1618365885795","trial","","40","500","2757.4400000012247","images/stimuli/spore_stims/simple_20_A_b.gif","images/stimuli/spore_stims/simple_12_A_a.gif","forced_short","","5","simple_dissimilar","images/stimuli/spore_stims/simple_12_A_a.gif","","","","",""
"","null","html-keyboard-response","70","394631","0.0-19.0-0.1","SS1618365885795","","","null","","","","","","<p><img src= images/blank.png width =""600"" height = ""600"" style=""position:fixed;top:50%; left:50%; transform: translate(-50%, -50%); border:5px solid black"">","","","","","","","",""
"","19288.094999996247","sequential-stimulus-presentation-old","71","414426","0.0-19.0-1.1","SS1618365885795","trial","","40","500","19788.094999996247","images/stimuli/spore_stims/simple_20_A_b.gif","images/stimuli/spore_stims/simple_12_A_a.gif","forced_short","","5","simple_dissimilar","images/stimuli/spore_stims/simple_20_A_b.gif","","","","",""
"","null","html-keyboard-response","72","415338","0.0-19.0-0.2","SS1618365885795","","","null","","","","","","<p><img src= images/blank.png width =""600"" height = ""600"" style=""position:fixed;top:50%; left:50%; transform: translate(-50%, -50%); border:5px solid black"">","","","","","","","",""
"","516.4349999977276","sequential-stimulus-presentation-old","73","416361","0.0-19.0-1.2","SS1618365885795","trial","","40","500","1016.4349999977276","images/stimuli/spore_stims/simple_20_A_b.gif","images/stimuli/spore_stims/simple_12_A_a.gif","forced_short","","5","simple_dissimilar","images/stimuli/spore_stims/simple_12_A_a.gif","","","","",""
"","null","html-keyboard-response","74","417215","0.0-19.0-0.3","SS1618365885795","","","null","","","","","","<p><img src= images/blank.png width =""600"" height = ""600"" style=""position:fixed;top:50%; left:50%; transform: translate(-50%, -50%); border:5px solid black"">","","","","","","","",""
"","3555.114999995567","sequential-stimulus-presentation-old","75","421275","0.0-19.0-1.3","SS1618365885795","trial","","40","500","4055.114999995567","images/stimuli/spore_stims/simple_20_A_b.gif","images/stimuli/spore_stims/simple_12_A_a.gif","forced_short","","5","simple_dissimilar","images/stimuli/spore_stims/simple_12_A_a.gif","","","","",""
"","null","html-keyboard-response","76","422171","0.0-19.0-0.4","SS1618365885795","","","null","","","","","","<p><img src= images/blank.png width =""600"" height = ""600"" style=""position:fixed;top:50%; left:50%; transform: translate(-50%, -50%); border:5px solid black"">","","","","","","","",""
"","912.2599999973318","sequential-stimulus-presentation-old","77","423588","0.0-19.0-1.4","SS1618365885795","trial","","40","500","1412.2599999973318","images/stimuli/spore_stims/simple_20_A_b.gif","images/stimuli/spore_stims/simple_12_A_a.gif","forced_short","","5","simple_dissimilar","images/stimuli/spore_stims/simple_20_A_b.gif","","","","",""
"","3165.689999994356","survey-multi-choice","78","426758","0.0-20.0","SS1618365885795","math_question","","","","","","","","","","","","{""Q0"":""8""}","[0]","8","",""
"","null","html-keyboard-response","79","427784","0.0-21.0-0.0","SS1618365885795","","","null","","","","","","<p><img src= images/blank.png width =""600"" height = ""600"" style=""position:fixed;top:50%; left:50%; transform: translate(-50%, -50%); border:5px solid black"">","","","","","","","",""
"","1595.2200000028824","sequential-stimulus-presentation-old","80","429436","0.0-21.0-1.0","SS1618365885795","trial","","40","500","2095.2200000028824","images/stimuli/spore_stims/complex_20_A_b.gif","images/stimuli/spore_stims/complex_08_A_a.gif","forced_short","","6","complex_dissimilar","images/stimuli/spore_stims/complex_08_A_a.gif","","","","",""
"","null","html-keyboard-response","81","430674","0.0-21.0-0.1","SS1618365885795","","","null","","","","","","<p><img src= images/blank.png width =""600"" height = ""600"" style=""position:fixed;top:50%; left:50%; transform: translate(-50%, -50%); border:5px solid black"">","","","","","","","",""
"","36.17000000667758","sequential-stimulus-presentation-old","82","431217","0.0-21.0-1.1","SS1618365885795","trial","","40","500","536.1700000066776","images/stimuli/spore_stims/complex_20_A_b.gif","images/stimuli/spore_stims/complex_08_A_a.gif","forced_short","","6","complex_dissimilar","images/stimuli/spore_stims/complex_08_A_a.gif","","","","",""
"","null","html-keyboard-response","83","432047","0.0-21.0-0.2","SS1618365885795","","","null","","","","","","<p><img src= images/blank.png width =""600"" height = ""600"" style=""position:fixed;top:50%; left:50%; transform: translate(-50%, -50%); border:5px solid black"">","","","","","","","",""
"","226.23500000918284","sequential-stimulus-presentation-old","84","432778","0.0-21.0-1.2","SS1618365885795","trial","","40","500","726.2350000091828","images/stimuli/spore_stims/complex_20_A_b.gif","images/stimuli/spore_stims/complex_08_A_a.gif","forced_short","","6","complex_dissimilar","images/stimuli/spore_stims/complex_08_A_a.gif","","","","",""
"","null","html-keyboard-response","85","434043","0.0-21.0-0.3","SS1618365885795","","","null","","","","","","<p><img src= images/blank.png width =""600"" height = ""600"" style=""position:fixed;top:50%; left:50%; transform: translate(-50%, -50%); border:5px solid black"">","","","","","","","",""
"","406.7700000014156","sequential-stimulus-presentation-old","86","434955","0.0-21.0-1.3","SS1618365885795","trial","","40","500","906.7700000014156","images/stimuli/spore_stims/complex_20_A_b.gif","images/stimuli/spore_stims/complex_08_A_a.gif","forced_short","","6","complex_dissimilar","images/stimuli/spore_stims/complex_08_A_a.gif","","","","",""
"","null","html-keyboard-response","87","436188","0.0-21.0-0.4","SS1618365885795","","","null","","","","","","<p><img src= images/blank.png width =""600"" height = ""600"" style=""position:fixed;top:50%; left:50%; transform: translate(-50%, -50%); border:5px solid black"">","","","","","","","",""
"","13193.834999998217","sequential-stimulus-presentation-old","88","449887","0.0-21.0-1.4","SS1618365885795","trial","","40","500","13693.834999998217","images/stimuli/spore_stims/complex_20_A_b.gif","images/stimuli/spore_stims/complex_08_A_a.gif","forced_short","","6","complex_dissimilar","images/stimuli/spore_stims/complex_08_A_a.gif","","","","",""
"","null","html-keyboard-response","89","450728","0.0-21.0-0.5","SS1618365885795","","","null","","","","","","<p><img src= images/blank.png width =""600"" height = ""600"" style=""position:fixed;top:50%; left:50%; transform: translate(-50%, -50%); border:5px solid black"">","","","","","","","",""
"","660.0650000036694","sequential-stimulus-presentation-old","90","451904","0.0-21.0-1.5","SS1618365885795","trial","","40","500","1160.0650000036694","images/stimuli/spore_stims/complex_20_A_b.gif","images/stimuli/spore_stims/complex_08_A_a.gif","forced_short","","6","complex_dissimilar","images/stimuli/spore_stims/complex_08_A_a.gif","","","","",""
"","2707.6750000123866","survey-multi-choice","91","454616","0.0-22.0","SS1618365885795","math_question","","","","","","","","","","","","{""Q0"":""6""}","[0]","6","",""
"","null","html-keyboard-response","92","455895","0.0-23.0-0.0","SS1618365885795","","","null","","","","","","<p><img src= images/blank.png width =""600"" height = ""600"" style=""position:fixed;top:50%; left:50%; transform: translate(-50%, -50%); border:5px solid black"">","","","","","","","",""
"","4813.945000001695","sequential-stimulus-presentation-old","93","461217","0.0-23.0-1.0","SS1618365885795","trial","","40","500","5313.945000001695","images/stimuli/spore_stims/simple_04_A_a.gif","images/stimuli/spore_stims/simple_10_A_b.gif","self_paced","","7","simple_dissimilar","images/stimuli/spore_stims/simple_10_A_b.gif","","","","",""
"","null","html-keyboard-response","94","462254","0.0-23.0-0.1","SS1618365885795","","","null","","","","","","<p><img src= images/blank.png width =""600"" height = ""600"" style=""position:fixed;top:50%; left:50%; transform: translate(-50%, -50%); border:5px solid black"">","","","","","","","",""
"","13747.980000000098","sequential-stimulus-presentation-old","95","476508","0.0-23.0-1.1","SS1618365885795","trial","","40","500","14247.980000000098","images/stimuli/spore_stims/simple_04_A_a.gif","images/stimuli/spore_stims/simple_10_A_b.gif","self_paced","","7","simple_dissimilar","images/stimuli/spore_stims/simple_10_A_b.gif","","","","",""
"","null","html-keyboard-response","96","477629","0.0-23.0-0.2","SS1618365885795","","","null","","","","","","<p><img src= images/blank.png width =""600"" height = ""600"" style=""position:fixed;top:50%; left:50%; transform: translate(-50%, -50%); border:5px solid black"">","","","","","","","",""
"","1279.114999997546","sequential-stimulus-presentation-old","97","479421","0.0-23.0-1.2","SS1618365885795","trial","","40","500","1779.114999997546","images/stimuli/spore_stims/simple_04_A_a.gif","images/stimuli/spore_stims/simple_10_A_b.gif","self_paced","","7","simple_dissimilar","images/stimuli/spore_stims/simple_10_A_b.gif","","","","",""
"","null","html-keyboard-response","98","480685","0.0-23.0-0.3","SS1618365885795","","","null","","","","","","<p><img src= images/blank.png width =""600"" height = ""600"" style=""position:fixed;top:50%; left:50%; transform: translate(-50%, -50%); border:5px solid black"">","","","","","","","",""
"","1576.679999998305","sequential-stimulus-presentation-old","99","482780","0.0-23.0-1.3","SS1618365885795","trial","","40","500","2076.679999998305","images/stimuli/spore_stims/simple_04_A_a.gif","images/stimuli/spore_stims/simple_10_A_b.gif","self_paced","","7","simple_dissimilar","images/stimuli/spore_stims/simple_10_A_b.gif","","","","",""
"","2873.525000002701","survey-multi-choice","100","485659","0.0-24.0","SS1618365885795","math_question","","","","","","","","","","","","{""Q0"":""7""}","[0]","7","",""
"","null","html-keyboard-response","101","486800","0.0-25.0-0.0","SS1618365885795","","","null","","","","","","<p><img src= images/blank.png width =""600"" height = ""600"" style=""position:fixed;top:50%; left:50%; transform: translate(-50%, -50%); border:5px solid black"">","","","","","","","",""
"","486.10500000359025","sequential-stimulus-presentation-old","102","487791","0.0-25.0-1.0","SS1618365885795","trial","","40","500","986.1050000035902","images/stimuli/spore_stims/simple_14_A_b.gif","images/stimuli/spore_stims/simple_10_A_a.gif","self_paced","","8","simple_dissimilar","images/stimuli/spore_stims/simple_10_A_a.gif","","","","",""
"","null","html-keyboard-response","103","488866","0.0-25.0-0.1","SS1618365885795","","","null","","","","","","<p><img src= images/blank.png width =""600"" height = ""600"" style=""position:fixed;top:50%; left:50%; transform: translate(-50%, -50%); border:5px solid black"">","","","","","","","",""
"","3264.9700000038138","sequential-stimulus-presentation-old","104","492646","0.0-25.0-1.1","SS1618365885795","trial","","40","500","3764.9700000038138","images/stimuli/spore_stims/simple_14_A_b.gif","images/stimuli/spore_stims/simple_10_A_a.gif","self_paced","","8","simple_dissimilar","images/stimuli/spore_stims/simple_10_A_a.gif","","","","",""
"","null","html-keyboard-response","105","493667","0.0-25.0-0.2","SS1618365885795","","","null","","","","","","<p><img src= images/blank.png width =""600"" height = ""600"" style=""position:fixed;top:50%; left:50%; transform: translate(-50%, -50%); border:5px solid black"">","","","","","","","",""
"","441.354999988107","sequential-stimulus-presentation-old","106","494626","0.0-25.0-1.2","SS1618365885795","trial","","40","500","941.354999988107","images/stimuli/spore_stims/simple_14_A_b.gif","images/stimuli/spore_stims/simple_10_A_a.gif","self_paced","","8","simple_dissimilar","images/stimuli/spore_stims/simple_10_A_a.gif","","","","",""
"","null","html-keyboard-response","107","495762","0.0-25.0-0.3","SS1618365885795","","","null","","","","","","<p><img src= images/blank.png width =""600"" height = ""600"" style=""position:fixed;top:50%; left:50%; transform: translate(-50%, -50%); border:5px solid black"">","","","","","","","",""
"","21134.390000006533","sequential-stimulus-presentation-old","108","517404","0.0-25.0-1.3","SS1618365885795","trial","","40","500","21634.390000006533","images/stimuli/spore_stims/simple_14_A_b.gif","images/stimuli/spore_stims/simple_10_A_a.gif","self_paced","","8","simple_dissimilar","images/stimuli/spore_stims/simple_10_A_a.gif","","","","",""
"","null","html-keyboard-response","109","518581","0.0-25.0-0.4","SS1618365885795","","","null","","","","","","<p><img src= images/blank.png width =""600"" height = ""600"" style=""position:fixed;top:50%; left:50%; transform: translate(-50%, -50%); border:5px solid black"">","","","","","","","",""
"","27312.37999998848","sequential-stimulus-presentation-old","110","546409","0.0-25.0-1.4","SS1618365885795","trial","","40","500","27812.37999998848","images/stimuli/spore_stims/simple_14_A_b.gif","images/stimuli/spore_stims/simple_10_A_a.gif","self_paced","","8","simple_dissimilar","images/stimuli/spore_stims/simple_10_A_a.gif","","","","",""
"","2715.380000008736","survey-multi-choice","111","549133","0.0-26.0","SS1618365885795","math_question","","","","","","","","","","","","{""Q0"":""11""}","[0]","11","",""
"","null","html-keyboard-response","112","550378","0.0-27.0-0.0","SS1618365885795","","","null","","","","","","<p><img src= images/blank.png width =""600"" height = ""600"" style=""position:fixed;top:50%; left:50%; transform: translate(-50%, -50%); border:5px solid black"">","","","","","","","",""
"","1265.015000011772","sequential-stimulus-presentation-old","113","551706","0.0-27.0-1.0","SS1618365885795","trial","","40","500","1765.015000011772","images/stimuli/spore_stims/complex_11_A_b.gif","images/stimuli/spore_stims/complex_07_A_a.gif","forced_short","","9","complex_dissimilar","images/stimuli/spore_stims/complex_07_A_a.gif","","","","",""
"","null","html-keyboard-response","114","552831","0.0-27.0-0.1","SS1618365885795","","","null","","","","","","<p><img src= images/blank.png width =""600"" height = ""600"" style=""position:fixed;top:50%; left:50%; transform: translate(-50%, -50%); border:5px solid black"">","","","","","","","",""
"","1431.3849999889499","sequential-stimulus-presentation-old","115","554772","0.0-27.0-1.1","SS1618365885795","trial","","40","500","1931.3849999889499","images/stimuli/spore_stims/complex_11_A_b.gif","images/stimuli/spore_stims/complex_07_A_a.gif","forced_short","","9","complex_dissimilar","images/stimuli/spore_stims/complex_07_A_a.gif","","","","",""
"","null","html-keyboard-response","116","555640","0.0-27.0-0.2","SS1618365885795","","","null","","","","","","<p><img src= images/blank.png width =""600"" height = ""600"" style=""position:fixed;top:50%; left:50%; transform: translate(-50%, -50%); border:5px solid black"">","","","","","","","",""
"","954.2899999942165","sequential-stimulus-presentation-old","117","557110","0.0-27.0-1.2","SS1618365885795","trial","","40","500","1454.2899999942165","images/stimuli/spore_stims/complex_11_A_b.gif","images/stimuli/spore_stims/complex_07_A_a.gif","forced_short","","9","complex_dissimilar","images/stimuli/spore_stims/complex_07_A_a.gif","","","","",""
"","null","html-keyboard-response","118","557990","0.0-27.0-0.3","SS1618365885795","","","null","","","","","","<p><img src= images/blank.png width =""600"" height = ""600"" style=""position:fixed;top:50%; left:50%; transform: translate(-50%, -50%); border:5px solid black"">","","","","","","","",""
"","262.3850000090897","sequential-stimulus-presentation-old","119","558762","0.0-27.0-1.3","SS1618365885795","trial","","40","500","762.3850000090897","images/stimuli/spore_stims/complex_11_A_b.gif","images/stimuli/spore_stims/complex_07_A_a.gif","forced_short","","9","complex_dissimilar","images/stimuli/spore_stims/complex_07_A_a.gif","","","","",""
"","null","html-keyboard-response","120","559815","0.0-27.0-0.4","SS1618365885795","","","null","","","","","","<p><img src= images/blank.png width =""600"" height = ""600"" style=""position:fixed;top:50%; left:50%; transform: translate(-50%, -50%); border:5px solid black"">","","","","","","","",""
"","2520.5150000110734","sequential-stimulus-presentation-old","121","562848","0.0-27.0-1.4","SS1618365885795","trial","","40","500","3020.5150000110734","images/stimuli/spore_stims/complex_11_A_b.gif","images/stimuli/spore_stims/complex_07_A_a.gif","forced_short","","9","complex_dissimilar","images/stimuli/spore_stims/complex_07_A_a.gif","","","","",""
"","null","html-keyboard-response","122","564039","0.0-27.0-0.5","SS1618365885795","","","null","","","","","","<p><img src= images/blank.png width =""600"" height = ""600"" style=""position:fixed;top:50%; left:50%; transform: translate(-50%, -50%); border:5px solid black"">","","","","","","","",""
"","579.9050000059651","sequential-stimulus-presentation-old","123","565128","0.0-27.0-1.5","SS1618365885795","trial","","40","500","1079.9050000059651","images/stimuli/spore_stims/complex_11_A_b.gif","images/stimuli/spore_stims/complex_07_A_a.gif","forced_short","","9","complex_dissimilar","images/stimuli/spore_stims/complex_07_A_a.gif","","","","",""
"","2917.895000005956","survey-multi-choice","124","568057","0.0-28.0","SS1618365885795","math_question","","","","","","","","","","","","{""Q0"":""11""}","[0]","11","",""
"","null","html-keyboard-response","125","568906","0.0-29.0-0.0","SS1618365885795","","","null","","","","","","<p><img src= images/blank.png width =""600"" height = ""600"" style=""position:fixed;top:50%; left:50%; transform: translate(-50%, -50%); border:5px solid black"">","","","","","","","",""
"","2754.7800000029383","sequential-stimulus-presentation-old","126","576668","0.0-29.0-1.0","SS1618365885795","trial","","40","500","3254.7800000029383","images/stimuli/spore_stims/simple_17_A_a.gif","images/stimuli/spore_stims/simple_07_A_b.gif","forced_long","","10","simple_dissimilar","images/stimuli/spore_stims/simple_07_A_b.gif","","","","",""
"","null","html-keyboard-response","127","577490","0.0-29.0-0.1","SS1618365885795","","","null","","","","","","<p><img src= images/blank.png width =""600"" height = ""600"" style=""position:fixed;top:50%; left:50%; transform: translate(-50%, -50%); border:5px solid black"">","","","","","","","",""
"","136.03999999759253","sequential-stimulus-presentation-old","128","578132","0.0-29.0-1.1","SS1618365885795","trial","","40","500","636.0399999975925","images/stimuli/spore_stims/simple_17_A_a.gif","images/stimuli/spore_stims/simple_07_A_b.gif","forced_long","","10","simple_dissimilar","images/stimuli/spore_stims/simple_17_A_a.gif","","","","",""
"","null","html-keyboard-response","129","579111","0.0-29.0-0.2","SS1618365885795","","","null","","","","","","<p><img src= images/blank.png width =""600"" height = ""600"" style=""position:fixed;top:50%; left:50%; transform: translate(-50%, -50%); border:5px solid black"">","","","","","","","",""
"","2495.1450000080513","sequential-stimulus-presentation-old","130","582119","0.0-29.0-1.2","SS1618365885795","trial","","40","500","2995.1450000080513","images/stimuli/spore_stims/simple_17_A_a.gif","images/stimuli/spore_stims/simple_07_A_b.gif","forced_long","","10","simple_dissimilar","images/stimuli/spore_stims/simple_07_A_b.gif","","","","",""
"","null","html-keyboard-response","131","583352","0.0-29.0-0.3","SS1618365885795","","","null","","","","","","<p><img src= images/blank.png width =""600"" height = ""600"" style=""position:fixed;top:50%; left:50%; transform: translate(-50%, -50%); border:5px solid black"">","","","","","","","",""
"","10465.930000005756","sequential-stimulus-presentation-old","132","594336","0.0-29.0-1.3","SS1618365885795","trial","","40","500","10965.930000005756","images/stimuli/spore_stims/simple_17_A_a.gif","images/stimuli/spore_stims/simple_07_A_b.gif","forced_long","","10","simple_dissimilar","images/stimuli/spore_stims/simple_07_A_b.gif","","","","",""
"","null","html-keyboard-response","133","595640","0.0-29.0-0.4","SS1618365885795","","","null","","","","","","<p><img src= images/blank.png width =""600"" height = ""600"" style=""position:fixed;top:50%; left:50%; transform: translate(-50%, -50%); border:5px solid black"">","","","","","","","",""
"","2841.004999994766","sequential-stimulus-presentation-old","134","598990","0.0-29.0-1.4","SS1618365885795","trial","","40","500","3341.004999994766","images/stimuli/spore_stims/simple_17_A_a.gif","images/stimuli/spore_stims/simple_07_A_b.gif","forced_long","","10","simple_dissimilar","images/stimuli/spore_stims/simple_17_A_a.gif","","","","",""
"","3277.6900000026217","survey-multi-choice","135","602272","0.0-30.0","SS1618365885795","math_question","","","","","","","","","","","","{""Q0"":""10""}","[0]","10","",""
"","null","html-keyboard-response","136","603279","0.0-31.0-0.0","SS1618365885795","","","null","","","","","","<p><img src= images/blank.png width =""600"" height = ""600"" style=""position:fixed;top:50%; left:50%; transform: translate(-50%, -50%); border:5px solid black"">","","","","","","","",""
"","552.014999993844","sequential-stimulus-presentation-old","137","603893","0.0-31.0-1.0","SS1618365885795","trial","","40","500","1052.014999993844","images/stimuli/spore_stims/simple_03_A_a.gif","images/stimuli/spore_stims/simple_12_A_b.gif","forced_short","","11","simple_dissimilar","images/stimuli/spore_stims/simple_12_A_b.gif","","","","",""
"","null","html-keyboard-response","138","605121","0.0-31.0-0.1","SS1618365885795","","","null","","","","","","<p><img src= images/blank.png width =""600"" height = ""600"" style=""position:fixed;top:50%; left:50%; transform: translate(-50%, -50%); border:5px solid black"">","","","","","","","",""
"","641.0499999910826","sequential-stimulus-presentation-old","139","606278","0.0-31.0-1.1","SS1618365885795","trial","","40","500","1141.0499999910826","images/stimuli/spore_stims/simple_03_A_a.gif","images/stimuli/spore_stims/simple_12_A_b.gif","forced_short","","11","simple_dissimilar","images/stimuli/spore_stims/simple_12_A_b.gif","","","","",""
"","null","html-keyboard-response","140","607248","0.0-31.0-0.2","SS1618365885795","","","null","","","","","","<p><img src= images/blank.png width =""600"" height = ""600"" style=""position:fixed;top:50%; left:50%; transform: translate(-50%, -50%); border:5px solid black"">","","","","","","","",""
"","1104.7749999997905","sequential-stimulus-presentation-old","141","608858","0.0-31.0-1.2","SS1618365885795","trial","","40","500","1604.7749999997905","images/stimuli/spore_stims/simple_03_A_a.gif","images/stimuli/spore_stims/simple_12_A_b.gif","forced_short","","11","simple_dissimilar","images/stimuli/spore_stims/simple_12_A_b.gif","","","","",""
"","null","html-keyboard-response","142","609747","0.0-31.0-0.3","SS1618365885795","","","null","","","","","","<p><img src= images/blank.png width =""600"" height = ""600"" style=""position:fixed;top:50%; left:50%; transform: translate(-50%, -50%); border:5px solid black"">","","","","","","","",""
"","6294.20500001288","sequential-stimulus-presentation-old","143","616547","0.0-31.0-1.3","SS1618365885795","trial","","40","500","6794.20500001288","images/stimuli/spore_stims/simple_03_A_a.gif","images/stimuli/spore_stims/simple_12_A_b.gif","forced_short","","11","simple_dissimilar","images/stimuli/spore_stims/simple_12_A_b.gif","","","","",""
"","null","html-keyboard-response","144","617691","0.0-31.0-0.4","SS1618365885795","","","null","","","","","","<p><img src= images/blank.png width =""600"" height = ""600"" style=""position:fixed;top:50%; left:50%; transform: translate(-50%, -50%); border:5px solid black"">","","","","","","","",""
"","21.305000002030283","sequential-stimulus-presentation-old","145","618221","0.0-31.0-1.4","SS1618365885795","trial","","40","500","521.3050000020303","images/stimuli/spore_stims/simple_03_A_a.gif","images/stimuli/spore_stims/simple_12_A_b.gif","forced_short","","11","simple_dissimilar","images/stimuli/spore_stims/simple_12_A_b.gif","","","","",""
"","null","html-keyboard-response","146","619107","0.0-31.0-0.5","SS1618365885795","","","null","","","","","","<p><img src= images/blank.png width =""600"" height = ""600"" style=""position:fixed;top:50%; left:50%; transform: translate(-50%, -50%); border:5px solid black"">","","","","","","","",""
"","7548.8800000021","sequential-stimulus-presentation-old","147","627160","0.0-31.0-1.5","SS1618365885795","trial","","40","500","8048.8800000021","images/stimuli/spore_stims/simple_03_A_a.gif","images/stimuli/spore_stims/simple_12_A_b.gif","forced_short","","11","simple_dissimilar","images/stimuli/spore_stims/simple_03_A_a.gif","","","","",""
"[{""page_index"":0,""viewing_time"":5620.970000003581}]","5621.379999996861","instructions","148","632785","0.0-32.0","SS1618365885795","instructions","","","","","","","","","","","","","","","",""
"","10705.265000011423","survey-likert","149","643495","0.0-33.0","SS1618365885795","similarity_question","","","","","","","","","","","","{""Q0"":3}","[0]","","images/stimuli/spore_stims/complex_08_A_a.gif","images/stimuli/spore_stims/complex_20_A_b.gif"
"","8037.255000002915","survey-likert","150","651537","0.0-34.0","SS1618365885795","similarity_question","","","","","","","","","","","","{""Q0"":1}","[0]","","images/stimuli/spore_stims/complex_15_A_b.gif","images/stimuli/spore_stims/complex_20_A_a.gif"
"","5044.14500000712","survey-likert","151","656587","0.0-35.0","SS1618365885795","similarity_question","","","","","","","","","","","","{""Q0"":5}","[0]","","images/stimuli/spore_stims/simple_20_A_b.gif","images/stimuli/spore_stims/simple_12_A_a.gif"
"","5012.640000000829","survey-likert","152","661606","0.0-36.0","SS1618365885795","similarity_question","","","","","","","","","","","","{""Q0"":5}","[0]","","images/stimuli/spore_stims/simple_10_A_b.gif","images/stimuli/spore_stims/simple_04_A_a.gif"
"","6848.444999995991","survey-likert","153","668463","0.0-37.0","SS1618365885795","similarity_question","","","","","","","","","","","","{""Q0"":5}","[0]","","images/stimuli/spore_stims/simple_10_A_a.gif","images/stimuli/spore_stims/simple_14_A_b.gif"
"","3039.709999997285","survey-likert","154","671510","0.0-38.0","SS1618365885795","similarity_question","","","","","","","","","","","","{""Q0"":5}","[0]","","images/stimuli/spore_stims/simple_18_A_b.gif","images/stimuli/spore_stims/simple_14_A_a.gif"
"","2980.3049999900395","survey-likert","155","674496","0.0-39.0","SS1618365885795","similarity_question","","","","","","","","","","","","{""Q0"":4}","[0]","","images/stimuli/spore_stims/simple_07_A_b.gif","images/stimuli/spore_stims/simple_17_A_a.gif"
"","8228.384999994887","survey-likert","156","682731","0.0-40.0","SS1618365885795","similarity_question","","","","","","","","","","","","{""Q0"":2}","[0]","","images/stimuli/spore_stims/complex_09_A_a.gif","images/stimuli/spore_stims/complex_07_A_b.gif"
"","6773.635000005015","survey-likert","157","689510","0.0-41.0","SS1618365885795","similarity_question","","","","","","","","","","","","{""Q0"":2}","[0]","","images/stimuli/spore_stims/complex_07_A_a.gif","images/stimuli/spore_stims/complex_11_A_b.gif"
"","6061.285000003409","survey-likert","158","695581","0.0-42.0","SS1618365885795","similarity_question","","","","","","","","","","","","{""Q0"":5}","[0]","","images/stimuli/spore_stims/simple_12_A_b.gif","images/stimuli/spore_stims/simple_03_A_a.gif"
"","10407.87999999884","survey-likert","159","705995","0.0-43.0","SS1618365885795","similarity_question","","","","","","","","","","","","{""Q0"":3}","[0]","","images/stimuli/spore_stims/complex_16_A_a.gif","images/stimuli/spore_stims/complex_04_A_b.gif"
"","3908.030000005965","survey-likert","160","709910","0.0-44.0","SS1618365885795","similarity_question","","","","","","","","","","","","{""Q0"":3}","[0]","","images/stimuli/spore_stims/complex_06_A_b.gif","images/stimuli/spore_stims/complex_14_A_a.gif"
"[{""page_index"":0,""viewing_time"":5033.8750000082655}]","5034.4150000019","instructions","161","714951","0.0-45.0","SS1618365885795","instructions","","","","","","","","","","","","","","","",""
"","6250.8450000023","survey-likert","162","721207","0.0-46.0","SS1618365885795","","","","","","","","","images/stimuli/spore_stims/simple_20_A_b.gif","","","","{""Q0"":0}","[0]","","",""
"","5142.934999996214","survey-likert","163","726357","0.0-47.0","SS1618365885795","","","","","","","","","images/stimuli/spore_stims/complex_14_A_a.gif","","","","{""Q0"":4}","[0]","","",""
"","3414.0900000056718","survey-likert","164","729779","0.0-48.0","SS1618365885795","","","","","","","","","images/stimuli/spore_stims/simple_03_A_a.gif","","","","{""Q0"":0}","[0]","","",""
"","6825.345000004745","survey-likert","165","736610","0.0-49.0","SS1618365885795","","","","","","","","","images/stimuli/spore_stims/simple_04_A_a.gif","","","","{""Q0"":0}","[0]","","",""
"","3629.670000009355","survey-likert","166","740245","0.0-50.0","SS1618365885795","","","","","","","","","images/stimuli/spore_stims/complex_20_A_a.gif","","","","{""Q0"":4}","[0]","","",""
"","8000.049999987823","survey-likert","167","748251","0.0-51.0","SS1618365885795","","","","","","","","","images/stimuli/spore_stims/complex_07_A_a.gif","","","","{""Q0"":4}","[0]","","",""
"","4388.4649999963585","survey-likert","168","752647","0.0-52.0","SS1618365885795","","","","","","","","","images/stimuli/spore_stims/complex_04_A_b.gif","","","","{""Q0"":4}","[0]","","",""
"","2690.085000009276","survey-likert","169","755343","0.0-53.0","SS1618365885795","","","","","","","","","images/stimuli/spore_stims/complex_08_A_a.gif","","","","{""Q0"":4}","[0]","","",""
"","3354.699999996228","survey-likert","170","758703","0.0-54.0","SS1618365885795","","","","","","","","","images/stimuli/spore_stims/complex_07_A_b.gif","","","","{""Q0"":4}","[0]","","",""
"","5236.485000001267","survey-likert","171","763945","0.0-55.0","SS1618365885795","","","","","","","","","images/stimuli/spore_stims/simple_18_A_b.gif","","","","{""Q0"":1}","[0]","","",""
"","3459.7000000067055","survey-likert","172","767410","0.0-56.0","SS1618365885795","","","","","","","","","images/stimuli/spore_stims/simple_17_A_a.gif","","","","{""Q0"":1}","[0]","","",""
"","2849.7449999995297","survey-likert","173","770266","0.0-57.0","SS1618365885795","","","","","","","","","images/stimuli/spore_stims/simple_10_A_a.gif","","","","{""Q0"":1}","[0]","","",""
"[{""page_index"":0,""viewing_time"":1875.6649999995716}]","1875.9350000036648","instructions","174","772147","0.0-58.0","SS1618365885795","instructions","","","","","","","","","","","","","","","",""
"","3519.044999993639","demog-age","175","775677","0.0-59.0","SS1618365885795","","","","","","","","","","","","","{""age"":""31""}","","","",""
"","8957.539999988512","demog-ethnic-US","176","784650","0.0-60.0","SS1618365885795","","","","","","","","","","","","","{""ethnicity"":[""Asian"",""Other""]}","[0]","","",""
"","9539.969999997993","demog-gender-and-education","177","794196","0.0-61.0","SS1618365885795","","","","","","","","","","","","","{""gender"":""Male"",""education"":""Associate Degree/Technical certification""}","[0,1]","","",""
"","8835.859999991953","survey-text","178","803040","0.0-62.0","SS1618365885795","feedback","","","","","","","","","","","","{""Q0"":""no issues""}","","","",""
"[{""page_index"":0,""viewing_time"":2044.000000008964}]","2044.3800000066403","instructions","179","805089","0.0-63.0","SS1618365885795","instructions","","","","","","","","","","","","","","","",""
