"view_history","rt","trial_type","trial_index","time_elapsed","internal_node_id","subject","stimulus_type","trial_stimulus","key_press","minimum_viewing_duration","trial_looking_time","block_deviant","block_background","exposure_type","stimulus","block_number","block_type","stimulus_displayed","responses","question_order","math_correct_answer","stimulus_left","stimulus_right"
"[{""page_index"":0,""viewing_time"":2509.2249999870546}]","2509.66999999946","instructions","0","2511","0.0-0.0","SS1618435653779","","","","","","","","","","","","","","","","",""
"[{""page_index"":0,""viewing_time"":17385.24000000325},{""page_index"":1,""viewing_time"":8391.79999998305}]","25777.325000002747","instructions","1","30292","0.0-1.0","SS1618435653779","instructions","","","","","","","","","","","","","","","",""
"","6945.594999997411","sequential-stimulus-presentation-old","2","37742","0.0-2.0","SS1618435653779","","","40","500","7445.594999997411","null","null","self_paced","","","","","","","","",""
"","4617.94500000542","sequential-stimulus-presentation-old","3","42864","0.0-3.0","SS1618435653779","","","40","500","5117.94500000542","null","null","self_paced","","","","","","","","",""
"[{""page_index"":0,""viewing_time"":20543.004999984987}]","20543.299999990268","instructions","4","63408","0.0-4.0","SS1618435653779","instructions","","","","","","","","","","","","","","","",""
"","2010.8849999960512","sequential-stimulus-presentation-old","5","70422","0.0-5.0","SS1618435653779","","","40","500","2510.884999996051","null","null","forced_long","","","","","","","","",""
"","3808.16000001505","sequential-stimulus-presentation-old","6","74283","0.0-6.0","SS1618435653779","","","40","50","3858.16000001505","null","null","forced_long","","","","","","","","",""
"[{""page_index"":0,""viewing_time"":4553.825000009965}]","4554.1899999952875","instructions","7","78838","0.0-7.0","SS1618435653779","instructions","","","","","","","","","","","","","","","",""
"[{""page_index"":0,""viewing_time"":4384.96500000474},{""page_index"":1,""viewing_time"":5789.094999985537},{""page_index"":2,""viewing_time"":2055.6999999971595},{""page_index"":3,""viewing_time"":1101.5500000212342},{""page_index"":4,""viewing_time"":1206.2449999793898}]","14537.834999995539","instructions","8","93377","0.0-8.0","SS1618435653779","instructions","","","","","","","","","","","","","","","",""
"","null","html-keyboard-response","9","94451","0.0-9.0-0.0","SS1618435653779","","","null","","","","","","<p><img src= images/blank.png width =""600"" height = ""600"" style=""position:fixed;top:50%; left:50%; transform: translate(-50%, -50%); border:5px solid black"">","","","","","","","",""
"","547.4799999792594","sequential-stimulus-presentation-old","10","100005","0.0-9.0-1.0","SS1618435653779","trial","","40","500","1047.4799999792594","images/stimuli/spore_stims/complex_02_A_a.gif","images/stimuli/spore_stims/complex_12_A_b.gif","forced_long","","0","complex_dissimilar","images/stimuli/spore_stims/complex_12_A_b.gif","","","","",""
"","null","html-keyboard-response","11","100879","0.0-9.0-0.1","SS1618435653779","","","null","","","","","","<p><img src= images/blank.png width =""600"" height = ""600"" style=""position:fixed;top:50%; left:50%; transform: translate(-50%, -50%); border:5px solid black"">","","","","","","","",""
"","10888.095000002068","sequential-stimulus-presentation-old","12","112273","0.0-9.0-1.1","SS1618435653779","trial","","40","500","11388.095000002068","images/stimuli/spore_stims/complex_02_A_a.gif","images/stimuli/spore_stims/complex_12_A_b.gif","forced_long","","0","complex_dissimilar","images/stimuli/spore_stims/complex_02_A_a.gif","","","","",""
"","null","html-keyboard-response","13","113332","0.0-9.0-0.2","SS1618435653779","","","null","","","","","","<p><img src= images/blank.png width =""600"" height = ""600"" style=""position:fixed;top:50%; left:50%; transform: translate(-50%, -50%); border:5px solid black"">","","","","","","","",""
"","2629.190000006929","sequential-stimulus-presentation-old","14","116465","0.0-9.0-1.2","SS1618435653779","trial","","40","500","3129.190000006929","images/stimuli/spore_stims/complex_02_A_a.gif","images/stimuli/spore_stims/complex_12_A_b.gif","forced_long","","0","complex_dissimilar","images/stimuli/spore_stims/complex_12_A_b.gif","","","","",""
"","null","html-keyboard-response","15","117529","0.0-9.0-0.3","SS1618435653779","","","null","","","","","","<p><img src= images/blank.png width =""600"" height = ""600"" style=""position:fixed;top:50%; left:50%; transform: translate(-50%, -50%); border:5px solid black"">","","","","","","","",""
"","1520.4150000063237","sequential-stimulus-presentation-old","16","119553","0.0-9.0-1.3","SS1618435653779","trial","","40","500","2020.4150000063237","images/stimuli/spore_stims/complex_02_A_a.gif","images/stimuli/spore_stims/complex_12_A_b.gif","forced_long","","0","complex_dissimilar","images/stimuli/spore_stims/complex_12_A_b.gif","","","","",""
"","null","html-keyboard-response","17","120711","0.0-9.0-0.4","SS1618435653779","","","null","","","","","","<p><img src= images/blank.png width =""600"" height = ""600"" style=""position:fixed;top:50%; left:50%; transform: translate(-50%, -50%); border:5px solid black"">","","","","","","","",""
"","1117.020000005141","sequential-stimulus-presentation-old","18","122334","0.0-9.0-1.4","SS1618435653779","trial","","40","500","1617.020000005141","images/stimuli/spore_stims/complex_02_A_a.gif","images/stimuli/spore_stims/complex_12_A_b.gif","forced_long","","0","complex_dissimilar","images/stimuli/spore_stims/complex_02_A_a.gif","","","","",""
"","null","html-keyboard-response","19","123345","0.0-9.0-0.5","SS1618435653779","","","null","","","","","","<p><img src= images/blank.png width =""600"" height = ""600"" style=""position:fixed;top:50%; left:50%; transform: translate(-50%, -50%); border:5px solid black"">","","","","","","","",""
"","17.58499999414198","sequential-stimulus-presentation-old","20","123869","0.0-9.0-1.5","SS1618435653779","trial","","40","500","517.584999994142","images/stimuli/spore_stims/complex_02_A_a.gif","images/stimuli/spore_stims/complex_12_A_b.gif","forced_long","","0","complex_dissimilar","images/stimuli/spore_stims/complex_12_A_b.gif","","","","",""
"","4812.355000001844","survey-multi-choice","21","128687","0.0-10.0","SS1618435653779","math_question","","","","","","","","","","","","{""Q0"":""11""}","[0]","11","",""
"","null","html-keyboard-response","22","129549","0.0-11.0-0.0","SS1618435653779","","","null","","","","","","<p><img src= images/blank.png width =""600"" height = ""600"" style=""position:fixed;top:50%; left:50%; transform: translate(-50%, -50%); border:5px solid black"">","","","","","","","",""
"","1004.4599999964703","sequential-stimulus-presentation-old","23","130610","0.0-11.0-1.0","SS1618435653779","trial","","40","500","1504.4599999964703","images/stimuli/spore_stims/simple_05_A_b.gif","images/stimuli/spore_stims/simple_17_A_a.gif","forced_short","","1","simple_dissimilar","images/stimuli/spore_stims/simple_17_A_a.gif","","","","",""
"","null","html-keyboard-response","24","131861","0.0-11.0-0.1","SS1618435653779","","","null","","","","","","<p><img src= images/blank.png width =""600"" height = ""600"" style=""position:fixed;top:50%; left:50%; transform: translate(-50%, -50%); border:5px solid black"">","","","","","","","",""
"","3007.6650000119116","sequential-stimulus-presentation-old","25","135374","0.0-11.0-1.1","SS1618435653779","trial","","40","500","3507.6650000119116","images/stimuli/spore_stims/simple_05_A_b.gif","images/stimuli/spore_stims/simple_17_A_a.gif","forced_short","","1","simple_dissimilar","images/stimuli/spore_stims/simple_05_A_b.gif","","","","",""
"","null","html-keyboard-response","26","136542","0.0-11.0-0.2","SS1618435653779","","","null","","","","","","<p><img src= images/blank.png width =""600"" height = ""600"" style=""position:fixed;top:50%; left:50%; transform: translate(-50%, -50%); border:5px solid black"">","","","","","","","",""
"","2948.6650000035297","sequential-stimulus-presentation-old","27","139997","0.0-11.0-1.2","SS1618435653779","trial","","40","500","3448.6650000035297","images/stimuli/spore_stims/simple_05_A_b.gif","images/stimuli/spore_stims/simple_17_A_a.gif","forced_short","","1","simple_dissimilar","images/stimuli/spore_stims/simple_17_A_a.gif","","","","",""
"","null","html-keyboard-response","28","140813","0.0-11.0-0.3","SS1618435653779","","","null","","","","","","<p><img src= images/blank.png width =""600"" height = ""600"" style=""position:fixed;top:50%; left:50%; transform: translate(-50%, -50%); border:5px solid black"">","","","","","","","",""
"","934.8099999770056","sequential-stimulus-presentation-old","29","142255","0.0-11.0-1.3","SS1618435653779","trial","","40","500","1434.8099999770056","images/stimuli/spore_stims/simple_05_A_b.gif","images/stimuli/spore_stims/simple_17_A_a.gif","forced_short","","1","simple_dissimilar","images/stimuli/spore_stims/simple_17_A_a.gif","","","","",""
"","3034.0050000231713","survey-multi-choice","30","145293","0.0-12.0","SS1618435653779","math_question","","","","","","","","","","","","{""Q0"":""8""}","[0]","8","",""
"","null","html-keyboard-response","31","146499","0.0-13.0-0.0","SS1618435653779","","","null","","","","","","<p><img src= images/blank.png width =""600"" height = ""600"" style=""position:fixed;top:50%; left:50%; transform: translate(-50%, -50%); border:5px solid black"">","","","","","","","",""
"","737.5799999863375","sequential-stimulus-presentation-old","32","147292","0.0-13.0-1.0","SS1618435653779","trial","","40","500","1237.5799999863375","images/stimuli/spore_stims/simple_18_A_b.gif","images/stimuli/spore_stims/simple_05_A_a.gif","forced_short","","2","simple_dissimilar","images/stimuli/spore_stims/simple_05_A_a.gif","","","","",""
"","null","html-keyboard-response","33","148519","0.0-13.0-0.1","SS1618435653779","","","null","","","","","","<p><img src= images/blank.png width =""600"" height = ""600"" style=""position:fixed;top:50%; left:50%; transform: translate(-50%, -50%); border:5px solid black"">","","","","","","","",""
"","928.6450000072364","sequential-stimulus-presentation-old","34","149956","0.0-13.0-1.1","SS1618435653779","trial","","40","500","1428.6450000072364","images/stimuli/spore_stims/simple_18_A_b.gif","images/stimuli/spore_stims/simple_05_A_a.gif","forced_short","","2","simple_dissimilar","images/stimuli/spore_stims/simple_05_A_a.gif","","","","",""
"","null","html-keyboard-response","35","150792","0.0-13.0-0.2","SS1618435653779","","","null","","","","","","<p><img src= images/blank.png width =""600"" height = ""600"" style=""position:fixed;top:50%; left:50%; transform: translate(-50%, -50%); border:5px solid black"">","","","","","","","",""
"","117.36500001279637","sequential-stimulus-presentation-old","36","151417","0.0-13.0-1.2","SS1618435653779","trial","","40","500","617.3650000127964","images/stimuli/spore_stims/simple_18_A_b.gif","images/stimuli/spore_stims/simple_05_A_a.gif","forced_short","","2","simple_dissimilar","images/stimuli/spore_stims/simple_05_A_a.gif","","","","",""
"","null","html-keyboard-response","37","152376","0.0-13.0-0.3","SS1618435653779","","","null","","","","","","<p><img src= images/blank.png width =""600"" height = ""600"" style=""position:fixed;top:50%; left:50%; transform: translate(-50%, -50%); border:5px solid black"">","","","","","","","",""
"","54.0949999995064","sequential-stimulus-presentation-old","38","152935","0.0-13.0-1.3","SS1618435653779","trial","","40","500","554.0949999995064","images/stimuli/spore_stims/simple_18_A_b.gif","images/stimuli/spore_stims/simple_05_A_a.gif","forced_short","","2","simple_dissimilar","images/stimuli/spore_stims/simple_05_A_a.gif","","","","",""
"","null","html-keyboard-response","39","153756","0.0-13.0-0.4","SS1618435653779","","","null","","","","","","<p><img src= images/blank.png width =""600"" height = ""600"" style=""position:fixed;top:50%; left:50%; transform: translate(-50%, -50%); border:5px solid black"">","","","","","","","",""
"","1596.4249999960884","sequential-stimulus-presentation-old","40","155857","0.0-13.0-1.4","SS1618435653779","trial","","40","500","2096.4249999960884","images/stimuli/spore_stims/simple_18_A_b.gif","images/stimuli/spore_stims/simple_05_A_a.gif","forced_short","","2","simple_dissimilar","images/stimuli/spore_stims/simple_18_A_b.gif","","","","",""
"","null","html-keyboard-response","41","156683","0.0-13.0-0.5","SS1618435653779","","","null","","","","","","<p><img src= images/blank.png width =""600"" height = ""600"" style=""position:fixed;top:50%; left:50%; transform: translate(-50%, -50%); border:5px solid black"">","","","","","","","",""
"","252.39000000874512","sequential-stimulus-presentation-old","42","157443","0.0-13.0-1.5","SS1618435653779","trial","","40","500","752.3900000087451","images/stimuli/spore_stims/simple_18_A_b.gif","images/stimuli/spore_stims/simple_05_A_a.gif","forced_short","","2","simple_dissimilar","images/stimuli/spore_stims/simple_18_A_b.gif","","","","",""
"","3561.77500000922","survey-multi-choice","43","161008","0.0-14.0","SS1618435653779","math_question","","","","","","","","","","","","{""Q0"":""11""}","[0]","11","",""
"","null","html-keyboard-response","44","162215","0.0-15.0-0.0","SS1618435653779","","","null","","","","","","<p><img src= images/blank.png width =""600"" height = ""600"" style=""position:fixed;top:50%; left:50%; transform: translate(-50%, -50%); border:5px solid black"">","","","","","","","",""
"","469.1900000034366","sequential-stimulus-presentation-old","45","167701","0.0-15.0-1.0","SS1618435653779","trial","","40","500","969.1900000034366","images/stimuli/spore_stims/simple_19_A_a.gif","images/stimuli/spore_stims/simple_09_A_b.gif","forced_long","","3","simple_dissimilar","images/stimuli/spore_stims/simple_09_A_b.gif","","","","",""
"","null","html-keyboard-response","46","168755","0.0-15.0-0.1","SS1618435653779","","","null","","","","","","<p><img src= images/blank.png width =""600"" height = ""600"" style=""position:fixed;top:50%; left:50%; transform: translate(-50%, -50%); border:5px solid black"">","","","","","","","",""
"","496.89500001841225","sequential-stimulus-presentation-old","47","169761","0.0-15.0-1.1","SS1618435653779","trial","","40","500","996.8950000184122","images/stimuli/spore_stims/simple_19_A_a.gif","images/stimuli/spore_stims/simple_09_A_b.gif","forced_long","","3","simple_dissimilar","images/stimuli/spore_stims/simple_19_A_a.gif","","","","",""
"","null","html-keyboard-response","48","170585","0.0-15.0-0.2","SS1618435653779","","","null","","","","","","<p><img src= images/blank.png width =""600"" height = ""600"" style=""position:fixed;top:50%; left:50%; transform: translate(-50%, -50%); border:5px solid black"">","","","","","","","",""
"","467.49999999883585","sequential-stimulus-presentation-old","49","171560","0.0-15.0-1.2","SS1618435653779","trial","","40","500","967.4999999988358","images/stimuli/spore_stims/simple_19_A_a.gif","images/stimuli/spore_stims/simple_09_A_b.gif","forced_long","","3","simple_dissimilar","images/stimuli/spore_stims/simple_09_A_b.gif","","","","",""
"","null","html-keyboard-response","50","172410","0.0-15.0-0.3","SS1618435653779","","","null","","","","","","<p><img src= images/blank.png width =""600"" height = ""600"" style=""position:fixed;top:50%; left:50%; transform: translate(-50%, -50%); border:5px solid black"">","","","","","","","",""
"","260.18500002101064","sequential-stimulus-presentation-old","51","173178","0.0-15.0-1.3","SS1618435653779","trial","","40","500","760.1850000210106","images/stimuli/spore_stims/simple_19_A_a.gif","images/stimuli/spore_stims/simple_09_A_b.gif","forced_long","","3","simple_dissimilar","images/stimuli/spore_stims/simple_09_A_b.gif","","","","",""
"","2611.5049999789335","survey-multi-choice","52","175795","0.0-16.0","SS1618435653779","math_question","","","","","","","","","","","","{""Q0"":""4""}","[0]","4","",""
"","null","html-keyboard-response","53","176813","0.0-17.0-0.0","SS1618435653779","","","null","","","","","","<p><img src= images/blank.png width =""600"" height = ""600"" style=""position:fixed;top:50%; left:50%; transform: translate(-50%, -50%); border:5px solid black"">","","","","","","","",""
"","609.5599999825936","sequential-stimulus-presentation-old","54","177486","0.0-17.0-1.0","SS1618435653779","trial","","40","500","1109.5599999825936","images/stimuli/spore_stims/complex_05_A_a.gif","images/stimuli/spore_stims/complex_13_A_b.gif","forced_short","","4","complex_dissimilar","images/stimuli/spore_stims/complex_13_A_b.gif","","","","",""
"","null","html-keyboard-response","55","178342","0.0-17.0-0.1","SS1618435653779","","","null","","","","","","<p><img src= images/blank.png width =""600"" height = ""600"" style=""position:fixed;top:50%; left:50%; transform: translate(-50%, -50%); border:5px solid black"">","","","","","","","",""
"","2900.8800000010524","sequential-stimulus-presentation-old","56","181752","0.0-17.0-1.1","SS1618435653779","trial","","40","500","3400.8800000010524","images/stimuli/spore_stims/complex_05_A_a.gif","images/stimuli/spore_stims/complex_13_A_b.gif","forced_short","","4","complex_dissimilar","images/stimuli/spore_stims/complex_13_A_b.gif","","","","",""
"","null","html-keyboard-response","57","182922","0.0-17.0-0.2","SS1618435653779","","","null","","","","","","<p><img src= images/blank.png width =""600"" height = ""600"" style=""position:fixed;top:50%; left:50%; transform: translate(-50%, -50%); border:5px solid black"">","","","","","","","",""
"","539.695000014035","sequential-stimulus-presentation-old","58","183968","0.0-17.0-1.2","SS1618435653779","trial","","40","500","1039.695000014035","images/stimuli/spore_stims/complex_05_A_a.gif","images/stimuli/spore_stims/complex_13_A_b.gif","forced_short","","4","complex_dissimilar","images/stimuli/spore_stims/complex_13_A_b.gif","","","","",""
"","null","html-keyboard-response","59","185199","0.0-17.0-0.3","SS1618435653779","","","null","","","","","","<p><img src= images/blank.png width =""600"" height = ""600"" style=""position:fixed;top:50%; left:50%; transform: translate(-50%, -50%); border:5px solid black"">","","","","","","","",""
"","39.970000012544915","sequential-stimulus-presentation-old","60","185744","0.0-17.0-1.3","SS1618435653779","trial","","40","500","539.9700000125449","images/stimuli/spore_stims/complex_05_A_a.gif","images/stimuli/spore_stims/complex_13_A_b.gif","forced_short","","4","complex_dissimilar","images/stimuli/spore_stims/complex_13_A_b.gif","","","","",""
"","null","html-keyboard-response","61","186769","0.0-17.0-0.4","SS1618435653779","","","null","","","","","","<p><img src= images/blank.png width =""600"" height = ""600"" style=""position:fixed;top:50%; left:50%; transform: translate(-50%, -50%); border:5px solid black"">","","","","","","","",""
"","16.314999986207113","sequential-stimulus-presentation-old","62","187296","0.0-17.0-1.4","SS1618435653779","trial","","40","500","516.3149999862071","images/stimuli/spore_stims/complex_05_A_a.gif","images/stimuli/spore_stims/complex_13_A_b.gif","forced_short","","4","complex_dissimilar","images/stimuli/spore_stims/complex_13_A_b.gif","","","","",""
"","null","html-keyboard-response","63","188106","0.0-17.0-0.5","SS1618435653779","","","null","","","","","","<p><img src= images/blank.png width =""600"" height = ""600"" style=""position:fixed;top:50%; left:50%; transform: translate(-50%, -50%); border:5px solid black"">","","","","","","","",""
"","3.105000010691583","sequential-stimulus-presentation-old","64","188616","0.0-17.0-1.5","SS1618435653779","trial","","40","500","503.1050000106916","images/stimuli/spore_stims/complex_05_A_a.gif","images/stimuli/spore_stims/complex_13_A_b.gif","forced_short","","4","complex_dissimilar","images/stimuli/spore_stims/complex_13_A_b.gif","","","","",""
"","7492.499999993015","survey-multi-choice","65","196116","0.0-18.0","SS1618435653779","math_question","","","","","","","","","","","","{""Q0"":""14""}","[0]","14","",""
"","null","html-keyboard-response","66","197247","0.0-19.0-0.0","SS1618435653779","","","null","","","","","","<p><img src= images/blank.png width =""600"" height = ""600"" style=""position:fixed;top:50%; left:50%; transform: translate(-50%, -50%); border:5px solid black"">","","","","","","","",""
"","415.32999998889863","sequential-stimulus-presentation-old","67","198171","0.0-19.0-1.0","SS1618435653779","trial","","40","500","915.3299999888986","images/stimuli/spore_stims/complex_03_A_a.gif","images/stimuli/spore_stims/complex_06_A_b.gif","self_paced","","5","complex_dissimilar","images/stimuli/spore_stims/complex_06_A_b.gif","","","","",""
"","null","html-keyboard-response","68","199365","0.0-19.0-0.1","SS1618435653779","","","null","","","","","","<p><img src= images/blank.png width =""600"" height = ""600"" style=""position:fixed;top:50%; left:50%; transform: translate(-50%, -50%); border:5px solid black"">","","","","","","","",""
"","95.76500000548549","sequential-stimulus-presentation-old","69","199973","0.0-19.0-1.1","SS1618435653779","trial","","40","500","595.7650000054855","images/stimuli/spore_stims/complex_03_A_a.gif","images/stimuli/spore_stims/complex_06_A_b.gif","self_paced","","5","complex_dissimilar","images/stimuli/spore_stims/complex_06_A_b.gif","","","","",""
"","null","html-keyboard-response","70","200970","0.0-19.0-0.2","SS1618435653779","","","null","","","","","","<p><img src= images/blank.png width =""600"" height = ""600"" style=""position:fixed;top:50%; left:50%; transform: translate(-50%, -50%); border:5px solid black"">","","","","","","","",""
"","1989.1749999951571","sequential-stimulus-presentation-old","71","203468","0.0-19.0-1.2","SS1618435653779","trial","","40","500","2489.174999995157","images/stimuli/spore_stims/complex_03_A_a.gif","images/stimuli/spore_stims/complex_06_A_b.gif","self_paced","","5","complex_dissimilar","images/stimuli/spore_stims/complex_06_A_b.gif","","","","",""
"","null","html-keyboard-response","72","204673","0.0-19.0-0.3","SS1618435653779","","","null","","","","","","<p><img src= images/blank.png width =""600"" height = ""600"" style=""position:fixed;top:50%; left:50%; transform: translate(-50%, -50%); border:5px solid black"">","","","","","","","",""
"","59.19999998877756","sequential-stimulus-presentation-old","73","205244","0.0-19.0-1.3","SS1618435653779","trial","","40","500","559.1999999887776","images/stimuli/spore_stims/complex_03_A_a.gif","images/stimuli/spore_stims/complex_06_A_b.gif","self_paced","","5","complex_dissimilar","images/stimuli/spore_stims/complex_06_A_b.gif","","","","",""
"","2819.9649999733083","survey-multi-choice","74","208070","0.0-20.0","SS1618435653779","math_question","","","","","","","","","","","","{""Q0"":""8""}","[0]","8","",""
"","null","html-keyboard-response","75","208991","0.0-21.0-0.0","SS1618435653779","","","null","","","","","","<p><img src= images/blank.png width =""600"" height = ""600"" style=""position:fixed;top:50%; left:50%; transform: translate(-50%, -50%); border:5px solid black"">","","","","","","","",""
"","486.0499999776948","sequential-stimulus-presentation-old","76","209985","0.0-21.0-1.0","SS1618435653779","trial","","40","500","986.0499999776948","images/stimuli/spore_stims/complex_01_A_a.gif","images/stimuli/spore_stims/complex_04_A_b.gif","self_paced","","6","complex_dissimilar","images/stimuli/spore_stims/complex_04_A_b.gif","","","","",""
"","null","html-keyboard-response","77","210881","0.0-21.0-0.1","SS1618435653779","","","null","","","","","","<p><img src= images/blank.png width =""600"" height = ""600"" style=""position:fixed;top:50%; left:50%; transform: translate(-50%, -50%); border:5px solid black"">","","","","","","","",""
"","426.6150000039488","sequential-stimulus-presentation-old","78","211819","0.0-21.0-1.1","SS1618435653779","trial","","40","500","926.6150000039488","images/stimuli/spore_stims/complex_01_A_a.gif","images/stimuli/spore_stims/complex_04_A_b.gif","self_paced","","6","complex_dissimilar","images/stimuli/spore_stims/complex_04_A_b.gif","","","","",""
"","null","html-keyboard-response","79","213057","0.0-21.0-0.2","SS1618435653779","","","null","","","","","","<p><img src= images/blank.png width =""600"" height = ""600"" style=""position:fixed;top:50%; left:50%; transform: translate(-50%, -50%); border:5px solid black"">","","","","","","","",""
"","15.639999997802079","sequential-stimulus-presentation-old","80","213579","0.0-21.0-1.2","SS1618435653779","trial","","40","500","515.6399999978021","images/stimuli/spore_stims/complex_01_A_a.gif","images/stimuli/spore_stims/complex_04_A_b.gif","self_paced","","6","complex_dissimilar","images/stimuli/spore_stims/complex_04_A_b.gif","","","","",""
"","null","html-keyboard-response","81","214758","0.0-21.0-0.3","SS1618435653779","","","null","","","","","","<p><img src= images/blank.png width =""600"" height = ""600"" style=""position:fixed;top:50%; left:50%; transform: translate(-50%, -50%); border:5px solid black"">","","","","","","","",""
"","101.29000002052635","sequential-stimulus-presentation-old","82","215372","0.0-21.0-1.3","SS1618435653779","trial","","40","500","601.2900000205263","images/stimuli/spore_stims/complex_01_A_a.gif","images/stimuli/spore_stims/complex_04_A_b.gif","self_paced","","6","complex_dissimilar","images/stimuli/spore_stims/complex_01_A_a.gif","","","","",""
"","null","html-keyboard-response","83","216349","0.0-21.0-0.4","SS1618435653779","","","null","","","","","","<p><img src= images/blank.png width =""600"" height = ""600"" style=""position:fixed;top:50%; left:50%; transform: translate(-50%, -50%); border:5px solid black"">","","","","","","","",""
"","42.84999999799766","sequential-stimulus-presentation-old","84","216900","0.0-21.0-1.4","SS1618435653779","trial","","40","500","542.8499999979977","images/stimuli/spore_stims/complex_01_A_a.gif","images/stimuli/spore_stims/complex_04_A_b.gif","self_paced","","6","complex_dissimilar","images/stimuli/spore_stims/complex_01_A_a.gif","","","","",""
"","3025.3999999840744","survey-multi-choice","85","219931","0.0-22.0","SS1618435653779","math_question","","","","","","","","","","","","{""Q0"":""10""}","[0]","10","",""
"","null","html-keyboard-response","86","220994","0.0-23.0-0.0","SS1618435653779","","","null","","","","","","<p><img src= images/blank.png width =""600"" height = ""600"" style=""position:fixed;top:50%; left:50%; transform: translate(-50%, -50%); border:5px solid black"">","","","","","","","",""
"","291.49999999208376","sequential-stimulus-presentation-old","87","221796","0.0-23.0-1.0","SS1618435653779","trial","","40","500","791.4999999920838","images/stimuli/spore_stims/simple_04_A_b.gif","images/stimuli/spore_stims/simple_03_A_a.gif","self_paced","","7","simple_dissimilar","images/stimuli/spore_stims/simple_03_A_a.gif","","","","",""
"","null","html-keyboard-response","88","222774","0.0-23.0-0.1","SS1618435653779","","","null","","","","","","<p><img src= images/blank.png width =""600"" height = ""600"" style=""position:fixed;top:50%; left:50%; transform: translate(-50%, -50%); border:5px solid black"">","","","","","","","",""
"","39.26499999943189","sequential-stimulus-presentation-old","89","223323","0.0-23.0-1.1","SS1618435653779","trial","","40","500","539.2649999994319","images/stimuli/spore_stims/simple_04_A_b.gif","images/stimuli/spore_stims/simple_03_A_a.gif","self_paced","","7","simple_dissimilar","images/stimuli/spore_stims/simple_03_A_a.gif","","","","",""
"","null","html-keyboard-response","90","224396","0.0-23.0-0.2","SS1618435653779","","","null","","","","","","<p><img src= images/blank.png width =""600"" height = ""600"" style=""position:fixed;top:50%; left:50%; transform: translate(-50%, -50%); border:5px solid black"">","","","","","","","",""
"","136.36000000406057","sequential-stimulus-presentation-old","91","225042","0.0-23.0-1.2","SS1618435653779","trial","","40","500","636.3600000040606","images/stimuli/spore_stims/simple_04_A_b.gif","images/stimuli/spore_stims/simple_03_A_a.gif","self_paced","","7","simple_dissimilar","images/stimuli/spore_stims/simple_04_A_b.gif","","","","",""
"","null","html-keyboard-response","92","226250","0.0-23.0-0.3","SS1618435653779","","","null","","","","","","<p><img src= images/blank.png width =""600"" height = ""600"" style=""position:fixed;top:50%; left:50%; transform: translate(-50%, -50%); border:5px solid black"">","","","","","","","",""
"","708.1649999890942","sequential-stimulus-presentation-old","93","227464","0.0-23.0-1.3","SS1618435653779","trial","","40","500","1208.1649999890942","images/stimuli/spore_stims/simple_04_A_b.gif","images/stimuli/spore_stims/simple_03_A_a.gif","self_paced","","7","simple_dissimilar","images/stimuli/spore_stims/simple_04_A_b.gif","","","","",""
"","null","html-keyboard-response","94","228505","0.0-23.0-0.4","SS1618435653779","","","null","","","","","","<p><img src= images/blank.png width =""600"" height = ""600"" style=""position:fixed;top:50%; left:50%; transform: translate(-50%, -50%); border:5px solid black"">","","","","","","","",""
"","326.11500000348315","sequential-stimulus-presentation-old","95","229341","0.0-23.0-1.4","SS1618435653779","trial","","40","500","826.1150000034831","images/stimuli/spore_stims/simple_04_A_b.gif","images/stimuli/spore_stims/simple_03_A_a.gif","self_paced","","7","simple_dissimilar","images/stimuli/spore_stims/simple_03_A_a.gif","","","","",""
"","2827.4549999914598","survey-multi-choice","96","232178","0.0-24.0","SS1618435653779","math_question","","","","","","","","","","","","{""Q0"":""13""}","[0]","13","",""
"","null","html-keyboard-response","97","233025","0.0-25.0-0.0","SS1618435653779","","","null","","","","","","<p><img src= images/blank.png width =""600"" height = ""600"" style=""position:fixed;top:50%; left:50%; transform: translate(-50%, -50%); border:5px solid black"">","","","","","","","",""
"","1029.2349999945145","sequential-stimulus-presentation-old","98","239068","0.0-25.0-1.0","SS1618435653779","trial","","40","500","1529.2349999945145","images/stimuli/spore_stims/complex_18_A_a.gif","images/stimuli/spore_stims/complex_16_A_b.gif","forced_long","","8","complex_dissimilar","images/stimuli/spore_stims/complex_16_A_b.gif","","","","",""
"","null","html-keyboard-response","99","240219","0.0-25.0-0.1","SS1618435653779","","","null","","","","","","<p><img src= images/blank.png width =""600"" height = ""600"" style=""position:fixed;top:50%; left:50%; transform: translate(-50%, -50%); border:5px solid black"">","","","","","","","",""
"","9243.195000017295","sequential-stimulus-presentation-old","100","250089","0.0-25.0-1.1","SS1618435653779","trial","","40","500","9743.195000017295","images/stimuli/spore_stims/complex_18_A_a.gif","images/stimuli/spore_stims/complex_16_A_b.gif","forced_long","","8","complex_dissimilar","images/stimuli/spore_stims/complex_16_A_b.gif","","","","",""
"","null","html-keyboard-response","101","251257","0.0-25.0-0.2","SS1618435653779","","","null","","","","","","<p><img src= images/blank.png width =""600"" height = ""600"" style=""position:fixed;top:50%; left:50%; transform: translate(-50%, -50%); border:5px solid black"">","","","","","","","",""
"","1068.954999995185","sequential-stimulus-presentation-old","102","252837","0.0-25.0-1.2","SS1618435653779","trial","","40","500","1568.954999995185","images/stimuli/spore_stims/complex_18_A_a.gif","images/stimuli/spore_stims/complex_16_A_b.gif","forced_long","","8","complex_dissimilar","images/stimuli/spore_stims/complex_16_A_b.gif","","","","",""
"","null","html-keyboard-response","103","253986","0.0-25.0-0.3","SS1618435653779","","","null","","","","","","<p><img src= images/blank.png width =""600"" height = ""600"" style=""position:fixed;top:50%; left:50%; transform: translate(-50%, -50%); border:5px solid black"">","","","","","","","",""
"","406.7149999900721","sequential-stimulus-presentation-old","104","254902","0.0-25.0-1.3","SS1618435653779","trial","","40","500","906.7149999900721","images/stimuli/spore_stims/complex_18_A_a.gif","images/stimuli/spore_stims/complex_16_A_b.gif","forced_long","","8","complex_dissimilar","images/stimuli/spore_stims/complex_18_A_a.gif","","","","",""
"","2746.180000016466","survey-multi-choice","105","257657","0.0-26.0","SS1618435653779","math_question","","","","","","","","","","","","{""Q0"":""9""}","[0]","9","",""
"","null","html-keyboard-response","106","258845","0.0-27.0-0.0","SS1618435653779","","","null","","","","","","<p><img src= images/blank.png width =""600"" height = ""600"" style=""position:fixed;top:50%; left:50%; transform: translate(-50%, -50%); border:5px solid black"">","","","","","","","",""
"","951.0600000212435","sequential-stimulus-presentation-old","107","260572","0.0-27.0-1.0","SS1618435653779","trial","","40","500","1451.0600000212435","images/stimuli/spore_stims/complex_16_A_a.gif","images/stimuli/spore_stims/complex_17_A_b.gif","forced_short","","9","complex_dissimilar","images/stimuli/spore_stims/complex_17_A_b.gif","","","","",""
"","null","html-keyboard-response","108","261814","0.0-27.0-0.1","SS1618435653779","","","null","","","","","","<p><img src= images/blank.png width =""600"" height = ""600"" style=""position:fixed;top:50%; left:50%; transform: translate(-50%, -50%); border:5px solid black"">","","","","","","","",""
"","271.3400000066031","sequential-stimulus-presentation-old","109","262596","0.0-27.0-1.1","SS1618435653779","trial","","40","500","771.3400000066031","images/stimuli/spore_stims/complex_16_A_a.gif","images/stimuli/spore_stims/complex_17_A_b.gif","forced_short","","9","complex_dissimilar","images/stimuli/spore_stims/complex_16_A_a.gif","","","","",""
"","null","html-keyboard-response","110","263567","0.0-27.0-0.2","SS1618435653779","","","null","","","","","","<p><img src= images/blank.png width =""600"" height = ""600"" style=""position:fixed;top:50%; left:50%; transform: translate(-50%, -50%); border:5px solid black"">","","","","","","","",""
"","13.204999995650724","sequential-stimulus-presentation-old","111","264092","0.0-27.0-1.2","SS1618435653779","trial","","40","500","513.2049999956507","images/stimuli/spore_stims/complex_16_A_a.gif","images/stimuli/spore_stims/complex_17_A_b.gif","forced_short","","9","complex_dissimilar","images/stimuli/spore_stims/complex_17_A_b.gif","","","","",""
"","null","html-keyboard-response","112","265285","0.0-27.0-0.3","SS1618435653779","","","null","","","","","","<p><img src= images/blank.png width =""600"" height = ""600"" style=""position:fixed;top:50%; left:50%; transform: translate(-50%, -50%); border:5px solid black"">","","","","","","","",""
"","208.9200000045821","sequential-stimulus-presentation-old","113","266009","0.0-27.0-1.3","SS1618435653779","trial","","40","500","708.9200000045821","images/stimuli/spore_stims/complex_16_A_a.gif","images/stimuli/spore_stims/complex_17_A_b.gif","forced_short","","9","complex_dissimilar","images/stimuli/spore_stims/complex_17_A_b.gif","","","","",""
"","null","html-keyboard-response","114","266884","0.0-27.0-0.4","SS1618435653779","","","null","","","","","","<p><img src= images/blank.png width =""600"" height = ""600"" style=""position:fixed;top:50%; left:50%; transform: translate(-50%, -50%); border:5px solid black"">","","","","","","","",""
"","224.27499998593703","sequential-stimulus-presentation-old","115","267619","0.0-27.0-1.4","SS1618435653779","trial","","40","500","724.274999985937","images/stimuli/spore_stims/complex_16_A_a.gif","images/stimuli/spore_stims/complex_17_A_b.gif","forced_short","","9","complex_dissimilar","images/stimuli/spore_stims/complex_17_A_b.gif","","","","",""
"","null","html-keyboard-response","116","268906","0.0-27.0-0.5","SS1618435653779","","","null","","","","","","<p><img src= images/blank.png width =""600"" height = ""600"" style=""position:fixed;top:50%; left:50%; transform: translate(-50%, -50%); border:5px solid black"">","","","","","","","",""
"","239.7449999989476","sequential-stimulus-presentation-old","117","269661","0.0-27.0-1.5","SS1618435653779","trial","","40","500","739.7449999989476","images/stimuli/spore_stims/complex_16_A_a.gif","images/stimuli/spore_stims/complex_17_A_b.gif","forced_short","","9","complex_dissimilar","images/stimuli/spore_stims/complex_17_A_b.gif","","","","",""
"","2693.410000007134","survey-multi-choice","118","272361","0.0-28.0","SS1618435653779","math_question","","","","","","","","","","","","{""Q0"":""5""}","[0]","5","",""
"","null","html-keyboard-response","119","273541","0.0-29.0-0.0","SS1618435653779","","","null","","","","","","<p><img src= images/blank.png width =""600"" height = ""600"" style=""position:fixed;top:50%; left:50%; transform: translate(-50%, -50%); border:5px solid black"">","","","","","","","",""
"","492.4250000040047","sequential-stimulus-presentation-old","120","279050","0.0-29.0-1.0","SS1618435653779","trial","","40","500","992.4250000040047","images/stimuli/spore_stims/simple_04_A_a.gif","images/stimuli/spore_stims/simple_13_A_b.gif","forced_long","","10","simple_dissimilar","images/stimuli/spore_stims/simple_13_A_b.gif","","","","",""
"","null","html-keyboard-response","121","280023","0.0-29.0-0.1","SS1618435653779","","","null","","","","","","<p><img src= images/blank.png width =""600"" height = ""600"" style=""position:fixed;top:50%; left:50%; transform: translate(-50%, -50%); border:5px solid black"">","","","","","","","",""
"","1027.3600000073202","sequential-stimulus-presentation-old","122","281565","0.0-29.0-1.1","SS1618435653779","trial","","40","500","1527.3600000073202","images/stimuli/spore_stims/simple_04_A_a.gif","images/stimuli/spore_stims/simple_13_A_b.gif","forced_long","","10","simple_dissimilar","images/stimuli/spore_stims/simple_13_A_b.gif","","","","",""
"","null","html-keyboard-response","123","282483","0.0-29.0-0.2","SS1618435653779","","","null","","","","","","<p><img src= images/blank.png width =""600"" height = ""600"" style=""position:fixed;top:50%; left:50%; transform: translate(-50%, -50%); border:5px solid black"">","","","","","","","",""
"","494.21500001335517","sequential-stimulus-presentation-old","124","283491","0.0-29.0-1.2","SS1618435653779","trial","","40","500","994.2150000133552","images/stimuli/spore_stims/simple_04_A_a.gif","images/stimuli/spore_stims/simple_13_A_b.gif","forced_long","","10","simple_dissimilar","images/stimuli/spore_stims/simple_04_A_a.gif","","","","",""
"","null","html-keyboard-response","125","284483","0.0-29.0-0.3","SS1618435653779","","","null","","","","","","<p><img src= images/blank.png width =""600"" height = ""600"" style=""position:fixed;top:50%; left:50%; transform: translate(-50%, -50%); border:5px solid black"">","","","","","","","",""
"","243.25999998836778","sequential-stimulus-presentation-old","126","285243","0.0-29.0-1.3","SS1618435653779","trial","","40","500","743.2599999883678","images/stimuli/spore_stims/simple_04_A_a.gif","images/stimuli/spore_stims/simple_13_A_b.gif","forced_long","","10","simple_dissimilar","images/stimuli/spore_stims/simple_04_A_a.gif","","","","",""
"","3077.5550000253133","survey-multi-choice","127","288328","0.0-30.0","SS1618435653779","math_question","","","","","","","","","","","","{""Q0"":""14""}","[0]","14","",""
"","null","html-keyboard-response","128","289311","0.0-31.0-0.0","SS1618435653779","","","null","","","","","","<p><img src= images/blank.png width =""600"" height = ""600"" style=""position:fixed;top:50%; left:50%; transform: translate(-50%, -50%); border:5px solid black"">","","","","","","","",""
"","280.79499999876134","sequential-stimulus-presentation-old","129","290107","0.0-31.0-1.0","SS1618435653779","trial","","40","500","780.7949999987613","images/stimuli/spore_stims/simple_01_A_b.gif","images/stimuli/spore_stims/simple_14_A_a.gif","self_paced","","11","simple_dissimilar","images/stimuli/spore_stims/simple_14_A_a.gif","","","","",""
"","null","html-keyboard-response","130","291087","0.0-31.0-0.1","SS1618435653779","","","null","","","","","","<p><img src= images/blank.png width =""600"" height = ""600"" style=""position:fixed;top:50%; left:50%; transform: translate(-50%, -50%); border:5px solid black"">","","","","","","","",""
"","81.4599999866914","sequential-stimulus-presentation-old","131","291684","0.0-31.0-1.1","SS1618435653779","trial","","40","500","581.4599999866914","images/stimuli/spore_stims/simple_01_A_b.gif","images/stimuli/spore_stims/simple_14_A_a.gif","self_paced","","11","simple_dissimilar","images/stimuli/spore_stims/simple_14_A_a.gif","","","","",""
"","null","html-keyboard-response","132","292606","0.0-31.0-0.2","SS1618435653779","","","null","","","","","","<p><img src= images/blank.png width =""600"" height = ""600"" style=""position:fixed;top:50%; left:50%; transform: translate(-50%, -50%); border:5px solid black"">","","","","","","","",""
"","10.550000006332994","sequential-stimulus-presentation-old","133","293128","0.0-31.0-1.2","SS1618435653779","trial","","40","500","510.550000006333","images/stimuli/spore_stims/simple_01_A_b.gif","images/stimuli/spore_stims/simple_14_A_a.gif","self_paced","","11","simple_dissimilar","images/stimuli/spore_stims/simple_14_A_a.gif","","","","",""
"","null","html-keyboard-response","134","294202","0.0-31.0-0.3","SS1618435653779","","","null","","","","","","<p><img src= images/blank.png width =""600"" height = ""600"" style=""position:fixed;top:50%; left:50%; transform: translate(-50%, -50%); border:5px solid black"">","","","","","","","",""
"","439.61500001023524","sequential-stimulus-presentation-old","135","295152","0.0-31.0-1.3","SS1618435653779","trial","","40","500","939.6150000102352","images/stimuli/spore_stims/simple_01_A_b.gif","images/stimuli/spore_stims/simple_14_A_a.gif","self_paced","","11","simple_dissimilar","images/stimuli/spore_stims/simple_14_A_a.gif","","","","",""
"[{""page_index"":0,""viewing_time"":8143.96499999566}]","8144.260000000941","instructions","136","303304","0.0-32.0","SS1618435653779","instructions","","","","","","","","","","","","","","","",""
"","7785.5949999939185","survey-likert","137","311100","0.0-33.0","SS1618435653779","similarity_question","","","","","","","","","","","","{""Q0"":4}","[0]","","images/stimuli/spore_stims/complex_01_A_a.gif","images/stimuli/spore_stims/complex_04_A_b.gif"
"","11398.805000004359","survey-likert","138","322508","0.0-34.0","SS1618435653779","similarity_question","","","","","","","","","","","","{""Q0"":4}","[0]","","images/stimuli/spore_stims/complex_18_A_a.gif","images/stimuli/spore_stims/complex_16_A_b.gif"
"","6454.380000010133","survey-likert","139","328973","0.0-35.0","SS1618435653779","similarity_question","","","","","","","","","","","","{""Q0"":1}","[0]","","images/stimuli/spore_stims/complex_13_A_b.gif","images/stimuli/spore_stims/complex_05_A_a.gif"
"","5137.354999984382","survey-likert","140","334122","0.0-36.0","SS1618435653779","similarity_question","","","","","","","","","","","","{""Q0"":5}","[0]","","images/stimuli/spore_stims/complex_17_A_b.gif","images/stimuli/spore_stims/complex_16_A_a.gif"
"","2719.904999976279","survey-likert","141","336851","0.0-37.0","SS1618435653779","similarity_question","","","","","","","","","","","","{""Q0"":4}","[0]","","images/stimuli/spore_stims/simple_13_A_b.gif","images/stimuli/spore_stims/simple_04_A_a.gif"
"","2677.255000016885","survey-likert","142","339539","0.0-38.0","SS1618435653779","similarity_question","","","","","","","","","","","","{""Q0"":4}","[0]","","images/stimuli/spore_stims/simple_05_A_b.gif","images/stimuli/spore_stims/simple_17_A_a.gif"
"","2857.6800000155345","survey-likert","143","342406","0.0-39.0","SS1618435653779","similarity_question","","","","","","","","","","","","{""Q0"":2}","[0]","","images/stimuli/spore_stims/complex_02_A_a.gif","images/stimuli/spore_stims/complex_12_A_b.gif"
"","5057.880000007572","survey-likert","144","347474","0.0-40.0","SS1618435653779","similarity_question","","","","","","","","","","","","{""Q0"":2}","[0]","","images/stimuli/spore_stims/simple_09_A_b.gif","images/stimuli/spore_stims/simple_19_A_a.gif"
"","2684.1150000109337","survey-likert","145","350168","0.0-41.0","SS1618435653779","similarity_question","","","","","","","","","","","","{""Q0"":2}","[0]","","images/stimuli/spore_stims/simple_05_A_a.gif","images/stimuli/spore_stims/simple_18_A_b.gif"
"","3266.010000021197","survey-likert","146","353444","0.0-42.0","SS1618435653779","similarity_question","","","","","","","","","","","","{""Q0"":2}","[0]","","images/stimuli/spore_stims/simple_03_A_a.gif","images/stimuli/spore_stims/simple_04_A_b.gif"
"","3735.7499999925494","survey-likert","147","357191","0.0-43.0","SS1618435653779","similarity_question","","","","","","","","","","","","{""Q0"":1}","[0]","","images/stimuli/spore_stims/complex_03_A_a.gif","images/stimuli/spore_stims/complex_06_A_b.gif"
"","5659.7900000051595","survey-likert","148","362859","0.0-44.0","SS1618435653779","similarity_question","","","","","","","","","","","","{""Q0"":6}","[0]","","images/stimuli/spore_stims/simple_01_A_b.gif","images/stimuli/spore_stims/simple_14_A_a.gif"
"[{""page_index"":0,""viewing_time"":5784.104999998817}]","5784.435000008671","instructions","149","368653","0.0-45.0","SS1618435653779","instructions","","","","","","","","","","","","","","","",""
"","2811.090000002878","survey-likert","150","371475","0.0-46.0","SS1618435653779","","","","","","","","","images/stimuli/spore_stims/complex_18_A_a.gif","","","","{""Q0"":5}","[0]","","",""
"","4179.184999986319","survey-likert","151","375665","0.0-47.0","SS1618435653779","","","","","","","","","images/stimuli/spore_stims/simple_09_A_b.gif","","","","{""Q0"":1}","[0]","","",""
"","2900.854999985313","survey-likert","152","378576","0.0-48.0","SS1618435653779","","","","","","","","","images/stimuli/spore_stims/complex_03_A_a.gif","","","","{""Q0"":4}","[0]","","",""
"","4570.565000001807","survey-likert","153","383157","0.0-49.0","SS1618435653779","","","","","","","","","images/stimuli/spore_stims/complex_02_A_a.gif","","","","{""Q0"":4}","[0]","","",""
"","3374.1600000066683","survey-likert","154","386541","0.0-50.0","SS1618435653779","","","","","","","","","images/stimuli/spore_stims/complex_13_A_b.gif","","","","{""Q0"":5}","[0]","","",""
"","3764.4649999856483","survey-likert","155","390315","0.0-51.0","SS1618435653779","","","","","","","","","images/stimuli/spore_stims/simple_04_A_b.gif","","","","{""Q0"":2}","[0]","","",""
"","3160.63500000746","survey-likert","156","393486","0.0-52.0","SS1618435653779","","","","","","","","","images/stimuli/spore_stims/complex_16_A_a.gif","","","","{""Q0"":5}","[0]","","",""
"","2778.9400000183377","survey-likert","157","396276","0.0-53.0","SS1618435653779","","","","","","","","","images/stimuli/spore_stims/simple_17_A_a.gif","","","","{""Q0"":2}","[0]","","",""
"","2631.569999997737","survey-likert","158","398917","0.0-54.0","SS1618435653779","","","","","","","","","images/stimuli/spore_stims/complex_04_A_b.gif","","","","{""Q0"":4}","[0]","","",""
"","3029.5249999908265","survey-likert","159","401958","0.0-55.0","SS1618435653779","","","","","","","","","images/stimuli/spore_stims/simple_04_A_a.gif","","","","{""Q0"":1}","[0]","","",""
"","4120.509999978822","survey-likert","160","406089","0.0-56.0","SS1618435653779","","","","","","","","","images/stimuli/spore_stims/simple_14_A_a.gif","","","","{""Q0"":2}","[0]","","",""
"","1826.070000010077","survey-likert","161","407926","0.0-57.0","SS1618435653779","","","","","","","","","images/stimuli/spore_stims/simple_18_A_b.gif","","","","{""Q0"":2}","[0]","","",""
"[{""page_index"":0,""viewing_time"":1547.4950000061654}]","1547.790000011446","instructions","162","409483","0.0-58.0","SS1618435653779","instructions","","","","","","","","","","","","","","","",""
"","3479.554999998072","demog-age","163","412975","0.0-59.0","SS1618435653779","","","","","","","","","","","","","{""age"":""20""}","","","",""
"","5511.685000004945","demog-ethnic-US","164","418501","0.0-60.0","SS1618435653779","","","","","","","","","","","","","{""ethnicity"":[""White""]}","[0]","","",""
"","5601.029999990715","demog-gender-and-education","165","424112","0.0-61.0","SS1618435653779","","","","","","","","","","","","","{""gender"":""Male"",""education"":""High school diploma""}","[0,1]","","",""
"","18609.150000003865","survey-text","166","442734","0.0-62.0","SS1618435653779","feedback","","","","","","","","","","","","{""Q0"":""Everything was fine""}","","","",""
"[{""page_index"":0,""viewing_time"":2133.0199999792967}]","2133.3099999756087","instructions","167","444878","0.0-63.0","SS1618435653779","instructions","","","","","","","","","","","","","","","",""
