"view_history","rt","trial_type","trial_index","time_elapsed","internal_node_id","subject","stimulus_type","trial_stimulus","key_press","minimum_viewing_duration","trial_looking_time","block_deviant","block_background","exposure_type","stimulus","block_number","block_type","stimulus_displayed","responses","question_order","math_correct_answer","stimulus_left","stimulus_right"
"[{""page_index"":0,""viewing_time"":9090.890000001309}]","9091.620000001058","instructions","0","9092","0.0-0.0","SS1618435619752","","","","","","","","","","","","","","","","",""
"[{""page_index"":0,""viewing_time"":13262.24000000002},{""page_index"":1,""viewing_time"":6713.034999998854}]","19975.39499999948","instructions","1","31070","0.0-1.0","SS1618435619752","instructions","","","","","","","","","","","","","","","",""
"","4949.619999999413","sequential-stimulus-presentation-old","2","36522","0.0-2.0","SS1618435619752","","","40","500","5449.619999999413","null","null","self_paced","","","","","","","","",""
"","5123.115000000325","sequential-stimulus-presentation-old","3","42147","0.0-3.0","SS1618435619752","","","40","500","5623.115000000325","null","null","self_paced","","","","","","","","",""
"[{""page_index"":0,""viewing_time"":17405.56999999899}]","17405.72499999871","instructions","4","59553","0.0-4.0","SS1618435619752","instructions","","","","","","","","","","","","","","","",""
"","541.6199999999662","sequential-stimulus-presentation-old","5","65100","0.0-5.0","SS1618435619752","","","40","500","1041.6199999999662","null","null","forced_long","","","","","","","","",""
"","5533.660000000964","sequential-stimulus-presentation-old","6","70685","0.0-6.0","SS1618435619752","","","40","50","5583.660000000964","null","null","forced_long","","","","","","","","",""
"[{""page_index"":0,""viewing_time"":3181.480000001102}]","3181.620000001203","instructions","7","73867","0.0-7.0","SS1618435619752","instructions","","","","","","","","","","","","","","","",""
"[{""page_index"":0,""viewing_time"":7472.205000000031},{""page_index"":1,""viewing_time"":6873.075000001336},{""page_index"":2,""viewing_time"":3648.0199999987235},{""page_index"":3,""viewing_time"":1168.2899999996152},{""page_index"":4,""viewing_time"":1032.1100000001024}]","20193.88500000059","instructions","8","94062","0.0-8.0","SS1618435619752","instructions","","","","","","","","","","","","","","","",""
"","null","html-keyboard-response","9","95195","0.0-9.0-0.0","SS1618435619752","","","null","","","","","","<p><img src= images/blank.png width =""600"" height = ""600"" style=""position:fixed;top:50%; left:50%; transform: translate(-50%, -50%); border:5px solid black"">","","","","","","","",""
"","488.7650000000576","sequential-stimulus-presentation-old","10","100686","0.0-9.0-1.0","SS1618435619752","trial","","40","500","988.7650000000576","images/stimuli/spore_stims/complex_14_A_b.gif","images/stimuli/spore_stims/complex_12_A_a.gif","forced_long","","0","complex_dissimilar","images/stimuli/spore_stims/complex_12_A_a.gif","","","","",""
"","null","html-keyboard-response","11","101964","0.0-9.0-0.1","SS1618435619752","","","null","","","","","","<p><img src= images/blank.png width =""600"" height = ""600"" style=""position:fixed;top:50%; left:50%; transform: translate(-50%, -50%); border:5px solid black"">","","","","","","","",""
"","18736.98500000137","sequential-stimulus-presentation-old","12","121212","0.0-9.0-1.1","SS1618435619752","trial","","40","500","19236.98500000137","images/stimuli/spore_stims/complex_14_A_b.gif","images/stimuli/spore_stims/complex_12_A_a.gif","forced_long","","0","complex_dissimilar","images/stimuli/spore_stims/complex_12_A_a.gif","","","","",""
"","null","html-keyboard-response","13","122031","0.0-9.0-0.2","SS1618435619752","","","null","","","","","","<p><img src= images/blank.png width =""600"" height = ""600"" style=""position:fixed;top:50%; left:50%; transform: translate(-50%, -50%); border:5px solid black"">","","","","","","","",""
"","11346.709999999788","sequential-stimulus-presentation-old","14","133888","0.0-9.0-1.2","SS1618435619752","trial","","40","500","11846.709999999788","images/stimuli/spore_stims/complex_14_A_b.gif","images/stimuli/spore_stims/complex_12_A_a.gif","forced_long","","0","complex_dissimilar","images/stimuli/spore_stims/complex_12_A_a.gif","","","","",""
"","null","html-keyboard-response","15","135058","0.0-9.0-0.3","SS1618435619752","","","null","","","","","","<p><img src= images/blank.png width =""600"" height = ""600"" style=""position:fixed;top:50%; left:50%; transform: translate(-50%, -50%); border:5px solid black"">","","","","","","","",""
"","8113.624999999942","sequential-stimulus-presentation-old","16","143674","0.0-9.0-1.3","SS1618435619752","trial","","40","500","8613.624999999942","images/stimuli/spore_stims/complex_14_A_b.gif","images/stimuli/spore_stims/complex_12_A_a.gif","forced_long","","0","complex_dissimilar","images/stimuli/spore_stims/complex_12_A_a.gif","","","","",""
"","null","html-keyboard-response","17","144785","0.0-9.0-0.4","SS1618435619752","","","null","","","","","","<p><img src= images/blank.png width =""600"" height = ""600"" style=""position:fixed;top:50%; left:50%; transform: translate(-50%, -50%); border:5px solid black"">","","","","","","","",""
"","3657.0499999998137","sequential-stimulus-presentation-old","18","148951","0.0-9.0-1.4","SS1618435619752","trial","","40","500","4157.049999999814","images/stimuli/spore_stims/complex_14_A_b.gif","images/stimuli/spore_stims/complex_12_A_a.gif","forced_long","","0","complex_dissimilar","images/stimuli/spore_stims/complex_12_A_a.gif","","","","",""
"","2690.5799999986193","survey-multi-choice","19","151645","0.0-10.0","SS1618435619752","math_question","","","","","","","","","","","","{""Q0"":""5""}","[0]","5","",""
"","null","html-keyboard-response","20","152553","0.0-11.0-0.0","SS1618435619752","","","null","","","","","","<p><img src= images/blank.png width =""600"" height = ""600"" style=""position:fixed;top:50%; left:50%; transform: translate(-50%, -50%); border:5px solid black"">","","","","","","","",""
"","314.67499999961","sequential-stimulus-presentation-old","21","157879","0.0-11.0-1.0","SS1618435619752","trial","","40","500","814.67499999961","images/stimuli/spore_stims/simple_09_A_b.gif","images/stimuli/spore_stims/simple_17_A_a.gif","forced_long","","1","simple_dissimilar","images/stimuli/spore_stims/simple_17_A_a.gif","","","","",""
"","null","html-keyboard-response","22","159064","0.0-11.0-0.1","SS1618435619752","","","null","","","","","","<p><img src= images/blank.png width =""600"" height = ""600"" style=""position:fixed;top:50%; left:50%; transform: translate(-50%, -50%); border:5px solid black"">","","","","","","","",""
"","8819.27499999982","sequential-stimulus-presentation-old","23","168384","0.0-11.0-1.1","SS1618435619752","trial","","40","500","9319.27499999982","images/stimuli/spore_stims/simple_09_A_b.gif","images/stimuli/spore_stims/simple_17_A_a.gif","forced_long","","1","simple_dissimilar","images/stimuli/spore_stims/simple_17_A_a.gif","","","","",""
"","null","html-keyboard-response","24","169457","0.0-11.0-0.2","SS1618435619752","","","null","","","","","","<p><img src= images/blank.png width =""600"" height = ""600"" style=""position:fixed;top:50%; left:50%; transform: translate(-50%, -50%); border:5px solid black"">","","","","","","","",""
"","953.934999999532","sequential-stimulus-presentation-old","25","170914","0.0-11.0-1.2","SS1618435619752","trial","","40","500","1453.934999999532","images/stimuli/spore_stims/simple_09_A_b.gif","images/stimuli/spore_stims/simple_17_A_a.gif","forced_long","","1","simple_dissimilar","images/stimuli/spore_stims/simple_17_A_a.gif","","","","",""
"","null","html-keyboard-response","26","171901","0.0-11.0-0.3","SS1618435619752","","","null","","","","","","<p><img src= images/blank.png width =""600"" height = ""600"" style=""position:fixed;top:50%; left:50%; transform: translate(-50%, -50%); border:5px solid black"">","","","","","","","",""
"","4494.310000000027","sequential-stimulus-presentation-old","27","176908","0.0-11.0-1.3","SS1618435619752","trial","","40","500","4994.310000000027","images/stimuli/spore_stims/simple_09_A_b.gif","images/stimuli/spore_stims/simple_17_A_a.gif","forced_long","","1","simple_dissimilar","images/stimuli/spore_stims/simple_17_A_a.gif","","","","",""
"","null","html-keyboard-response","28","177915","0.0-11.0-0.4","SS1618435619752","","","null","","","","","","<p><img src= images/blank.png width =""600"" height = ""600"" style=""position:fixed;top:50%; left:50%; transform: translate(-50%, -50%); border:5px solid black"">","","","","","","","",""
"","13953.929999999673","sequential-stimulus-presentation-old","29","192372","0.0-11.0-1.4","SS1618435619752","trial","","40","500","14453.929999999673","images/stimuli/spore_stims/simple_09_A_b.gif","images/stimuli/spore_stims/simple_17_A_a.gif","forced_long","","1","simple_dissimilar","images/stimuli/spore_stims/simple_09_A_b.gif","","","","",""
"","null","html-keyboard-response","30","193472","0.0-11.0-0.5","SS1618435619752","","","null","","","","","","<p><img src= images/blank.png width =""600"" height = ""600"" style=""position:fixed;top:50%; left:50%; transform: translate(-50%, -50%); border:5px solid black"">","","","","","","","",""
"","9637.950000000303","sequential-stimulus-presentation-old","31","203613","0.0-11.0-1.5","SS1618435619752","trial","","40","500","10137.950000000303","images/stimuli/spore_stims/simple_09_A_b.gif","images/stimuli/spore_stims/simple_17_A_a.gif","forced_long","","1","simple_dissimilar","images/stimuli/spore_stims/simple_09_A_b.gif","","","","",""
"","2485.6149999996123","survey-multi-choice","32","206100","0.0-12.0","SS1618435619752","math_question","","","","","","","","","","","","{""Q0"":""5""}","[0]","5","",""
"","null","html-keyboard-response","33","206914","0.0-13.0-0.0","SS1618435619752","","","null","","","","","","<p><img src= images/blank.png width =""600"" height = ""600"" style=""position:fixed;top:50%; left:50%; transform: translate(-50%, -50%); border:5px solid black"">","","","","","","","",""
"","1070.6599999993923","sequential-stimulus-presentation-old","34","208048","0.0-13.0-1.0","SS1618435619752","trial","","40","500","1570.6599999993923","images/stimuli/spore_stims/complex_06_A_b.gif","images/stimuli/spore_stims/complex_10_A_a.gif","forced_short","","2","complex_dissimilar","images/stimuli/spore_stims/complex_10_A_a.gif","","","","",""
"","null","html-keyboard-response","35","209311","0.0-13.0-0.1","SS1618435619752","","","null","","","","","","<p><img src= images/blank.png width =""600"" height = ""600"" style=""position:fixed;top:50%; left:50%; transform: translate(-50%, -50%); border:5px solid black"">","","","","","","","",""
"","3585.2149999991525","sequential-stimulus-presentation-old","36","213408","0.0-13.0-1.1","SS1618435619752","trial","","40","500","4085.2149999991525","images/stimuli/spore_stims/complex_06_A_b.gif","images/stimuli/spore_stims/complex_10_A_a.gif","forced_short","","2","complex_dissimilar","images/stimuli/spore_stims/complex_10_A_a.gif","","","","",""
"","null","html-keyboard-response","37","214311","0.0-13.0-0.2","SS1618435619752","","","null","","","","","","<p><img src= images/blank.png width =""600"" height = ""600"" style=""position:fixed;top:50%; left:50%; transform: translate(-50%, -50%); border:5px solid black"">","","","","","","","",""
"","1074.880000000121","sequential-stimulus-presentation-old","38","215896","0.0-13.0-1.2","SS1618435619752","trial","","40","500","1574.880000000121","images/stimuli/spore_stims/complex_06_A_b.gif","images/stimuli/spore_stims/complex_10_A_a.gif","forced_short","","2","complex_dissimilar","images/stimuli/spore_stims/complex_10_A_a.gif","","","","",""
"","null","html-keyboard-response","39","216864","0.0-13.0-0.3","SS1618435619752","","","null","","","","","","<p><img src= images/blank.png width =""600"" height = ""600"" style=""position:fixed;top:50%; left:50%; transform: translate(-50%, -50%); border:5px solid black"">","","","","","","","",""
"","353.7999999989697","sequential-stimulus-presentation-old","40","217729","0.0-13.0-1.3","SS1618435619752","trial","","40","500","853.7999999989697","images/stimuli/spore_stims/complex_06_A_b.gif","images/stimuli/spore_stims/complex_10_A_a.gif","forced_short","","2","complex_dissimilar","images/stimuli/spore_stims/complex_10_A_a.gif","","","","",""
"","null","html-keyboard-response","41","218590","0.0-13.0-0.4","SS1618435619752","","","null","","","","","","<p><img src= images/blank.png width =""600"" height = ""600"" style=""position:fixed;top:50%; left:50%; transform: translate(-50%, -50%); border:5px solid black"">","","","","","","","",""
"","1243.889999999723","sequential-stimulus-presentation-old","42","220341","0.0-13.0-1.4","SS1618435619752","trial","","40","500","1743.889999999723","images/stimuli/spore_stims/complex_06_A_b.gif","images/stimuli/spore_stims/complex_10_A_a.gif","forced_short","","2","complex_dissimilar","images/stimuli/spore_stims/complex_10_A_a.gif","","","","",""
"","2263.0599999993283","survey-multi-choice","43","222605","0.0-14.0","SS1618435619752","math_question","","","","","","","","","","","","{""Q0"":""6""}","[0]","6","",""
"","null","html-keyboard-response","44","223664","0.0-15.0-0.0","SS1618435619752","","","null","","","","","","<p><img src= images/blank.png width =""600"" height = ""600"" style=""position:fixed;top:50%; left:50%; transform: translate(-50%, -50%); border:5px solid black"">","","","","","","","",""
"","518.0849999997008","sequential-stimulus-presentation-old","45","229185","0.0-15.0-1.0","SS1618435619752","trial","","40","500","1018.0849999997008","images/stimuli/spore_stims/complex_19_A_b.gif","images/stimuli/spore_stims/complex_06_A_a.gif","forced_long","","3","complex_dissimilar","images/stimuli/spore_stims/complex_06_A_a.gif","","","","",""
"","null","html-keyboard-response","46","230350","0.0-15.0-0.1","SS1618435619752","","","null","","","","","","<p><img src= images/blank.png width =""600"" height = ""600"" style=""position:fixed;top:50%; left:50%; transform: translate(-50%, -50%); border:5px solid black"">","","","","","","","",""
"","2686.4399999995076","sequential-stimulus-presentation-old","47","233539","0.0-15.0-1.1","SS1618435619752","trial","","40","500","3186.4399999995076","images/stimuli/spore_stims/complex_19_A_b.gif","images/stimuli/spore_stims/complex_06_A_a.gif","forced_long","","3","complex_dissimilar","images/stimuli/spore_stims/complex_06_A_a.gif","","","","",""
"","null","html-keyboard-response","48","234559","0.0-15.0-0.2","SS1618435619752","","","null","","","","","","<p><img src= images/blank.png width =""600"" height = ""600"" style=""position:fixed;top:50%; left:50%; transform: translate(-50%, -50%); border:5px solid black"">","","","","","","","",""
"","9248.270000000048","sequential-stimulus-presentation-old","49","244311","0.0-15.0-1.2","SS1618435619752","trial","","40","500","9748.270000000048","images/stimuli/spore_stims/complex_19_A_b.gif","images/stimuli/spore_stims/complex_06_A_a.gif","forced_long","","3","complex_dissimilar","images/stimuli/spore_stims/complex_06_A_a.gif","","","","",""
"","null","html-keyboard-response","50","245503","0.0-15.0-0.3","SS1618435619752","","","null","","","","","","<p><img src= images/blank.png width =""600"" height = ""600"" style=""position:fixed;top:50%; left:50%; transform: translate(-50%, -50%); border:5px solid black"">","","","","","","","",""
"","6182.989999999321","sequential-stimulus-presentation-old","51","252189","0.0-15.0-1.3","SS1618435619752","trial","","40","500","6682.989999999321","images/stimuli/spore_stims/complex_19_A_b.gif","images/stimuli/spore_stims/complex_06_A_a.gif","forced_long","","3","complex_dissimilar","images/stimuli/spore_stims/complex_06_A_a.gif","","","","",""
"","null","html-keyboard-response","52","253389","0.0-15.0-0.4","SS1618435619752","","","null","","","","","","<p><img src= images/blank.png width =""600"" height = ""600"" style=""position:fixed;top:50%; left:50%; transform: translate(-50%, -50%); border:5px solid black"">","","","","","","","",""
"","1053.6499999998196","sequential-stimulus-presentation-old","53","254945","0.0-15.0-1.4","SS1618435619752","trial","","40","500","1553.6499999998196","images/stimuli/spore_stims/complex_19_A_b.gif","images/stimuli/spore_stims/complex_06_A_a.gif","forced_long","","3","complex_dissimilar","images/stimuli/spore_stims/complex_06_A_a.gif","","","","",""
"","2382.2449999988894","survey-multi-choice","54","257329","0.0-16.0","SS1618435619752","math_question","","","","","","","","","","","","{""Q0"":""16""}","[0]","16","",""
"","null","html-keyboard-response","55","258331","0.0-17.0-0.0","SS1618435619752","","","null","","","","","","<p><img src= images/blank.png width =""600"" height = ""600"" style=""position:fixed;top:50%; left:50%; transform: translate(-50%, -50%); border:5px solid black"">","","","","","","","",""
"","3170.5849999998463","sequential-stimulus-presentation-old","56","262005","0.0-17.0-1.0","SS1618435619752","trial","","40","500","3670.5849999998463","images/stimuli/spore_stims/complex_08_A_b.gif","images/stimuli/spore_stims/complex_07_A_a.gif","self_paced","","4","complex_dissimilar","images/stimuli/spore_stims/complex_07_A_a.gif","","","","",""
"","null","html-keyboard-response","57","263216","0.0-17.0-0.1","SS1618435619752","","","null","","","","","","<p><img src= images/blank.png width =""600"" height = ""600"" style=""position:fixed;top:50%; left:50%; transform: translate(-50%, -50%); border:5px solid black"">","","","","","","","",""
"","384.46500000101514","sequential-stimulus-presentation-old","58","264103","0.0-17.0-1.1","SS1618435619752","trial","","40","500","884.4650000010151","images/stimuli/spore_stims/complex_08_A_b.gif","images/stimuli/spore_stims/complex_07_A_a.gif","self_paced","","4","complex_dissimilar","images/stimuli/spore_stims/complex_07_A_a.gif","","","","",""
"","null","html-keyboard-response","59","265352","0.0-17.0-0.2","SS1618435619752","","","null","","","","","","<p><img src= images/blank.png width =""600"" height = ""600"" style=""position:fixed;top:50%; left:50%; transform: translate(-50%, -50%); border:5px solid black"">","","","","","","","",""
"","1874.1150000005728","sequential-stimulus-presentation-old","60","267738","0.0-17.0-1.2","SS1618435619752","trial","","40","500","2374.1150000005728","images/stimuli/spore_stims/complex_08_A_b.gif","images/stimuli/spore_stims/complex_07_A_a.gif","self_paced","","4","complex_dissimilar","images/stimuli/spore_stims/complex_07_A_a.gif","","","","",""
"","null","html-keyboard-response","61","268923","0.0-17.0-0.3","SS1618435619752","","","null","","","","","","<p><img src= images/blank.png width =""600"" height = ""600"" style=""position:fixed;top:50%; left:50%; transform: translate(-50%, -50%); border:5px solid black"">","","","","","","","",""
"","2572.149999999965","sequential-stimulus-presentation-old","62","272008","0.0-17.0-1.3","SS1618435619752","trial","","40","500","3072.149999999965","images/stimuli/spore_stims/complex_08_A_b.gif","images/stimuli/spore_stims/complex_07_A_a.gif","self_paced","","4","complex_dissimilar","images/stimuli/spore_stims/complex_08_A_b.gif","","","","",""
"","null","html-keyboard-response","63","273072","0.0-17.0-0.4","SS1618435619752","","","null","","","","","","<p><img src= images/blank.png width =""600"" height = ""600"" style=""position:fixed;top:50%; left:50%; transform: translate(-50%, -50%); border:5px solid black"">","","","","","","","",""
"","1105.7300000011455","sequential-stimulus-presentation-old","64","274680","0.0-17.0-1.4","SS1618435619752","trial","","40","500","1605.7300000011455","images/stimuli/spore_stims/complex_08_A_b.gif","images/stimuli/spore_stims/complex_07_A_a.gif","self_paced","","4","complex_dissimilar","images/stimuli/spore_stims/complex_07_A_a.gif","","","","",""
"","null","html-keyboard-response","65","275883","0.0-17.0-0.5","SS1618435619752","","","null","","","","","","<p><img src= images/blank.png width =""600"" height = ""600"" style=""position:fixed;top:50%; left:50%; transform: translate(-50%, -50%); border:5px solid black"">","","","","","","","",""
"","672.4849999991711","sequential-stimulus-presentation-old","66","277066","0.0-17.0-1.5","SS1618435619752","trial","","40","500","1172.4849999991711","images/stimuli/spore_stims/complex_08_A_b.gif","images/stimuli/spore_stims/complex_07_A_a.gif","self_paced","","4","complex_dissimilar","images/stimuli/spore_stims/complex_07_A_a.gif","","","","",""
"","2345.1949999998906","survey-multi-choice","67","279413","0.0-18.0","SS1618435619752","math_question","","","","","","","","","","","","{""Q0"":""6""}","[0]","6","",""
"","null","html-keyboard-response","68","280607","0.0-19.0-0.0","SS1618435619752","","","null","","","","","","<p><img src= images/blank.png width =""600"" height = ""600"" style=""position:fixed;top:50%; left:50%; transform: translate(-50%, -50%); border:5px solid black"">","","","","","","","",""
"","768.024999999383","sequential-stimulus-presentation-old","69","281438","0.0-19.0-1.0","SS1618435619752","trial","","40","500","1268.024999999383","images/stimuli/spore_stims/simple_07_A_a.gif","images/stimuli/spore_stims/simple_03_A_b.gif","forced_short","","5","simple_dissimilar","images/stimuli/spore_stims/simple_03_A_b.gif","","","","",""
"","null","html-keyboard-response","70","282298","0.0-19.0-0.1","SS1618435619752","","","null","","","","","","<p><img src= images/blank.png width =""600"" height = ""600"" style=""position:fixed;top:50%; left:50%; transform: translate(-50%, -50%); border:5px solid black"">","","","","","","","",""
"","2807.3150000000023","sequential-stimulus-presentation-old","71","285608","0.0-19.0-1.1","SS1618435619752","trial","","40","500","3307.3150000000023","images/stimuli/spore_stims/simple_07_A_a.gif","images/stimuli/spore_stims/simple_03_A_b.gif","forced_short","","5","simple_dissimilar","images/stimuli/spore_stims/simple_03_A_b.gif","","","","",""
"","null","html-keyboard-response","72","286821","0.0-19.0-0.2","SS1618435619752","","","null","","","","","","<p><img src= images/blank.png width =""600"" height = ""600"" style=""position:fixed;top:50%; left:50%; transform: translate(-50%, -50%); border:5px solid black"">","","","","","","","",""
"","1681.8999999996158","sequential-stimulus-presentation-old","73","289005","0.0-19.0-1.2","SS1618435619752","trial","","40","500","2181.899999999616","images/stimuli/spore_stims/simple_07_A_a.gif","images/stimuli/spore_stims/simple_03_A_b.gif","forced_short","","5","simple_dissimilar","images/stimuli/spore_stims/simple_03_A_b.gif","","","","",""
"","null","html-keyboard-response","74","290008","0.0-19.0-0.3","SS1618435619752","","","null","","","","","","<p><img src= images/blank.png width =""600"" height = ""600"" style=""position:fixed;top:50%; left:50%; transform: translate(-50%, -50%); border:5px solid black"">","","","","","","","",""
"","1283.13499999966","sequential-stimulus-presentation-old","75","291800","0.0-19.0-1.3","SS1618435619752","trial","","40","500","1783.13499999966","images/stimuli/spore_stims/simple_07_A_a.gif","images/stimuli/spore_stims/simple_03_A_b.gif","forced_short","","5","simple_dissimilar","images/stimuli/spore_stims/simple_03_A_b.gif","","","","",""
"","null","html-keyboard-response","76","292960","0.0-19.0-0.4","SS1618435619752","","","null","","","","","","<p><img src= images/blank.png width =""600"" height = ""600"" style=""position:fixed;top:50%; left:50%; transform: translate(-50%, -50%); border:5px solid black"">","","","","","","","",""
"","2699.04999999929","sequential-stimulus-presentation-old","77","296161","0.0-19.0-1.4","SS1618435619752","trial","","40","500","3199.04999999929","images/stimuli/spore_stims/simple_07_A_a.gif","images/stimuli/spore_stims/simple_03_A_b.gif","forced_short","","5","simple_dissimilar","images/stimuli/spore_stims/simple_03_A_b.gif","","","","",""
"","2291.940000000992","survey-multi-choice","78","298455","0.0-20.0","SS1618435619752","math_question","","","","","","","","","","","","{""Q0"":""15""}","[0]","15","",""
"","null","html-keyboard-response","79","299332","0.0-21.0-0.0","SS1618435619752","","","null","","","","","","<p><img src= images/blank.png width =""600"" height = ""600"" style=""position:fixed;top:50%; left:50%; transform: translate(-50%, -50%); border:5px solid black"">","","","","","","","",""
"","638.3100000002887","sequential-stimulus-presentation-old","80","300024","0.0-21.0-1.0","SS1618435619752","trial","","40","500","1138.3100000002887","images/stimuli/spore_stims/simple_08_A_a.gif","images/stimuli/spore_stims/simple_02_A_b.gif","forced_short","","6","simple_dissimilar","images/stimuli/spore_stims/simple_02_A_b.gif","","","","",""
"","null","html-keyboard-response","81","300896","0.0-21.0-0.1","SS1618435619752","","","null","","","","","","<p><img src= images/blank.png width =""600"" height = ""600"" style=""position:fixed;top:50%; left:50%; transform: translate(-50%, -50%); border:5px solid black"">","","","","","","","",""
"","1751.4299999984214","sequential-stimulus-presentation-old","82","303149","0.0-21.0-1.1","SS1618435619752","trial","","40","500","2251.4299999984214","images/stimuli/spore_stims/simple_08_A_a.gif","images/stimuli/spore_stims/simple_02_A_b.gif","forced_short","","6","simple_dissimilar","images/stimuli/spore_stims/simple_02_A_b.gif","","","","",""
"","null","html-keyboard-response","83","304282","0.0-21.0-0.2","SS1618435619752","","","null","","","","","","<p><img src= images/blank.png width =""600"" height = ""600"" style=""position:fixed;top:50%; left:50%; transform: translate(-50%, -50%); border:5px solid black"">","","","","","","","",""
"","321.88500000117347","sequential-stimulus-presentation-old","84","305106","0.0-21.0-1.2","SS1618435619752","trial","","40","500","821.8850000011735","images/stimuli/spore_stims/simple_08_A_a.gif","images/stimuli/spore_stims/simple_02_A_b.gif","forced_short","","6","simple_dissimilar","images/stimuli/spore_stims/simple_02_A_b.gif","","","","",""
"","null","html-keyboard-response","85","305956","0.0-21.0-0.3","SS1618435619752","","","null","","","","","","<p><img src= images/blank.png width =""600"" height = ""600"" style=""position:fixed;top:50%; left:50%; transform: translate(-50%, -50%); border:5px solid black"">","","","","","","","",""
"","719.5999999985797","sequential-stimulus-presentation-old","86","307185","0.0-21.0-1.3","SS1618435619752","trial","","40","500","1219.5999999985797","images/stimuli/spore_stims/simple_08_A_a.gif","images/stimuli/spore_stims/simple_02_A_b.gif","forced_short","","6","simple_dissimilar","images/stimuli/spore_stims/simple_02_A_b.gif","","","","",""
"","2445.105000000738","survey-multi-choice","87","309632","0.0-22.0","SS1618435619752","math_question","","","","","","","","","","","","{""Q0"":""13""}","[0]","13","",""
"","null","html-keyboard-response","88","310698","0.0-23.0-0.0","SS1618435619752","","","null","","","","","","<p><img src= images/blank.png width =""600"" height = ""600"" style=""position:fixed;top:50%; left:50%; transform: translate(-50%, -50%); border:5px solid black"">","","","","","","","",""
"","2357.380000001285","sequential-stimulus-presentation-old","89","318058","0.0-23.0-1.0","SS1618435619752","trial","","40","500","2857.380000001285","images/stimuli/spore_stims/simple_08_A_b.gif","images/stimuli/spore_stims/simple_02_A_a.gif","forced_long","","7","simple_dissimilar","images/stimuli/spore_stims/simple_02_A_a.gif","","","","",""
"","null","html-keyboard-response","90","319238","0.0-23.0-0.1","SS1618435619752","","","null","","","","","","<p><img src= images/blank.png width =""600"" height = ""600"" style=""position:fixed;top:50%; left:50%; transform: translate(-50%, -50%); border:5px solid black"">","","","","","","","",""
"","2807.914999999397","sequential-stimulus-presentation-old","91","322557","0.0-23.0-1.1","SS1618435619752","trial","","40","500","3307.914999999397","images/stimuli/spore_stims/simple_08_A_b.gif","images/stimuli/spore_stims/simple_02_A_a.gif","forced_long","","7","simple_dissimilar","images/stimuli/spore_stims/simple_08_A_b.gif","","","","",""
"","null","html-keyboard-response","92","323689","0.0-23.0-0.2","SS1618435619752","","","null","","","","","","<p><img src= images/blank.png width =""600"" height = ""600"" style=""position:fixed;top:50%; left:50%; transform: translate(-50%, -50%); border:5px solid black"">","","","","","","","",""
"","463.4299999998184","sequential-stimulus-presentation-old","93","324656","0.0-23.0-1.2","SS1618435619752","trial","","40","500","963.4299999998184","images/stimuli/spore_stims/simple_08_A_b.gif","images/stimuli/spore_stims/simple_02_A_a.gif","forced_long","","7","simple_dissimilar","images/stimuli/spore_stims/simple_02_A_a.gif","","","","",""
"","null","html-keyboard-response","94","325826","0.0-23.0-0.3","SS1618435619752","","","null","","","","","","<p><img src= images/blank.png width =""600"" height = ""600"" style=""position:fixed;top:50%; left:50%; transform: translate(-50%, -50%); border:5px solid black"">","","","","","","","",""
"","372.7300000009709","sequential-stimulus-presentation-old","95","326701","0.0-23.0-1.3","SS1618435619752","trial","","40","500","872.7300000009709","images/stimuli/spore_stims/simple_08_A_b.gif","images/stimuli/spore_stims/simple_02_A_a.gif","forced_long","","7","simple_dissimilar","images/stimuli/spore_stims/simple_02_A_a.gif","","","","",""
"","null","html-keyboard-response","96","327599","0.0-23.0-0.4","SS1618435619752","","","null","","","","","","<p><img src= images/blank.png width =""600"" height = ""600"" style=""position:fixed;top:50%; left:50%; transform: translate(-50%, -50%); border:5px solid black"">","","","","","","","",""
"","297.3299999994342","sequential-stimulus-presentation-old","97","328398","0.0-23.0-1.4","SS1618435619752","trial","","40","500","797.3299999994342","images/stimuli/spore_stims/simple_08_A_b.gif","images/stimuli/spore_stims/simple_02_A_a.gif","forced_long","","7","simple_dissimilar","images/stimuli/spore_stims/simple_02_A_a.gif","","","","",""
"","2657.709999999497","survey-multi-choice","98","331058","0.0-24.0","SS1618435619752","math_question","","","","","","","","","","","","{""Q0"":""14""}","[0]","14","",""
"","null","html-keyboard-response","99","332168","0.0-25.0-0.0","SS1618435619752","","","null","","","","","","<p><img src= images/blank.png width =""600"" height = ""600"" style=""position:fixed;top:50%; left:50%; transform: translate(-50%, -50%); border:5px solid black"">","","","","","","","",""
"","138.06500000099186","sequential-stimulus-presentation-old","100","332814","0.0-25.0-1.0","SS1618435619752","trial","","40","500","638.0650000009919","images/stimuli/spore_stims/simple_07_A_b.gif","images/stimuli/spore_stims/simple_04_A_a.gif","self_paced","","8","simple_dissimilar","images/stimuli/spore_stims/simple_04_A_a.gif","","","","",""
"","null","html-keyboard-response","101","333825","0.0-25.0-0.1","SS1618435619752","","","null","","","","","","<p><img src= images/blank.png width =""600"" height = ""600"" style=""position:fixed;top:50%; left:50%; transform: translate(-50%, -50%); border:5px solid black"">","","","","","","","",""
"","986.35499999905","sequential-stimulus-presentation-old","102","335323","0.0-25.0-1.1","SS1618435619752","trial","","40","500","1486.35499999905","images/stimuli/spore_stims/simple_07_A_b.gif","images/stimuli/spore_stims/simple_04_A_a.gif","self_paced","","8","simple_dissimilar","images/stimuli/spore_stims/simple_04_A_a.gif","","","","",""
"","null","html-keyboard-response","103","336507","0.0-25.0-0.2","SS1618435619752","","","null","","","","","","<p><img src= images/blank.png width =""600"" height = ""600"" style=""position:fixed;top:50%; left:50%; transform: translate(-50%, -50%); border:5px solid black"">","","","","","","","",""
"","718.9849999995204","sequential-stimulus-presentation-old","104","337729","0.0-25.0-1.2","SS1618435619752","trial","","40","500","1218.9849999995204","images/stimuli/spore_stims/simple_07_A_b.gif","images/stimuli/spore_stims/simple_04_A_a.gif","self_paced","","8","simple_dissimilar","images/stimuli/spore_stims/simple_04_A_a.gif","","","","",""
"","null","html-keyboard-response","105","338961","0.0-25.0-0.3","SS1618435619752","","","null","","","","","","<p><img src= images/blank.png width =""600"" height = ""600"" style=""position:fixed;top:50%; left:50%; transform: translate(-50%, -50%); border:5px solid black"">","","","","","","","",""
"","931.8050000001676","sequential-stimulus-presentation-old","106","340403","0.0-25.0-1.3","SS1618435619752","trial","","40","500","1431.8050000001676","images/stimuli/spore_stims/simple_07_A_b.gif","images/stimuli/spore_stims/simple_04_A_a.gif","self_paced","","8","simple_dissimilar","images/stimuli/spore_stims/simple_04_A_a.gif","","","","",""
"","null","html-keyboard-response","107","341388","0.0-25.0-0.4","SS1618435619752","","","null","","","","","","<p><img src= images/blank.png width =""600"" height = ""600"" style=""position:fixed;top:50%; left:50%; transform: translate(-50%, -50%); border:5px solid black"">","","","","","","","",""
"","1121.5149999988498","sequential-stimulus-presentation-old","108","343013","0.0-25.0-1.4","SS1618435619752","trial","","40","500","1621.5149999988498","images/stimuli/spore_stims/simple_07_A_b.gif","images/stimuli/spore_stims/simple_04_A_a.gif","self_paced","","8","simple_dissimilar","images/stimuli/spore_stims/simple_04_A_a.gif","","","","",""
"","2741.8249999991385","survey-multi-choice","109","345756","0.0-26.0","SS1618435619752","math_question","","","","","","","","","","","","{""Q0"":""6""}","[0]","6","",""
"","null","html-keyboard-response","110","347026","0.0-27.0-0.0","SS1618435619752","","","null","","","","","","<p><img src= images/blank.png width =""600"" height = ""600"" style=""position:fixed;top:50%; left:50%; transform: translate(-50%, -50%); border:5px solid black"">","","","","","","","",""
"","227.11999999952968","sequential-stimulus-presentation-old","111","347757","0.0-27.0-1.0","SS1618435619752","trial","","40","500","727.1199999995297","images/stimuli/spore_stims/simple_20_A_b.gif","images/stimuli/spore_stims/simple_19_A_a.gif","self_paced","","9","simple_dissimilar","images/stimuli/spore_stims/simple_19_A_a.gif","","","","",""
"","null","html-keyboard-response","112","348701","0.0-27.0-0.1","SS1618435619752","","","null","","","","","","<p><img src= images/blank.png width =""600"" height = ""600"" style=""position:fixed;top:50%; left:50%; transform: translate(-50%, -50%); border:5px solid black"">","","","","","","","",""
"","685.9400000012247","sequential-stimulus-presentation-old","113","349896","0.0-27.0-1.1","SS1618435619752","trial","","40","500","1185.9400000012247","images/stimuli/spore_stims/simple_20_A_b.gif","images/stimuli/spore_stims/simple_19_A_a.gif","self_paced","","9","simple_dissimilar","images/stimuli/spore_stims/simple_19_A_a.gif","","","","",""
"","null","html-keyboard-response","114","350952","0.0-27.0-0.2","SS1618435619752","","","null","","","","","","<p><img src= images/blank.png width =""600"" height = ""600"" style=""position:fixed;top:50%; left:50%; transform: translate(-50%, -50%); border:5px solid black"">","","","","","","","",""
"","1934.230000000738","sequential-stimulus-presentation-old","115","353389","0.0-27.0-1.2","SS1618435619752","trial","","40","500","2434.230000000738","images/stimuli/spore_stims/simple_20_A_b.gif","images/stimuli/spore_stims/simple_19_A_a.gif","self_paced","","9","simple_dissimilar","images/stimuli/spore_stims/simple_19_A_a.gif","","","","",""
"","null","html-keyboard-response","116","354288","0.0-27.0-0.3","SS1618435619752","","","null","","","","","","<p><img src= images/blank.png width =""600"" height = ""600"" style=""position:fixed;top:50%; left:50%; transform: translate(-50%, -50%); border:5px solid black"">","","","","","","","",""
"","225.3049999999348","sequential-stimulus-presentation-old","117","355016","0.0-27.0-1.3","SS1618435619752","trial","","40","500","725.3049999999348","images/stimuli/spore_stims/simple_20_A_b.gif","images/stimuli/spore_stims/simple_19_A_a.gif","self_paced","","9","simple_dissimilar","images/stimuli/spore_stims/simple_20_A_b.gif","","","","",""
"","null","html-keyboard-response","118","355985","0.0-27.0-0.4","SS1618435619752","","","null","","","","","","<p><img src= images/blank.png width =""600"" height = ""600"" style=""position:fixed;top:50%; left:50%; transform: translate(-50%, -50%); border:5px solid black"">","","","","","","","",""
"","1180.4649999994435","sequential-stimulus-presentation-old","119","357668","0.0-27.0-1.4","SS1618435619752","trial","","40","500","1680.4649999994435","images/stimuli/spore_stims/simple_20_A_b.gif","images/stimuli/spore_stims/simple_19_A_a.gif","self_paced","","9","simple_dissimilar","images/stimuli/spore_stims/simple_19_A_a.gif","","","","",""
"","null","html-keyboard-response","120","358914","0.0-27.0-0.5","SS1618435619752","","","null","","","","","","<p><img src= images/blank.png width =""600"" height = ""600"" style=""position:fixed;top:50%; left:50%; transform: translate(-50%, -50%); border:5px solid black"">","","","","","","","",""
"","774.0250000006054","sequential-stimulus-presentation-old","121","360199","0.0-27.0-1.5","SS1618435619752","trial","","40","500","1274.0250000006054","images/stimuli/spore_stims/simple_20_A_b.gif","images/stimuli/spore_stims/simple_19_A_a.gif","self_paced","","9","simple_dissimilar","images/stimuli/spore_stims/simple_19_A_a.gif","","","","",""
"","1964.7649999987916","survey-multi-choice","122","362166","0.0-28.0","SS1618435619752","math_question","","","","","","","","","","","","{""Q0"":""14""}","[0]","14","",""
"","null","html-keyboard-response","123","362980","0.0-29.0-0.0","SS1618435619752","","","null","","","","","","<p><img src= images/blank.png width =""600"" height = ""600"" style=""position:fixed;top:50%; left:50%; transform: translate(-50%, -50%); border:5px solid black"">","","","","","","","",""
"","350.71000000060303","sequential-stimulus-presentation-old","124","363834","0.0-29.0-1.0","SS1618435619752","trial","","40","500","850.710000000603","images/stimuli/spore_stims/complex_01_A_b.gif","images/stimuli/spore_stims/complex_18_A_a.gif","self_paced","","10","complex_dissimilar","images/stimuli/spore_stims/complex_18_A_a.gif","","","","",""
"","null","html-keyboard-response","125","365004","0.0-29.0-0.1","SS1618435619752","","","null","","","","","","<p><img src= images/blank.png width =""600"" height = ""600"" style=""position:fixed;top:50%; left:50%; transform: translate(-50%, -50%); border:5px solid black"">","","","","","","","",""
"","158.9949999997625","sequential-stimulus-presentation-old","126","365666","0.0-29.0-1.1","SS1618435619752","trial","","40","500","658.9949999997625","images/stimuli/spore_stims/complex_01_A_b.gif","images/stimuli/spore_stims/complex_18_A_a.gif","self_paced","","10","complex_dissimilar","images/stimuli/spore_stims/complex_18_A_a.gif","","","","",""
"","null","html-keyboard-response","127","366856","0.0-29.0-0.2","SS1618435619752","","","null","","","","","","<p><img src= images/blank.png width =""600"" height = ""600"" style=""position:fixed;top:50%; left:50%; transform: translate(-50%, -50%); border:5px solid black"">","","","","","","","",""
"","478.88500000041677","sequential-stimulus-presentation-old","128","367847","0.0-29.0-1.2","SS1618435619752","trial","","40","500","978.8850000004168","images/stimuli/spore_stims/complex_01_A_b.gif","images/stimuli/spore_stims/complex_18_A_a.gif","self_paced","","10","complex_dissimilar","images/stimuli/spore_stims/complex_18_A_a.gif","","","","",""
"","null","html-keyboard-response","129","368966","0.0-29.0-0.3","SS1618435619752","","","null","","","","","","<p><img src= images/blank.png width =""600"" height = ""600"" style=""position:fixed;top:50%; left:50%; transform: translate(-50%, -50%); border:5px solid black"">","","","","","","","",""
"","585.984999999695","sequential-stimulus-presentation-old","130","370056","0.0-29.0-1.3","SS1618435619752","trial","","40","500","1085.984999999695","images/stimuli/spore_stims/complex_01_A_b.gif","images/stimuli/spore_stims/complex_18_A_a.gif","self_paced","","10","complex_dissimilar","images/stimuli/spore_stims/complex_18_A_a.gif","","","","",""
"","null","html-keyboard-response","131","371244","0.0-29.0-0.4","SS1618435619752","","","null","","","","","","<p><img src= images/blank.png width =""600"" height = ""600"" style=""position:fixed;top:50%; left:50%; transform: translate(-50%, -50%); border:5px solid black"">","","","","","","","",""
"","344.7949999990524","sequential-stimulus-presentation-old","132","372092","0.0-29.0-1.4","SS1618435619752","trial","","40","500","844.7949999990524","images/stimuli/spore_stims/complex_01_A_b.gif","images/stimuli/spore_stims/complex_18_A_a.gif","self_paced","","10","complex_dissimilar","images/stimuli/spore_stims/complex_18_A_a.gif","","","","",""
"","null","html-keyboard-response","133","373322","0.0-29.0-0.5","SS1618435619752","","","null","","","","","","<p><img src= images/blank.png width =""600"" height = ""600"" style=""position:fixed;top:50%; left:50%; transform: translate(-50%, -50%); border:5px solid black"">","","","","","","","",""
"","10240.055000000168","sequential-stimulus-presentation-old","134","384065","0.0-29.0-1.5","SS1618435619752","trial","","40","500","10740.055000000168","images/stimuli/spore_stims/complex_01_A_b.gif","images/stimuli/spore_stims/complex_18_A_a.gif","self_paced","","10","complex_dissimilar","images/stimuli/spore_stims/complex_01_A_b.gif","","","","",""
"","2357.514999999723","survey-multi-choice","135","386425","0.0-30.0","SS1618435619752","math_question","","","","","","","","","","","","{""Q0"":""12""}","[0]","12","",""
"","null","html-keyboard-response","136","387368","0.0-31.0-0.0","SS1618435619752","","","null","","","","","","<p><img src= images/blank.png width =""600"" height = ""600"" style=""position:fixed;top:50%; left:50%; transform: translate(-50%, -50%); border:5px solid black"">","","","","","","","",""
"","586.8250000003027","sequential-stimulus-presentation-old","137","388008","0.0-31.0-1.0","SS1618435619752","trial","","40","500","1086.8250000003027","images/stimuli/spore_stims/complex_03_A_b.gif","images/stimuli/spore_stims/complex_20_A_a.gif","forced_short","","11","complex_dissimilar","images/stimuli/spore_stims/complex_20_A_a.gif","","","","",""
"","null","html-keyboard-response","138","388919","0.0-31.0-0.1","SS1618435619752","","","null","","","","","","<p><img src= images/blank.png width =""600"" height = ""600"" style=""position:fixed;top:50%; left:50%; transform: translate(-50%, -50%); border:5px solid black"">","","","","","","","",""
"","1251.0800000000163","sequential-stimulus-presentation-old","139","390681","0.0-31.0-1.1","SS1618435619752","trial","","40","500","1751.0800000000163","images/stimuli/spore_stims/complex_03_A_b.gif","images/stimuli/spore_stims/complex_20_A_a.gif","forced_short","","11","complex_dissimilar","images/stimuli/spore_stims/complex_20_A_a.gif","","","","",""
"","null","html-keyboard-response","140","391665","0.0-31.0-0.2","SS1618435619752","","","null","","","","","","<p><img src= images/blank.png width =""600"" height = ""600"" style=""position:fixed;top:50%; left:50%; transform: translate(-50%, -50%); border:5px solid black"">","","","","","","","",""
"","5041.035000000207","sequential-stimulus-presentation-old","141","397209","0.0-31.0-1.2","SS1618435619752","trial","","40","500","5541.035000000207","images/stimuli/spore_stims/complex_03_A_b.gif","images/stimuli/spore_stims/complex_20_A_a.gif","forced_short","","11","complex_dissimilar","images/stimuli/spore_stims/complex_03_A_b.gif","","","","",""
"","null","html-keyboard-response","142","398472","0.0-31.0-0.3","SS1618435619752","","","null","","","","","","<p><img src= images/blank.png width =""600"" height = ""600"" style=""position:fixed;top:50%; left:50%; transform: translate(-50%, -50%); border:5px solid black"">","","","","","","","",""
"","188.5100000000093","sequential-stimulus-presentation-old","143","399165","0.0-31.0-1.3","SS1618435619752","trial","","40","500","688.5100000000093","images/stimuli/spore_stims/complex_03_A_b.gif","images/stimuli/spore_stims/complex_20_A_a.gif","forced_short","","11","complex_dissimilar","images/stimuli/spore_stims/complex_03_A_b.gif","","","","",""
"","null","html-keyboard-response","144","400433","0.0-31.0-0.4","SS1618435619752","","","null","","","","","","<p><img src= images/blank.png width =""600"" height = ""600"" style=""position:fixed;top:50%; left:50%; transform: translate(-50%, -50%); border:5px solid black"">","","","","","","","",""
"","387.63500000094064","sequential-stimulus-presentation-old","145","401323","0.0-31.0-1.4","SS1618435619752","trial","","40","500","887.6350000009406","images/stimuli/spore_stims/complex_03_A_b.gif","images/stimuli/spore_stims/complex_20_A_a.gif","forced_short","","11","complex_dissimilar","images/stimuli/spore_stims/complex_20_A_a.gif","","","","",""
"","null","html-keyboard-response","146","402396","0.0-31.0-0.5","SS1618435619752","","","null","","","","","","<p><img src= images/blank.png width =""600"" height = ""600"" style=""position:fixed;top:50%; left:50%; transform: translate(-50%, -50%); border:5px solid black"">","","","","","","","",""
"","73.06000000063796","sequential-stimulus-presentation-old","147","402972","0.0-31.0-1.5","SS1618435619752","trial","","40","500","573.060000000638","images/stimuli/spore_stims/complex_03_A_b.gif","images/stimuli/spore_stims/complex_20_A_a.gif","forced_short","","11","complex_dissimilar","images/stimuli/spore_stims/complex_20_A_a.gif","","","","",""
"[{""page_index"":0,""viewing_time"":22039.41999999911}]","22039.549999999464","instructions","148","425014","0.0-32.0","SS1618435619752","instructions","","","","","","","","","","","","","","","",""
"","3414.5449999996345","survey-likert","149","428431","0.0-33.0","SS1618435619752","similarity_question","","","","","","","","","","","","{""Q0"":5}","[0]","","images/stimuli/spore_stims/simple_17_A_a.gif","images/stimuli/spore_stims/simple_09_A_b.gif"
"","1811.5650000000023","survey-likert","150","430246","0.0-34.0","SS1618435619752","similarity_question","","","","","","","","","","","","{""Q0"":5}","[0]","","images/stimuli/spore_stims/simple_02_A_a.gif","images/stimuli/spore_stims/simple_08_A_b.gif"
"","2164.1199999994715","survey-likert","151","432415","0.0-35.0","SS1618435619752","similarity_question","","","","","","","","","","","","{""Q0"":2}","[0]","","images/stimuli/spore_stims/complex_14_A_b.gif","images/stimuli/spore_stims/complex_12_A_a.gif"
"","3507.1950000001234","survey-likert","152","435927","0.0-36.0","SS1618435619752","similarity_question","","","","","","","","","","","","{""Q0"":1}","[0]","","images/stimuli/spore_stims/complex_01_A_b.gif","images/stimuli/spore_stims/complex_18_A_a.gif"
"","2059.639999999432","survey-likert","153","437992","0.0-37.0","SS1618435619752","similarity_question","","","","","","","","","","","","{""Q0"":5}","[0]","","images/stimuli/spore_stims/simple_19_A_a.gif","images/stimuli/spore_stims/simple_20_A_b.gif"
"","5764.839999999793","survey-likert","154","443760","0.0-38.0","SS1618435619752","similarity_question","","","","","","","","","","","","{""Q0"":1}","[0]","","images/stimuli/spore_stims/complex_20_A_a.gif","images/stimuli/spore_stims/complex_03_A_b.gif"
"","6372.354999999516","survey-likert","155","450137","0.0-39.0","SS1618435619752","similarity_question","","","","","","","","","","","","{""Q0"":1}","[0]","","images/stimuli/spore_stims/complex_19_A_b.gif","images/stimuli/spore_stims/complex_06_A_a.gif"
"","3042.2900000012596","survey-likert","156","453185","0.0-40.0","SS1618435619752","similarity_question","","","","","","","","","","","","{""Q0"":4}","[0]","","images/stimuli/spore_stims/simple_03_A_b.gif","images/stimuli/spore_stims/simple_07_A_a.gif"
"","4084.2850000007893","survey-likert","157","457274","0.0-41.0","SS1618435619752","similarity_question","","","","","","","","","","","","{""Q0"":5}","[0]","","images/stimuli/spore_stims/simple_08_A_a.gif","images/stimuli/spore_stims/simple_02_A_b.gif"
"","1779.4100000010221","survey-likert","158","459058","0.0-42.0","SS1618435619752","similarity_question","","","","","","","","","","","","{""Q0"":3}","[0]","","images/stimuli/spore_stims/complex_10_A_a.gif","images/stimuli/spore_stims/complex_06_A_b.gif"
"","1883.959999999206","survey-likert","159","460946","0.0-43.0","SS1618435619752","similarity_question","","","","","","","","","","","","{""Q0"":1}","[0]","","images/stimuli/spore_stims/simple_04_A_a.gif","images/stimuli/spore_stims/simple_07_A_b.gif"
"","2300.185000000056","survey-likert","160","463251","0.0-44.0","SS1618435619752","similarity_question","","","","","","","","","","","","{""Q0"":1}","[0]","","images/stimuli/spore_stims/complex_08_A_b.gif","images/stimuli/spore_stims/complex_07_A_a.gif"
"[{""page_index"":0,""viewing_time"":8235.849999999104}]","8235.999999998952","instructions","161","471491","0.0-45.0","SS1618435619752","instructions","","","","","","","","","","","","","","","",""
"","2758.5050000015763","survey-likert","162","474252","0.0-46.0","SS1618435619752","","","","","","","","","images/stimuli/spore_stims/simple_02_A_a.gif","","","","{""Q0"":0}","[0]","","",""
"","1929.7699999987963","survey-likert","163","476188","0.0-47.0","SS1618435619752","","","","","","","","","images/stimuli/spore_stims/complex_12_A_a.gif","","","","{""Q0"":5}","[0]","","",""
"","1723.2149999999674","survey-likert","164","477917","0.0-48.0","SS1618435619752","","","","","","","","","images/stimuli/spore_stims/simple_17_A_a.gif","","","","{""Q0"":1}","[0]","","",""
"","2195.625000000291","survey-likert","165","480117","0.0-49.0","SS1618435619752","","","","","","","","","images/stimuli/spore_stims/simple_03_A_b.gif","","","","{""Q0"":1}","[0]","","",""
"","2659.9800000003306","survey-likert","166","482781","0.0-50.0","SS1618435619752","","","","","","","","","images/stimuli/spore_stims/complex_03_A_b.gif","","","","{""Q0"":4}","[0]","","",""
"","2307.9699999998556","survey-likert","167","485094","0.0-51.0","SS1618435619752","","","","","","","","","images/stimuli/spore_stims/complex_18_A_a.gif","","","","{""Q0"":5}","[0]","","",""
"","1836.2600000000675","survey-likert","168","486934","0.0-52.0","SS1618435619752","","","","","","","","","images/stimuli/spore_stims/simple_19_A_a.gif","","","","{""Q0"":1}","[0]","","",""
"","2234.089999999909","survey-likert","169","489174","0.0-53.0","SS1618435619752","","","","","","","","","images/stimuli/spore_stims/complex_07_A_a.gif","","","","{""Q0"":5}","[0]","","",""
"","3740.035000000673","survey-likert","170","492918","0.0-54.0","SS1618435619752","","","","","","","","","images/stimuli/spore_stims/complex_19_A_b.gif","","","","{""Q0"":4}","[0]","","",""
"","2419.664999999455","survey-likert","171","495343","0.0-55.0","SS1618435619752","","","","","","","","","images/stimuli/spore_stims/simple_02_A_b.gif","","","","{""Q0"":0}","[0]","","",""
"","2595.6150000001653","survey-likert","172","497943","0.0-56.0","SS1618435619752","","","","","","","","","images/stimuli/spore_stims/simple_07_A_b.gif","","","","{""Q0"":1}","[0]","","",""
"","2019.7700000007753","survey-likert","173","499967","0.0-57.0","SS1618435619752","","","","","","","","","images/stimuli/spore_stims/complex_06_A_b.gif","","","","{""Q0"":5}","[0]","","",""
"[{""page_index"":0,""viewing_time"":3723.8299999990268}]","3724.009999999893","instructions","174","503695","0.0-58.0","SS1618435619752","instructions","","","","","","","","","","","","","","","",""
"","2172.635000000824","demog-age","175","505872","0.0-59.0","SS1618435619752","","","","","","","","","","","","","{""age"":""21""}","","","",""
"","4236.525000000256","demog-ethnic-US","176","510113","0.0-60.0","SS1618435619752","","","","","","","","","","","","","{""ethnicity"":[""White""]}","[0]","","",""
"","5860.0800000003655","demog-gender-and-education","177","515977","0.0-61.0","SS1618435619752","","","","","","","","","","","","","{""gender"":""Male"",""education"":""High school diploma""}","[0,1]","","",""
"","6610.975000001432","survey-text","178","522594","0.0-62.0","SS1618435619752","feedback","","","","","","","","","","","","{""Q0"":""no""}","","","",""
"[{""page_index"":0,""viewing_time"":1798.0150000003632}]","1798.1199999994133","instructions","179","524394","0.0-63.0","SS1618435619752","instructions","","","","","","","","","","","","","","","",""
