"view_history","rt","trial_type","trial_index","time_elapsed","internal_node_id","subject","stimulus_type","trial_stimulus","key_press","minimum_viewing_duration","trial_looking_time","block_deviant","block_background","exposure_type","stimulus","block_number","block_type","stimulus_displayed","responses","question_order","math_correct_answer","stimulus_left","stimulus_right"
"[{""page_index"":0,""viewing_time"":3290.610000000015}]","3290.8599999991566","instructions","0","3292","0.0-0.0","SS1618435655734","","","","","","","","","","","","","","","","",""
"[{""page_index"":0,""viewing_time"":102123.98500000018},{""page_index"":1,""viewing_time"":132767.96500000093}]","234892.9650000009","instructions","1","240194","0.0-1.0","SS1618435655734","instructions","","","","","","","","","","","","","","","",""
"","4160.520000001299","sequential-stimulus-presentation-old","2","244860","0.0-2.0","SS1618435655734","","","40","500","4660.520000001299","null","null","self_paced","","","","","","","","",""
"","3282.100000000326","sequential-stimulus-presentation-old","3","248656","0.0-3.0","SS1618435655734","","","40","500","3782.100000000326","null","null","self_paced","","","","","","","","",""
"[{""page_index"":0,""viewing_time"":16907.419999999547}]","16907.64999999918","instructions","4","265564","0.0-4.0","SS1618435655734","instructions","","","","","","","","","","","","","","","",""
"","3200.0449999996345","sequential-stimulus-presentation-old","5","273767","0.0-5.0","SS1618435655734","","","40","500","3700.0449999996345","null","null","forced_long","","","","","","","","",""
"","116.0649999983143","sequential-stimulus-presentation-old","6","273935","0.0-6.0","SS1618435655734","","","40","50","166.0649999983143","null","null","forced_long","","","","","","","","",""
"[{""page_index"":0,""viewing_time"":3337.360000001325}]","3337.52500000078","instructions","7","277273","0.0-7.0","SS1618435655734","instructions","","","","","","","","","","","","","","","",""
"[{""page_index"":0,""viewing_time"":8638.580000000715},{""page_index"":1,""viewing_time"":11129.119999999588},{""page_index"":2,""viewing_time"":4348.804999999644},{""page_index"":3,""viewing_time"":906.0200000003097},{""page_index"":4,""viewing_time"":741.9750000008498}]","25764.66500000056","instructions","8","303039","0.0-8.0","SS1618435655734","instructions","","","","","","","","","","","","","","","",""
"","null","html-keyboard-response","9","304052","0.0-9.0-0.0","SS1618435655734","","","null","","","","","","<p><img src= images/blank.png width =""600"" height = ""600"" style=""position:fixed;top:50%; left:50%; transform: translate(-50%, -50%); border:5px solid black"">","","","","","","","",""
"","864.3400000000838","sequential-stimulus-presentation-old","10","305423","0.0-9.0-1.0","SS1618435655734","trial","","40","500","1364.3400000000838","images/stimuli/spore_stims/simple_17_A_b.gif","images/stimuli/spore_stims/simple_13_A_a.gif","self_paced","","0","simple_dissimilar","images/stimuli/spore_stims/simple_13_A_a.gif","","","","",""
"","null","html-keyboard-response","11","306640","0.0-9.0-0.1","SS1618435655734","","","null","","","","","","<p><img src= images/blank.png width =""600"" height = ""600"" style=""position:fixed;top:50%; left:50%; transform: translate(-50%, -50%); border:5px solid black"">","","","","","","","",""
"","3921.3450000006706","sequential-stimulus-presentation-old","12","311063","0.0-9.0-1.1","SS1618435655734","trial","","40","500","4421.345000000671","images/stimuli/spore_stims/simple_17_A_b.gif","images/stimuli/spore_stims/simple_13_A_a.gif","self_paced","","0","simple_dissimilar","images/stimuli/spore_stims/simple_13_A_a.gif","","","","",""
"","null","html-keyboard-response","13","312164","0.0-9.0-0.2","SS1618435655734","","","null","","","","","","<p><img src= images/blank.png width =""600"" height = ""600"" style=""position:fixed;top:50%; left:50%; transform: translate(-50%, -50%); border:5px solid black"">","","","","","","","",""
"","9460.800000000745","sequential-stimulus-presentation-old","14","322128","0.0-9.0-1.2","SS1618435655734","trial","","40","500","9960.800000000745","images/stimuli/spore_stims/simple_17_A_b.gif","images/stimuli/spore_stims/simple_13_A_a.gif","self_paced","","0","simple_dissimilar","images/stimuli/spore_stims/simple_13_A_a.gif","","","","",""
"","null","html-keyboard-response","15","323396","0.0-9.0-0.3","SS1618435655734","","","null","","","","","","<p><img src= images/blank.png width =""600"" height = ""600"" style=""position:fixed;top:50%; left:50%; transform: translate(-50%, -50%); border:5px solid black"">","","","","","","","",""
"","1177.9150000001537","sequential-stimulus-presentation-old","16","325079","0.0-9.0-1.3","SS1618435655734","trial","","40","500","1677.9150000001537","images/stimuli/spore_stims/simple_17_A_b.gif","images/stimuli/spore_stims/simple_13_A_a.gif","self_paced","","0","simple_dissimilar","images/stimuli/spore_stims/simple_13_A_a.gif","","","","",""
"","null","html-keyboard-response","17","326162","0.0-9.0-0.4","SS1618435655734","","","null","","","","","","<p><img src= images/blank.png width =""600"" height = ""600"" style=""position:fixed;top:50%; left:50%; transform: translate(-50%, -50%); border:5px solid black"">","","","","","","","",""
"","986.6399999991991","sequential-stimulus-presentation-old","18","327663","0.0-9.0-1.4","SS1618435655734","trial","","40","500","1486.639999999199","images/stimuli/spore_stims/simple_17_A_b.gif","images/stimuli/spore_stims/simple_13_A_a.gif","self_paced","","0","simple_dissimilar","images/stimuli/spore_stims/simple_13_A_a.gif","","","","",""
"","null","html-keyboard-response","19","328781","0.0-9.0-0.5","SS1618435655734","","","null","","","","","","<p><img src= images/blank.png width =""600"" height = ""600"" style=""position:fixed;top:50%; left:50%; transform: translate(-50%, -50%); border:5px solid black"">","","","","","","","",""
"","2352.1099999998114","sequential-stimulus-presentation-old","20","331639","0.0-9.0-1.5","SS1618435655734","trial","","40","500","2852.1099999998114","images/stimuli/spore_stims/simple_17_A_b.gif","images/stimuli/spore_stims/simple_13_A_a.gif","self_paced","","0","simple_dissimilar","images/stimuli/spore_stims/simple_17_A_b.gif","","","","",""
"","2780.0100000003586","survey-multi-choice","21","334422","0.0-10.0","SS1618435655734","math_question","","","","","","","","","","","","{""Q0"":""15""}","[0]","15","",""
"","null","html-keyboard-response","22","335450","0.0-11.0-0.0","SS1618435655734","","","null","","","","","","<p><img src= images/blank.png width =""600"" height = ""600"" style=""position:fixed;top:50%; left:50%; transform: translate(-50%, -50%); border:5px solid black"">","","","","","","","",""
"","3174.4799999996903","sequential-stimulus-presentation-old","23","339127","0.0-11.0-1.0","SS1618435655734","trial","","40","500","3674.4799999996903","images/stimuli/spore_stims/complex_02_A_a.gif","images/stimuli/spore_stims/complex_05_A_b.gif","self_paced","","1","complex_dissimilar","images/stimuli/spore_stims/complex_05_A_b.gif","","","","",""
"","null","html-keyboard-response","24","340082","0.0-11.0-0.1","SS1618435655734","","","null","","","","","","<p><img src= images/blank.png width =""600"" height = ""600"" style=""position:fixed;top:50%; left:50%; transform: translate(-50%, -50%); border:5px solid black"">","","","","","","","",""
"","52287.79999999824","sequential-stimulus-presentation-old","25","392887","0.0-11.0-1.1","SS1618435655734","trial","","40","500","52787.79999999824","images/stimuli/spore_stims/complex_02_A_a.gif","images/stimuli/spore_stims/complex_05_A_b.gif","self_paced","","1","complex_dissimilar","images/stimuli/spore_stims/complex_05_A_b.gif","","","","",""
"","null","html-keyboard-response","26","394177","0.0-11.0-0.2","SS1618435655734","","","null","","","","","","<p><img src= images/blank.png width =""600"" height = ""600"" style=""position:fixed;top:50%; left:50%; transform: translate(-50%, -50%); border:5px solid black"">","","","","","","","",""
"","916.4999999993597","sequential-stimulus-presentation-old","27","395599","0.0-11.0-1.2","SS1618435655734","trial","","40","500","1416.4999999993597","images/stimuli/spore_stims/complex_02_A_a.gif","images/stimuli/spore_stims/complex_05_A_b.gif","self_paced","","1","complex_dissimilar","images/stimuli/spore_stims/complex_05_A_b.gif","","","","",""
"","null","html-keyboard-response","28","396609","0.0-11.0-0.3","SS1618435655734","","","null","","","","","","<p><img src= images/blank.png width =""600"" height = ""600"" style=""position:fixed;top:50%; left:50%; transform: translate(-50%, -50%); border:5px solid black"">","","","","","","","",""
"","148.435000000929","sequential-stimulus-presentation-old","29","397263","0.0-11.0-1.3","SS1618435655734","trial","","40","500","648.435000000929","images/stimuli/spore_stims/complex_02_A_a.gif","images/stimuli/spore_stims/complex_05_A_b.gif","self_paced","","1","complex_dissimilar","images/stimuli/spore_stims/complex_05_A_b.gif","","","","",""
"","null","html-keyboard-response","30","398243","0.0-11.0-0.4","SS1618435655734","","","null","","","","","","<p><img src= images/blank.png width =""600"" height = ""600"" style=""position:fixed;top:50%; left:50%; transform: translate(-50%, -50%); border:5px solid black"">","","","","","","","",""
"","6948.784999998694","sequential-stimulus-presentation-old","31","405695","0.0-11.0-1.4","SS1618435655734","trial","","40","500","7448.784999998694","images/stimuli/spore_stims/complex_02_A_a.gif","images/stimuli/spore_stims/complex_05_A_b.gif","self_paced","","1","complex_dissimilar","images/stimuli/spore_stims/complex_05_A_b.gif","","","","",""
"","null","html-keyboard-response","32","406829","0.0-11.0-0.5","SS1618435655734","","","null","","","","","","<p><img src= images/blank.png width =""600"" height = ""600"" style=""position:fixed;top:50%; left:50%; transform: translate(-50%, -50%); border:5px solid black"">","","","","","","","",""
"","63.6049999993993","sequential-stimulus-presentation-old","33","407399","0.0-11.0-1.5","SS1618435655734","trial","","40","500","563.6049999993993","images/stimuli/spore_stims/complex_02_A_a.gif","images/stimuli/spore_stims/complex_05_A_b.gif","self_paced","","1","complex_dissimilar","images/stimuli/spore_stims/complex_05_A_b.gif","","","","",""
"","2790.3700000005774","survey-multi-choice","34","410191","0.0-12.0","SS1618435655734","math_question","","","","","","","","","","","","{""Q0"":""2""}","[0]","2","",""
"","null","html-keyboard-response","35","411419","0.0-13.0-0.0","SS1618435655734","","","null","","","","","","<p><img src= images/blank.png width =""600"" height = ""600"" style=""position:fixed;top:50%; left:50%; transform: translate(-50%, -50%); border:5px solid black"">","","","","","","","",""
"","546.1749999994645","sequential-stimulus-presentation-old","36","412471","0.0-13.0-1.0","SS1618435655734","trial","","40","500","1046.1749999994645","images/stimuli/spore_stims/simple_10_A_b.gif","images/stimuli/spore_stims/simple_11_A_a.gif","self_paced","","2","simple_dissimilar","images/stimuli/spore_stims/simple_11_A_a.gif","","","","",""
"","null","html-keyboard-response","37","413381","0.0-13.0-0.1","SS1618435655734","","","null","","","","","","<p><img src= images/blank.png width =""600"" height = ""600"" style=""position:fixed;top:50%; left:50%; transform: translate(-50%, -50%); border:5px solid black"">","","","","","","","",""
"","418.34500000003027","sequential-stimulus-presentation-old","38","414311","0.0-13.0-1.1","SS1618435655734","trial","","40","500","918.3450000000303","images/stimuli/spore_stims/simple_10_A_b.gif","images/stimuli/spore_stims/simple_11_A_a.gif","self_paced","","2","simple_dissimilar","images/stimuli/spore_stims/simple_11_A_a.gif","","","","",""
"","null","html-keyboard-response","39","415495","0.0-13.0-0.2","SS1618435655734","","","null","","","","","","<p><img src= images/blank.png width =""600"" height = ""600"" style=""position:fixed;top:50%; left:50%; transform: translate(-50%, -50%); border:5px solid black"">","","","","","","","",""
"","1009.6700000012643","sequential-stimulus-presentation-old","40","417015","0.0-13.0-1.2","SS1618435655734","trial","","40","500","1509.6700000012643","images/stimuli/spore_stims/simple_10_A_b.gif","images/stimuli/spore_stims/simple_11_A_a.gif","self_paced","","2","simple_dissimilar","images/stimuli/spore_stims/simple_11_A_a.gif","","","","",""
"","null","html-keyboard-response","41","418286","0.0-13.0-0.3","SS1618435655734","","","null","","","","","","<p><img src= images/blank.png width =""600"" height = ""600"" style=""position:fixed;top:50%; left:50%; transform: translate(-50%, -50%); border:5px solid black"">","","","","","","","",""
"","26.33499999862397","sequential-stimulus-presentation-old","42","418815","0.0-13.0-1.3","SS1618435655734","trial","","40","500","526.334999998624","images/stimuli/spore_stims/simple_10_A_b.gif","images/stimuli/spore_stims/simple_11_A_a.gif","self_paced","","2","simple_dissimilar","images/stimuli/spore_stims/simple_10_A_b.gif","","","","",""
"","null","html-keyboard-response","43","420092","0.0-13.0-0.4","SS1618435655734","","","null","","","","","","<p><img src= images/blank.png width =""600"" height = ""600"" style=""position:fixed;top:50%; left:50%; transform: translate(-50%, -50%); border:5px solid black"">","","","","","","","",""
"","36.05999999854248","sequential-stimulus-presentation-old","44","420631","0.0-13.0-1.4","SS1618435655734","trial","","40","500","536.0599999985425","images/stimuli/spore_stims/simple_10_A_b.gif","images/stimuli/spore_stims/simple_11_A_a.gif","self_paced","","2","simple_dissimilar","images/stimuli/spore_stims/simple_11_A_a.gif","","","","",""
"","null","html-keyboard-response","45","421675","0.0-13.0-0.5","SS1618435655734","","","null","","","","","","<p><img src= images/blank.png width =""600"" height = ""600"" style=""position:fixed;top:50%; left:50%; transform: translate(-50%, -50%); border:5px solid black"">","","","","","","","",""
"","37.544999999227","sequential-stimulus-presentation-old","46","422223","0.0-13.0-1.5","SS1618435655734","trial","","40","500","537.544999999227","images/stimuli/spore_stims/simple_10_A_b.gif","images/stimuli/spore_stims/simple_11_A_a.gif","self_paced","","2","simple_dissimilar","images/stimuli/spore_stims/simple_10_A_b.gif","","","","",""
"","4279.685000001336","survey-multi-choice","47","426504","0.0-14.0","SS1618435655734","math_question","","","","","","","","","","","","{""Q0"":""8""}","[0]","8","",""
"","null","html-keyboard-response","48","427343","0.0-15.0-0.0","SS1618435655734","","","null","","","","","","<p><img src= images/blank.png width =""600"" height = ""600"" style=""position:fixed;top:50%; left:50%; transform: translate(-50%, -50%); border:5px solid black"">","","","","","","","",""
"","1416.1600000006729","sequential-stimulus-presentation-old","49","433767","0.0-15.0-1.0","SS1618435655734","trial","","40","500","1916.1600000006729","images/stimuli/spore_stims/complex_05_A_a.gif","images/stimuli/spore_stims/complex_10_A_b.gif","forced_long","","3","complex_dissimilar","images/stimuli/spore_stims/complex_10_A_b.gif","","","","",""
"","null","html-keyboard-response","50","434854","0.0-15.0-0.1","SS1618435655734","","","null","","","","","","<p><img src= images/blank.png width =""600"" height = ""600"" style=""position:fixed;top:50%; left:50%; transform: translate(-50%, -50%); border:5px solid black"">","","","","","","","",""
"","1225.4350000002887","sequential-stimulus-presentation-old","51","436599","0.0-15.0-1.1","SS1618435655734","trial","","40","500","1725.4350000002887","images/stimuli/spore_stims/complex_05_A_a.gif","images/stimuli/spore_stims/complex_10_A_b.gif","forced_long","","3","complex_dissimilar","images/stimuli/spore_stims/complex_05_A_a.gif","","","","",""
"","null","html-keyboard-response","52","437620","0.0-15.0-0.2","SS1618435655734","","","null","","","","","","<p><img src= images/blank.png width =""600"" height = ""600"" style=""position:fixed;top:50%; left:50%; transform: translate(-50%, -50%); border:5px solid black"">","","","","","","","",""
"","635.140000000305","sequential-stimulus-presentation-old","53","438759","0.0-15.0-1.2","SS1618435655734","trial","","40","500","1135.140000000305","images/stimuli/spore_stims/complex_05_A_a.gif","images/stimuli/spore_stims/complex_10_A_b.gif","forced_long","","3","complex_dissimilar","images/stimuli/spore_stims/complex_10_A_b.gif","","","","",""
"","null","html-keyboard-response","54","439849","0.0-15.0-0.3","SS1618435655734","","","null","","","","","","<p><img src= images/blank.png width =""600"" height = ""600"" style=""position:fixed;top:50%; left:50%; transform: translate(-50%, -50%); border:5px solid black"">","","","","","","","",""
"","106.19999999832362","sequential-stimulus-presentation-old","55","440463","0.0-15.0-1.3","SS1618435655734","trial","","40","500","606.1999999983236","images/stimuli/spore_stims/complex_05_A_a.gif","images/stimuli/spore_stims/complex_10_A_b.gif","forced_long","","3","complex_dissimilar","images/stimuli/spore_stims/complex_10_A_b.gif","","","","",""
"","null","html-keyboard-response","56","441306","0.0-15.0-0.4","SS1618435655734","","","null","","","","","","<p><img src= images/blank.png width =""600"" height = ""600"" style=""position:fixed;top:50%; left:50%; transform: translate(-50%, -50%); border:5px solid black"">","","","","","","","",""
"","328.3400000000256","sequential-stimulus-presentation-old","57","442143","0.0-15.0-1.4","SS1618435655734","trial","","40","500","828.3400000000256","images/stimuli/spore_stims/complex_05_A_a.gif","images/stimuli/spore_stims/complex_10_A_b.gif","forced_long","","3","complex_dissimilar","images/stimuli/spore_stims/complex_10_A_b.gif","","","","",""
"","null","html-keyboard-response","58","443376","0.0-15.0-0.5","SS1618435655734","","","null","","","","","","<p><img src= images/blank.png width =""600"" height = ""600"" style=""position:fixed;top:50%; left:50%; transform: translate(-50%, -50%); border:5px solid black"">","","","","","","","",""
"","121.5249999986263","sequential-stimulus-presentation-old","59","444007","0.0-15.0-1.5","SS1618435655734","trial","","40","500","621.5249999986263","images/stimuli/spore_stims/complex_05_A_a.gif","images/stimuli/spore_stims/complex_10_A_b.gif","forced_long","","3","complex_dissimilar","images/stimuli/spore_stims/complex_05_A_a.gif","","","","",""
"","2676.7650000001886","survey-multi-choice","60","446685","0.0-16.0","SS1618435655734","math_question","","","","","","","","","","","","{""Q0"":""12""}","[0]","12","",""
"","null","html-keyboard-response","61","447756","0.0-17.0-0.0","SS1618435655734","","","null","","","","","","<p><img src= images/blank.png width =""600"" height = ""600"" style=""position:fixed;top:50%; left:50%; transform: translate(-50%, -50%); border:5px solid black"">","","","","","","","",""
"","347.78000000008615","sequential-stimulus-presentation-old","62","448159","0.0-17.0-1.0","SS1618435655734","trial","","40","500","847.7800000000861","images/stimuli/spore_stims/simple_08_A_a.gif","images/stimuli/spore_stims/simple_06_A_b.gif","forced_short","","4","simple_dissimilar","images/stimuli/spore_stims/simple_06_A_b.gif","","","","",""
"","null","html-keyboard-response","63","449248","0.0-17.0-0.1","SS1618435655734","","","null","","","","","","<p><img src= images/blank.png width =""600"" height = ""600"" style=""position:fixed;top:50%; left:50%; transform: translate(-50%, -50%); border:5px solid black"">","","","","","","","",""
"","1471.4700000004377","sequential-stimulus-presentation-old","64","451223","0.0-17.0-1.1","SS1618435655734","trial","","40","500","1971.4700000004377","images/stimuli/spore_stims/simple_08_A_a.gif","images/stimuli/spore_stims/simple_06_A_b.gif","forced_short","","4","simple_dissimilar","images/stimuli/spore_stims/simple_06_A_b.gif","","","","",""
"","null","html-keyboard-response","65","452231","0.0-17.0-0.2","SS1618435655734","","","null","","","","","","<p><img src= images/blank.png width =""600"" height = ""600"" style=""position:fixed;top:50%; left:50%; transform: translate(-50%, -50%); border:5px solid black"">","","","","","","","",""
"","449.4549999999581","sequential-stimulus-presentation-old","66","453191","0.0-17.0-1.2","SS1618435655734","trial","","40","500","949.4549999999581","images/stimuli/spore_stims/simple_08_A_a.gif","images/stimuli/spore_stims/simple_06_A_b.gif","forced_short","","4","simple_dissimilar","images/stimuli/spore_stims/simple_06_A_b.gif","","","","",""
"","null","html-keyboard-response","67","454432","0.0-17.0-0.3","SS1618435655734","","","null","","","","","","<p><img src= images/blank.png width =""600"" height = ""600"" style=""position:fixed;top:50%; left:50%; transform: translate(-50%, -50%); border:5px solid black"">","","","","","","","",""
"","543.3250000005937","sequential-stimulus-presentation-old","68","455487","0.0-17.0-1.3","SS1618435655734","trial","","40","500","1043.3250000005937","images/stimuli/spore_stims/simple_08_A_a.gif","images/stimuli/spore_stims/simple_06_A_b.gif","forced_short","","4","simple_dissimilar","images/stimuli/spore_stims/simple_06_A_b.gif","","","","",""
"","null","html-keyboard-response","69","456425","0.0-17.0-0.4","SS1618435655734","","","null","","","","","","<p><img src= images/blank.png width =""600"" height = ""600"" style=""position:fixed;top:50%; left:50%; transform: translate(-50%, -50%); border:5px solid black"">","","","","","","","",""
"","142.0149999994319","sequential-stimulus-presentation-old","70","457079","0.0-17.0-1.4","SS1618435655734","trial","","40","500","642.0149999994319","images/stimuli/spore_stims/simple_08_A_a.gif","images/stimuli/spore_stims/simple_06_A_b.gif","forced_short","","4","simple_dissimilar","images/stimuli/spore_stims/simple_06_A_b.gif","","","","",""
"","4079.975000000559","survey-multi-choice","71","461160","0.0-18.0","SS1618435655734","math_question","","","","","","","","","","","","{""Q0"":""13""}","[0]","13","",""
"","null","html-keyboard-response","72","462027","0.0-19.0-0.0","SS1618435655734","","","null","","","","","","<p><img src= images/blank.png width =""600"" height = ""600"" style=""position:fixed;top:50%; left:50%; transform: translate(-50%, -50%); border:5px solid black"">","","","","","","","",""
"","1741.8699999998207","sequential-stimulus-presentation-old","73","464271","0.0-19.0-1.0","SS1618435655734","trial","","40","500","2241.8699999998207","images/stimuli/spore_stims/complex_16_A_b.gif","images/stimuli/spore_stims/complex_09_A_a.gif","self_paced","","5","complex_dissimilar","images/stimuli/spore_stims/complex_09_A_a.gif","","","","",""
"","null","html-keyboard-response","74","465095","0.0-19.0-0.1","SS1618435655734","","","null","","","","","","<p><img src= images/blank.png width =""600"" height = ""600"" style=""position:fixed;top:50%; left:50%; transform: translate(-50%, -50%); border:5px solid black"">","","","","","","","",""
"","226.98000000132015","sequential-stimulus-presentation-old","75","465831","0.0-19.0-1.1","SS1618435655734","trial","","40","500","726.9800000013201","images/stimuli/spore_stims/complex_16_A_b.gif","images/stimuli/spore_stims/complex_09_A_a.gif","self_paced","","5","complex_dissimilar","images/stimuli/spore_stims/complex_09_A_a.gif","","","","",""
"","null","html-keyboard-response","76","467101","0.0-19.0-0.2","SS1618435655734","","","null","","","","","","<p><img src= images/blank.png width =""600"" height = ""600"" style=""position:fixed;top:50%; left:50%; transform: translate(-50%, -50%); border:5px solid black"">","","","","","","","",""
"","593.4199999992852","sequential-stimulus-presentation-old","77","468199","0.0-19.0-1.2","SS1618435655734","trial","","40","500","1093.4199999992852","images/stimuli/spore_stims/complex_16_A_b.gif","images/stimuli/spore_stims/complex_09_A_a.gif","self_paced","","5","complex_dissimilar","images/stimuli/spore_stims/complex_09_A_a.gif","","","","",""
"","null","html-keyboard-response","78","469039","0.0-19.0-0.3","SS1618435655734","","","null","","","","","","<p><img src= images/blank.png width =""600"" height = ""600"" style=""position:fixed;top:50%; left:50%; transform: translate(-50%, -50%); border:5px solid black"">","","","","","","","",""
"","240.190000000468","sequential-stimulus-presentation-old","79","469783","0.0-19.0-1.3","SS1618435655734","trial","","40","500","740.190000000468","images/stimuli/spore_stims/complex_16_A_b.gif","images/stimuli/spore_stims/complex_09_A_a.gif","self_paced","","5","complex_dissimilar","images/stimuli/spore_stims/complex_09_A_a.gif","","","","",""
"","3062.724999999802","survey-multi-choice","80","472847","0.0-20.0","SS1618435655734","math_question","","","","","","","","","","","","{""Q0"":""13""}","[0]","13","",""
"","null","html-keyboard-response","81","473857","0.0-21.0-0.0","SS1618435655734","","","null","","","","","","<p><img src= images/blank.png width =""600"" height = ""600"" style=""position:fixed;top:50%; left:50%; transform: translate(-50%, -50%); border:5px solid black"">","","","","","","","",""
"","352.75","sequential-stimulus-presentation-old","82","479223","0.0-21.0-1.0","SS1618435655734","trial","","40","500","852.75","images/stimuli/spore_stims/simple_03_A_a.gif","images/stimuli/spore_stims/simple_05_A_b.gif","forced_long","","6","simple_dissimilar","images/stimuli/spore_stims/simple_05_A_b.gif","","","","",""
"","null","html-keyboard-response","83","480224","0.0-21.0-0.1","SS1618435655734","","","null","","","","","","<p><img src= images/blank.png width =""600"" height = ""600"" style=""position:fixed;top:50%; left:50%; transform: translate(-50%, -50%); border:5px solid black"">","","","","","","","",""
"","1371.4849999996368","sequential-stimulus-presentation-old","84","482103","0.0-21.0-1.1","SS1618435655734","trial","","40","500","1871.4849999996368","images/stimuli/spore_stims/simple_03_A_a.gif","images/stimuli/spore_stims/simple_05_A_b.gif","forced_long","","6","simple_dissimilar","images/stimuli/spore_stims/simple_05_A_b.gif","","","","",""
"","null","html-keyboard-response","85","483065","0.0-21.0-0.2","SS1618435655734","","","null","","","","","","<p><img src= images/blank.png width =""600"" height = ""600"" style=""position:fixed;top:50%; left:50%; transform: translate(-50%, -50%); border:5px solid black"">","","","","","","","",""
"","38.85500000073807","sequential-stimulus-presentation-old","86","483615","0.0-21.0-1.2","SS1618435655734","trial","","40","500","538.8550000007381","images/stimuli/spore_stims/simple_03_A_a.gif","images/stimuli/spore_stims/simple_05_A_b.gif","forced_long","","6","simple_dissimilar","images/stimuli/spore_stims/simple_05_A_b.gif","","","","",""
"","null","html-keyboard-response","87","484478","0.0-21.0-0.3","SS1618435655734","","","null","","","","","","<p><img src= images/blank.png width =""600"" height = ""600"" style=""position:fixed;top:50%; left:50%; transform: translate(-50%, -50%); border:5px solid black"">","","","","","","","",""
"","1.8000000000465661","sequential-stimulus-presentation-old","88","484983","0.0-21.0-1.3","SS1618435655734","trial","","40","500","501.80000000004657","images/stimuli/spore_stims/simple_03_A_a.gif","images/stimuli/spore_stims/simple_05_A_b.gif","forced_long","","6","simple_dissimilar","images/stimuli/spore_stims/simple_05_A_b.gif","","","","",""
"","null","html-keyboard-response","89","486010","0.0-21.0-0.4","SS1618435655734","","","null","","","","","","<p><img src= images/blank.png width =""600"" height = ""600"" style=""position:fixed;top:50%; left:50%; transform: translate(-50%, -50%); border:5px solid black"">","","","","","","","",""
"","36.6649999996298","sequential-stimulus-presentation-old","90","486559","0.0-21.0-1.4","SS1618435655734","trial","","40","500","536.6649999996298","images/stimuli/spore_stims/simple_03_A_a.gif","images/stimuli/spore_stims/simple_05_A_b.gif","forced_long","","6","simple_dissimilar","images/stimuli/spore_stims/simple_05_A_b.gif","","","","",""
"","null","html-keyboard-response","91","487454","0.0-21.0-0.5","SS1618435655734","","","null","","","","","","<p><img src= images/blank.png width =""600"" height = ""600"" style=""position:fixed;top:50%; left:50%; transform: translate(-50%, -50%); border:5px solid black"">","","","","","","","",""
"","4.049999999580905","sequential-stimulus-presentation-old","92","487967","0.0-21.0-1.5","SS1618435655734","trial","","40","500","504.0499999995809","images/stimuli/spore_stims/simple_03_A_a.gif","images/stimuli/spore_stims/simple_05_A_b.gif","forced_long","","6","simple_dissimilar","images/stimuli/spore_stims/simple_05_A_b.gif","","","","",""
"","2593.2800000009593","survey-multi-choice","93","490562","0.0-22.0","SS1618435655734","math_question","","","","","","","","","","","","{""Q0"":""15""}","[0]","15","",""
"","null","html-keyboard-response","94","491578","0.0-23.0-0.0","SS1618435655734","","","null","","","","","","<p><img src= images/blank.png width =""600"" height = ""600"" style=""position:fixed;top:50%; left:50%; transform: translate(-50%, -50%); border:5px solid black"">","","","","","","","",""
"","326.11499999987427","sequential-stimulus-presentation-old","95","496919","0.0-23.0-1.0","SS1618435655734","trial","","40","500","826.1149999998743","images/stimuli/spore_stims/complex_07_A_a.gif","images/stimuli/spore_stims/complex_02_A_b.gif","forced_long","","7","complex_dissimilar","images/stimuli/spore_stims/complex_02_A_b.gif","","","","",""
"","null","html-keyboard-response","96","497778","0.0-23.0-0.1","SS1618435655734","","","null","","","","","","<p><img src= images/blank.png width =""600"" height = ""600"" style=""position:fixed;top:50%; left:50%; transform: translate(-50%, -50%); border:5px solid black"">","","","","","","","",""
"","3005.4450000007055","sequential-stimulus-presentation-old","97","501287","0.0-23.0-1.1","SS1618435655734","trial","","40","500","3505.4450000007055","images/stimuli/spore_stims/complex_07_A_a.gif","images/stimuli/spore_stims/complex_02_A_b.gif","forced_long","","7","complex_dissimilar","images/stimuli/spore_stims/complex_07_A_a.gif","","","","",""
"","null","html-keyboard-response","98","502168","0.0-23.0-0.2","SS1618435655734","","","null","","","","","","<p><img src= images/blank.png width =""600"" height = ""600"" style=""position:fixed;top:50%; left:50%; transform: translate(-50%, -50%); border:5px solid black"">","","","","","","","",""
"","3262.515000000305","sequential-stimulus-presentation-old","99","505943","0.0-23.0-1.2","SS1618435655734","trial","","40","500","3762.515000000305","images/stimuli/spore_stims/complex_07_A_a.gif","images/stimuli/spore_stims/complex_02_A_b.gif","forced_long","","7","complex_dissimilar","images/stimuli/spore_stims/complex_02_A_b.gif","","","","",""
"","null","html-keyboard-response","100","506847","0.0-23.0-0.3","SS1618435655734","","","null","","","","","","<p><img src= images/blank.png width =""600"" height = ""600"" style=""position:fixed;top:50%; left:50%; transform: translate(-50%, -50%); border:5px solid black"">","","","","","","","",""
"","135.55000000091968","sequential-stimulus-presentation-old","101","507487","0.0-23.0-1.3","SS1618435655734","trial","","40","500","635.5500000009197","images/stimuli/spore_stims/complex_07_A_a.gif","images/stimuli/spore_stims/complex_02_A_b.gif","forced_long","","7","complex_dissimilar","images/stimuli/spore_stims/complex_02_A_b.gif","","","","",""
"","2563.3649999999907","survey-multi-choice","102","510052","0.0-24.0","SS1618435655734","math_question","","","","","","","","","","","","{""Q0"":""4""}","[0]","4","",""
"","null","html-keyboard-response","103","511327","0.0-25.0-0.0","SS1618435655734","","","null","","","","","","<p><img src= images/blank.png width =""600"" height = ""600"" style=""position:fixed;top:50%; left:50%; transform: translate(-50%, -50%); border:5px solid black"">","","","","","","","",""
"","529.0650000006426","sequential-stimulus-presentation-old","104","511918","0.0-25.0-1.0","SS1618435655734","trial","","40","500","1029.0650000006426","images/stimuli/spore_stims/simple_16_A_a.gif","images/stimuli/spore_stims/simple_20_A_b.gif","forced_short","","8","simple_dissimilar","images/stimuli/spore_stims/simple_20_A_b.gif","","","","",""
"","null","html-keyboard-response","105","513230","0.0-25.0-0.1","SS1618435655734","","","null","","","","","","<p><img src= images/blank.png width =""600"" height = ""600"" style=""position:fixed;top:50%; left:50%; transform: translate(-50%, -50%); border:5px solid black"">","","","","","","","",""
"","488.00499999924796","sequential-stimulus-presentation-old","106","514222","0.0-25.0-1.1","SS1618435655734","trial","","40","500","988.004999999248","images/stimuli/spore_stims/simple_16_A_a.gif","images/stimuli/spore_stims/simple_20_A_b.gif","forced_short","","8","simple_dissimilar","images/stimuli/spore_stims/simple_20_A_b.gif","","","","",""
"","null","html-keyboard-response","107","515036","0.0-25.0-0.2","SS1618435655734","","","null","","","","","","<p><img src= images/blank.png width =""600"" height = ""600"" style=""position:fixed;top:50%; left:50%; transform: translate(-50%, -50%); border:5px solid black"">","","","","","","","",""
"","142.6549999996205","sequential-stimulus-presentation-old","108","515694","0.0-25.0-1.2","SS1618435655734","trial","","40","500","642.6549999996205","images/stimuli/spore_stims/simple_16_A_a.gif","images/stimuli/spore_stims/simple_20_A_b.gif","forced_short","","8","simple_dissimilar","images/stimuli/spore_stims/simple_16_A_a.gif","","","","",""
"","null","html-keyboard-response","109","516590","0.0-25.0-0.3","SS1618435655734","","","null","","","","","","<p><img src= images/blank.png width =""600"" height = ""600"" style=""position:fixed;top:50%; left:50%; transform: translate(-50%, -50%); border:5px solid black"">","","","","","","","",""
"","24.955000000772998","sequential-stimulus-presentation-old","110","517118","0.0-25.0-1.3","SS1618435655734","trial","","40","500","524.955000000773","images/stimuli/spore_stims/simple_16_A_a.gif","images/stimuli/spore_stims/simple_20_A_b.gif","forced_short","","8","simple_dissimilar","images/stimuli/spore_stims/simple_16_A_a.gif","","","","",""
"","null","html-keyboard-response","111","518026","0.0-25.0-0.4","SS1618435655734","","","null","","","","","","<p><img src= images/blank.png width =""600"" height = ""600"" style=""position:fixed;top:50%; left:50%; transform: translate(-50%, -50%); border:5px solid black"">","","","","","","","",""
"","191.66000000049826","sequential-stimulus-presentation-old","112","518727","0.0-25.0-1.4","SS1618435655734","trial","","40","500","691.6600000004983","images/stimuli/spore_stims/simple_16_A_a.gif","images/stimuli/spore_stims/simple_20_A_b.gif","forced_short","","8","simple_dissimilar","images/stimuli/spore_stims/simple_20_A_b.gif","","","","",""
"","null","html-keyboard-response","113","519953","0.0-25.0-0.5","SS1618435655734","","","null","","","","","","<p><img src= images/blank.png width =""600"" height = ""600"" style=""position:fixed;top:50%; left:50%; transform: translate(-50%, -50%); border:5px solid black"">","","","","","","","",""
"","130.78500000119675","sequential-stimulus-presentation-old","114","520590","0.0-25.0-1.5","SS1618435655734","trial","","40","500","630.7850000011967","images/stimuli/spore_stims/simple_16_A_a.gif","images/stimuli/spore_stims/simple_20_A_b.gif","forced_short","","8","simple_dissimilar","images/stimuli/spore_stims/simple_20_A_b.gif","","","","",""
"","2528.904999999213","survey-multi-choice","115","523122","0.0-26.0","SS1618435655734","math_question","","","","","","","","","","","","{""Q0"":""9""}","[0]","9","",""
"","null","html-keyboard-response","116","524264","0.0-27.0-0.0","SS1618435655734","","","null","","","","","","<p><img src= images/blank.png width =""600"" height = ""600"" style=""position:fixed;top:50%; left:50%; transform: translate(-50%, -50%); border:5px solid black"">","","","","","","","",""
"","734.6099999995204","sequential-stimulus-presentation-old","117","525054","0.0-27.0-1.0","SS1618435655734","trial","","40","500","1234.6099999995204","images/stimuli/spore_stims/complex_12_A_a.gif","images/stimuli/spore_stims/complex_04_A_b.gif","forced_short","","9","complex_dissimilar","images/stimuli/spore_stims/complex_04_A_b.gif","","","","",""
"","null","html-keyboard-response","118","526268","0.0-27.0-0.1","SS1618435655734","","","null","","","","","","<p><img src= images/blank.png width =""600"" height = ""600"" style=""position:fixed;top:50%; left:50%; transform: translate(-50%, -50%); border:5px solid black"">","","","","","","","",""
"","2078.7249999993946","sequential-stimulus-presentation-old","119","528855","0.0-27.0-1.1","SS1618435655734","trial","","40","500","2578.7249999993946","images/stimuli/spore_stims/complex_12_A_a.gif","images/stimuli/spore_stims/complex_04_A_b.gif","forced_short","","9","complex_dissimilar","images/stimuli/spore_stims/complex_04_A_b.gif","","","","",""
"","null","html-keyboard-response","120","529663","0.0-27.0-0.2","SS1618435655734","","","null","","","","","","<p><img src= images/blank.png width =""600"" height = ""600"" style=""position:fixed;top:50%; left:50%; transform: translate(-50%, -50%); border:5px solid black"">","","","","","","","",""
"","1320.3100000009872","sequential-stimulus-presentation-old","121","531486","0.0-27.0-1.2","SS1618435655734","trial","","40","500","1820.3100000009872","images/stimuli/spore_stims/complex_12_A_a.gif","images/stimuli/spore_stims/complex_04_A_b.gif","forced_short","","9","complex_dissimilar","images/stimuli/spore_stims/complex_12_A_a.gif","","","","",""
"","null","html-keyboard-response","122","532394","0.0-27.0-0.3","SS1618435655734","","","null","","","","","","<p><img src= images/blank.png width =""600"" height = ""600"" style=""position:fixed;top:50%; left:50%; transform: translate(-50%, -50%); border:5px solid black"">","","","","","","","",""
"","780.0499999993481","sequential-stimulus-presentation-old","123","533678","0.0-27.0-1.3","SS1618435655734","trial","","40","500","1280.049999999348","images/stimuli/spore_stims/complex_12_A_a.gif","images/stimuli/spore_stims/complex_04_A_b.gif","forced_short","","9","complex_dissimilar","images/stimuli/spore_stims/complex_04_A_b.gif","","","","",""
"","null","html-keyboard-response","124","534696","0.0-27.0-0.4","SS1618435655734","","","null","","","","","","<p><img src= images/blank.png width =""600"" height = ""600"" style=""position:fixed;top:50%; left:50%; transform: translate(-50%, -50%); border:5px solid black"">","","","","","","","",""
"","427.6499999995576","sequential-stimulus-presentation-old","125","535638","0.0-27.0-1.4","SS1618435655734","trial","","40","500","927.6499999995576","images/stimuli/spore_stims/complex_12_A_a.gif","images/stimuli/spore_stims/complex_04_A_b.gif","forced_short","","9","complex_dissimilar","images/stimuli/spore_stims/complex_12_A_a.gif","","","","",""
"","3846.770000000135","survey-multi-choice","126","539487","0.0-28.0","SS1618435655734","math_question","","","","","","","","","","","","{""Q0"":""6""}","[0]","6","",""
"","null","html-keyboard-response","127","540750","0.0-29.0-0.0","SS1618435655734","","","null","","","","","","<p><img src= images/blank.png width =""600"" height = ""600"" style=""position:fixed;top:50%; left:50%; transform: translate(-50%, -50%); border:5px solid black"">","","","","","","","",""
"","2407.1750000002794","sequential-stimulus-presentation-old","128","548174","0.0-29.0-1.0","SS1618435655734","trial","","40","500","2907.1750000002794","images/stimuli/spore_stims/simple_04_A_a.gif","images/stimuli/spore_stims/simple_16_A_b.gif","forced_long","","10","simple_dissimilar","images/stimuli/spore_stims/simple_16_A_b.gif","","","","",""
"","null","html-keyboard-response","129","549317","0.0-29.0-0.1","SS1618435655734","","","null","","","","","","<p><img src= images/blank.png width =""600"" height = ""600"" style=""position:fixed;top:50%; left:50%; transform: translate(-50%, -50%); border:5px solid black"">","","","","","","","",""
"","213.99499999999534","sequential-stimulus-presentation-old","130","550038","0.0-29.0-1.1","SS1618435655734","trial","","40","500","713.9949999999953","images/stimuli/spore_stims/simple_04_A_a.gif","images/stimuli/spore_stims/simple_16_A_b.gif","forced_long","","10","simple_dissimilar","images/stimuli/spore_stims/simple_04_A_a.gif","","","","",""
"","null","html-keyboard-response","131","551243","0.0-29.0-0.2","SS1618435655734","","","null","","","","","","<p><img src= images/blank.png width =""600"" height = ""600"" style=""position:fixed;top:50%; left:50%; transform: translate(-50%, -50%); border:5px solid black"">","","","","","","","",""
"","85.87000000069384","sequential-stimulus-presentation-old","132","551846","0.0-29.0-1.2","SS1618435655734","trial","","40","500","585.8700000006938","images/stimuli/spore_stims/simple_04_A_a.gif","images/stimuli/spore_stims/simple_16_A_b.gif","forced_long","","10","simple_dissimilar","images/stimuli/spore_stims/simple_16_A_b.gif","","","","",""
"","null","html-keyboard-response","133","553101","0.0-29.0-0.3","SS1618435655734","","","null","","","","","","<p><img src= images/blank.png width =""600"" height = ""600"" style=""position:fixed;top:50%; left:50%; transform: translate(-50%, -50%); border:5px solid black"">","","","","","","","",""
"","574.679999999702","sequential-stimulus-presentation-old","134","554190","0.0-29.0-1.3","SS1618435655734","trial","","40","500","1074.679999999702","images/stimuli/spore_stims/simple_04_A_a.gif","images/stimuli/spore_stims/simple_16_A_b.gif","forced_long","","10","simple_dissimilar","images/stimuli/spore_stims/simple_04_A_a.gif","","","","",""
"","null","html-keyboard-response","135","555419","0.0-29.0-0.4","SS1618435655734","","","null","","","","","","<p><img src= images/blank.png width =""600"" height = ""600"" style=""position:fixed;top:50%; left:50%; transform: translate(-50%, -50%); border:5px solid black"">","","","","","","","",""
"","54.13000000047032","sequential-stimulus-presentation-old","136","555990","0.0-29.0-1.4","SS1618435655734","trial","","40","500","554.1300000004703","images/stimuli/spore_stims/simple_04_A_a.gif","images/stimuli/spore_stims/simple_16_A_b.gif","forced_long","","10","simple_dissimilar","images/stimuli/spore_stims/simple_16_A_b.gif","","","","",""
"","2719.1449999990873","survey-multi-choice","137","558711","0.0-30.0","SS1618435655734","math_question","","","","","","","","","","","","{""Q0"":""6""}","[0]","6","",""
"","null","html-keyboard-response","138","559807","0.0-31.0-0.0","SS1618435655734","","","null","","","","","","<p><img src= images/blank.png width =""600"" height = ""600"" style=""position:fixed;top:50%; left:50%; transform: translate(-50%, -50%); border:5px solid black"">","","","","","","","",""
"","672.725000000326","sequential-stimulus-presentation-old","139","560542","0.0-31.0-1.0","SS1618435655734","trial","","40","500","1172.725000000326","images/stimuli/spore_stims/complex_17_A_b.gif","images/stimuli/spore_stims/complex_18_A_a.gif","forced_short","","11","complex_dissimilar","images/stimuli/spore_stims/complex_18_A_a.gif","","","","",""
"","null","html-keyboard-response","140","561531","0.0-31.0-0.1","SS1618435655734","","","null","","","","","","<p><img src= images/blank.png width =""600"" height = ""600"" style=""position:fixed;top:50%; left:50%; transform: translate(-50%, -50%); border:5px solid black"">","","","","","","","",""
"","363.38499999872874","sequential-stimulus-presentation-old","141","562406","0.0-31.0-1.1","SS1618435655734","trial","","40","500","863.3849999987287","images/stimuli/spore_stims/complex_17_A_b.gif","images/stimuli/spore_stims/complex_18_A_a.gif","forced_short","","11","complex_dissimilar","images/stimuli/spore_stims/complex_18_A_a.gif","","","","",""
"","null","html-keyboard-response","142","563288","0.0-31.0-0.2","SS1618435655734","","","null","","","","","","<p><img src= images/blank.png width =""600"" height = ""600"" style=""position:fixed;top:50%; left:50%; transform: translate(-50%, -50%); border:5px solid black"">","","","","","","","",""
"","81.73499999963678","sequential-stimulus-presentation-old","143","563886","0.0-31.0-1.2","SS1618435655734","trial","","40","500","581.7349999996368","images/stimuli/spore_stims/complex_17_A_b.gif","images/stimuli/spore_stims/complex_18_A_a.gif","forced_short","","11","complex_dissimilar","images/stimuli/spore_stims/complex_18_A_a.gif","","","","",""
"","null","html-keyboard-response","144","564955","0.0-31.0-0.3","SS1618435655734","","","null","","","","","","<p><img src= images/blank.png width =""600"" height = ""600"" style=""position:fixed;top:50%; left:50%; transform: translate(-50%, -50%); border:5px solid black"">","","","","","","","",""
"","93.63999999919906","sequential-stimulus-presentation-old","145","565558","0.0-31.0-1.3","SS1618435655734","trial","","40","500","593.6399999991991","images/stimuli/spore_stims/complex_17_A_b.gif","images/stimuli/spore_stims/complex_18_A_a.gif","forced_short","","11","complex_dissimilar","images/stimuli/spore_stims/complex_18_A_a.gif","","","","",""
"","null","html-keyboard-response","146","566750","0.0-31.0-0.4","SS1618435655734","","","null","","","","","","<p><img src= images/blank.png width =""600"" height = ""600"" style=""position:fixed;top:50%; left:50%; transform: translate(-50%, -50%); border:5px solid black"">","","","","","","","",""
"","652.4100000006147","sequential-stimulus-presentation-old","147","567918","0.0-31.0-1.4","SS1618435655734","trial","","40","500","1152.4100000006147","images/stimuli/spore_stims/complex_17_A_b.gif","images/stimuli/spore_stims/complex_18_A_a.gif","forced_short","","11","complex_dissimilar","images/stimuli/spore_stims/complex_18_A_a.gif","","","","",""
"","null","html-keyboard-response","148","568998","0.0-31.0-0.5","SS1618435655734","","","null","","","","","","<p><img src= images/blank.png width =""600"" height = ""600"" style=""position:fixed;top:50%; left:50%; transform: translate(-50%, -50%); border:5px solid black"">","","","","","","","",""
"","175.38000000058673","sequential-stimulus-presentation-old","149","569686","0.0-31.0-1.5","SS1618435655734","trial","","40","500","675.3800000005867","images/stimuli/spore_stims/complex_17_A_b.gif","images/stimuli/spore_stims/complex_18_A_a.gif","forced_short","","11","complex_dissimilar","images/stimuli/spore_stims/complex_17_A_b.gif","","","","",""
"[{""page_index"":0,""viewing_time"":5248.029999998864}]","5248.20999999973","instructions","150","574937","0.0-32.0","SS1618435655734","instructions","","","","","","","","","","","","","","","",""
"","7190.974999999511","survey-likert","151","582131","0.0-33.0","SS1618435655734","similarity_question","","","","","","","","","","","","{""Q0"":5}","[0]","","images/stimuli/spore_stims/simple_13_A_a.gif","images/stimuli/spore_stims/simple_17_A_b.gif"
"","6634.715000000084","survey-likert","152","588772","0.0-34.0","SS1618435655734","similarity_question","","","","","","","","","","","","{""Q0"":4}","[0]","","images/stimuli/spore_stims/simple_11_A_a.gif","images/stimuli/spore_stims/simple_10_A_b.gif"
"","9181.755000001402","survey-likert","153","597960","0.0-35.0","SS1618435655734","similarity_question","","","","","","","","","","","","{""Q0"":2}","[0]","","images/stimuli/spore_stims/complex_18_A_a.gif","images/stimuli/spore_stims/complex_17_A_b.gif"
"","7843.509999998729","survey-likert","154","605810","0.0-36.0","SS1618435655734","similarity_question","","","","","","","","","","","","{""Q0"":2}","[0]","","images/stimuli/spore_stims/complex_04_A_b.gif","images/stimuli/spore_stims/complex_12_A_a.gif"
"","9178.050000000512","survey-likert","155","614995","0.0-37.0","SS1618435655734","similarity_question","","","","","","","","","","","","{""Q0"":3}","[0]","","images/stimuli/spore_stims/complex_10_A_b.gif","images/stimuli/spore_stims/complex_05_A_a.gif"
"","2422.404999999446","survey-likert","156","617424","0.0-38.0","SS1618435655734","similarity_question","","","","","","","","","","","","{""Q0"":6}","[0]","","images/stimuli/spore_stims/simple_05_A_b.gif","images/stimuli/spore_stims/simple_03_A_a.gif"
"","17993.689999999362","survey-likert","157","635425","0.0-39.0","SS1618435655734","similarity_question","","","","","","","","","","","","{""Q0"":4}","[0]","","images/stimuli/spore_stims/complex_05_A_b.gif","images/stimuli/spore_stims/complex_02_A_a.gif"
"","7184.474999999977","survey-likert","158","642616","0.0-40.0","SS1618435655734","similarity_question","","","","","","","","","","","","{""Q0"":1}","[0]","","images/stimuli/spore_stims/complex_16_A_b.gif","images/stimuli/spore_stims/complex_09_A_a.gif"
"","2672.230000000214","survey-likert","159","645295","0.0-41.0","SS1618435655734","similarity_question","","","","","","","","","","","","{""Q0"":6}","[0]","","images/stimuli/spore_stims/simple_08_A_a.gif","images/stimuli/spore_stims/simple_06_A_b.gif"
"","5138.25","survey-likert","160","650440","0.0-42.0","SS1618435655734","similarity_question","","","","","","","","","","","","{""Q0"":1}","[0]","","images/stimuli/spore_stims/complex_07_A_a.gif","images/stimuli/spore_stims/complex_02_A_b.gif"
"","2729.8200000004144","survey-likert","161","653176","0.0-43.0","SS1618435655734","similarity_question","","","","","","","","","","","","{""Q0"":4}","[0]","","images/stimuli/spore_stims/simple_04_A_a.gif","images/stimuli/spore_stims/simple_16_A_b.gif"
"","2628.785000000731","survey-likert","162","655812","0.0-44.0","SS1618435655734","similarity_question","","","","","","","","","","","","{""Q0"":5}","[0]","","images/stimuli/spore_stims/simple_20_A_b.gif","images/stimuli/spore_stims/simple_16_A_a.gif"
"[{""page_index"":0,""viewing_time"":2689.4799999991665}]","2689.664999999921","instructions","163","658508","0.0-45.0","SS1618435655734","instructions","","","","","","","","","","","","","","","",""
"","5039.619999999646","survey-likert","164","663550","0.0-46.0","SS1618435655734","","","","","","","","","images/stimuli/spore_stims/simple_10_A_b.gif","","","","{""Q0"":0}","[0]","","",""
"","4420.194999998785","survey-likert","165","667976","0.0-47.0","SS1618435655734","","","","","","","","","images/stimuli/spore_stims/complex_16_A_b.gif","","","","{""Q0"":5}","[0]","","",""
"","2699.699999999255","survey-likert","166","670682","0.0-48.0","SS1618435655734","","","","","","","","","images/stimuli/spore_stims/complex_04_A_b.gif","","","","{""Q0"":5}","[0]","","",""
"","3029.099999999744","survey-likert","167","673719","0.0-49.0","SS1618435655734","","","","","","","","","images/stimuli/spore_stims/simple_04_A_a.gif","","","","{""Q0"":0}","[0]","","",""
"","2795.939999999944","survey-likert","168","676521","0.0-50.0","SS1618435655734","","","","","","","","","images/stimuli/spore_stims/simple_16_A_a.gif","","","","{""Q0"":1}","[0]","","",""
"","66459.95000000042","survey-likert","169","742987","0.0-51.0","SS1618435655734","","","","","","","","","images/stimuli/spore_stims/complex_18_A_a.gif","","","","{""Q0"":5}","[0]","","",""
"","18751.669999999693","survey-likert","170","761745","0.0-52.0","SS1618435655734","","","","","","","","","images/stimuli/spore_stims/complex_05_A_a.gif","","","","{""Q0"":4}","[0]","","",""
"","3067.105000000098","survey-likert","171","764818","0.0-53.0","SS1618435655734","","","","","","","","","images/stimuli/spore_stims/simple_17_A_b.gif","","","","{""Q0"":1}","[0]","","",""
"","1633.8350000005448","survey-likert","172","766459","0.0-54.0","SS1618435655734","","","","","","","","","images/stimuli/spore_stims/simple_05_A_b.gif","","","","{""Q0"":0}","[0]","","",""
"","3311.470000000554","survey-likert","173","769777","0.0-55.0","SS1618435655734","","","","","","","","","images/stimuli/spore_stims/complex_07_A_a.gif","","","","{""Q0"":4}","[0]","","",""
"","2344.339999999618","survey-likert","174","772128","0.0-56.0","SS1618435655734","","","","","","","","","images/stimuli/spore_stims/complex_02_A_a.gif","","","","{""Q0"":4}","[0]","","",""
"","2595.2050000014715","survey-likert","175","774730","0.0-57.0","SS1618435655734","","","","","","","","","images/stimuli/spore_stims/simple_08_A_a.gif","","","","{""Q0"":0}","[0]","","",""
"[{""page_index"":0,""viewing_time"":1880.4350000009872}]","1880.590000000666","instructions","176","776617","0.0-58.0","SS1618435655734","instructions","","","","","","","","","","","","","","","",""
"","2615.2450000009267","demog-age","177","779237","0.0-59.0","SS1618435655734","","","","","","","","","","","","","{""age"":""20""}","","","",""
"","2462.649999999441","demog-ethnic-US","178","781705","0.0-60.0","SS1618435655734","","","","","","","","","","","","","{""ethnicity"":[""White""]}","[0]","","",""
"","9163.135000000708","demog-gender-and-education","179","790875","0.0-61.0","SS1618435655734","","","","","","","","","","","","","{""gender"":""Male"",""education"":""Bachelor's Degree""}","[0,1]","","",""
"","22508.869999999646","survey-text","180","813393","0.0-62.0","SS1618435655734","feedback","","","","","","","","","","","","{""Q0"":""Slowish at times ""}","","","",""
"[{""page_index"":0,""viewing_time"":1227.6149999998743}]","1227.9749999998603","instructions","181","814623","0.0-63.0","SS1618435655734","instructions","","","","","","","","","","","","","","","",""
