"view_history","rt","trial_type","trial_index","time_elapsed","internal_node_id","subject","stimulus_type","trial_stimulus","key_press","minimum_viewing_duration","trial_looking_time","block_deviant","block_background","exposure_type","stimulus","block_number","block_type","stimulus_displayed","responses","question_order","math_correct_answer","stimulus_left","stimulus_right"
"[{""page_index"":0,""viewing_time"":2620.414999779314}]","2621.3349997997284","instructions","0","2626","0.0-0.0","SS1618365661827","","","","","","","","","","","","","","","","",""
"[{""page_index"":0,""viewing_time"":1474.4850001297891},{""page_index"":1,""viewing_time"":4392.334999982268}]","5867.210000287741","instructions","1","10498","0.0-1.0","SS1618365661827","instructions","","","","","","","","","","","","","","","",""
"","4534.070000052452","sequential-stimulus-presentation-old","2","15541","0.0-2.0","SS1618365661827","","","40","500","5034.070000052452","null","null","self_paced","","","","","","","","",""
"","3110.0550000555813","sequential-stimulus-presentation-old","3","19158","0.0-3.0","SS1618365661827","","","40","500","3610.0550000555813","null","null","self_paced","","","","","","","","",""
"[{""page_index"":0,""viewing_time"":10029.179999604821}]","10029.629999771714","instructions","4","29191","0.0-4.0","SS1618365661827","instructions","","","","","","","","","","","","","","","",""
"","4740.519999992102","sequential-stimulus-presentation-old","5","38945","0.0-5.0","SS1618365661827","","","40","500","5240.519999992102","null","null","forced_long","","","","","","","","",""
"","4036.005000118166","sequential-stimulus-presentation-old","6","43047","0.0-6.0","SS1618365661827","","","40","50","4086.005000118166","null","null","forced_long","","","","","","","","",""
"[{""page_index"":0,""viewing_time"":2268.4649997390807}]","2268.8449998386204","instructions","7","45319","0.0-7.0","SS1618365661827","instructions","","","","","","","","","","","","","","","",""
"[{""page_index"":0,""viewing_time"":5471.965000033379},{""page_index"":1,""viewing_time"":5755.479999817908},{""page_index"":2,""viewing_time"":4012.390000279993},{""page_index"":3,""viewing_time"":1112.5900000333786},{""page_index"":4,""viewing_time"":1093.4099997393787}]","17446.28999987617","instructions","8","62768","0.0-8.0","SS1618365661827","instructions","","","","","","","","","","","","","","","",""
"","null","html-keyboard-response","9","63851","0.0-9.0-0.0","SS1618365661827","","","null","","","","","","<p><img src= images/blank.png width =""600"" height = ""600"" style=""position:fixed;top:50%; left:50%; transform: translate(-50%, -50%); border:5px solid black"">","","","","","","","",""
"","21234.809999819845","sequential-stimulus-presentation-old","10","85168","0.0-9.0-1.0","SS1618365661827","trial","","40","500","21734.809999819845","images/stimuli/spore_stims/complex_13_A_a.gif","images/stimuli/spore_stims/complex_03_A_b.gif","forced_short","","0","complex_dissimilar","images/stimuli/spore_stims/complex_03_A_b.gif","","","","",""
"","null","html-keyboard-response","11","86407","0.0-9.0-0.1","SS1618365661827","","","null","","","","","","<p><img src= images/blank.png width =""600"" height = ""600"" style=""position:fixed;top:50%; left:50%; transform: translate(-50%, -50%); border:5px solid black"">","","","","","","","",""
"","9786.970000248402","sequential-stimulus-presentation-old","12","96708","0.0-9.0-1.1","SS1618365661827","trial","","40","500","10286.970000248402","images/stimuli/spore_stims/complex_13_A_a.gif","images/stimuli/spore_stims/complex_03_A_b.gif","forced_short","","0","complex_dissimilar","images/stimuli/spore_stims/complex_13_A_a.gif","","","","",""
"","null","html-keyboard-response","13","97979","0.0-9.0-0.2","SS1618365661827","","","null","","","","","","<p><img src= images/blank.png width =""600"" height = ""600"" style=""position:fixed;top:50%; left:50%; transform: translate(-50%, -50%); border:5px solid black"">","","","","","","","",""
"","2711.494999937713","sequential-stimulus-presentation-old","14","101210","0.0-9.0-1.2","SS1618365661827","trial","","40","500","3211.494999937713","images/stimuli/spore_stims/complex_13_A_a.gif","images/stimuli/spore_stims/complex_03_A_b.gif","forced_short","","0","complex_dissimilar","images/stimuli/spore_stims/complex_03_A_b.gif","","","","",""
"","null","html-keyboard-response","15","102107","0.0-9.0-0.3","SS1618365661827","","","null","","","","","","<p><img src= images/blank.png width =""600"" height = ""600"" style=""position:fixed;top:50%; left:50%; transform: translate(-50%, -50%); border:5px solid black"">","","","","","","","",""
"","1619.4100002758205","sequential-stimulus-presentation-old","16","104242","0.0-9.0-1.3","SS1618365661827","trial","","40","500","2119.4100002758205","images/stimuli/spore_stims/complex_13_A_a.gif","images/stimuli/spore_stims/complex_03_A_b.gif","forced_short","","0","complex_dissimilar","images/stimuli/spore_stims/complex_03_A_b.gif","","","","",""
"","null","html-keyboard-response","17","105237","0.0-9.0-0.4","SS1618365661827","","","null","","","","","","<p><img src= images/blank.png width =""600"" height = ""600"" style=""position:fixed;top:50%; left:50%; transform: translate(-50%, -50%); border:5px solid black"">","","","","","","","",""
"","972.9200000874698","sequential-stimulus-presentation-old","18","106719","0.0-9.0-1.4","SS1618365661827","trial","","40","500","1472.9200000874698","images/stimuli/spore_stims/complex_13_A_a.gif","images/stimuli/spore_stims/complex_03_A_b.gif","forced_short","","0","complex_dissimilar","images/stimuli/spore_stims/complex_13_A_a.gif","","","","",""
"","3972.215000074357","survey-multi-choice","19","110720","0.0-10.0","SS1618365661827","math_question","","","","","","","","","","","","{""Q0"":""11""}","[0]","11","",""
"","null","html-keyboard-response","20","111964","0.0-11.0-0.0","SS1618365661827","","","null","","","","","","<p><img src= images/blank.png width =""600"" height = ""600"" style=""position:fixed;top:50%; left:50%; transform: translate(-50%, -50%); border:5px solid black"">","","","","","","","",""
"","1004.1100000962615","sequential-stimulus-presentation-old","21","117987","0.0-11.0-1.0","SS1618365661827","trial","","40","500","1504.1100000962615","images/stimuli/spore_stims/complex_20_A_b.gif","images/stimuli/spore_stims/complex_09_A_a.gif","forced_long","","1","complex_dissimilar","images/stimuli/spore_stims/complex_09_A_a.gif","","","","",""
"","null","html-keyboard-response","22","118830","0.0-11.0-0.1","SS1618365661827","","","null","","","","","","<p><img src= images/blank.png width =""600"" height = ""600"" style=""position:fixed;top:50%; left:50%; transform: translate(-50%, -50%); border:5px solid black"">","","","","","","","",""
"","43.26999979093671","sequential-stimulus-presentation-old","23","119393","0.0-11.0-1.1","SS1618365661827","trial","","40","500","543.2699997909367","images/stimuli/spore_stims/complex_20_A_b.gif","images/stimuli/spore_stims/complex_09_A_a.gif","forced_long","","1","complex_dissimilar","images/stimuli/spore_stims/complex_09_A_a.gif","","","","",""
"","null","html-keyboard-response","24","120674","0.0-11.0-0.2","SS1618365661827","","","null","","","","","","<p><img src= images/blank.png width =""600"" height = ""600"" style=""position:fixed;top:50%; left:50%; transform: translate(-50%, -50%); border:5px solid black"">","","","","","","","",""
"","388.414999935776","sequential-stimulus-presentation-old","25","121574","0.0-11.0-1.2","SS1618365661827","trial","","40","500","888.414999935776","images/stimuli/spore_stims/complex_20_A_b.gif","images/stimuli/spore_stims/complex_09_A_a.gif","forced_long","","1","complex_dissimilar","images/stimuli/spore_stims/complex_09_A_a.gif","","","","",""
"","null","html-keyboard-response","26","122747","0.0-11.0-0.3","SS1618365661827","","","null","","","","","","<p><img src= images/blank.png width =""600"" height = ""600"" style=""position:fixed;top:50%; left:50%; transform: translate(-50%, -50%); border:5px solid black"">","","","","","","","",""
"","698.8600003533065","sequential-stimulus-presentation-old","27","123964","0.0-11.0-1.3","SS1618365661827","trial","","40","500","1198.8600003533065","images/stimuli/spore_stims/complex_20_A_b.gif","images/stimuli/spore_stims/complex_09_A_a.gif","forced_long","","1","complex_dissimilar","images/stimuli/spore_stims/complex_09_A_a.gif","","","","",""
"","3604.9699997529387","survey-multi-choice","28","127576","0.0-12.0","SS1618365661827","math_question","","","","","","","","","","","","{""Q0"":""14""}","[0]","14","",""
"","null","html-keyboard-response","29","128910","0.0-13.0-0.0","SS1618365661827","","","null","","","","","","<p><img src= images/blank.png width =""600"" height = ""600"" style=""position:fixed;top:50%; left:50%; transform: translate(-50%, -50%); border:5px solid black"">","","","","","","","",""
"","2605.154999997467","sequential-stimulus-presentation-old","30","136541","0.0-13.0-1.0","SS1618365661827","trial","","40","500","3105.154999997467","images/stimuli/spore_stims/simple_13_A_b.gif","images/stimuli/spore_stims/simple_07_A_a.gif","forced_long","","2","simple_dissimilar","images/stimuli/spore_stims/simple_07_A_a.gif","","","","",""
"","null","html-keyboard-response","31","137772","0.0-13.0-0.1","SS1618365661827","","","null","","","","","","<p><img src= images/blank.png width =""600"" height = ""600"" style=""position:fixed;top:50%; left:50%; transform: translate(-50%, -50%); border:5px solid black"">","","","","","","","",""
"","55.4300001822412","sequential-stimulus-presentation-old","32","138341","0.0-13.0-1.1","SS1618365661827","trial","","40","500","555.4300001822412","images/stimuli/spore_stims/simple_13_A_b.gif","images/stimuli/spore_stims/simple_07_A_a.gif","forced_long","","2","simple_dissimilar","images/stimuli/spore_stims/simple_07_A_a.gif","","","","",""
"","null","html-keyboard-response","33","139567","0.0-13.0-0.2","SS1618365661827","","","null","","","","","","<p><img src= images/blank.png width =""600"" height = ""600"" style=""position:fixed;top:50%; left:50%; transform: translate(-50%, -50%); border:5px solid black"">","","","","","","","",""
"","259.18499985709786","sequential-stimulus-presentation-old","34","140353","0.0-13.0-1.2","SS1618365661827","trial","","40","500","759.1849998570979","images/stimuli/spore_stims/simple_13_A_b.gif","images/stimuli/spore_stims/simple_07_A_a.gif","forced_long","","2","simple_dissimilar","images/stimuli/spore_stims/simple_07_A_a.gif","","","","",""
"","null","html-keyboard-response","35","141185","0.0-13.0-0.3","SS1618365661827","","","null","","","","","","<p><img src= images/blank.png width =""600"" height = ""600"" style=""position:fixed;top:50%; left:50%; transform: translate(-50%, -50%); border:5px solid black"">","","","","","","","",""
"","245.81999983638525","sequential-stimulus-presentation-old","36","141956","0.0-13.0-1.3","SS1618365661827","trial","","40","500","745.8199998363853","images/stimuli/spore_stims/simple_13_A_b.gif","images/stimuli/spore_stims/simple_07_A_a.gif","forced_long","","2","simple_dissimilar","images/stimuli/spore_stims/simple_07_A_a.gif","","","","",""
"","null","html-keyboard-response","37","143200","0.0-13.0-0.4","SS1618365661827","","","null","","","","","","<p><img src= images/blank.png width =""600"" height = ""600"" style=""position:fixed;top:50%; left:50%; transform: translate(-50%, -50%); border:5px solid black"">","","","","","","","",""
"","312.1400000527501","sequential-stimulus-presentation-old","38","144024","0.0-13.0-1.4","SS1618365661827","trial","","40","500","812.1400000527501","images/stimuli/spore_stims/simple_13_A_b.gif","images/stimuli/spore_stims/simple_07_A_a.gif","forced_long","","2","simple_dissimilar","images/stimuli/spore_stims/simple_07_A_a.gif","","","","",""
"","2274.799999780953","survey-multi-choice","39","146307","0.0-14.0","SS1618365661827","math_question","","","","","","","","","","","","{""Q0"":""12""}","[0]","12","",""
"","null","html-keyboard-response","40","147461","0.0-15.0-0.0","SS1618365661827","","","null","","","","","","<p><img src= images/blank.png width =""600"" height = ""600"" style=""position:fixed;top:50%; left:50%; transform: translate(-50%, -50%); border:5px solid black"">","","","","","","","",""
"","18.42499990016222","sequential-stimulus-presentation-old","41","152505","0.0-15.0-1.0","SS1618365661827","trial","","40","500","518.4249999001622","images/stimuli/spore_stims/simple_14_A_b.gif","images/stimuli/spore_stims/simple_16_A_a.gif","forced_long","","3","simple_dissimilar","images/stimuli/spore_stims/simple_16_A_a.gif","","","","",""
"","null","html-keyboard-response","42","153800","0.0-15.0-0.1","SS1618365661827","","","null","","","","","","<p><img src= images/blank.png width =""600"" height = ""600"" style=""position:fixed;top:50%; left:50%; transform: translate(-50%, -50%); border:5px solid black"">","","","","","","","",""
"","539.6050000563264","sequential-stimulus-presentation-old","43","154868","0.0-15.0-1.1","SS1618365661827","trial","","40","500","1039.6050000563264","images/stimuli/spore_stims/simple_14_A_b.gif","images/stimuli/spore_stims/simple_16_A_a.gif","forced_long","","3","simple_dissimilar","images/stimuli/spore_stims/simple_16_A_a.gif","","","","",""
"","null","html-keyboard-response","44","156103","0.0-15.0-0.2","SS1618365661827","","","null","","","","","","<p><img src= images/blank.png width =""600"" height = ""600"" style=""position:fixed;top:50%; left:50%; transform: translate(-50%, -50%); border:5px solid black"">","","","","","","","",""
"","529.7799999825656","sequential-stimulus-presentation-old","45","157160","0.0-15.0-1.2","SS1618365661827","trial","","40","500","1029.7799999825656","images/stimuli/spore_stims/simple_14_A_b.gif","images/stimuli/spore_stims/simple_16_A_a.gif","forced_long","","3","simple_dissimilar","images/stimuli/spore_stims/simple_16_A_a.gif","","","","",""
"","null","html-keyboard-response","46","158163","0.0-15.0-0.3","SS1618365661827","","","null","","","","","","<p><img src= images/blank.png width =""600"" height = ""600"" style=""position:fixed;top:50%; left:50%; transform: translate(-50%, -50%); border:5px solid black"">","","","","","","","",""
"","308.92999982461333","sequential-stimulus-presentation-old","47","159001","0.0-15.0-1.3","SS1618365661827","trial","","40","500","808.9299998246133","images/stimuli/spore_stims/simple_14_A_b.gif","images/stimuli/spore_stims/simple_16_A_a.gif","forced_long","","3","simple_dissimilar","images/stimuli/spore_stims/simple_16_A_a.gif","","","","",""
"","2459.400000050664","survey-multi-choice","48","161472","0.0-16.0","SS1618365661827","math_question","","","","","","","","","","","","{""Q0"":""8""}","[0]","8","",""
"","null","html-keyboard-response","49","162509","0.0-17.0-0.0","SS1618365661827","","","null","","","","","","<p><img src= images/blank.png width =""600"" height = ""600"" style=""position:fixed;top:50%; left:50%; transform: translate(-50%, -50%); border:5px solid black"">","","","","","","","",""
"","5689.615000039339","sequential-stimulus-presentation-old","50","168294","0.0-17.0-1.0","SS1618365661827","trial","","40","500","6189.615000039339","images/stimuli/spore_stims/complex_04_A_a.gif","images/stimuli/spore_stims/complex_07_A_b.gif","forced_short","","4","complex_dissimilar","images/stimuli/spore_stims/complex_07_A_b.gif","","","","",""
"","null","html-keyboard-response","51","169430","0.0-17.0-0.1","SS1618365661827","","","null","","","","","","<p><img src= images/blank.png width =""600"" height = ""600"" style=""position:fixed;top:50%; left:50%; transform: translate(-50%, -50%); border:5px solid black"">","","","","","","","",""
"","634.2099998146296","sequential-stimulus-presentation-old","52","170579","0.0-17.0-1.1","SS1618365661827","trial","","40","500","1134.2099998146296","images/stimuli/spore_stims/complex_04_A_a.gif","images/stimuli/spore_stims/complex_07_A_b.gif","forced_short","","4","complex_dissimilar","images/stimuli/spore_stims/complex_07_A_b.gif","","","","",""
"","null","html-keyboard-response","53","171625","0.0-17.0-0.2","SS1618365661827","","","null","","","","","","<p><img src= images/blank.png width =""600"" height = ""600"" style=""position:fixed;top:50%; left:50%; transform: translate(-50%, -50%); border:5px solid black"">","","","","","","","",""
"","1071.0999998264015","sequential-stimulus-presentation-old","54","173222","0.0-17.0-1.2","SS1618365661827","trial","","40","500","1571.0999998264015","images/stimuli/spore_stims/complex_04_A_a.gif","images/stimuli/spore_stims/complex_07_A_b.gif","forced_short","","4","complex_dissimilar","images/stimuli/spore_stims/complex_04_A_a.gif","","","","",""
"","null","html-keyboard-response","55","174200","0.0-17.0-0.3","SS1618365661827","","","null","","","","","","<p><img src= images/blank.png width =""600"" height = ""600"" style=""position:fixed;top:50%; left:50%; transform: translate(-50%, -50%); border:5px solid black"">","","","","","","","",""
"","555.9899997897446","sequential-stimulus-presentation-old","56","175282","0.0-17.0-1.3","SS1618365661827","trial","","40","500","1055.9899997897446","images/stimuli/spore_stims/complex_04_A_a.gif","images/stimuli/spore_stims/complex_07_A_b.gif","forced_short","","4","complex_dissimilar","images/stimuli/spore_stims/complex_07_A_b.gif","","","","",""
"","null","html-keyboard-response","57","176475","0.0-17.0-0.4","SS1618365661827","","","null","","","","","","<p><img src= images/blank.png width =""600"" height = ""600"" style=""position:fixed;top:50%; left:50%; transform: translate(-50%, -50%); border:5px solid black"">","","","","","","","",""
"","150.7149999961257","sequential-stimulus-presentation-old","58","177141","0.0-17.0-1.4","SS1618365661827","trial","","40","500","650.7149999961257","images/stimuli/spore_stims/complex_04_A_a.gif","images/stimuli/spore_stims/complex_07_A_b.gif","forced_short","","4","complex_dissimilar","images/stimuli/spore_stims/complex_07_A_b.gif","","","","",""
"","4811.470000073314","survey-multi-choice","59","181963","0.0-18.0","SS1618365661827","math_question","","","","","","","","","","","","{""Q0"":""13""}","[0]","13","",""
"","null","html-keyboard-response","60","182882","0.0-19.0-0.0","SS1618365661827","","","null","","","","","","<p><img src= images/blank.png width =""600"" height = ""600"" style=""position:fixed;top:50%; left:50%; transform: translate(-50%, -50%); border:5px solid black"">","","","","","","","",""
"","193.94499994814396","sequential-stimulus-presentation-old","61","188094","0.0-19.0-1.0","SS1618365661827","trial","","40","500","693.944999948144","images/stimuli/spore_stims/complex_18_A_a.gif","images/stimuli/spore_stims/complex_09_A_b.gif","forced_long","","5","complex_dissimilar","images/stimuli/spore_stims/complex_09_A_b.gif","","","","",""
"","null","html-keyboard-response","62","189069","0.0-19.0-0.1","SS1618365661827","","","null","","","","","","<p><img src= images/blank.png width =""600"" height = ""600"" style=""position:fixed;top:50%; left:50%; transform: translate(-50%, -50%); border:5px solid black"">","","","","","","","",""
"","562.4700002372265","sequential-stimulus-presentation-old","63","190149","0.0-19.0-1.1","SS1618365661827","trial","","40","500","1062.4700002372265","images/stimuli/spore_stims/complex_18_A_a.gif","images/stimuli/spore_stims/complex_09_A_b.gif","forced_long","","5","complex_dissimilar","images/stimuli/spore_stims/complex_09_A_b.gif","","","","",""
"","null","html-keyboard-response","64","191050","0.0-19.0-0.2","SS1618365661827","","","null","","","","","","<p><img src= images/blank.png width =""600"" height = ""600"" style=""position:fixed;top:50%; left:50%; transform: translate(-50%, -50%); border:5px solid black"">","","","","","","","",""
"","17.96499965712428","sequential-stimulus-presentation-old","65","191587","0.0-19.0-1.2","SS1618365661827","trial","","40","500","517.9649996571243","images/stimuli/spore_stims/complex_18_A_a.gif","images/stimuli/spore_stims/complex_09_A_b.gif","forced_long","","5","complex_dissimilar","images/stimuli/spore_stims/complex_09_A_b.gif","","","","",""
"","null","html-keyboard-response","66","192765","0.0-19.0-0.3","SS1618365661827","","","null","","","","","","<p><img src= images/blank.png width =""600"" height = ""600"" style=""position:fixed;top:50%; left:50%; transform: translate(-50%, -50%); border:5px solid black"">","","","","","","","",""
"","80.68500040099025","sequential-stimulus-presentation-old","67","193379","0.0-19.0-1.3","SS1618365661827","trial","","40","500","580.6850004009902","images/stimuli/spore_stims/complex_18_A_a.gif","images/stimuli/spore_stims/complex_09_A_b.gif","forced_long","","5","complex_dissimilar","images/stimuli/spore_stims/complex_09_A_b.gif","","","","",""
"","null","html-keyboard-response","68","194398","0.0-19.0-0.4","SS1618365661827","","","null","","","","","","<p><img src= images/blank.png width =""600"" height = ""600"" style=""position:fixed;top:50%; left:50%; transform: translate(-50%, -50%); border:5px solid black"">","","","","","","","",""
"","1471.0549996234477","sequential-stimulus-presentation-old","69","196413","0.0-19.0-1.4","SS1618365661827","trial","","40","500","1971.0549996234477","images/stimuli/spore_stims/complex_18_A_a.gif","images/stimuli/spore_stims/complex_09_A_b.gif","forced_long","","5","complex_dissimilar","images/stimuli/spore_stims/complex_18_A_a.gif","","","","",""
"","2697.0700002275407","survey-multi-choice","70","199126","0.0-20.0","SS1618365661827","math_question","","","","","","","","","","","","{""Q0"":""12""}","[0]","12","",""
"","null","html-keyboard-response","71","200331","0.0-21.0-0.0","SS1618365661827","","","null","","","","","","<p><img src= images/blank.png width =""600"" height = ""600"" style=""position:fixed;top:50%; left:50%; transform: translate(-50%, -50%); border:5px solid black"">","","","","","","","",""
"","1328.2900000922382","sequential-stimulus-presentation-old","72","201731","0.0-21.0-1.0","SS1618365661827","trial","","40","500","1828.2900000922382","images/stimuli/spore_stims/simple_09_A_a.gif","images/stimuli/spore_stims/simple_18_A_b.gif","forced_short","","6","simple_dissimilar","images/stimuli/spore_stims/simple_18_A_b.gif","","","","",""
"","null","html-keyboard-response","73","202790","0.0-21.0-0.1","SS1618365661827","","","null","","","","","","<p><img src= images/blank.png width =""600"" height = ""600"" style=""position:fixed;top:50%; left:50%; transform: translate(-50%, -50%); border:5px solid black"">","","","","","","","",""
"","317.46500032022595","sequential-stimulus-presentation-old","74","203642","0.0-21.0-1.1","SS1618365661827","trial","","40","500","817.465000320226","images/stimuli/spore_stims/simple_09_A_a.gif","images/stimuli/spore_stims/simple_18_A_b.gif","forced_short","","6","simple_dissimilar","images/stimuli/spore_stims/simple_18_A_b.gif","","","","",""
"","null","html-keyboard-response","75","204759","0.0-21.0-0.2","SS1618365661827","","","null","","","","","","<p><img src= images/blank.png width =""600"" height = ""600"" style=""position:fixed;top:50%; left:50%; transform: translate(-50%, -50%); border:5px solid black"">","","","","","","","",""
"","288.8250001706183","sequential-stimulus-presentation-old","76","205566","0.0-21.0-1.2","SS1618365661827","trial","","40","500","788.8250001706183","images/stimuli/spore_stims/simple_09_A_a.gif","images/stimuli/spore_stims/simple_18_A_b.gif","forced_short","","6","simple_dissimilar","images/stimuli/spore_stims/simple_09_A_a.gif","","","","",""
"","null","html-keyboard-response","77","206624","0.0-21.0-0.3","SS1618365661827","","","null","","","","","","<p><img src= images/blank.png width =""600"" height = ""600"" style=""position:fixed;top:50%; left:50%; transform: translate(-50%, -50%); border:5px solid black"">","","","","","","","",""
"","131.64000026881695","sequential-stimulus-presentation-old","78","207285","0.0-21.0-1.3","SS1618365661827","trial","","40","500","631.640000268817","images/stimuli/spore_stims/simple_09_A_a.gif","images/stimuli/spore_stims/simple_18_A_b.gif","forced_short","","6","simple_dissimilar","images/stimuli/spore_stims/simple_18_A_b.gif","","","","",""
"","null","html-keyboard-response","79","208494","0.0-21.0-0.4","SS1618365661827","","","null","","","","","","<p><img src= images/blank.png width =""600"" height = ""600"" style=""position:fixed;top:50%; left:50%; transform: translate(-50%, -50%); border:5px solid black"">","","","","","","","",""
"","169.26999995484948","sequential-stimulus-presentation-old","80","209193","0.0-21.0-1.4","SS1618365661827","trial","","40","500","669.2699999548495","images/stimuli/spore_stims/simple_09_A_a.gif","images/stimuli/spore_stims/simple_18_A_b.gif","forced_short","","6","simple_dissimilar","images/stimuli/spore_stims/simple_18_A_b.gif","","","","",""
"","null","html-keyboard-response","81","210169","0.0-21.0-0.5","SS1618365661827","","","null","","","","","","<p><img src= images/blank.png width =""600"" height = ""600"" style=""position:fixed;top:50%; left:50%; transform: translate(-50%, -50%); border:5px solid black"">","","","","","","","",""
"","276.4150002039969","sequential-stimulus-presentation-old","82","210971","0.0-21.0-1.5","SS1618365661827","trial","","40","500","776.4150002039969","images/stimuli/spore_stims/simple_09_A_a.gif","images/stimuli/spore_stims/simple_18_A_b.gif","forced_short","","6","simple_dissimilar","images/stimuli/spore_stims/simple_09_A_a.gif","","","","",""
"","2210.0700000301003","survey-multi-choice","83","213191","0.0-22.0","SS1618365661827","math_question","","","","","","","","","","","","{""Q0"":""12""}","[0]","12","",""
"","null","html-keyboard-response","84","214078","0.0-23.0-0.0","SS1618365661827","","","null","","","","","","<p><img src= images/blank.png width =""600"" height = ""600"" style=""position:fixed;top:50%; left:50%; transform: translate(-50%, -50%); border:5px solid black"">","","","","","","","",""
"","1384.954999666661","sequential-stimulus-presentation-old","85","215990","0.0-23.0-1.0","SS1618365661827","trial","","40","500","1884.954999666661","images/stimuli/spore_stims/complex_18_A_b.gif","images/stimuli/spore_stims/complex_08_A_a.gif","self_paced","","7","complex_dissimilar","images/stimuli/spore_stims/complex_08_A_a.gif","","","","",""
"","null","html-keyboard-response","86","217180","0.0-23.0-0.1","SS1618365661827","","","null","","","","","","<p><img src= images/blank.png width =""600"" height = ""600"" style=""position:fixed;top:50%; left:50%; transform: translate(-50%, -50%); border:5px solid black"">","","","","","","","",""
"","497.44500033557415","sequential-stimulus-presentation-old","87","218216","0.0-23.0-1.1","SS1618365661827","trial","","40","500","997.4450003355742","images/stimuli/spore_stims/complex_18_A_b.gif","images/stimuli/spore_stims/complex_08_A_a.gif","self_paced","","7","complex_dissimilar","images/stimuli/spore_stims/complex_08_A_a.gif","","","","",""
"","null","html-keyboard-response","88","219278","0.0-23.0-0.2","SS1618365661827","","","null","","","","","","<p><img src= images/blank.png width =""600"" height = ""600"" style=""position:fixed;top:50%; left:50%; transform: translate(-50%, -50%); border:5px solid black"">","","","","","","","",""
"","175.97000021487474","sequential-stimulus-presentation-old","89","219982","0.0-23.0-1.2","SS1618365661827","trial","","40","500","675.9700002148747","images/stimuli/spore_stims/complex_18_A_b.gif","images/stimuli/spore_stims/complex_08_A_a.gif","self_paced","","7","complex_dissimilar","images/stimuli/spore_stims/complex_08_A_a.gif","","","","",""
"","null","html-keyboard-response","90","220929","0.0-23.0-0.3","SS1618365661827","","","null","","","","","","<p><img src= images/blank.png width =""600"" height = ""600"" style=""position:fixed;top:50%; left:50%; transform: translate(-50%, -50%); border:5px solid black"">","","","","","","","",""
"","198.59000016003847","sequential-stimulus-presentation-old","91","221650","0.0-23.0-1.3","SS1618365661827","trial","","40","500","698.5900001600385","images/stimuli/spore_stims/complex_18_A_b.gif","images/stimuli/spore_stims/complex_08_A_a.gif","self_paced","","7","complex_dissimilar","images/stimuli/spore_stims/complex_08_A_a.gif","","","","",""
"","null","html-keyboard-response","92","222819","0.0-23.0-0.4","SS1618365661827","","","null","","","","","","<p><img src= images/blank.png width =""600"" height = ""600"" style=""position:fixed;top:50%; left:50%; transform: translate(-50%, -50%); border:5px solid black"">","","","","","","","",""
"","664.3349998630583","sequential-stimulus-presentation-old","93","224011","0.0-23.0-1.4","SS1618365661827","trial","","40","500","1164.3349998630583","images/stimuli/spore_stims/complex_18_A_b.gif","images/stimuli/spore_stims/complex_08_A_a.gif","self_paced","","7","complex_dissimilar","images/stimuli/spore_stims/complex_08_A_a.gif","","","","",""
"","null","html-keyboard-response","94","225113","0.0-23.0-0.5","SS1618365661827","","","null","","","","","","<p><img src= images/blank.png width =""600"" height = ""600"" style=""position:fixed;top:50%; left:50%; transform: translate(-50%, -50%); border:5px solid black"">","","","","","","","",""
"","187.03499995172024","sequential-stimulus-presentation-old","95","225830","0.0-23.0-1.5","SS1618365661827","trial","","40","500","687.0349999517202","images/stimuli/spore_stims/complex_18_A_b.gif","images/stimuli/spore_stims/complex_08_A_a.gif","self_paced","","7","complex_dissimilar","images/stimuli/spore_stims/complex_08_A_a.gif","","","","",""
"","2670.369999948889","survey-multi-choice","96","228515","0.0-24.0","SS1618365661827","math_question","","","","","","","","","","","","{""Q0"":""17""}","[0]","17","",""
"","null","html-keyboard-response","97","229420","0.0-25.0-0.0","SS1618365661827","","","null","","","","","","<p><img src= images/blank.png width =""600"" height = ""600"" style=""position:fixed;top:50%; left:50%; transform: translate(-50%, -50%); border:5px solid black"">","","","","","","","",""
"","1684.059999883175","sequential-stimulus-presentation-old","98","231187","0.0-25.0-1.0","SS1618365661827","trial","","40","500","2184.059999883175","images/stimuli/spore_stims/simple_13_A_a.gif","images/stimuli/spore_stims/simple_08_A_b.gif","forced_short","","8","simple_dissimilar","images/stimuli/spore_stims/simple_08_A_b.gif","","","","",""
"","null","html-keyboard-response","99","232495","0.0-25.0-0.1","SS1618365661827","","","null","","","","","","<p><img src= images/blank.png width =""600"" height = ""600"" style=""position:fixed;top:50%; left:50%; transform: translate(-50%, -50%); border:5px solid black"">","","","","","","","",""
"","80.05499979481101","sequential-stimulus-presentation-old","100","233137","0.0-25.0-1.1","SS1618365661827","trial","","40","500","580.054999794811","images/stimuli/spore_stims/simple_13_A_a.gif","images/stimuli/spore_stims/simple_08_A_b.gif","forced_short","","8","simple_dissimilar","images/stimuli/spore_stims/simple_13_A_a.gif","","","","",""
"","null","html-keyboard-response","101","234105","0.0-25.0-0.2","SS1618365661827","","","null","","","","","","<p><img src= images/blank.png width =""600"" height = ""600"" style=""position:fixed;top:50%; left:50%; transform: translate(-50%, -50%); border:5px solid black"">","","","","","","","",""
"","36.24999988824129","sequential-stimulus-presentation-old","102","234709","0.0-25.0-1.2","SS1618365661827","trial","","40","500","536.2499998882413","images/stimuli/spore_stims/simple_13_A_a.gif","images/stimuli/spore_stims/simple_08_A_b.gif","forced_short","","8","simple_dissimilar","images/stimuli/spore_stims/simple_08_A_b.gif","","","","",""
"","null","html-keyboard-response","103","235943","0.0-25.0-0.3","SS1618365661827","","","null","","","","","","<p><img src= images/blank.png width =""600"" height = ""600"" style=""position:fixed;top:50%; left:50%; transform: translate(-50%, -50%); border:5px solid black"">","","","","","","","",""
"","62.844999600201845","sequential-stimulus-presentation-old","104","236547","0.0-25.0-1.3","SS1618365661827","trial","","40","500","562.8449996002018","images/stimuli/spore_stims/simple_13_A_a.gif","images/stimuli/spore_stims/simple_08_A_b.gif","forced_short","","8","simple_dissimilar","images/stimuli/spore_stims/simple_08_A_b.gif","","","","",""
"","null","html-keyboard-response","105","237449","0.0-25.0-0.4","SS1618365661827","","","null","","","","","","<p><img src= images/blank.png width =""600"" height = ""600"" style=""position:fixed;top:50%; left:50%; transform: translate(-50%, -50%); border:5px solid black"">","","","","","","","",""
"","592.1650002710521","sequential-stimulus-presentation-old","106","238581","0.0-25.0-1.4","SS1618365661827","trial","","40","500","1092.1650002710521","images/stimuli/spore_stims/simple_13_A_a.gif","images/stimuli/spore_stims/simple_08_A_b.gif","forced_short","","8","simple_dissimilar","images/stimuli/spore_stims/simple_08_A_b.gif","","","","",""
"","2266.489999834448","survey-multi-choice","107","240865","0.0-26.0","SS1618365661827","math_question","","","","","","","","","","","","{""Q0"":""11""}","[0]","11","",""
"","null","html-keyboard-response","108","241739","0.0-27.0-0.0","SS1618365661827","","","null","","","","","","<p><img src= images/blank.png width =""600"" height = ""600"" style=""position:fixed;top:50%; left:50%; transform: translate(-50%, -50%); border:5px solid black"">","","","","","","","",""
"","100.79000005498528","sequential-stimulus-presentation-old","109","242377","0.0-27.0-1.0","SS1618365661827","trial","","40","500","600.7900000549853","images/stimuli/spore_stims/simple_16_A_b.gif","images/stimuli/spore_stims/simple_05_A_a.gif","self_paced","","9","simple_dissimilar","images/stimuli/spore_stims/simple_05_A_a.gif","","","","",""
"","null","html-keyboard-response","110","243239","0.0-27.0-0.1","SS1618365661827","","","null","","","","","","<p><img src= images/blank.png width =""600"" height = ""600"" style=""position:fixed;top:50%; left:50%; transform: translate(-50%, -50%); border:5px solid black"">","","","","","","","",""
"","171.1199996061623","sequential-stimulus-presentation-old","111","243947","0.0-27.0-1.1","SS1618365661827","trial","","40","500","671.1199996061623","images/stimuli/spore_stims/simple_16_A_b.gif","images/stimuli/spore_stims/simple_05_A_a.gif","self_paced","","9","simple_dissimilar","images/stimuli/spore_stims/simple_16_A_b.gif","","","","",""
"","null","html-keyboard-response","112","244796","0.0-27.0-0.2","SS1618365661827","","","null","","","","","","<p><img src= images/blank.png width =""600"" height = ""600"" style=""position:fixed;top:50%; left:50%; transform: translate(-50%, -50%); border:5px solid black"">","","","","","","","",""
"","385.37999987602234","sequential-stimulus-presentation-old","113","245724","0.0-27.0-1.2","SS1618365661827","trial","","40","500","885.3799998760223","images/stimuli/spore_stims/simple_16_A_b.gif","images/stimuli/spore_stims/simple_05_A_a.gif","self_paced","","9","simple_dissimilar","images/stimuli/spore_stims/simple_05_A_a.gif","","","","",""
"","null","html-keyboard-response","114","246790","0.0-27.0-0.3","SS1618365661827","","","null","","","","","","<p><img src= images/blank.png width =""600"" height = ""600"" style=""position:fixed;top:50%; left:50%; transform: translate(-50%, -50%); border:5px solid black"">","","","","","","","",""
"","328.7949999794364","sequential-stimulus-presentation-old","115","247664","0.0-27.0-1.3","SS1618365661827","trial","","40","500","828.7949999794364","images/stimuli/spore_stims/simple_16_A_b.gif","images/stimuli/spore_stims/simple_05_A_a.gif","self_paced","","9","simple_dissimilar","images/stimuli/spore_stims/simple_05_A_a.gif","","","","",""
"","2309.499999973923","survey-multi-choice","116","249997","0.0-28.0","SS1618365661827","math_question","","","","","","","","","","","","{""Q0"":""8""}","[0]","8","",""
"","null","html-keyboard-response","117","250895","0.0-29.0-0.0","SS1618365661827","","","null","","","","","","<p><img src= images/blank.png width =""600"" height = ""600"" style=""position:fixed;top:50%; left:50%; transform: translate(-50%, -50%); border:5px solid black"">","","","","","","","",""
"","44.71000004559755","sequential-stimulus-presentation-old","118","251481","0.0-29.0-1.0","SS1618365661827","trial","","40","500","544.7100000455976","images/stimuli/spore_stims/simple_19_A_a.gif","images/stimuli/spore_stims/simple_05_A_b.gif","self_paced","","10","simple_dissimilar","images/stimuli/spore_stims/simple_05_A_b.gif","","","","",""
"","null","html-keyboard-response","119","252489","0.0-29.0-0.1","SS1618365661827","","","null","","","","","","<p><img src= images/blank.png width =""600"" height = ""600"" style=""position:fixed;top:50%; left:50%; transform: translate(-50%, -50%); border:5px solid black"">","","","","","","","",""
"","528.3550000749528","sequential-stimulus-presentation-old","120","253563","0.0-29.0-1.1","SS1618365661827","trial","","40","500","1028.3550000749528","images/stimuli/spore_stims/simple_19_A_a.gif","images/stimuli/spore_stims/simple_05_A_b.gif","self_paced","","10","simple_dissimilar","images/stimuli/spore_stims/simple_19_A_a.gif","","","","",""
"","null","html-keyboard-response","121","254437","0.0-29.0-0.2","SS1618365661827","","","null","","","","","","<p><img src= images/blank.png width =""600"" height = ""600"" style=""position:fixed;top:50%; left:50%; transform: translate(-50%, -50%); border:5px solid black"">","","","","","","","",""
"","330.68499993532896","sequential-stimulus-presentation-old","122","255319","0.0-29.0-1.2","SS1618365661827","trial","","40","500","830.684999935329","images/stimuli/spore_stims/simple_19_A_a.gif","images/stimuli/spore_stims/simple_05_A_b.gif","self_paced","","10","simple_dissimilar","images/stimuli/spore_stims/simple_05_A_b.gif","","","","",""
"","null","html-keyboard-response","123","256259","0.0-29.0-0.3","SS1618365661827","","","null","","","","","","<p><img src= images/blank.png width =""600"" height = ""600"" style=""position:fixed;top:50%; left:50%; transform: translate(-50%, -50%); border:5px solid black"">","","","","","","","",""
"","12.180000077933073","sequential-stimulus-presentation-old","124","256801","0.0-29.0-1.3","SS1618365661827","trial","","40","500","512.1800000779331","images/stimuli/spore_stims/simple_19_A_a.gif","images/stimuli/spore_stims/simple_05_A_b.gif","self_paced","","10","simple_dissimilar","images/stimuli/spore_stims/simple_19_A_a.gif","","","","",""
"","2247.964999638498","survey-multi-choice","125","259073","0.0-30.0","SS1618365661827","math_question","","","","","","","","","","","","{""Q0"":""8""}","[0]","8","",""
"","null","html-keyboard-response","126","260131","0.0-31.0-0.0","SS1618365661827","","","null","","","","","","<p><img src= images/blank.png width =""600"" height = ""600"" style=""position:fixed;top:50%; left:50%; transform: translate(-50%, -50%); border:5px solid black"">","","","","","","","",""
"","623.2699998654425","sequential-stimulus-presentation-old","127","261275","0.0-31.0-1.0","SS1618365661827","trial","","40","500","1123.2699998654425","images/stimuli/spore_stims/complex_11_A_b.gif","images/stimuli/spore_stims/complex_07_A_a.gif","self_paced","","11","complex_dissimilar","images/stimuli/spore_stims/complex_07_A_a.gif","","","","",""
"","null","html-keyboard-response","128","262198","0.0-31.0-0.1","SS1618365661827","","","null","","","","","","<p><img src= images/blank.png width =""600"" height = ""600"" style=""position:fixed;top:50%; left:50%; transform: translate(-50%, -50%); border:5px solid black"">","","","","","","","",""
"","740.1149999350309","sequential-stimulus-presentation-old","129","263462","0.0-31.0-1.1","SS1618365661827","trial","","40","500","1240.114999935031","images/stimuli/spore_stims/complex_11_A_b.gif","images/stimuli/spore_stims/complex_07_A_a.gif","self_paced","","11","complex_dissimilar","images/stimuli/spore_stims/complex_07_A_a.gif","","","","",""
"","null","html-keyboard-response","130","264527","0.0-31.0-0.2","SS1618365661827","","","null","","","","","","<p><img src= images/blank.png width =""600"" height = ""600"" style=""position:fixed;top:50%; left:50%; transform: translate(-50%, -50%); border:5px solid black"">","","","","","","","",""
"","1253.5000001080334","sequential-stimulus-presentation-old","131","266324","0.0-31.0-1.2","SS1618365661827","trial","","40","500","1753.5000001080334","images/stimuli/spore_stims/complex_11_A_b.gif","images/stimuli/spore_stims/complex_07_A_a.gif","self_paced","","11","complex_dissimilar","images/stimuli/spore_stims/complex_11_A_b.gif","","","","",""
"","null","html-keyboard-response","132","267244","0.0-31.0-0.3","SS1618365661827","","","null","","","","","","<p><img src= images/blank.png width =""600"" height = ""600"" style=""position:fixed;top:50%; left:50%; transform: translate(-50%, -50%); border:5px solid black"">","","","","","","","",""
"","696.775000076741","sequential-stimulus-presentation-old","133","268475","0.0-31.0-1.3","SS1618365661827","trial","","40","500","1196.775000076741","images/stimuli/spore_stims/complex_11_A_b.gif","images/stimuli/spore_stims/complex_07_A_a.gif","self_paced","","11","complex_dissimilar","images/stimuli/spore_stims/complex_07_A_a.gif","","","","",""
"[{""page_index"":0,""viewing_time"":2967.625000048429}]","2968.224999960512","instructions","134","271461","0.0-32.0","SS1618365661827","instructions","","","","","","","","","","","","","","","",""
"","4329.260000027716","survey-likert","135","275820","0.0-33.0","SS1618365661827","similarity_question","","","","","","","","","","","","{""Q0"":4}","[0]","","images/stimuli/spore_stims/simple_13_A_a.gif","images/stimuli/spore_stims/simple_08_A_b.gif"
"","3292.0550000853837","survey-likert","136","279179","0.0-34.0","SS1618365661827","similarity_question","","","","","","","","","","","","{""Q0"":2}","[0]","","images/stimuli/spore_stims/complex_03_A_b.gif","images/stimuli/spore_stims/complex_13_A_a.gif"
"","2891.1799998022616","survey-likert","137","282137","0.0-35.0","SS1618365661827","similarity_question","","","","","","","","","","","","{""Q0"":3}","[0]","","images/stimuli/spore_stims/simple_18_A_b.gif","images/stimuli/spore_stims/simple_09_A_a.gif"
"","2403.664999641478","survey-likert","138","284597","0.0-36.0","SS1618365661827","similarity_question","","","","","","","","","","","","{""Q0"":1}","[0]","","images/stimuli/spore_stims/simple_05_A_b.gif","images/stimuli/spore_stims/simple_19_A_a.gif"
"","2514.2450002022088","survey-likert","139","287209","0.0-37.0","SS1618365661827","similarity_question","","","","","","","","","","","","{""Q0"":4}","[0]","","images/stimuli/spore_stims/complex_07_A_b.gif","images/stimuli/spore_stims/complex_04_A_a.gif"
"","2145.2499995939434","survey-likert","140","289405","0.0-38.0","SS1618365661827","similarity_question","","","","","","","","","","","","{""Q0"":4}","[0]","","images/stimuli/spore_stims/simple_14_A_b.gif","images/stimuli/spore_stims/simple_16_A_a.gif"
"","3546.250000130385","survey-likert","141","293017","0.0-39.0","SS1618365661827","similarity_question","","","","","","","","","","","","{""Q0"":2}","[0]","","images/stimuli/spore_stims/complex_09_A_b.gif","images/stimuli/spore_stims/complex_18_A_a.gif"
"","2179.9499997869134","survey-likert","142","295262","0.0-40.0","SS1618365661827","similarity_question","","","","","","","","","","","","{""Q0"":2}","[0]","","images/stimuli/spore_stims/complex_11_A_b.gif","images/stimuli/spore_stims/complex_07_A_a.gif"
"","2419.149999972433","survey-likert","143","297751","0.0-41.0","SS1618365661827","similarity_question","","","","","","","","","","","","{""Q0"":1}","[0]","","images/stimuli/spore_stims/simple_05_A_a.gif","images/stimuli/spore_stims/simple_16_A_b.gif"
"","1784.7299999557436","survey-likert","144","299603","0.0-42.0","SS1618365661827","similarity_question","","","","","","","","","","","","{""Q0"":1}","[0]","","images/stimuli/spore_stims/simple_13_A_b.gif","images/stimuli/spore_stims/simple_07_A_a.gif"
"","3227.5499999523163","survey-likert","145","302895","0.0-43.0","SS1618365661827","similarity_question","","","","","","","","","","","","{""Q0"":2}","[0]","","images/stimuli/spore_stims/complex_08_A_a.gif","images/stimuli/spore_stims/complex_18_A_b.gif"
"","2398.3499999158084","survey-likert","146","305428","0.0-44.0","SS1618365661827","similarity_question","","","","","","","","","","","","{""Q0"":4}","[0]","","images/stimuli/spore_stims/complex_09_A_a.gif","images/stimuli/spore_stims/complex_20_A_b.gif"
"[{""page_index"":0,""viewing_time"":1347.89999993518}]","1348.509999923408","instructions","147","306840","0.0-45.0","SS1618365661827","instructions","","","","","","","","","","","","","","","",""
"","2477.2900003008544","survey-likert","148","309365","0.0-46.0","SS1618365661827","","","","","","","","","images/stimuli/spore_stims/simple_14_A_b.gif","","","","{""Q0"":2}","[0]","","",""
"","1740.9399999305606","survey-likert","149","311159","0.0-47.0","SS1618365661827","","","","","","","","","images/stimuli/spore_stims/complex_20_A_b.gif","","","","{""Q0"":4}","[0]","","",""
"","1649.5750001631677","survey-likert","150","312853","0.0-48.0","SS1618365661827","","","","","","","","","images/stimuli/spore_stims/complex_18_A_a.gif","","","","{""Q0"":4}","[0]","","",""
"","2834.1799997724593","survey-likert","151","315757","0.0-49.0","SS1618365661827","","","","","","","","","images/stimuli/spore_stims/simple_13_A_a.gif","","","","{""Q0"":0}","[0]","","",""
"","1629.0049999952316","survey-likert","152","317475","0.0-50.0","SS1618365661827","","","","","","","","","images/stimuli/spore_stims/complex_03_A_b.gif","","","","{""Q0"":4}","[0]","","",""
"","4681.7149999551475","survey-likert","153","322239","0.0-51.0","SS1618365661827","","","","","","","","","images/stimuli/spore_stims/simple_07_A_a.gif","","","","{""Q0"":1}","[0]","","",""
"","1682.4400001205504","survey-likert","154","323973","0.0-52.0","SS1618365661827","","","","","","","","","images/stimuli/spore_stims/simple_09_A_a.gif","","","","{""Q0"":1}","[0]","","",""
"","1649.429999757558","survey-likert","155","325723","0.0-53.0","SS1618365661827","","","","","","","","","images/stimuli/spore_stims/complex_08_A_a.gif","","","","{""Q0"":4}","[0]","","",""
"","1500.6599999032915","survey-likert","156","327273","0.0-54.0","SS1618365661827","","","","","","","","","images/stimuli/spore_stims/complex_07_A_b.gif","","","","{""Q0"":4}","[0]","","",""
"","2024.730000179261","survey-likert","157","329348","0.0-55.0","SS1618365661827","","","","","","","","","images/stimuli/spore_stims/complex_11_A_b.gif","","","","{""Q0"":4}","[0]","","",""
"","2104.079999960959","survey-likert","158","331518","0.0-56.0","SS1618365661827","","","","","","","","","images/stimuli/spore_stims/simple_05_A_a.gif","","","","{""Q0"":0}","[0]","","",""
"","1533.624999690801","survey-likert","159","333104","0.0-57.0","SS1618365661827","","","","","","","","","images/stimuli/spore_stims/simple_19_A_a.gif","","","","{""Q0"":1}","[0]","","",""
"[{""page_index"":0,""viewing_time"":1394.7000000625849}]","1395.0999998487532","instructions","160","334574","0.0-58.0","SS1618365661827","instructions","","","","","","","","","","","","","","","",""
"","2435.8950001187623","demog-age","161","337072","0.0-59.0","SS1618365661827","","","","","","","","","","","","","{""age"":""43""}","","","",""
"","2581.7749998532236","demog-ethnic-US","162","339719","0.0-60.0","SS1618365661827","","","","","","","","","","","","","{""ethnicity"":[""White""]}","[0]","","",""
"","5359.550000168383","demog-gender-and-education","163","345166","0.0-61.0","SS1618365661827","","","","","","","","","","","","","{""gender"":""Male"",""education"":""High school diploma""}","[0,1]","","",""
"","4083.8699997402728","survey-text","164","349327","0.0-62.0","SS1618365661827","feedback","","","","","","","","","","","","{""Q0"":""no""}","","","",""
"[{""page_index"":0,""viewing_time"":1386.1950002610683}]","1386.7250001057982","instructions","165","350746","0.0-63.0","SS1618365661827","instructions","","","","","","","","","","","","","","","",""
