"view_history","rt","trial_type","trial_index","time_elapsed","internal_node_id","subject","stimulus_type","trial_stimulus","key_press","minimum_viewing_duration","trial_looking_time","block_deviant","block_background","exposure_type","stimulus","block_number","block_type","stimulus_displayed","responses","question_order","math_correct_answer","stimulus_left","stimulus_right"
"[{""page_index"":0,""viewing_time"":9167.91500011459}]","9168.779999949038","instructions","0","9171","0.0-0.0","SS1618435657562","","","","","","","","","","","","","","","","",""
"[{""page_index"":0,""viewing_time"":15134.480000007898},{""page_index"":1,""viewing_time"":8907.889999914914}]","24042.66000003554","instructions","1","35224","0.0-1.0","SS1618435657562","instructions","","","","","","","","","","","","","","","",""
"","9612.435000017285","sequential-stimulus-presentation-old","2","45350","0.0-2.0","SS1618435657562","","","40","500","10112.435000017285","null","null","self_paced","","","","","","","","",""
"","3454.2799999471754","sequential-stimulus-presentation-old","3","49309","0.0-3.0","SS1618435657562","","","40","500","3954.2799999471754","null","null","self_paced","","","","","","","","",""
"[{""page_index"":0,""viewing_time"":24127.28499993682}]","24127.554999897256","instructions","4","73439","0.0-4.0","SS1618435657562","instructions","","","","","","","","","","","","","","","",""
"","12267.575000179932","sequential-stimulus-presentation-old","5","90715","0.0-5.0","SS1618435657562","","","40","500","12767.575000179932","null","null","forced_long","","","","","","","","",""
"","4956.944999983534","sequential-stimulus-presentation-old","6","95730","0.0-6.0","SS1618435657562","","","40","50","5006.944999983534","null","null","forced_long","","","","","","","","",""
"[{""page_index"":0,""viewing_time"":4114.354999968782}]","4114.674999844283","instructions","7","99847","0.0-7.0","SS1618435657562","instructions","","","","","","","","","","","","","","","",""
"[{""page_index"":0,""viewing_time"":5791.545000160113},{""page_index"":1,""viewing_time"":8688.594999955967},{""page_index"":2,""viewing_time"":5016.920000081882},{""page_index"":3,""viewing_time"":1561.7599999532104},{""page_index"":4,""viewing_time"":1512.00499990955}]","22571.210000198334","instructions","8","122420","0.0-8.0","SS1618435657562","instructions","","","","","","","","","","","","","","","",""
"","null","html-keyboard-response","9","123368","0.0-9.0-0.0","SS1618435657562","","","null","","","","","","<p><img src= images/blank.png width =""600"" height = ""600"" style=""position:fixed;top:50%; left:50%; transform: translate(-50%, -50%); border:5px solid black"">","","","","","","","",""
"","1916.8549999594688","sequential-stimulus-presentation-old","10","125344","0.0-9.0-1.0","SS1618435657562","trial","","40","500","2416.854999959469","images/stimuli/spore_stims/simple_04_A_a.gif","images/stimuli/spore_stims/simple_05_A_b.gif","forced_short","","0","simple_dissimilar","images/stimuli/spore_stims/simple_05_A_b.gif","","","","",""
"","null","html-keyboard-response","11","126594","0.0-9.0-0.1","SS1618435657562","","","null","","","","","","<p><img src= images/blank.png width =""600"" height = ""600"" style=""position:fixed;top:50%; left:50%; transform: translate(-50%, -50%); border:5px solid black"">","","","","","","","",""
"","8684.764999896288","sequential-stimulus-presentation-old","12","135787","0.0-9.0-1.1","SS1618435657562","trial","","40","500","9184.764999896288","images/stimuli/spore_stims/simple_04_A_a.gif","images/stimuli/spore_stims/simple_05_A_b.gif","forced_short","","0","simple_dissimilar","images/stimuli/spore_stims/simple_05_A_b.gif","","","","",""
"","null","html-keyboard-response","13","136886","0.0-9.0-0.2","SS1618435657562","","","null","","","","","","<p><img src= images/blank.png width =""600"" height = ""600"" style=""position:fixed;top:50%; left:50%; transform: translate(-50%, -50%); border:5px solid black"">","","","","","","","",""
"","1611.5549998357892","sequential-stimulus-presentation-old","14","139002","0.0-9.0-1.2","SS1618435657562","trial","","40","500","2111.554999835789","images/stimuli/spore_stims/simple_04_A_a.gif","images/stimuli/spore_stims/simple_05_A_b.gif","forced_short","","0","simple_dissimilar","images/stimuli/spore_stims/simple_05_A_b.gif","","","","",""
"","null","html-keyboard-response","15","139975","0.0-9.0-0.3","SS1618435657562","","","null","","","","","","<p><img src= images/blank.png width =""600"" height = ""600"" style=""position:fixed;top:50%; left:50%; transform: translate(-50%, -50%); border:5px solid black"">","","","","","","","",""
"","2672.634999966249","sequential-stimulus-presentation-old","16","143154","0.0-9.0-1.3","SS1618435657562","trial","","40","500","3172.634999966249","images/stimuli/spore_stims/simple_04_A_a.gif","images/stimuli/spore_stims/simple_05_A_b.gif","forced_short","","0","simple_dissimilar","images/stimuli/spore_stims/simple_05_A_b.gif","","","","",""
"","5369.715000037104","survey-multi-choice","17","148532","0.0-10.0","SS1618435657562","math_question","","","","","","","","","","","","{""Q0"":""8""}","[0]","8","",""
"","null","html-keyboard-response","18","149389","0.0-11.0-0.0","SS1618435657562","","","null","","","","","","<p><img src= images/blank.png width =""600"" height = ""600"" style=""position:fixed;top:50%; left:50%; transform: translate(-50%, -50%); border:5px solid black"">","","","","","","","",""
"","2972.6400000508875","sequential-stimulus-presentation-old","19","157366","0.0-11.0-1.0","SS1618435657562","trial","","40","500","3472.6400000508875","images/stimuli/spore_stims/simple_08_A_b.gif","images/stimuli/spore_stims/simple_13_A_a.gif","forced_long","","1","simple_dissimilar","images/stimuli/spore_stims/simple_13_A_a.gif","","","","",""
"","null","html-keyboard-response","20","158421","0.0-11.0-0.1","SS1618435657562","","","null","","","","","","<p><img src= images/blank.png width =""600"" height = ""600"" style=""position:fixed;top:50%; left:50%; transform: translate(-50%, -50%); border:5px solid black"">","","","","","","","",""
"","2903.514999896288","sequential-stimulus-presentation-old","21","161833","0.0-11.0-1.1","SS1618435657562","trial","","40","500","3403.514999896288","images/stimuli/spore_stims/simple_08_A_b.gif","images/stimuli/spore_stims/simple_13_A_a.gif","forced_long","","1","simple_dissimilar","images/stimuli/spore_stims/simple_13_A_a.gif","","","","",""
"","null","html-keyboard-response","22","162718","0.0-11.0-0.2","SS1618435657562","","","null","","","","","","<p><img src= images/blank.png width =""600"" height = ""600"" style=""position:fixed;top:50%; left:50%; transform: translate(-50%, -50%); border:5px solid black"">","","","","","","","",""
"","1687.6149999443442","sequential-stimulus-presentation-old","23","164916","0.0-11.0-1.2","SS1618435657562","trial","","40","500","2187.614999944344","images/stimuli/spore_stims/simple_08_A_b.gif","images/stimuli/spore_stims/simple_13_A_a.gif","forced_long","","1","simple_dissimilar","images/stimuli/spore_stims/simple_13_A_a.gif","","","","",""
"","null","html-keyboard-response","24","165952","0.0-11.0-0.3","SS1618435657562","","","null","","","","","","<p><img src= images/blank.png width =""600"" height = ""600"" style=""position:fixed;top:50%; left:50%; transform: translate(-50%, -50%); border:5px solid black"">","","","","","","","",""
"","1788.7699999846518","sequential-stimulus-presentation-old","25","168257","0.0-11.0-1.3","SS1618435657562","trial","","40","500","2288.769999984652","images/stimuli/spore_stims/simple_08_A_b.gif","images/stimuli/spore_stims/simple_13_A_a.gif","forced_long","","1","simple_dissimilar","images/stimuli/spore_stims/simple_13_A_a.gif","","","","",""
"","null","html-keyboard-response","26","169219","0.0-11.0-0.4","SS1618435657562","","","null","","","","","","<p><img src= images/blank.png width =""600"" height = ""600"" style=""position:fixed;top:50%; left:50%; transform: translate(-50%, -50%); border:5px solid black"">","","","","","","","",""
"","1343.929999973625","sequential-stimulus-presentation-old","27","171075","0.0-11.0-1.4","SS1618435657562","trial","","40","500","1843.929999973625","images/stimuli/spore_stims/simple_08_A_b.gif","images/stimuli/spore_stims/simple_13_A_a.gif","forced_long","","1","simple_dissimilar","images/stimuli/spore_stims/simple_13_A_a.gif","","","","",""
"","4970.960000064224","survey-multi-choice","28","176049","0.0-12.0","SS1618435657562","math_question","","","","","","","","","","","","{""Q0"":""13""}","[0]","13","",""
"","null","html-keyboard-response","29","177117","0.0-13.0-0.0","SS1618435657562","","","null","","","","","","<p><img src= images/blank.png width =""600"" height = ""600"" style=""position:fixed;top:50%; left:50%; transform: translate(-50%, -50%); border:5px solid black"">","","","","","","","",""
"","1046.4350001420826","sequential-stimulus-presentation-old","30","178221","0.0-13.0-1.0","SS1618435657562","trial","","40","500","1546.4350001420826","images/stimuli/spore_stims/simple_13_A_b.gif","images/stimuli/spore_stims/simple_05_A_a.gif","forced_short","","2","simple_dissimilar","images/stimuli/spore_stims/simple_05_A_a.gif","","","","",""
"","null","html-keyboard-response","31","179395","0.0-13.0-0.1","SS1618435657562","","","null","","","","","","<p><img src= images/blank.png width =""600"" height = ""600"" style=""position:fixed;top:50%; left:50%; transform: translate(-50%, -50%); border:5px solid black"">","","","","","","","",""
"","3699.460000032559","sequential-stimulus-presentation-old","32","183600","0.0-13.0-1.1","SS1618435657562","trial","","40","500","4199.460000032559","images/stimuli/spore_stims/simple_13_A_b.gif","images/stimuli/spore_stims/simple_05_A_a.gif","forced_short","","2","simple_dissimilar","images/stimuli/spore_stims/simple_05_A_a.gif","","","","",""
"","null","html-keyboard-response","33","184413","0.0-13.0-0.2","SS1618435657562","","","null","","","","","","<p><img src= images/blank.png width =""600"" height = ""600"" style=""position:fixed;top:50%; left:50%; transform: translate(-50%, -50%); border:5px solid black"">","","","","","","","",""
"","492.6399998366833","sequential-stimulus-presentation-old","34","185412","0.0-13.0-1.2","SS1618435657562","trial","","40","500","992.6399998366833","images/stimuli/spore_stims/simple_13_A_b.gif","images/stimuli/spore_stims/simple_05_A_a.gif","forced_short","","2","simple_dissimilar","images/stimuli/spore_stims/simple_05_A_a.gif","","","","",""
"","null","html-keyboard-response","35","186403","0.0-13.0-0.3","SS1618435657562","","","null","","","","","","<p><img src= images/blank.png width =""600"" height = ""600"" style=""position:fixed;top:50%; left:50%; transform: translate(-50%, -50%); border:5px solid black"">","","","","","","","",""
"","1273.4499999787658","sequential-stimulus-presentation-old","36","188181","0.0-13.0-1.3","SS1618435657562","trial","","40","500","1773.4499999787658","images/stimuli/spore_stims/simple_13_A_b.gif","images/stimuli/spore_stims/simple_05_A_a.gif","forced_short","","2","simple_dissimilar","images/stimuli/spore_stims/simple_05_A_a.gif","","","","",""
"","null","html-keyboard-response","37","189013","0.0-13.0-0.4","SS1618435657562","","","null","","","","","","<p><img src= images/blank.png width =""600"" height = ""600"" style=""position:fixed;top:50%; left:50%; transform: translate(-50%, -50%); border:5px solid black"">","","","","","","","",""
"","1599.1100000683218","sequential-stimulus-presentation-old","38","191122","0.0-13.0-1.4","SS1618435657562","trial","","40","500","2099.110000068322","images/stimuli/spore_stims/simple_13_A_b.gif","images/stimuli/spore_stims/simple_05_A_a.gif","forced_short","","2","simple_dissimilar","images/stimuli/spore_stims/simple_05_A_a.gif","","","","",""
"","5054.069999838248","survey-multi-choice","39","196180","0.0-14.0","SS1618435657562","math_question","","","","","","","","","","","","{""Q0"":""13""}","[0]","13","",""
"","null","html-keyboard-response","40","197403","0.0-15.0-0.0","SS1618435657562","","","null","","","","","","<p><img src= images/blank.png width =""600"" height = ""600"" style=""position:fixed;top:50%; left:50%; transform: translate(-50%, -50%); border:5px solid black"">","","","","","","","",""
"","1378.2999999821186","sequential-stimulus-presentation-old","41","199299","0.0-15.0-1.0","SS1618435657562","trial","","40","500","1878.2999999821186","images/stimuli/spore_stims/simple_07_A_b.gif","images/stimuli/spore_stims/simple_15_A_a.gif","self_paced","","3","simple_dissimilar","images/stimuli/spore_stims/simple_15_A_a.gif","","","","",""
"","null","html-keyboard-response","42","200403","0.0-15.0-0.1","SS1618435657562","","","null","","","","","","<p><img src= images/blank.png width =""600"" height = ""600"" style=""position:fixed;top:50%; left:50%; transform: translate(-50%, -50%); border:5px solid black"">","","","","","","","",""
"","1754.6699999365956","sequential-stimulus-presentation-old","43","202670","0.0-15.0-1.1","SS1618435657562","trial","","40","500","2254.6699999365956","images/stimuli/spore_stims/simple_07_A_b.gif","images/stimuli/spore_stims/simple_15_A_a.gif","self_paced","","3","simple_dissimilar","images/stimuli/spore_stims/simple_15_A_a.gif","","","","",""
"","null","html-keyboard-response","44","203590","0.0-15.0-0.2","SS1618435657562","","","null","","","","","","<p><img src= images/blank.png width =""600"" height = ""600"" style=""position:fixed;top:50%; left:50%; transform: translate(-50%, -50%); border:5px solid black"">","","","","","","","",""
"","856.6950000822544","sequential-stimulus-presentation-old","45","204957","0.0-15.0-1.2","SS1618435657562","trial","","40","500","1356.6950000822544","images/stimuli/spore_stims/simple_07_A_b.gif","images/stimuli/spore_stims/simple_15_A_a.gif","self_paced","","3","simple_dissimilar","images/stimuli/spore_stims/simple_15_A_a.gif","","","","",""
"","null","html-keyboard-response","46","205779","0.0-15.0-0.3","SS1618435657562","","","null","","","","","","<p><img src= images/blank.png width =""600"" height = ""600"" style=""position:fixed;top:50%; left:50%; transform: translate(-50%, -50%); border:5px solid black"">","","","","","","","",""
"","1110.3499999735504","sequential-stimulus-presentation-old","47","207399","0.0-15.0-1.3","SS1618435657562","trial","","40","500","1610.3499999735504","images/stimuli/spore_stims/simple_07_A_b.gif","images/stimuli/spore_stims/simple_15_A_a.gif","self_paced","","3","simple_dissimilar","images/stimuli/spore_stims/simple_15_A_a.gif","","","","",""
"","null","html-keyboard-response","48","208310","0.0-15.0-0.4","SS1618435657562","","","null","","","","","","<p><img src= images/blank.png width =""600"" height = ""600"" style=""position:fixed;top:50%; left:50%; transform: translate(-50%, -50%); border:5px solid black"">","","","","","","","",""
"","1853.5150000825524","sequential-stimulus-presentation-old","49","210673","0.0-15.0-1.4","SS1618435657562","trial","","40","500","2353.5150000825524","images/stimuli/spore_stims/simple_07_A_b.gif","images/stimuli/spore_stims/simple_15_A_a.gif","self_paced","","3","simple_dissimilar","images/stimuli/spore_stims/simple_07_A_b.gif","","","","",""
"","3883.610000135377","survey-multi-choice","50","214560","0.0-16.0","SS1618435657562","math_question","","","","","","","","","","","","{""Q0"":""10""}","[0]","10","",""
"","null","html-keyboard-response","51","215714","0.0-17.0-0.0","SS1618435657562","","","null","","","","","","<p><img src= images/blank.png width =""600"" height = ""600"" style=""position:fixed;top:50%; left:50%; transform: translate(-50%, -50%); border:5px solid black"">","","","","","","","",""
"","1940.6200000084937","sequential-stimulus-presentation-old","52","218164","0.0-17.0-1.0","SS1618435657562","trial","","40","500","2440.6200000084937","images/stimuli/spore_stims/complex_16_A_b.gif","images/stimuli/spore_stims/complex_06_A_a.gif","self_paced","","4","complex_dissimilar","images/stimuli/spore_stims/complex_06_A_a.gif","","","","",""
"","null","html-keyboard-response","53","219347","0.0-17.0-0.1","SS1618435657562","","","null","","","","","","<p><img src= images/blank.png width =""600"" height = ""600"" style=""position:fixed;top:50%; left:50%; transform: translate(-50%, -50%); border:5px solid black"">","","","","","","","",""
"","1446.4000000152737","sequential-stimulus-presentation-old","54","221299","0.0-17.0-1.1","SS1618435657562","trial","","40","500","1946.4000000152737","images/stimuli/spore_stims/complex_16_A_b.gif","images/stimuli/spore_stims/complex_06_A_a.gif","self_paced","","4","complex_dissimilar","images/stimuli/spore_stims/complex_06_A_a.gif","","","","",""
"","null","html-keyboard-response","55","222399","0.0-17.0-0.2","SS1618435657562","","","null","","","","","","<p><img src= images/blank.png width =""600"" height = ""600"" style=""position:fixed;top:50%; left:50%; transform: translate(-50%, -50%); border:5px solid black"">","","","","","","","",""
"","333.515000063926","sequential-stimulus-presentation-old","56","223238","0.0-17.0-1.2","SS1618435657562","trial","","40","500","833.515000063926","images/stimuli/spore_stims/complex_16_A_b.gif","images/stimuli/spore_stims/complex_06_A_a.gif","self_paced","","4","complex_dissimilar","images/stimuli/spore_stims/complex_06_A_a.gif","","","","",""
"","null","html-keyboard-response","57","224338","0.0-17.0-0.3","SS1618435657562","","","null","","","","","","<p><img src= images/blank.png width =""600"" height = ""600"" style=""position:fixed;top:50%; left:50%; transform: translate(-50%, -50%); border:5px solid black"">","","","","","","","",""
"","2049.4849998503923","sequential-stimulus-presentation-old","58","226898","0.0-17.0-1.3","SS1618435657562","trial","","40","500","2549.4849998503923","images/stimuli/spore_stims/complex_16_A_b.gif","images/stimuli/spore_stims/complex_06_A_a.gif","self_paced","","4","complex_dissimilar","images/stimuli/spore_stims/complex_16_A_b.gif","","","","",""
"","null","html-keyboard-response","59","227803","0.0-17.0-0.4","SS1618435657562","","","null","","","","","","<p><img src= images/blank.png width =""600"" height = ""600"" style=""position:fixed;top:50%; left:50%; transform: translate(-50%, -50%); border:5px solid black"">","","","","","","","",""
"","924.2649998050183","sequential-stimulus-presentation-old","60","229244","0.0-17.0-1.4","SS1618435657562","trial","","40","500","1424.2649998050183","images/stimuli/spore_stims/complex_16_A_b.gif","images/stimuli/spore_stims/complex_06_A_a.gif","self_paced","","4","complex_dissimilar","images/stimuli/spore_stims/complex_06_A_a.gif","","","","",""
"","null","html-keyboard-response","61","230273","0.0-17.0-0.5","SS1618435657562","","","null","","","","","","<p><img src= images/blank.png width =""600"" height = ""600"" style=""position:fixed;top:50%; left:50%; transform: translate(-50%, -50%); border:5px solid black"">","","","","","","","",""
"","1755.0699999555945","sequential-stimulus-presentation-old","62","232534","0.0-17.0-1.5","SS1618435657562","trial","","40","500","2255.0699999555945","images/stimuli/spore_stims/complex_16_A_b.gif","images/stimuli/spore_stims/complex_06_A_a.gif","self_paced","","4","complex_dissimilar","images/stimuli/spore_stims/complex_16_A_b.gif","","","","",""
"","3556.7149999551475","survey-multi-choice","63","236095","0.0-18.0","SS1618435657562","math_question","","","","","","","","","","","","{""Q0"":""9""}","[0]","9","",""
"","null","html-keyboard-response","64","237322","0.0-19.0-0.0","SS1618435657562","","","null","","","","","","<p><img src= images/blank.png width =""600"" height = ""600"" style=""position:fixed;top:50%; left:50%; transform: translate(-50%, -50%); border:5px solid black"">","","","","","","","",""
"","2717.739999992773","sequential-stimulus-presentation-old","65","245052","0.0-19.0-1.0","SS1618435657562","trial","","40","500","3217.739999992773","images/stimuli/spore_stims/complex_14_A_b.gif","images/stimuli/spore_stims/complex_17_A_a.gif","forced_long","","5","complex_dissimilar","images/stimuli/spore_stims/complex_17_A_a.gif","","","","",""
"","null","html-keyboard-response","66","246347","0.0-19.0-0.1","SS1618435657562","","","null","","","","","","<p><img src= images/blank.png width =""600"" height = ""600"" style=""position:fixed;top:50%; left:50%; transform: translate(-50%, -50%); border:5px solid black"">","","","","","","","",""
"","1559.2100000940263","sequential-stimulus-presentation-old","67","248412","0.0-19.0-1.1","SS1618435657562","trial","","40","500","2059.2100000940263","images/stimuli/spore_stims/complex_14_A_b.gif","images/stimuli/spore_stims/complex_17_A_a.gif","forced_long","","5","complex_dissimilar","images/stimuli/spore_stims/complex_17_A_a.gif","","","","",""
"","null","html-keyboard-response","68","249579","0.0-19.0-0.2","SS1618435657562","","","null","","","","","","<p><img src= images/blank.png width =""600"" height = ""600"" style=""position:fixed;top:50%; left:50%; transform: translate(-50%, -50%); border:5px solid black"">","","","","","","","",""
"","669.3750000558794","sequential-stimulus-presentation-old","69","250752","0.0-19.0-1.2","SS1618435657562","trial","","40","500","1169.3750000558794","images/stimuli/spore_stims/complex_14_A_b.gif","images/stimuli/spore_stims/complex_17_A_a.gif","forced_long","","5","complex_dissimilar","images/stimuli/spore_stims/complex_14_A_b.gif","","","","",""
"","null","html-keyboard-response","70","251936","0.0-19.0-0.3","SS1618435657562","","","null","","","","","","<p><img src= images/blank.png width =""600"" height = ""600"" style=""position:fixed;top:50%; left:50%; transform: translate(-50%, -50%); border:5px solid black"">","","","","","","","",""
"","784.9600000772625","sequential-stimulus-presentation-old","71","253232","0.0-19.0-1.3","SS1618435657562","trial","","40","500","1284.9600000772625","images/stimuli/spore_stims/complex_14_A_b.gif","images/stimuli/spore_stims/complex_17_A_a.gif","forced_long","","5","complex_dissimilar","images/stimuli/spore_stims/complex_17_A_a.gif","","","","",""
"","4040.519999805838","survey-multi-choice","72","257276","0.0-20.0","SS1618435657562","math_question","","","","","","","","","","","","{""Q0"":""10""}","[0]","10","",""
"","null","html-keyboard-response","73","258522","0.0-21.0-0.0","SS1618435657562","","","null","","","","","","<p><img src= images/blank.png width =""600"" height = ""600"" style=""position:fixed;top:50%; left:50%; transform: translate(-50%, -50%); border:5px solid black"">","","","","","","","",""
"","3187.0750000234693","sequential-stimulus-presentation-old","74","261765","0.0-21.0-1.0","SS1618435657562","trial","","40","500","3687.0750000234693","images/stimuli/spore_stims/complex_13_A_b.gif","images/stimuli/spore_stims/complex_20_A_a.gif","forced_short","","6","complex_dissimilar","images/stimuli/spore_stims/complex_20_A_a.gif","","","","",""
"","null","html-keyboard-response","75","263001","0.0-21.0-0.1","SS1618435657562","","","null","","","","","","<p><img src= images/blank.png width =""600"" height = ""600"" style=""position:fixed;top:50%; left:50%; transform: translate(-50%, -50%); border:5px solid black"">","","","","","","","",""
"","1496.4299998246133","sequential-stimulus-presentation-old","76","265001","0.0-21.0-1.1","SS1618435657562","trial","","40","500","1996.4299998246133","images/stimuli/spore_stims/complex_13_A_b.gif","images/stimuli/spore_stims/complex_20_A_a.gif","forced_short","","6","complex_dissimilar","images/stimuli/spore_stims/complex_20_A_a.gif","","","","",""
"","null","html-keyboard-response","77","266198","0.0-21.0-0.2","SS1618435657562","","","null","","","","","","<p><img src= images/blank.png width =""600"" height = ""600"" style=""position:fixed;top:50%; left:50%; transform: translate(-50%, -50%); border:5px solid black"">","","","","","","","",""
"","671.7149999458343","sequential-stimulus-presentation-old","78","267377","0.0-21.0-1.2","SS1618435657562","trial","","40","500","1171.7149999458343","images/stimuli/spore_stims/complex_13_A_b.gif","images/stimuli/spore_stims/complex_20_A_a.gif","forced_short","","6","complex_dissimilar","images/stimuli/spore_stims/complex_20_A_a.gif","","","","",""
"","null","html-keyboard-response","79","268656","0.0-21.0-0.3","SS1618435657562","","","null","","","","","","<p><img src= images/blank.png width =""600"" height = ""600"" style=""position:fixed;top:50%; left:50%; transform: translate(-50%, -50%); border:5px solid black"">","","","","","","","",""
"","2205.3500001784414","sequential-stimulus-presentation-old","80","271367","0.0-21.0-1.3","SS1618435657562","trial","","40","500","2705.3500001784414","images/stimuli/spore_stims/complex_13_A_b.gif","images/stimuli/spore_stims/complex_20_A_a.gif","forced_short","","6","complex_dissimilar","images/stimuli/spore_stims/complex_20_A_a.gif","","","","",""
"","null","html-keyboard-response","81","272631","0.0-21.0-0.4","SS1618435657562","","","null","","","","","","<p><img src= images/blank.png width =""600"" height = ""600"" style=""position:fixed;top:50%; left:50%; transform: translate(-50%, -50%); border:5px solid black"">","","","","","","","",""
"","3803.5750000271946","sequential-stimulus-presentation-old","82","276943","0.0-21.0-1.4","SS1618435657562","trial","","40","500","4303.575000027195","images/stimuli/spore_stims/complex_13_A_b.gif","images/stimuli/spore_stims/complex_20_A_a.gif","forced_short","","6","complex_dissimilar","images/stimuli/spore_stims/complex_13_A_b.gif","","","","",""
"","null","html-keyboard-response","83","277904","0.0-21.0-0.5","SS1618435657562","","","null","","","","","","<p><img src= images/blank.png width =""600"" height = ""600"" style=""position:fixed;top:50%; left:50%; transform: translate(-50%, -50%); border:5px solid black"">","","","","","","","",""
"","3616.104999789968","sequential-stimulus-presentation-old","84","282029","0.0-21.0-1.5","SS1618435657562","trial","","40","500","4116.104999789968","images/stimuli/spore_stims/complex_13_A_b.gif","images/stimuli/spore_stims/complex_20_A_a.gif","forced_short","","6","complex_dissimilar","images/stimuli/spore_stims/complex_20_A_a.gif","","","","",""
"","3466.8949998449534","survey-multi-choice","85","285502","0.0-22.0","SS1618435657562","math_question","","","","","","","","","","","","{""Q0"":""5""}","[0]","5","",""
"","null","html-keyboard-response","86","286737","0.0-23.0-0.0","SS1618435657562","","","null","","","","","","<p><img src= images/blank.png width =""600"" height = ""600"" style=""position:fixed;top:50%; left:50%; transform: translate(-50%, -50%); border:5px solid black"">","","","","","","","",""
"","647.5899999495596","sequential-stimulus-presentation-old","87","287898","0.0-23.0-1.0","SS1618435657562","trial","","40","500","1147.5899999495596","images/stimuli/spore_stims/simple_03_A_b.gif","images/stimuli/spore_stims/simple_20_A_a.gif","self_paced","","7","simple_dissimilar","images/stimuli/spore_stims/simple_20_A_a.gif","","","","",""
"","null","html-keyboard-response","88","288799","0.0-23.0-0.1","SS1618435657562","","","null","","","","","","<p><img src= images/blank.png width =""600"" height = ""600"" style=""position:fixed;top:50%; left:50%; transform: translate(-50%, -50%); border:5px solid black"">","","","","","","","",""
"","669.0650000236928","sequential-stimulus-presentation-old","89","289980","0.0-23.0-1.1","SS1618435657562","trial","","40","500","1169.0650000236928","images/stimuli/spore_stims/simple_03_A_b.gif","images/stimuli/spore_stims/simple_20_A_a.gif","self_paced","","7","simple_dissimilar","images/stimuli/spore_stims/simple_03_A_b.gif","","","","",""
"","null","html-keyboard-response","90","291015","0.0-23.0-0.2","SS1618435657562","","","null","","","","","","<p><img src= images/blank.png width =""600"" height = ""600"" style=""position:fixed;top:50%; left:50%; transform: translate(-50%, -50%); border:5px solid black"">","","","","","","","",""
"","621.8550000339746","sequential-stimulus-presentation-old","91","292156","0.0-23.0-1.2","SS1618435657562","trial","","40","500","1121.8550000339746","images/stimuli/spore_stims/simple_03_A_b.gif","images/stimuli/spore_stims/simple_20_A_a.gif","self_paced","","7","simple_dissimilar","images/stimuli/spore_stims/simple_20_A_a.gif","","","","",""
"","null","html-keyboard-response","92","293469","0.0-23.0-0.3","SS1618435657562","","","null","","","","","","<p><img src= images/blank.png width =""600"" height = ""600"" style=""position:fixed;top:50%; left:50%; transform: translate(-50%, -50%); border:5px solid black"">","","","","","","","",""
"","354.0250000078231","sequential-stimulus-presentation-old","93","294331","0.0-23.0-1.3","SS1618435657562","trial","","40","500","854.0250000078231","images/stimuli/spore_stims/simple_03_A_b.gif","images/stimuli/spore_stims/simple_20_A_a.gif","self_paced","","7","simple_dissimilar","images/stimuli/spore_stims/simple_20_A_a.gif","","","","",""
"","null","html-keyboard-response","94","295377","0.0-23.0-0.4","SS1618435657562","","","null","","","","","","<p><img src= images/blank.png width =""600"" height = ""600"" style=""position:fixed;top:50%; left:50%; transform: translate(-50%, -50%); border:5px solid black"">","","","","","","","",""
"","293.3800001628697","sequential-stimulus-presentation-old","95","296185","0.0-23.0-1.4","SS1618435657562","trial","","40","500","793.3800001628697","images/stimuli/spore_stims/simple_03_A_b.gif","images/stimuli/spore_stims/simple_20_A_a.gif","self_paced","","7","simple_dissimilar","images/stimuli/spore_stims/simple_03_A_b.gif","","","","",""
"","4261.600000085309","survey-multi-choice","96","300449","0.0-24.0","SS1618435657562","math_question","","","","","","","","","","","","{""Q0"":""13""}","[0]","13","",""
"","null","html-keyboard-response","97","301329","0.0-25.0-0.0","SS1618435657562","","","null","","","","","","<p><img src= images/blank.png width =""600"" height = ""600"" style=""position:fixed;top:50%; left:50%; transform: translate(-50%, -50%); border:5px solid black"">","","","","","","","",""
"","564.9500000290573","sequential-stimulus-presentation-old","98","306901","0.0-25.0-1.0","SS1618435657562","trial","","40","500","1064.9500000290573","images/stimuli/spore_stims/complex_19_A_b.gif","images/stimuli/spore_stims/complex_16_A_a.gif","forced_long","","8","complex_dissimilar","images/stimuli/spore_stims/complex_16_A_a.gif","","","","",""
"","null","html-keyboard-response","99","308031","0.0-25.0-0.1","SS1618435657562","","","null","","","","","","<p><img src= images/blank.png width =""600"" height = ""600"" style=""position:fixed;top:50%; left:50%; transform: translate(-50%, -50%); border:5px solid black"">","","","","","","","",""
"","1159.8549999762326","sequential-stimulus-presentation-old","100","309699","0.0-25.0-1.1","SS1618435657562","trial","","40","500","1659.8549999762326","images/stimuli/spore_stims/complex_19_A_b.gif","images/stimuli/spore_stims/complex_16_A_a.gif","forced_long","","8","complex_dissimilar","images/stimuli/spore_stims/complex_16_A_a.gif","","","","",""
"","null","html-keyboard-response","101","310748","0.0-25.0-0.2","SS1618435657562","","","null","","","","","","<p><img src= images/blank.png width =""600"" height = ""600"" style=""position:fixed;top:50%; left:50%; transform: translate(-50%, -50%); border:5px solid black"">","","","","","","","",""
"","59.27000008523464","sequential-stimulus-presentation-old","102","311321","0.0-25.0-1.2","SS1618435657562","trial","","40","500","559.2700000852346","images/stimuli/spore_stims/complex_19_A_b.gif","images/stimuli/spore_stims/complex_16_A_a.gif","forced_long","","8","complex_dissimilar","images/stimuli/spore_stims/complex_16_A_a.gif","","","","",""
"","null","html-keyboard-response","103","312298","0.0-25.0-0.3","SS1618435657562","","","null","","","","","","<p><img src= images/blank.png width =""600"" height = ""600"" style=""position:fixed;top:50%; left:50%; transform: translate(-50%, -50%); border:5px solid black"">","","","","","","","",""
"","18.240000121295452","sequential-stimulus-presentation-old","104","312828","0.0-25.0-1.3","SS1618435657562","trial","","40","500","518.2400001212955","images/stimuli/spore_stims/complex_19_A_b.gif","images/stimuli/spore_stims/complex_16_A_a.gif","forced_long","","8","complex_dissimilar","images/stimuli/spore_stims/complex_16_A_a.gif","","","","",""
"","null","html-keyboard-response","105","314064","0.0-25.0-0.4","SS1618435657562","","","null","","","","","","<p><img src= images/blank.png width =""600"" height = ""600"" style=""position:fixed;top:50%; left:50%; transform: translate(-50%, -50%); border:5px solid black"">","","","","","","","",""
"","655.3150000981987","sequential-stimulus-presentation-old","106","315232","0.0-25.0-1.4","SS1618435657562","trial","","40","500","1155.3150000981987","images/stimuli/spore_stims/complex_19_A_b.gif","images/stimuli/spore_stims/complex_16_A_a.gif","forced_long","","8","complex_dissimilar","images/stimuli/spore_stims/complex_16_A_a.gif","","","","",""
"","5772.779999999329","survey-multi-choice","107","321012","0.0-26.0","SS1618435657562","math_question","","","","","","","","","","","","{""Q0"":""17""}","[0]","17","",""
"","null","html-keyboard-response","108","321943","0.0-27.0-0.0","SS1618435657562","","","null","","","","","","<p><img src= images/blank.png width =""600"" height = ""600"" style=""position:fixed;top:50%; left:50%; transform: translate(-50%, -50%); border:5px solid black"">","","","","","","","",""
"","5111.44999996759","sequential-stimulus-presentation-old","109","327123","0.0-27.0-1.0","SS1618435657562","trial","","40","500","5611.44999996759","images/stimuli/spore_stims/complex_14_A_a.gif","images/stimuli/spore_stims/complex_04_A_b.gif","forced_short","","9","complex_dissimilar","images/stimuli/spore_stims/complex_04_A_b.gif","","","","",""
"","null","html-keyboard-response","110","328229","0.0-27.0-0.1","SS1618435657562","","","null","","","","","","<p><img src= images/blank.png width =""600"" height = ""600"" style=""position:fixed;top:50%; left:50%; transform: translate(-50%, -50%); border:5px solid black"">","","","","","","","",""
"","1602.7149998117238","sequential-stimulus-presentation-old","111","330342","0.0-27.0-1.1","SS1618435657562","trial","","40","500","2102.714999811724","images/stimuli/spore_stims/complex_14_A_a.gif","images/stimuli/spore_stims/complex_04_A_b.gif","forced_short","","9","complex_dissimilar","images/stimuli/spore_stims/complex_04_A_b.gif","","","","",""
"","null","html-keyboard-response","112","331193","0.0-27.0-0.2","SS1618435657562","","","null","","","","","","<p><img src= images/blank.png width =""600"" height = ""600"" style=""position:fixed;top:50%; left:50%; transform: translate(-50%, -50%); border:5px solid black"">","","","","","","","",""
"","606.9150001276284","sequential-stimulus-presentation-old","113","332311","0.0-27.0-1.2","SS1618435657562","trial","","40","500","1106.9150001276284","images/stimuli/spore_stims/complex_14_A_a.gif","images/stimuli/spore_stims/complex_04_A_b.gif","forced_short","","9","complex_dissimilar","images/stimuli/spore_stims/complex_14_A_a.gif","","","","",""
"","null","html-keyboard-response","114","333162","0.0-27.0-0.3","SS1618435657562","","","null","","","","","","<p><img src= images/blank.png width =""600"" height = ""600"" style=""position:fixed;top:50%; left:50%; transform: translate(-50%, -50%); border:5px solid black"">","","","","","","","",""
"","602.8499999083579","sequential-stimulus-presentation-old","115","334281","0.0-27.0-1.3","SS1618435657562","trial","","40","500","1102.8499999083579","images/stimuli/spore_stims/complex_14_A_a.gif","images/stimuli/spore_stims/complex_04_A_b.gif","forced_short","","9","complex_dissimilar","images/stimuli/spore_stims/complex_04_A_b.gif","","","","",""
"","null","html-keyboard-response","116","335165","0.0-27.0-0.4","SS1618435657562","","","null","","","","","","<p><img src= images/blank.png width =""600"" height = ""600"" style=""position:fixed;top:50%; left:50%; transform: translate(-50%, -50%); border:5px solid black"">","","","","","","","",""
"","421.6149998828769","sequential-stimulus-presentation-old","117","336094","0.0-27.0-1.4","SS1618435657562","trial","","40","500","921.6149998828769","images/stimuli/spore_stims/complex_14_A_a.gif","images/stimuli/spore_stims/complex_04_A_b.gif","forced_short","","9","complex_dissimilar","images/stimuli/spore_stims/complex_14_A_a.gif","","","","",""
"","3135.1999999023974","survey-multi-choice","118","339234","0.0-28.0","SS1618435657562","math_question","","","","","","","","","","","","{""Q0"":""10""}","[0]","10","",""
"","null","html-keyboard-response","119","340293","0.0-29.0-0.0","SS1618435657562","","","null","","","","","","<p><img src= images/blank.png width =""600"" height = ""600"" style=""position:fixed;top:50%; left:50%; transform: translate(-50%, -50%); border:5px solid black"">","","","","","","","",""
"","1063.2500001229346","sequential-stimulus-presentation-old","120","341865","0.0-29.0-1.0","SS1618435657562","trial","","40","500","1563.2500001229346","images/stimuli/spore_stims/complex_11_A_b.gif","images/stimuli/spore_stims/complex_04_A_a.gif","self_paced","","10","complex_dissimilar","images/stimuli/spore_stims/complex_04_A_a.gif","","","","",""
"","null","html-keyboard-response","121","343084","0.0-29.0-0.1","SS1618435657562","","","null","","","","","","<p><img src= images/blank.png width =""600"" height = ""600"" style=""position:fixed;top:50%; left:50%; transform: translate(-50%, -50%); border:5px solid black"">","","","","","","","",""
"","1144.8450000025332","sequential-stimulus-presentation-old","122","344739","0.0-29.0-1.1","SS1618435657562","trial","","40","500","1644.8450000025332","images/stimuli/spore_stims/complex_11_A_b.gif","images/stimuli/spore_stims/complex_04_A_a.gif","self_paced","","10","complex_dissimilar","images/stimuli/spore_stims/complex_04_A_a.gif","","","","",""
"","null","html-keyboard-response","123","345925","0.0-29.0-0.2","SS1618435657562","","","null","","","","","","<p><img src= images/blank.png width =""600"" height = ""600"" style=""position:fixed;top:50%; left:50%; transform: translate(-50%, -50%); border:5px solid black"">","","","","","","","",""
"","1084.8799999803305","sequential-stimulus-presentation-old","124","347516","0.0-29.0-1.2","SS1618435657562","trial","","40","500","1584.8799999803305","images/stimuli/spore_stims/complex_11_A_b.gif","images/stimuli/spore_stims/complex_04_A_a.gif","self_paced","","10","complex_dissimilar","images/stimuli/spore_stims/complex_04_A_a.gif","","","","",""
"","null","html-keyboard-response","125","348813","0.0-29.0-0.3","SS1618435657562","","","null","","","","","","<p><img src= images/blank.png width =""600"" height = ""600"" style=""position:fixed;top:50%; left:50%; transform: translate(-50%, -50%); border:5px solid black"">","","","","","","","",""
"","965.1200000662357","sequential-stimulus-presentation-old","126","350288","0.0-29.0-1.3","SS1618435657562","trial","","40","500","1465.1200000662357","images/stimuli/spore_stims/complex_11_A_b.gif","images/stimuli/spore_stims/complex_04_A_a.gif","self_paced","","10","complex_dissimilar","images/stimuli/spore_stims/complex_04_A_a.gif","","","","",""
"","null","html-keyboard-response","127","351481","0.0-29.0-0.4","SS1618435657562","","","null","","","","","","<p><img src= images/blank.png width =""600"" height = ""600"" style=""position:fixed;top:50%; left:50%; transform: translate(-50%, -50%); border:5px solid black"">","","","","","","","",""
"","9.599999990314245","sequential-stimulus-presentation-old","128","352001","0.0-29.0-1.4","SS1618435657562","trial","","40","500","509.59999999031425","images/stimuli/spore_stims/complex_11_A_b.gif","images/stimuli/spore_stims/complex_04_A_a.gif","self_paced","","10","complex_dissimilar","images/stimuli/spore_stims/complex_04_A_a.gif","","","","",""
"","3110.6750001199543","survey-multi-choice","129","355118","0.0-30.0","SS1618435657562","math_question","","","","","","","","","","","","{""Q0"":""8""}","[0]","8","",""
"","null","html-keyboard-response","130","356154","0.0-31.0-0.0","SS1618435657562","","","null","","","","","","<p><img src= images/blank.png width =""600"" height = ""600"" style=""position:fixed;top:50%; left:50%; transform: translate(-50%, -50%); border:5px solid black"">","","","","","","","",""
"","481.4549998845905","sequential-stimulus-presentation-old","131","361644","0.0-31.0-1.0","SS1618435657562","trial","","40","500","981.4549998845905","images/stimuli/spore_stims/simple_02_A_a.gif","images/stimuli/spore_stims/simple_11_A_b.gif","forced_long","","11","simple_dissimilar","images/stimuli/spore_stims/simple_11_A_b.gif","","","","",""
"","null","html-keyboard-response","132","362792","0.0-31.0-0.1","SS1618435657562","","","null","","","","","","<p><img src= images/blank.png width =""600"" height = ""600"" style=""position:fixed;top:50%; left:50%; transform: translate(-50%, -50%); border:5px solid black"">","","","","","","","",""
"","5120.880000060424","sequential-stimulus-presentation-old","133","368424","0.0-31.0-1.1","SS1618435657562","trial","","40","500","5620.880000060424","images/stimuli/spore_stims/simple_02_A_a.gif","images/stimuli/spore_stims/simple_11_A_b.gif","forced_long","","11","simple_dissimilar","images/stimuli/spore_stims/simple_11_A_b.gif","","","","",""
"","null","html-keyboard-response","134","369246","0.0-31.0-0.2","SS1618435657562","","","null","","","","","","<p><img src= images/blank.png width =""600"" height = ""600"" style=""position:fixed;top:50%; left:50%; transform: translate(-50%, -50%); border:5px solid black"">","","","","","","","",""
"","210.21499997004867","sequential-stimulus-presentation-old","135","369966","0.0-31.0-1.2","SS1618435657562","trial","","40","500","710.2149999700487","images/stimuli/spore_stims/simple_02_A_a.gif","images/stimuli/spore_stims/simple_11_A_b.gif","forced_long","","11","simple_dissimilar","images/stimuli/spore_stims/simple_02_A_a.gif","","","","",""
"","null","html-keyboard-response","136","370900","0.0-31.0-0.3","SS1618435657562","","","null","","","","","","<p><img src= images/blank.png width =""600"" height = ""600"" style=""position:fixed;top:50%; left:50%; transform: translate(-50%, -50%); border:5px solid black"">","","","","","","","",""
"","1365.2999999467283","sequential-stimulus-presentation-old","137","372775","0.0-31.0-1.3","SS1618435657562","trial","","40","500","1865.2999999467283","images/stimuli/spore_stims/simple_02_A_a.gif","images/stimuli/spore_stims/simple_11_A_b.gif","forced_long","","11","simple_dissimilar","images/stimuli/spore_stims/simple_11_A_b.gif","","","","",""
"","null","html-keyboard-response","138","373882","0.0-31.0-0.4","SS1618435657562","","","null","","","","","","<p><img src= images/blank.png width =""600"" height = ""600"" style=""position:fixed;top:50%; left:50%; transform: translate(-50%, -50%); border:5px solid black"">","","","","","","","",""
"","1004.1649998165667","sequential-stimulus-presentation-old","139","375405","0.0-31.0-1.4","SS1618435657562","trial","","40","500","1504.1649998165667","images/stimuli/spore_stims/simple_02_A_a.gif","images/stimuli/spore_stims/simple_11_A_b.gif","forced_long","","11","simple_dissimilar","images/stimuli/spore_stims/simple_11_A_b.gif","","","","",""
"[{""page_index"":0,""viewing_time"":5223.070000065491}]","5223.285000072792","instructions","140","380634","0.0-32.0","SS1618435657562","instructions","","","","","","","","","","","","","","","",""
"","8626.255000010133","survey-likert","141","389264","0.0-33.0","SS1618435657562","similarity_question","","","","","","","","","","","","{""Q0"":2}","[0]","","images/stimuli/spore_stims/complex_13_A_b.gif","images/stimuli/spore_stims/complex_20_A_a.gif"
"","5549.0050001535565","survey-likert","142","394819","0.0-34.0","SS1618435657562","similarity_question","","","","","","","","","","","","{""Q0"":1}","[0]","","images/stimuli/spore_stims/complex_19_A_b.gif","images/stimuli/spore_stims/complex_16_A_a.gif"
"","7402.040000073612","survey-likert","143","402224","0.0-35.0","SS1618435657562","similarity_question","","","","","","","","","","","","{""Q0"":1}","[0]","","images/stimuli/spore_stims/complex_14_A_b.gif","images/stimuli/spore_stims/complex_17_A_a.gif"
"","5865.119999973103","survey-likert","144","408094","0.0-36.0","SS1618435657562","similarity_question","","","","","","","","","","","","{""Q0"":1}","[0]","","images/stimuli/spore_stims/complex_06_A_a.gif","images/stimuli/spore_stims/complex_16_A_b.gif"
"","3824.354999931529","survey-likert","145","411922","0.0-37.0","SS1618435657562","similarity_question","","","","","","","","","","","","{""Q0"":4}","[0]","","images/stimuli/spore_stims/simple_05_A_b.gif","images/stimuli/spore_stims/simple_04_A_a.gif"
"","3405.2200000733137","survey-likert","146","415334","0.0-38.0","SS1618435657562","similarity_question","","","","","","","","","","","","{""Q0"":2}","[0]","","images/stimuli/spore_stims/simple_02_A_a.gif","images/stimuli/spore_stims/simple_11_A_b.gif"
"","3945.5499998293817","survey-likert","147","419284","0.0-39.0","SS1618435657562","similarity_question","","","","","","","","","","","","{""Q0"":2}","[0]","","images/stimuli/spore_stims/simple_07_A_b.gif","images/stimuli/spore_stims/simple_15_A_a.gif"
"","7658.32499996759","survey-likert","148","426947","0.0-40.0","SS1618435657562","similarity_question","","","","","","","","","","","","{""Q0"":4}","[0]","","images/stimuli/spore_stims/complex_14_A_a.gif","images/stimuli/spore_stims/complex_04_A_b.gif"
"","4229.240000015125","survey-likert","149","431183","0.0-41.0","SS1618435657562","similarity_question","","","","","","","","","","","","{""Q0"":4}","[0]","","images/stimuli/spore_stims/simple_13_A_a.gif","images/stimuli/spore_stims/simple_08_A_b.gif"
"","6740.630000131205","survey-likert","150","437930","0.0-42.0","SS1618435657562","similarity_question","","","","","","","","","","","","{""Q0"":2}","[0]","","images/stimuli/spore_stims/complex_11_A_b.gif","images/stimuli/spore_stims/complex_04_A_a.gif"
"","4873.870000010356","survey-likert","151","442811","0.0-43.0","SS1618435657562","similarity_question","","","","","","","","","","","","{""Q0"":6}","[0]","","images/stimuli/spore_stims/simple_20_A_a.gif","images/stimuli/spore_stims/simple_03_A_b.gif"
"","5630.755000049248","survey-likert","152","448445","0.0-44.0","SS1618435657562","similarity_question","","","","","","","","","","","","{""Q0"":4}","[0]","","images/stimuli/spore_stims/simple_13_A_b.gif","images/stimuli/spore_stims/simple_05_A_a.gif"
"[{""page_index"":0,""viewing_time"":4089.915000135079}]","4090.199999976903","instructions","153","452538","0.0-45.0","SS1618435657562","instructions","","","","","","","","","","","","","","","",""
"","3599.9900000169873","survey-likert","154","456144","0.0-46.0","SS1618435657562","","","","","","","","","images/stimuli/spore_stims/simple_15_A_a.gif","","","","{""Q0"":0}","[0]","","",""
"","3464.96000001207","survey-likert","155","459615","0.0-47.0","SS1618435657562","","","","","","","","","images/stimuli/spore_stims/simple_11_A_b.gif","","","","{""Q0"":1}","[0]","","",""
"","2617.320000194013","survey-likert","156","462238","0.0-48.0","SS1618435657562","","","","","","","","","images/stimuli/spore_stims/simple_13_A_a.gif","","","","{""Q0"":1}","[0]","","",""
"","3966.340000042692","survey-likert","157","466210","0.0-49.0","SS1618435657562","","","","","","","","","images/stimuli/spore_stims/simple_05_A_a.gif","","","","{""Q0"":0}","[0]","","",""
"","4360.3050000965595","survey-likert","158","470576","0.0-50.0","SS1618435657562","","","","","","","","","images/stimuli/spore_stims/complex_06_A_a.gif","","","","{""Q0"":5}","[0]","","",""
"","4676.634999923408","survey-likert","159","475258","0.0-51.0","SS1618435657562","","","","","","","","","images/stimuli/spore_stims/simple_05_A_b.gif","","","","{""Q0"":0}","[0]","","",""
"","3457.759999902919","survey-likert","160","478721","0.0-52.0","SS1618435657562","","","","","","","","","images/stimuli/spore_stims/complex_04_A_b.gif","","","","{""Q0"":5}","[0]","","",""
"","3651.545000029728","survey-likert","161","482377","0.0-53.0","SS1618435657562","","","","","","","","","images/stimuli/spore_stims/complex_20_A_a.gif","","","","{""Q0"":5}","[0]","","",""
"","3349.510000087321","survey-likert","162","485732","0.0-54.0","SS1618435657562","","","","","","","","","images/stimuli/spore_stims/simple_20_A_a.gif","","","","{""Q0"":2}","[0]","","",""
"","2897.6650000549853","survey-likert","163","488636","0.0-55.0","SS1618435657562","","","","","","","","","images/stimuli/spore_stims/complex_04_A_a.gif","","","","{""Q0"":5}","[0]","","",""
"","2983.970000175759","survey-likert","164","491626","0.0-56.0","SS1618435657562","","","","","","","","","images/stimuli/spore_stims/complex_16_A_a.gif","","","","{""Q0"":5}","[0]","","",""
"","2883.5849999450147","survey-likert","165","494516","0.0-57.0","SS1618435657562","","","","","","","","","images/stimuli/spore_stims/complex_14_A_b.gif","","","","{""Q0"":5}","[0]","","",""
"[{""page_index"":0,""viewing_time"":3520.4600000288337}]","3520.7450001034886","instructions","166","498042","0.0-58.0","SS1618435657562","instructions","","","","","","","","","","","","","","","",""
"","4714.3850000575185","demog-age","167","502765","0.0-59.0","SS1618435657562","","","","","","","","","","","","","{""age"":""23""}","","","",""
"","3286.7950000800192","demog-ethnic-US","168","506058","0.0-60.0","SS1618435657562","","","","","","","","","","","","","{""ethnicity"":[""White""]}","[0]","","",""
"","8531.339999986812","demog-gender-and-education","169","514596","0.0-61.0","SS1618435657562","","","","","","","","","","","","","{""gender"":""Female"",""education"":""High school diploma""}","[0,1]","","",""
"","15002.524999901652","survey-text","170","529606","0.0-62.0","SS1618435657562","feedback","","","","","","","","","","","","{""Q0"":""no""}","","","",""
"[{""page_index"":0,""viewing_time"":3738.4349999483675}]","3738.6950000654906","instructions","171","533349","0.0-63.0","SS1618435657562","instructions","","","","","","","","","","","","","","","",""
