"view_history","rt","trial_type","trial_index","time_elapsed","internal_node_id","subject","stimulus_type","trial_stimulus","key_press","minimum_viewing_duration","trial_looking_time","block_deviant","block_background","exposure_type","stimulus","block_number","block_type","stimulus_displayed","responses","question_order","math_correct_answer","stimulus_left","stimulus_right"
"[{""page_index"":0,""viewing_time"":38056}]","38057","instructions","0","38059","0.0-0.0","SS1618435656115","","","","","","","","","","","","","","","","",""
"[{""page_index"":0,""viewing_time"":22103},{""page_index"":1,""viewing_time"":5832}]","27935","instructions","1","68002","0.0-1.0","SS1618435656115","instructions","","","","","","","","","","","","","","","",""
"","5163","sequential-stimulus-presentation-old","2","73681","0.0-2.0","SS1618435656115","","","40","500","5663","null","null","self_paced","","","","","","","","",""
"","5276","sequential-stimulus-presentation-old","3","79472","0.0-3.0","SS1618435656115","","","40","500","5776","null","null","self_paced","","","","","","","","",""
"[{""page_index"":0,""viewing_time"":15659}]","15659","instructions","4","95131","0.0-4.0","SS1618435656115","instructions","","","","","","","","","","","","","","","",""
"","1708","sequential-stimulus-presentation-old","5","101844","0.0-5.0","SS1618435656115","","","40","500","2208","null","null","forced_long","","","","","","","","",""
"","2443","sequential-stimulus-presentation-old","6","104359","0.0-6.0","SS1618435656115","","","40","50","2493","null","null","forced_long","","","","","","","","",""
"[{""page_index"":0,""viewing_time"":13179}]","13179","instructions","7","117540","0.0-7.0","SS1618435656115","instructions","","","","","","","","","","","","","","","",""
"[{""page_index"":0,""viewing_time"":10315},{""page_index"":1,""viewing_time"":8294},{""page_index"":2,""viewing_time"":5838},{""page_index"":3,""viewing_time"":1747},{""page_index"":4,""viewing_time"":1470}]","27665","instructions","8","145205","0.0-8.0","SS1618435656115","instructions","","","","","","","","","","","","","","","",""
"","null","html-keyboard-response","9","146357","0.0-9.0-0.0","SS1618435656115","","","null","","","","","","<p><img src= images/blank.png width =""600"" height = ""600"" style=""position:fixed;top:50%; left:50%; transform: translate(-50%, -50%); border:5px solid black"">","","","","","","","",""
"","954","sequential-stimulus-presentation-old","10","152328","0.0-9.0-1.0","SS1618435656115","trial","","40","500","1454","images/stimuli/spore_stims/simple_05_A_b.gif","images/stimuli/spore_stims/simple_16_A_a.gif","forced_long","","0","simple_dissimilar","images/stimuli/spore_stims/simple_16_A_a.gif","","","","",""
"","null","html-keyboard-response","11","153286","0.0-9.0-0.1","SS1618435656115","","","null","","","","","","<p><img src= images/blank.png width =""600"" height = ""600"" style=""position:fixed;top:50%; left:50%; transform: translate(-50%, -50%); border:5px solid black"">","","","","","","","",""
"","14941","sequential-stimulus-presentation-old","12","168746","0.0-9.0-1.1","SS1618435656115","trial","","40","500","15441","images/stimuli/spore_stims/simple_05_A_b.gif","images/stimuli/spore_stims/simple_16_A_a.gif","forced_long","","0","simple_dissimilar","images/stimuli/spore_stims/simple_16_A_a.gif","","","","",""
"","null","html-keyboard-response","13","170006","0.0-9.0-0.2","SS1618435656115","","","null","","","","","","<p><img src= images/blank.png width =""600"" height = ""600"" style=""position:fixed;top:50%; left:50%; transform: translate(-50%, -50%); border:5px solid black"">","","","","","","","",""
"","4165","sequential-stimulus-presentation-old","14","174692","0.0-9.0-1.2","SS1618435656115","trial","","40","500","4665","images/stimuli/spore_stims/simple_05_A_b.gif","images/stimuli/spore_stims/simple_16_A_a.gif","forced_long","","0","simple_dissimilar","images/stimuli/spore_stims/simple_05_A_b.gif","","","","",""
"","null","html-keyboard-response","15","175507","0.0-9.0-0.3","SS1618435656115","","","null","","","","","","<p><img src= images/blank.png width =""600"" height = ""600"" style=""position:fixed;top:50%; left:50%; transform: translate(-50%, -50%); border:5px solid black"">","","","","","","","",""
"","9207","sequential-stimulus-presentation-old","16","185233","0.0-9.0-1.3","SS1618435656115","trial","","40","500","9707","images/stimuli/spore_stims/simple_05_A_b.gif","images/stimuli/spore_stims/simple_16_A_a.gif","forced_long","","0","simple_dissimilar","images/stimuli/spore_stims/simple_16_A_a.gif","","","","",""
"","null","html-keyboard-response","17","186255","0.0-9.0-0.4","SS1618435656115","","","null","","","","","","<p><img src= images/blank.png width =""600"" height = ""600"" style=""position:fixed;top:50%; left:50%; transform: translate(-50%, -50%); border:5px solid black"">","","","","","","","",""
"","2855","sequential-stimulus-presentation-old","18","189630","0.0-9.0-1.4","SS1618435656115","trial","","40","500","3355","images/stimuli/spore_stims/simple_05_A_b.gif","images/stimuli/spore_stims/simple_16_A_a.gif","forced_long","","0","simple_dissimilar","images/stimuli/spore_stims/simple_16_A_a.gif","","","","",""
"","null","html-keyboard-response","19","190606","0.0-9.0-0.5","SS1618435656115","","","null","","","","","","<p><img src= images/blank.png width =""600"" height = ""600"" style=""position:fixed;top:50%; left:50%; transform: translate(-50%, -50%); border:5px solid black"">","","","","","","","",""
"","5555","sequential-stimulus-presentation-old","20","196680","0.0-9.0-1.5","SS1618435656115","trial","","40","500","6055","images/stimuli/spore_stims/simple_05_A_b.gif","images/stimuli/spore_stims/simple_16_A_a.gif","forced_long","","0","simple_dissimilar","images/stimuli/spore_stims/simple_05_A_b.gif","","","","",""
"","5081","survey-multi-choice","21","201763","0.0-10.0","SS1618435656115","math_question","","","","","","","","","","","","{""Q0"":""11""}","[0]","11","",""
"","null","html-keyboard-response","22","202885","0.0-11.0-0.0","SS1618435656115","","","null","","","","","","<p><img src= images/blank.png width =""600"" height = ""600"" style=""position:fixed;top:50%; left:50%; transform: translate(-50%, -50%); border:5px solid black"">","","","","","","","",""
"","5137","sequential-stimulus-presentation-old","23","208543","0.0-11.0-1.0","SS1618435656115","trial","","40","500","5637","images/stimuli/spore_stims/complex_10_A_a.gif","images/stimuli/spore_stims/complex_17_A_b.gif","self_paced","","1","complex_dissimilar","images/stimuli/spore_stims/complex_17_A_b.gif","","","","",""
"","null","html-keyboard-response","24","209766","0.0-11.0-0.1","SS1618435656115","","","null","","","","","","<p><img src= images/blank.png width =""600"" height = ""600"" style=""position:fixed;top:50%; left:50%; transform: translate(-50%, -50%); border:5px solid black"">","","","","","","","",""
"","7145","sequential-stimulus-presentation-old","25","217429","0.0-11.0-1.1","SS1618435656115","trial","","40","500","7645","images/stimuli/spore_stims/complex_10_A_a.gif","images/stimuli/spore_stims/complex_17_A_b.gif","self_paced","","1","complex_dissimilar","images/stimuli/spore_stims/complex_17_A_b.gif","","","","",""
"","null","html-keyboard-response","26","218646","0.0-11.0-0.2","SS1618435656115","","","null","","","","","","<p><img src= images/blank.png width =""600"" height = ""600"" style=""position:fixed;top:50%; left:50%; transform: translate(-50%, -50%); border:5px solid black"">","","","","","","","",""
"","524","sequential-stimulus-presentation-old","27","219691","0.0-11.0-1.2","SS1618435656115","trial","","40","500","1024","images/stimuli/spore_stims/complex_10_A_a.gif","images/stimuli/spore_stims/complex_17_A_b.gif","self_paced","","1","complex_dissimilar","images/stimuli/spore_stims/complex_17_A_b.gif","","","","",""
"","null","html-keyboard-response","28","220745","0.0-11.0-0.3","SS1618435656115","","","null","","","","","","<p><img src= images/blank.png width =""600"" height = ""600"" style=""position:fixed;top:50%; left:50%; transform: translate(-50%, -50%); border:5px solid black"">","","","","","","","",""
"","770","sequential-stimulus-presentation-old","29","222036","0.0-11.0-1.3","SS1618435656115","trial","","40","500","1270","images/stimuli/spore_stims/complex_10_A_a.gif","images/stimuli/spore_stims/complex_17_A_b.gif","self_paced","","1","complex_dissimilar","images/stimuli/spore_stims/complex_17_A_b.gif","","","","",""
"","null","html-keyboard-response","30","223226","0.0-11.0-0.4","SS1618435656115","","","null","","","","","","<p><img src= images/blank.png width =""600"" height = ""600"" style=""position:fixed;top:50%; left:50%; transform: translate(-50%, -50%); border:5px solid black"">","","","","","","","",""
"","537","sequential-stimulus-presentation-old","31","224281","0.0-11.0-1.4","SS1618435656115","trial","","40","500","1037","images/stimuli/spore_stims/complex_10_A_a.gif","images/stimuli/spore_stims/complex_17_A_b.gif","self_paced","","1","complex_dissimilar","images/stimuli/spore_stims/complex_17_A_b.gif","","","","",""
"","4427","survey-multi-choice","32","228712","0.0-12.0","SS1618435656115","math_question","","","","","","","","","","","","{""Q0"":""6""}","[0]","6","",""
"","null","html-keyboard-response","33","229986","0.0-13.0-0.0","SS1618435656115","","","null","","","","","","<p><img src= images/blank.png width =""600"" height = ""600"" style=""position:fixed;top:50%; left:50%; transform: translate(-50%, -50%); border:5px solid black"">","","","","","","","",""
"","1247","sequential-stimulus-presentation-old","34","236243","0.0-13.0-1.0","SS1618435656115","trial","","40","500","1747","images/stimuli/spore_stims/complex_04_A_a.gif","images/stimuli/spore_stims/complex_20_A_b.gif","forced_long","","2","complex_dissimilar","images/stimuli/spore_stims/complex_20_A_b.gif","","","","",""
"","null","html-keyboard-response","35","237476","0.0-13.0-0.1","SS1618435656115","","","null","","","","","","<p><img src= images/blank.png width =""600"" height = ""600"" style=""position:fixed;top:50%; left:50%; transform: translate(-50%, -50%); border:5px solid black"">","","","","","","","",""
"","8473","sequential-stimulus-presentation-old","36","246469","0.0-13.0-1.1","SS1618435656115","trial","","40","500","8973","images/stimuli/spore_stims/complex_04_A_a.gif","images/stimuli/spore_stims/complex_20_A_b.gif","forced_long","","2","complex_dissimilar","images/stimuli/spore_stims/complex_20_A_b.gif","","","","",""
"","null","html-keyboard-response","37","247686","0.0-13.0-0.2","SS1618435656115","","","null","","","","","","<p><img src= images/blank.png width =""600"" height = ""600"" style=""position:fixed;top:50%; left:50%; transform: translate(-50%, -50%); border:5px solid black"">","","","","","","","",""
"","5057","sequential-stimulus-presentation-old","38","253262","0.0-13.0-1.2","SS1618435656115","trial","","40","500","5557","images/stimuli/spore_stims/complex_04_A_a.gif","images/stimuli/spore_stims/complex_20_A_b.gif","forced_long","","2","complex_dissimilar","images/stimuli/spore_stims/complex_20_A_b.gif","","","","",""
"","null","html-keyboard-response","39","254195","0.0-13.0-0.3","SS1618435656115","","","null","","","","","","<p><img src= images/blank.png width =""600"" height = ""600"" style=""position:fixed;top:50%; left:50%; transform: translate(-50%, -50%); border:5px solid black"">","","","","","","","",""
"","5657","sequential-stimulus-presentation-old","40","260372","0.0-13.0-1.3","SS1618435656115","trial","","40","500","6157","images/stimuli/spore_stims/complex_04_A_a.gif","images/stimuli/spore_stims/complex_20_A_b.gif","forced_long","","2","complex_dissimilar","images/stimuli/spore_stims/complex_20_A_b.gif","","","","",""
"","null","html-keyboard-response","41","261676","0.0-13.0-0.4","SS1618435656115","","","null","","","","","","<p><img src= images/blank.png width =""600"" height = ""600"" style=""position:fixed;top:50%; left:50%; transform: translate(-50%, -50%); border:5px solid black"">","","","","","","","",""
"","4700","sequential-stimulus-presentation-old","42","266895","0.0-13.0-1.4","SS1618435656115","trial","","40","500","5200","images/stimuli/spore_stims/complex_04_A_a.gif","images/stimuli/spore_stims/complex_20_A_b.gif","forced_long","","2","complex_dissimilar","images/stimuli/spore_stims/complex_20_A_b.gif","","","","",""
"","7342","survey-multi-choice","43","274241","0.0-14.0","SS1618435656115","math_question","","","","","","","","","","","","{""Q0"":""13""}","[0]","13","",""
"","null","html-keyboard-response","44","275255","0.0-15.0-0.0","SS1618435656115","","","null","","","","","","<p><img src= images/blank.png width =""600"" height = ""600"" style=""position:fixed;top:50%; left:50%; transform: translate(-50%, -50%); border:5px solid black"">","","","","","","","",""
"","6264","sequential-stimulus-presentation-old","45","282040","0.0-15.0-1.0","SS1618435656115","trial","","40","500","6764","images/stimuli/spore_stims/simple_18_A_b.gif","images/stimuli/spore_stims/simple_17_A_a.gif","self_paced","","3","simple_dissimilar","images/stimuli/spore_stims/simple_17_A_a.gif","","","","",""
"","null","html-keyboard-response","46","282945","0.0-15.0-0.1","SS1618435656115","","","null","","","","","","<p><img src= images/blank.png width =""600"" height = ""600"" style=""position:fixed;top:50%; left:50%; transform: translate(-50%, -50%); border:5px solid black"">","","","","","","","",""
"","6079","sequential-stimulus-presentation-old","47","289544","0.0-15.0-1.1","SS1618435656115","trial","","40","500","6579","images/stimuli/spore_stims/simple_18_A_b.gif","images/stimuli/spore_stims/simple_17_A_a.gif","self_paced","","3","simple_dissimilar","images/stimuli/spore_stims/simple_18_A_b.gif","","","","",""
"","null","html-keyboard-response","48","290555","0.0-15.0-0.2","SS1618435656115","","","null","","","","","","<p><img src= images/blank.png width =""600"" height = ""600"" style=""position:fixed;top:50%; left:50%; transform: translate(-50%, -50%); border:5px solid black"">","","","","","","","",""
"","3441","sequential-stimulus-presentation-old","49","294516","0.0-15.0-1.2","SS1618435656115","trial","","40","500","3941","images/stimuli/spore_stims/simple_18_A_b.gif","images/stimuli/spore_stims/simple_17_A_a.gif","self_paced","","3","simple_dissimilar","images/stimuli/spore_stims/simple_17_A_a.gif","","","","",""
"","null","html-keyboard-response","50","295546","0.0-15.0-0.3","SS1618435656115","","","null","","","","","","<p><img src= images/blank.png width =""600"" height = ""600"" style=""position:fixed;top:50%; left:50%; transform: translate(-50%, -50%); border:5px solid black"">","","","","","","","",""
"","4564","sequential-stimulus-presentation-old","51","300628","0.0-15.0-1.3","SS1618435656115","trial","","40","500","5064","images/stimuli/spore_stims/simple_18_A_b.gif","images/stimuli/spore_stims/simple_17_A_a.gif","self_paced","","3","simple_dissimilar","images/stimuli/spore_stims/simple_17_A_a.gif","","","","",""
"","4616","survey-multi-choice","52","305249","0.0-16.0","SS1618435656115","math_question","","","","","","","","","","","","{""Q0"":""5""}","[0]","5","",""
"","null","html-keyboard-response","53","306095","0.0-17.0-0.0","SS1618435656115","","","null","","","","","","<p><img src= images/blank.png width =""600"" height = ""600"" style=""position:fixed;top:50%; left:50%; transform: translate(-50%, -50%); border:5px solid black"">","","","","","","","",""
"","1174","sequential-stimulus-presentation-old","54","307328","0.0-17.0-1.0","SS1618435656115","trial","","40","500","1674","images/stimuli/spore_stims/complex_11_A_a.gif","images/stimuli/spore_stims/complex_07_A_b.gif","forced_short","","4","complex_dissimilar","images/stimuli/spore_stims/complex_07_A_b.gif","","","","",""
"","null","html-keyboard-response","55","308416","0.0-17.0-0.1","SS1618435656115","","","null","","","","","","<p><img src= images/blank.png width =""600"" height = ""600"" style=""position:fixed;top:50%; left:50%; transform: translate(-50%, -50%); border:5px solid black"">","","","","","","","",""
"","5465","sequential-stimulus-presentation-old","56","314401","0.0-17.0-1.1","SS1618435656115","trial","","40","500","5965","images/stimuli/spore_stims/complex_11_A_a.gif","images/stimuli/spore_stims/complex_07_A_b.gif","forced_short","","4","complex_dissimilar","images/stimuli/spore_stims/complex_07_A_b.gif","","","","",""
"","null","html-keyboard-response","57","315526","0.0-17.0-0.2","SS1618435656115","","","null","","","","","","<p><img src= images/blank.png width =""600"" height = ""600"" style=""position:fixed;top:50%; left:50%; transform: translate(-50%, -50%); border:5px solid black"">","","","","","","","",""
"","4802","sequential-stimulus-presentation-old","58","320848","0.0-17.0-1.2","SS1618435656115","trial","","40","500","5302","images/stimuli/spore_stims/complex_11_A_a.gif","images/stimuli/spore_stims/complex_07_A_b.gif","forced_short","","4","complex_dissimilar","images/stimuli/spore_stims/complex_11_A_a.gif","","","","",""
"","null","html-keyboard-response","59","322115","0.0-17.0-0.3","SS1618435656115","","","null","","","","","","<p><img src= images/blank.png width =""600"" height = ""600"" style=""position:fixed;top:50%; left:50%; transform: translate(-50%, -50%); border:5px solid black"">","","","","","","","",""
"","3431","sequential-stimulus-presentation-old","60","326067","0.0-17.0-1.3","SS1618435656115","trial","","40","500","3931","images/stimuli/spore_stims/complex_11_A_a.gif","images/stimuli/spore_stims/complex_07_A_b.gif","forced_short","","4","complex_dissimilar","images/stimuli/spore_stims/complex_07_A_b.gif","","","","",""
"","5031","survey-multi-choice","61","331101","0.0-18.0","SS1618435656115","math_question","","","","","","","","","","","","{""Q0"":""10""}","[0]","10","",""
"","null","html-keyboard-response","62","331996","0.0-19.0-0.0","SS1618435656115","","","null","","","","","","<p><img src= images/blank.png width =""600"" height = ""600"" style=""position:fixed;top:50%; left:50%; transform: translate(-50%, -50%); border:5px solid black"">","","","","","","","",""
"","858","sequential-stimulus-presentation-old","63","333373","0.0-19.0-1.0","SS1618435656115","trial","","40","500","1358","images/stimuli/spore_stims/simple_13_A_b.gif","images/stimuli/spore_stims/simple_02_A_a.gif","self_paced","","5","simple_dissimilar","images/stimuli/spore_stims/simple_02_A_a.gif","","","","",""
"","null","html-keyboard-response","64","334615","0.0-19.0-0.1","SS1618435656115","","","null","","","","","","<p><img src= images/blank.png width =""600"" height = ""600"" style=""position:fixed;top:50%; left:50%; transform: translate(-50%, -50%); border:5px solid black"">","","","","","","","",""
"","523","sequential-stimulus-presentation-old","65","335659","0.0-19.0-1.1","SS1618435656115","trial","","40","500","1023","images/stimuli/spore_stims/simple_13_A_b.gif","images/stimuli/spore_stims/simple_02_A_a.gif","self_paced","","5","simple_dissimilar","images/stimuli/spore_stims/simple_02_A_a.gif","","","","",""
"","null","html-keyboard-response","66","336616","0.0-19.0-0.2","SS1618435656115","","","null","","","","","","<p><img src= images/blank.png width =""600"" height = ""600"" style=""position:fixed;top:50%; left:50%; transform: translate(-50%, -50%); border:5px solid black"">","","","","","","","",""
"","147","sequential-stimulus-presentation-old","67","337283","0.0-19.0-1.2","SS1618435656115","trial","","40","500","647","images/stimuli/spore_stims/simple_13_A_b.gif","images/stimuli/spore_stims/simple_02_A_a.gif","self_paced","","5","simple_dissimilar","images/stimuli/spore_stims/simple_02_A_a.gif","","","","",""
"","null","html-keyboard-response","68","338256","0.0-19.0-0.3","SS1618435656115","","","null","","","","","","<p><img src= images/blank.png width =""600"" height = ""600"" style=""position:fixed;top:50%; left:50%; transform: translate(-50%, -50%); border:5px solid black"">","","","","","","","",""
"","706","sequential-stimulus-presentation-old","69","339482","0.0-19.0-1.3","SS1618435656115","trial","","40","500","1206","images/stimuli/spore_stims/simple_13_A_b.gif","images/stimuli/spore_stims/simple_02_A_a.gif","self_paced","","5","simple_dissimilar","images/stimuli/spore_stims/simple_02_A_a.gif","","","","",""
"","4735","survey-multi-choice","70","344222","0.0-20.0","SS1618435656115","math_question","","","","","","","","","","","","{""Q0"":""11""}","[0]","11","",""
"","null","html-keyboard-response","71","345215","0.0-21.0-0.0","SS1618435656115","","","null","","","","","","<p><img src= images/blank.png width =""600"" height = ""600"" style=""position:fixed;top:50%; left:50%; transform: translate(-50%, -50%); border:5px solid black"">","","","","","","","",""
"","1375","sequential-stimulus-presentation-old","72","351600","0.0-21.0-1.0","SS1618435656115","trial","","40","500","1875","images/stimuli/spore_stims/simple_14_A_a.gif","images/stimuli/spore_stims/simple_15_A_b.gif","forced_long","","6","simple_dissimilar","images/stimuli/spore_stims/simple_15_A_b.gif","","","","",""
"","null","html-keyboard-response","73","352566","0.0-21.0-0.1","SS1618435656115","","","null","","","","","","<p><img src= images/blank.png width =""600"" height = ""600"" style=""position:fixed;top:50%; left:50%; transform: translate(-50%, -50%); border:5px solid black"">","","","","","","","",""
"","8930","sequential-stimulus-presentation-old","74","362005","0.0-21.0-1.1","SS1618435656115","trial","","40","500","9430","images/stimuli/spore_stims/simple_14_A_a.gif","images/stimuli/spore_stims/simple_15_A_b.gif","forced_long","","6","simple_dissimilar","images/stimuli/spore_stims/simple_15_A_b.gif","","","","",""
"","null","html-keyboard-response","75","362915","0.0-21.0-0.2","SS1618435656115","","","null","","","","","","<p><img src= images/blank.png width =""600"" height = ""600"" style=""position:fixed;top:50%; left:50%; transform: translate(-50%, -50%); border:5px solid black"">","","","","","","","",""
"","5284","sequential-stimulus-presentation-old","76","368719","0.0-21.0-1.2","SS1618435656115","trial","","40","500","5784","images/stimuli/spore_stims/simple_14_A_a.gif","images/stimuli/spore_stims/simple_15_A_b.gif","forced_long","","6","simple_dissimilar","images/stimuli/spore_stims/simple_15_A_b.gif","","","","",""
"","null","html-keyboard-response","77","369975","0.0-21.0-0.3","SS1618435656115","","","null","","","","","","<p><img src= images/blank.png width =""600"" height = ""600"" style=""position:fixed;top:50%; left:50%; transform: translate(-50%, -50%); border:5px solid black"">","","","","","","","",""
"","4604","sequential-stimulus-presentation-old","78","375099","0.0-21.0-1.3","SS1618435656115","trial","","40","500","5104","images/stimuli/spore_stims/simple_14_A_a.gif","images/stimuli/spore_stims/simple_15_A_b.gif","forced_long","","6","simple_dissimilar","images/stimuli/spore_stims/simple_15_A_b.gif","","","","",""
"","null","html-keyboard-response","79","376055","0.0-21.0-0.4","SS1618435656115","","","null","","","","","","<p><img src= images/blank.png width =""600"" height = ""600"" style=""position:fixed;top:50%; left:50%; transform: translate(-50%, -50%); border:5px solid black"">","","","","","","","",""
"","7699","sequential-stimulus-presentation-old","80","384275","0.0-21.0-1.4","SS1618435656115","trial","","40","500","8199","images/stimuli/spore_stims/simple_14_A_a.gif","images/stimuli/spore_stims/simple_15_A_b.gif","forced_long","","6","simple_dissimilar","images/stimuli/spore_stims/simple_15_A_b.gif","","","","",""
"","null","html-keyboard-response","81","385316","0.0-21.0-0.5","SS1618435656115","","","null","","","","","","<p><img src= images/blank.png width =""600"" height = ""600"" style=""position:fixed;top:50%; left:50%; transform: translate(-50%, -50%); border:5px solid black"">","","","","","","","",""
"","7429","sequential-stimulus-presentation-old","82","393264","0.0-21.0-1.5","SS1618435656115","trial","","40","500","7929","images/stimuli/spore_stims/simple_14_A_a.gif","images/stimuli/spore_stims/simple_15_A_b.gif","forced_long","","6","simple_dissimilar","images/stimuli/spore_stims/simple_14_A_a.gif","","","","",""
"","5186","survey-multi-choice","83","398451","0.0-22.0","SS1618435656115","math_question","","","","","","","","","","","","{""Q0"":""14""}","[0]","14","",""
"","null","html-keyboard-response","84","399545","0.0-23.0-0.0","SS1618435656115","","","null","","","","","","<p><img src= images/blank.png width =""600"" height = ""600"" style=""position:fixed;top:50%; left:50%; transform: translate(-50%, -50%); border:5px solid black"">","","","","","","","",""
"","4057","sequential-stimulus-presentation-old","85","404121","0.0-23.0-1.0","SS1618435656115","trial","","40","500","4557","images/stimuli/spore_stims/complex_06_A_a.gif","images/stimuli/spore_stims/complex_02_A_b.gif","self_paced","","7","complex_dissimilar","images/stimuli/spore_stims/complex_02_A_b.gif","","","","",""
"","null","html-keyboard-response","86","405095","0.0-23.0-0.1","SS1618435656115","","","null","","","","","","<p><img src= images/blank.png width =""600"" height = ""600"" style=""position:fixed;top:50%; left:50%; transform: translate(-50%, -50%); border:5px solid black"">","","","","","","","",""
"","2438","sequential-stimulus-presentation-old","87","408043","0.0-23.0-1.1","SS1618435656115","trial","","40","500","2938","images/stimuli/spore_stims/complex_06_A_a.gif","images/stimuli/spore_stims/complex_02_A_b.gif","self_paced","","7","complex_dissimilar","images/stimuli/spore_stims/complex_02_A_b.gif","","","","",""
"","null","html-keyboard-response","88","409266","0.0-23.0-0.2","SS1618435656115","","","null","","","","","","<p><img src= images/blank.png width =""600"" height = ""600"" style=""position:fixed;top:50%; left:50%; transform: translate(-50%, -50%); border:5px solid black"">","","","","","","","",""
"","4318","sequential-stimulus-presentation-old","89","414099","0.0-23.0-1.2","SS1618435656115","trial","","40","500","4818","images/stimuli/spore_stims/complex_06_A_a.gif","images/stimuli/spore_stims/complex_02_A_b.gif","self_paced","","7","complex_dissimilar","images/stimuli/spore_stims/complex_02_A_b.gif","","","","",""
"","null","html-keyboard-response","90","415326","0.0-23.0-0.3","SS1618435656115","","","null","","","","","","<p><img src= images/blank.png width =""600"" height = ""600"" style=""position:fixed;top:50%; left:50%; transform: translate(-50%, -50%); border:5px solid black"">","","","","","","","",""
"","4302","sequential-stimulus-presentation-old","91","420148","0.0-23.0-1.3","SS1618435656115","trial","","40","500","4802","images/stimuli/spore_stims/complex_06_A_a.gif","images/stimuli/spore_stims/complex_02_A_b.gif","self_paced","","7","complex_dissimilar","images/stimuli/spore_stims/complex_02_A_b.gif","","","","",""
"","null","html-keyboard-response","92","421436","0.0-23.0-0.4","SS1618435656115","","","null","","","","","","<p><img src= images/blank.png width =""600"" height = ""600"" style=""position:fixed;top:50%; left:50%; transform: translate(-50%, -50%); border:5px solid black"">","","","","","","","",""
"","4813","sequential-stimulus-presentation-old","93","426768","0.0-23.0-1.4","SS1618435656115","trial","","40","500","5313","images/stimuli/spore_stims/complex_06_A_a.gif","images/stimuli/spore_stims/complex_02_A_b.gif","self_paced","","7","complex_dissimilar","images/stimuli/spore_stims/complex_02_A_b.gif","","","","",""
"","null","html-keyboard-response","94","427822","0.0-23.0-0.5","SS1618435656115","","","null","","","","","","<p><img src= images/blank.png width =""600"" height = ""600"" style=""position:fixed;top:50%; left:50%; transform: translate(-50%, -50%); border:5px solid black"">","","","","","","","",""
"","6047","sequential-stimulus-presentation-old","95","434372","0.0-23.0-1.5","SS1618435656115","trial","","40","500","6547","images/stimuli/spore_stims/complex_06_A_a.gif","images/stimuli/spore_stims/complex_02_A_b.gif","self_paced","","7","complex_dissimilar","images/stimuli/spore_stims/complex_06_A_a.gif","","","","",""
"","5276","survey-multi-choice","96","439653","0.0-24.0","SS1618435656115","math_question","","","","","","","","","","","","{""Q0"":""5""}","[0]","5","",""
"","null","html-keyboard-response","97","440845","0.0-25.0-0.0","SS1618435656115","","","null","","","","","","<p><img src= images/blank.png width =""600"" height = ""600"" style=""position:fixed;top:50%; left:50%; transform: translate(-50%, -50%); border:5px solid black"">","","","","","","","",""
"","1183","sequential-stimulus-presentation-old","98","447038","0.0-25.0-1.0","SS1618435656115","trial","","40","500","1683","images/stimuli/spore_stims/complex_05_A_a.gif","images/stimuli/spore_stims/complex_11_A_b.gif","forced_long","","8","complex_dissimilar","images/stimuli/spore_stims/complex_11_A_b.gif","","","","",""
"","null","html-keyboard-response","99","448195","0.0-25.0-0.1","SS1618435656115","","","null","","","","","","<p><img src= images/blank.png width =""600"" height = ""600"" style=""position:fixed;top:50%; left:50%; transform: translate(-50%, -50%); border:5px solid black"">","","","","","","","",""
"","4782","sequential-stimulus-presentation-old","100","453497","0.0-25.0-1.1","SS1618435656115","trial","","40","500","5282","images/stimuli/spore_stims/complex_05_A_a.gif","images/stimuli/spore_stims/complex_11_A_b.gif","forced_long","","8","complex_dissimilar","images/stimuli/spore_stims/complex_05_A_a.gif","","","","",""
"","null","html-keyboard-response","101","454795","0.0-25.0-0.2","SS1618435656115","","","null","","","","","","<p><img src= images/blank.png width =""600"" height = ""600"" style=""position:fixed;top:50%; left:50%; transform: translate(-50%, -50%); border:5px solid black"">","","","","","","","",""
"","7716","sequential-stimulus-presentation-old","102","463032","0.0-25.0-1.2","SS1618435656115","trial","","40","500","8216","images/stimuli/spore_stims/complex_05_A_a.gif","images/stimuli/spore_stims/complex_11_A_b.gif","forced_long","","8","complex_dissimilar","images/stimuli/spore_stims/complex_05_A_a.gif","","","","",""
"","null","html-keyboard-response","103","463996","0.0-25.0-0.3","SS1618435656115","","","null","","","","","","<p><img src= images/blank.png width =""600"" height = ""600"" style=""position:fixed;top:50%; left:50%; transform: translate(-50%, -50%); border:5px solid black"">","","","","","","","",""
"","10414","sequential-stimulus-presentation-old","104","474930","0.0-25.0-1.3","SS1618435656115","trial","","40","500","10914","images/stimuli/spore_stims/complex_05_A_a.gif","images/stimuli/spore_stims/complex_11_A_b.gif","forced_long","","8","complex_dissimilar","images/stimuli/spore_stims/complex_11_A_b.gif","","","","",""
"","6246","survey-multi-choice","105","481181","0.0-26.0","SS1618435656115","math_question","","","","","","","","","","","","{""Q0"":""14""}","[0]","14","",""
"","null","html-keyboard-response","106","482336","0.0-27.0-0.0","SS1618435656115","","","null","","","","","","<p><img src= images/blank.png width =""600"" height = ""600"" style=""position:fixed;top:50%; left:50%; transform: translate(-50%, -50%); border:5px solid black"">","","","","","","","",""
"","862","sequential-stimulus-presentation-old","107","483257","0.0-27.0-1.0","SS1618435656115","trial","","40","500","1362","images/stimuli/spore_stims/simple_14_A_b.gif","images/stimuli/spore_stims/simple_10_A_a.gif","forced_short","","9","simple_dissimilar","images/stimuli/spore_stims/simple_10_A_a.gif","","","","",""
"","null","html-keyboard-response","108","484275","0.0-27.0-0.1","SS1618435656115","","","null","","","","","","<p><img src= images/blank.png width =""600"" height = ""600"" style=""position:fixed;top:50%; left:50%; transform: translate(-50%, -50%); border:5px solid black"">","","","","","","","",""
"","4670","sequential-stimulus-presentation-old","109","489465","0.0-27.0-1.1","SS1618435656115","trial","","40","500","5170","images/stimuli/spore_stims/simple_14_A_b.gif","images/stimuli/spore_stims/simple_10_A_a.gif","forced_short","","9","simple_dissimilar","images/stimuli/spore_stims/simple_14_A_b.gif","","","","",""
"","null","html-keyboard-response","110","490365","0.0-27.0-0.2","SS1618435656115","","","null","","","","","","<p><img src= images/blank.png width =""600"" height = ""600"" style=""position:fixed;top:50%; left:50%; transform: translate(-50%, -50%); border:5px solid black"">","","","","","","","",""
"","2822","sequential-stimulus-presentation-old","111","493707","0.0-27.0-1.2","SS1618435656115","trial","","40","500","3322","images/stimuli/spore_stims/simple_14_A_b.gif","images/stimuli/spore_stims/simple_10_A_a.gif","forced_short","","9","simple_dissimilar","images/stimuli/spore_stims/simple_10_A_a.gif","","","","",""
"","null","html-keyboard-response","112","494795","0.0-27.0-0.3","SS1618435656115","","","null","","","","","","<p><img src= images/blank.png width =""600"" height = ""600"" style=""position:fixed;top:50%; left:50%; transform: translate(-50%, -50%); border:5px solid black"">","","","","","","","",""
"","4628","sequential-stimulus-presentation-old","113","499944","0.0-27.0-1.3","SS1618435656115","trial","","40","500","5128","images/stimuli/spore_stims/simple_14_A_b.gif","images/stimuli/spore_stims/simple_10_A_a.gif","forced_short","","9","simple_dissimilar","images/stimuli/spore_stims/simple_10_A_a.gif","","","","",""
"","null","html-keyboard-response","114","500915","0.0-27.0-0.4","SS1618435656115","","","null","","","","","","<p><img src= images/blank.png width =""600"" height = ""600"" style=""position:fixed;top:50%; left:50%; transform: translate(-50%, -50%); border:5px solid black"">","","","","","","","",""
"","2261","sequential-stimulus-presentation-old","115","503696","0.0-27.0-1.4","SS1618435656115","trial","","40","500","2761","images/stimuli/spore_stims/simple_14_A_b.gif","images/stimuli/spore_stims/simple_10_A_a.gif","forced_short","","9","simple_dissimilar","images/stimuli/spore_stims/simple_14_A_b.gif","","","","",""
"","21416","survey-multi-choice","116","525118","0.0-28.0","SS1618435656115","math_question","","","","","","","","","","","","{""Q0"":""9""}","[0]","9","",""
"","null","html-keyboard-response","117","526395","0.0-29.0-0.0","SS1618435656115","","","null","","","","","","<p><img src= images/blank.png width =""600"" height = ""600"" style=""position:fixed;top:50%; left:50%; transform: translate(-50%, -50%); border:5px solid black"">","","","","","","","",""
"","843","sequential-stimulus-presentation-old","118","527297","0.0-29.0-1.0","SS1618435656115","trial","","40","500","1343","images/stimuli/spore_stims/complex_05_A_b.gif","images/stimuli/spore_stims/complex_12_A_a.gif","forced_short","","10","complex_dissimilar","images/stimuli/spore_stims/complex_12_A_a.gif","","","","",""
"","null","html-keyboard-response","119","528255","0.0-29.0-0.1","SS1618435656115","","","null","","","","","","<p><img src= images/blank.png width =""600"" height = ""600"" style=""position:fixed;top:50%; left:50%; transform: translate(-50%, -50%); border:5px solid black"">","","","","","","","",""
"","3604","sequential-stimulus-presentation-old","120","532375","0.0-29.0-1.1","SS1618435656115","trial","","40","500","4104","images/stimuli/spore_stims/complex_05_A_b.gif","images/stimuli/spore_stims/complex_12_A_a.gif","forced_short","","10","complex_dissimilar","images/stimuli/spore_stims/complex_12_A_a.gif","","","","",""
"","null","html-keyboard-response","121","533556","0.0-29.0-0.2","SS1618435656115","","","null","","","","","","<p><img src= images/blank.png width =""600"" height = ""600"" style=""position:fixed;top:50%; left:50%; transform: translate(-50%, -50%); border:5px solid black"">","","","","","","","",""
"","491","sequential-stimulus-presentation-old","122","534566","0.0-29.0-1.2","SS1618435656115","trial","","40","500","991","images/stimuli/spore_stims/complex_05_A_b.gif","images/stimuli/spore_stims/complex_12_A_a.gif","forced_short","","10","complex_dissimilar","images/stimuli/spore_stims/complex_12_A_a.gif","","","","",""
"","null","html-keyboard-response","123","535846","0.0-29.0-0.3","SS1618435656115","","","null","","","","","","<p><img src= images/blank.png width =""600"" height = ""600"" style=""position:fixed;top:50%; left:50%; transform: translate(-50%, -50%); border:5px solid black"">","","","","","","","",""
"","1301","sequential-stimulus-presentation-old","124","537667","0.0-29.0-1.3","SS1618435656115","trial","","40","500","1801","images/stimuli/spore_stims/complex_05_A_b.gif","images/stimuli/spore_stims/complex_12_A_a.gif","forced_short","","10","complex_dissimilar","images/stimuli/spore_stims/complex_12_A_a.gif","","","","",""
"","null","html-keyboard-response","125","538686","0.0-29.0-0.4","SS1618435656115","","","null","","","","","","<p><img src= images/blank.png width =""600"" height = ""600"" style=""position:fixed;top:50%; left:50%; transform: translate(-50%, -50%); border:5px solid black"">","","","","","","","",""
"","3170","sequential-stimulus-presentation-old","126","542373","0.0-29.0-1.4","SS1618435656115","trial","","40","500","3670","images/stimuli/spore_stims/complex_05_A_b.gif","images/stimuli/spore_stims/complex_12_A_a.gif","forced_short","","10","complex_dissimilar","images/stimuli/spore_stims/complex_05_A_b.gif","","","","",""
"","null","html-keyboard-response","127","543225","0.0-29.0-0.5","SS1618435656115","","","null","","","","","","<p><img src= images/blank.png width =""600"" height = ""600"" style=""position:fixed;top:50%; left:50%; transform: translate(-50%, -50%); border:5px solid black"">","","","","","","","",""
"","1424","sequential-stimulus-presentation-old","128","545170","0.0-29.0-1.5","SS1618435656115","trial","","40","500","1924","images/stimuli/spore_stims/complex_05_A_b.gif","images/stimuli/spore_stims/complex_12_A_a.gif","forced_short","","10","complex_dissimilar","images/stimuli/spore_stims/complex_05_A_b.gif","","","","",""
"","4387","survey-multi-choice","129","549562","0.0-30.0","SS1618435656115","math_question","","","","","","","","","","","","{""Q0"":""11""}","[0]","11","",""
"","null","html-keyboard-response","130","550815","0.0-31.0-0.0","SS1618435656115","","","null","","","","","","<p><img src= images/blank.png width =""600"" height = ""600"" style=""position:fixed;top:50%; left:50%; transform: translate(-50%, -50%); border:5px solid black"">","","","","","","","",""
"","972","sequential-stimulus-presentation-old","131","551846","0.0-31.0-1.0","SS1618435656115","trial","","40","500","1472","images/stimuli/spore_stims/simple_06_A_a.gif","images/stimuli/spore_stims/simple_17_A_b.gif","forced_short","","11","simple_dissimilar","images/stimuli/spore_stims/simple_17_A_b.gif","","","","",""
"","null","html-keyboard-response","132","552936","0.0-31.0-0.1","SS1618435656115","","","null","","","","","","<p><img src= images/blank.png width =""600"" height = ""600"" style=""position:fixed;top:50%; left:50%; transform: translate(-50%, -50%); border:5px solid black"">","","","","","","","",""
"","4622","sequential-stimulus-presentation-old","133","558077","0.0-31.0-1.1","SS1618435656115","trial","","40","500","5122","images/stimuli/spore_stims/simple_06_A_a.gif","images/stimuli/spore_stims/simple_17_A_b.gif","forced_short","","11","simple_dissimilar","images/stimuli/spore_stims/simple_17_A_b.gif","","","","",""
"","null","html-keyboard-response","134","558954","0.0-31.0-0.2","SS1618435656115","","","null","","","","","","<p><img src= images/blank.png width =""600"" height = ""600"" style=""position:fixed;top:50%; left:50%; transform: translate(-50%, -50%); border:5px solid black"">","","","","","","","",""
"","238","sequential-stimulus-presentation-old","135","559712","0.0-31.0-1.2","SS1618435656115","trial","","40","500","738","images/stimuli/spore_stims/simple_06_A_a.gif","images/stimuli/spore_stims/simple_17_A_b.gif","forced_short","","11","simple_dissimilar","images/stimuli/spore_stims/simple_17_A_b.gif","","","","",""
"","null","html-keyboard-response","136","560775","0.0-31.0-0.3","SS1618435656115","","","null","","","","","","<p><img src= images/blank.png width =""600"" height = ""600"" style=""position:fixed;top:50%; left:50%; transform: translate(-50%, -50%); border:5px solid black"">","","","","","","","",""
"","172","sequential-stimulus-presentation-old","137","561466","0.0-31.0-1.3","SS1618435656115","trial","","40","500","672","images/stimuli/spore_stims/simple_06_A_a.gif","images/stimuli/spore_stims/simple_17_A_b.gif","forced_short","","11","simple_dissimilar","images/stimuli/spore_stims/simple_17_A_b.gif","","","","",""
"","null","html-keyboard-response","138","562726","0.0-31.0-0.4","SS1618435656115","","","null","","","","","","<p><img src= images/blank.png width =""600"" height = ""600"" style=""position:fixed;top:50%; left:50%; transform: translate(-50%, -50%); border:5px solid black"">","","","","","","","",""
"","23","sequential-stimulus-presentation-old","139","563268","0.0-31.0-1.4","SS1618435656115","trial","","40","500","523","images/stimuli/spore_stims/simple_06_A_a.gif","images/stimuli/spore_stims/simple_17_A_b.gif","forced_short","","11","simple_dissimilar","images/stimuli/spore_stims/simple_17_A_b.gif","","","","",""
"","null","html-keyboard-response","140","564166","0.0-31.0-0.5","SS1618435656115","","","null","","","","","","<p><img src= images/blank.png width =""600"" height = ""600"" style=""position:fixed;top:50%; left:50%; transform: translate(-50%, -50%); border:5px solid black"">","","","","","","","",""
"","28","sequential-stimulus-presentation-old","141","564712","0.0-31.0-1.5","SS1618435656115","trial","","40","500","528","images/stimuli/spore_stims/simple_06_A_a.gif","images/stimuli/spore_stims/simple_17_A_b.gif","forced_short","","11","simple_dissimilar","images/stimuli/spore_stims/simple_17_A_b.gif","","","","",""
"[{""page_index"":0,""viewing_time"":7423}]","7423","instructions","142","572138","0.0-32.0","SS1618435656115","instructions","","","","","","","","","","","","","","","",""
"","6617","survey-likert","143","578763","0.0-33.0","SS1618435656115","similarity_question","","","","","","","","","","","","{""Q0"":1}","[0]","","images/stimuli/spore_stims/complex_17_A_b.gif","images/stimuli/spore_stims/complex_10_A_a.gif"
"","5143","survey-likert","144","583910","0.0-34.0","SS1618435656115","similarity_question","","","","","","","","","","","","{""Q0"":1}","[0]","","images/stimuli/spore_stims/complex_05_A_b.gif","images/stimuli/spore_stims/complex_12_A_a.gif"
"","5187","survey-likert","145","589103","0.0-35.0","SS1618435656115","similarity_question","","","","","","","","","","","","{""Q0"":4}","[0]","","images/stimuli/spore_stims/simple_17_A_a.gif","images/stimuli/spore_stims/simple_18_A_b.gif"
"","4862","survey-likert","146","593968","0.0-36.0","SS1618435656115","similarity_question","","","","","","","","","","","","{""Q0"":2}","[0]","","images/stimuli/spore_stims/complex_07_A_b.gif","images/stimuli/spore_stims/complex_11_A_a.gif"
"","5062","survey-likert","147","599033","0.0-37.0","SS1618435656115","similarity_question","","","","","","","","","","","","{""Q0"":5}","[0]","","images/stimuli/spore_stims/simple_13_A_b.gif","images/stimuli/spore_stims/simple_02_A_a.gif"
"","5629","survey-likert","148","604674","0.0-38.0","SS1618435656115","similarity_question","","","","","","","","","","","","{""Q0"":3}","[0]","","images/stimuli/spore_stims/simple_05_A_b.gif","images/stimuli/spore_stims/simple_16_A_a.gif"
"","3381","survey-likert","149","608058","0.0-39.0","SS1618435656115","similarity_question","","","","","","","","","","","","{""Q0"":4}","[0]","","images/stimuli/spore_stims/simple_10_A_a.gif","images/stimuli/spore_stims/simple_14_A_b.gif"
"","4731","survey-likert","150","612793","0.0-40.0","SS1618435656115","similarity_question","","","","","","","","","","","","{""Q0"":6}","[0]","","images/stimuli/spore_stims/simple_14_A_a.gif","images/stimuli/spore_stims/simple_15_A_b.gif"
"","4155","survey-likert","151","616950","0.0-41.0","SS1618435656115","similarity_question","","","","","","","","","","","","{""Q0"":5}","[0]","","images/stimuli/spore_stims/simple_17_A_b.gif","images/stimuli/spore_stims/simple_06_A_a.gif"
"","5119","survey-likert","152","622073","0.0-42.0","SS1618435656115","similarity_question","","","","","","","","","","","","{""Q0"":1}","[0]","","images/stimuli/spore_stims/complex_06_A_a.gif","images/stimuli/spore_stims/complex_02_A_b.gif"
"","3686","survey-likert","153","625771","0.0-43.0","SS1618435656115","similarity_question","","","","","","","","","","","","{""Q0"":1}","[0]","","images/stimuli/spore_stims/complex_20_A_b.gif","images/stimuli/spore_stims/complex_04_A_a.gif"
"","4082","survey-likert","154","629860","0.0-44.0","SS1618435656115","similarity_question","","","","","","","","","","","","{""Q0"":2}","[0]","","images/stimuli/spore_stims/complex_11_A_b.gif","images/stimuli/spore_stims/complex_05_A_a.gif"
"[{""page_index"":0,""viewing_time"":5496}]","5496","instructions","155","635360","0.0-45.0","SS1618435656115","instructions","","","","","","","","","","","","","","","",""
"","4612","survey-likert","156","639977","0.0-46.0","SS1618435656115","","","","","","","","","images/stimuli/spore_stims/complex_06_A_a.gif","","","","{""Q0"":5}","[0]","","",""
"","3211","survey-likert","157","643192","0.0-47.0","SS1618435656115","","","","","","","","","images/stimuli/spore_stims/complex_10_A_a.gif","","","","{""Q0"":4}","[0]","","",""
"","5713","survey-likert","158","648909","0.0-48.0","SS1618435656115","","","","","","","","","images/stimuli/spore_stims/simple_13_A_b.gif","","","","{""Q0"":1}","[0]","","",""
"","6335","survey-likert","159","655252","0.0-49.0","SS1618435656115","","","","","","","","","images/stimuli/spore_stims/complex_07_A_b.gif","","","","{""Q0"":4}","[0]","","",""
"","5496","survey-likert","160","660753","0.0-50.0","SS1618435656115","","","","","","","","","images/stimuli/spore_stims/complex_04_A_a.gif","","","","{""Q0"":5}","[0]","","",""
"","3377","survey-likert","161","664134","0.0-51.0","SS1618435656115","","","","","","","","","images/stimuli/spore_stims/simple_17_A_b.gif","","","","{""Q0"":1}","[0]","","",""
"","4440","survey-likert","162","668582","0.0-52.0","SS1618435656115","","","","","","","","","images/stimuli/spore_stims/simple_18_A_b.gif","","","","{""Q0"":2}","[0]","","",""
"","5626","survey-likert","163","674212","0.0-53.0","SS1618435656115","","","","","","","","","images/stimuli/spore_stims/simple_14_A_b.gif","","","","{""Q0"":1}","[0]","","",""
"","6065","survey-likert","164","680281","0.0-54.0","SS1618435656115","","","","","","","","","images/stimuli/spore_stims/simple_15_A_b.gif","","","","{""Q0"":1}","[0]","","",""
"","3267","survey-likert","165","683552","0.0-55.0","SS1618435656115","","","","","","","","","images/stimuli/spore_stims/simple_16_A_a.gif","","","","{""Q0"":2}","[0]","","",""
"","5069","survey-likert","166","688630","0.0-56.0","SS1618435656115","","","","","","","","","images/stimuli/spore_stims/complex_11_A_b.gif","","","","{""Q0"":4}","[0]","","",""
"","18409","survey-likert","167","707042","0.0-57.0","SS1618435656115","","","","","","","","","images/stimuli/spore_stims/complex_05_A_b.gif","","","","{""Q0"":4}","[0]","","",""
"[{""page_index"":0,""viewing_time"":3114}]","3114","instructions","168","710160","0.0-58.0","SS1618435656115","instructions","","","","","","","","","","","","","","","",""
"","5067","demog-age","169","715234","0.0-59.0","SS1618435656115","","","","","","","","","","","","","{""age"":""42""}","","","",""
"","8134","demog-ethnic-US","170","723373","0.0-60.0","SS1618435656115","","","","","","","","","","","","","{""ethnicity"":[""White""]}","[0]","","",""
"","7091","demog-gender-and-education","171","730468","0.0-61.0","SS1618435656115","","","","","","","","","","","","","{""gender"":""Male"",""education"":""Bachelor's Degree""}","[0,1]","","",""
"","19751","survey-text","172","750223","0.0-62.0","SS1618435656115","feedback","","","","","","","","","","","","{""Q0"":""No issues""}","","","",""
"[{""page_index"":0,""viewing_time"":2065}]","2065","instructions","173","752291","0.0-63.0","SS1618435656115","instructions","","","","","","","","","","","","","","","",""
