"view_history","rt","trial_type","trial_index","time_elapsed","internal_node_id","subject","stimulus_type","trial_stimulus","key_press","minimum_viewing_duration","trial_looking_time","block_deviant","block_background","exposure_type","stimulus","block_number","block_type","stimulus_displayed","responses","question_order","math_correct_answer","stimulus_left","stimulus_right"
"[{""page_index"":0,""viewing_time"":24223.570000001928}]","24224.62500000256","instructions","0","24227","0.0-0.0","SS1618435644758","","","","","","","","","","","","","","","","",""
"[{""page_index"":0,""viewing_time"":47211.349999997765},{""page_index"":1,""viewing_time"":5477.97000000719}]","52689.67500000144","instructions","1","79749","0.0-1.0","SS1618435644758","instructions","","","","","","","","","","","","","","","",""
"","6041.49000000325","sequential-stimulus-presentation-old","2","86295","0.0-2.0","SS1618435644758","","","40","500","6541.49000000325","null","null","self_paced","","","","","","","","",""
"","36866.84000000241","sequential-stimulus-presentation-old","3","123668","0.0-3.0","SS1618435644758","","","40","500","37366.84000000241","null","null","self_paced","","","","","","","","",""
"[{""page_index"":0,""viewing_time"":20796.904999995604}]","20797.294999996666","instructions","4","144466","0.0-4.0","SS1618435644758","instructions","","","","","","","","","","","","","","","",""
"","476.69500001939014","sequential-stimulus-presentation-old","5","149945","0.0-5.0","SS1618435644758","","","40","500","976.6950000193901","null","null","forced_long","","","","","","","","",""
"","7440.694999997504","sequential-stimulus-presentation-old","6","157439","0.0-6.0","SS1618435644758","","","40","50","7490.694999997504","null","null","forced_long","","","","","","","","",""
"[{""page_index"":0,""viewing_time"":2990.335000009509}]","2990.844999992987","instructions","7","160431","0.0-7.0","SS1618435644758","instructions","","","","","","","","","","","","","","","",""
"[{""page_index"":0,""viewing_time"":7988.455000013346},{""page_index"":1,""viewing_time"":8794.954999990296},{""page_index"":2,""viewing_time"":4472.399999998743},{""page_index"":3,""viewing_time"":1294.9099999968894},{""page_index"":4,""viewing_time"":1107.7300000179093}]","23658.889999991516","instructions","8","184092","0.0-8.0","SS1618435644758","instructions","","","","","","","","","","","","","","","",""
"","null","html-keyboard-response","9","185141","0.0-9.0-0.0","SS1618435644758","","","null","","","","","","<p><img src= images/blank.png width =""600"" height = ""600"" style=""position:fixed;top:50%; left:50%; transform: translate(-50%, -50%); border:5px solid black"">","","","","","","","",""
"","821.4550000266172","sequential-stimulus-presentation-old","10","190970","0.0-9.0-1.0","SS1618435644758","trial","","40","500","1321.4550000266172","images/stimuli/spore_stims/simple_07_A_b.gif","images/stimuli/spore_stims/simple_08_A_a.gif","forced_long","","0","simple_dissimilar","images/stimuli/spore_stims/simple_08_A_a.gif","","","","",""
"","null","html-keyboard-response","11","191907","0.0-9.0-0.1","SS1618435644758","","","null","","","","","","<p><img src= images/blank.png width =""600"" height = ""600"" style=""position:fixed;top:50%; left:50%; transform: translate(-50%, -50%); border:5px solid black"">","","","","","","","",""
"","17265.849999996135","sequential-stimulus-presentation-old","12","209677","0.0-9.0-1.1","SS1618435644758","trial","","40","500","17765.849999996135","images/stimuli/spore_stims/simple_07_A_b.gif","images/stimuli/spore_stims/simple_08_A_a.gif","forced_long","","0","simple_dissimilar","images/stimuli/spore_stims/simple_08_A_a.gif","","","","",""
"","null","html-keyboard-response","13","210540","0.0-9.0-0.2","SS1618435644758","","","null","","","","","","<p><img src= images/blank.png width =""600"" height = ""600"" style=""position:fixed;top:50%; left:50%; transform: translate(-50%, -50%); border:5px solid black"">","","","","","","","",""
"","6391.4999999979045","sequential-stimulus-presentation-old","14","217444","0.0-9.0-1.2","SS1618435644758","trial","","40","500","6891.4999999979045","images/stimuli/spore_stims/simple_07_A_b.gif","images/stimuli/spore_stims/simple_08_A_a.gif","forced_long","","0","simple_dissimilar","images/stimuli/spore_stims/simple_08_A_a.gif","","","","",""
"","null","html-keyboard-response","15","218428","0.0-9.0-0.3","SS1618435644758","","","null","","","","","","<p><img src= images/blank.png width =""600"" height = ""600"" style=""position:fixed;top:50%; left:50%; transform: translate(-50%, -50%); border:5px solid black"">","","","","","","","",""
"","7554.680000001099","sequential-stimulus-presentation-old","16","226486","0.0-9.0-1.3","SS1618435644758","trial","","40","500","8054.680000001099","images/stimuli/spore_stims/simple_07_A_b.gif","images/stimuli/spore_stims/simple_08_A_a.gif","forced_long","","0","simple_dissimilar","images/stimuli/spore_stims/simple_08_A_a.gif","","","","",""
"","null","html-keyboard-response","17","227498","0.0-9.0-0.4","SS1618435644758","","","null","","","","","","<p><img src= images/blank.png width =""600"" height = ""600"" style=""position:fixed;top:50%; left:50%; transform: translate(-50%, -50%); border:5px solid black"">","","","","","","","",""
"","6138.1600000022445","sequential-stimulus-presentation-old","18","234141","0.0-9.0-1.4","SS1618435644758","trial","","40","500","6638.1600000022445","images/stimuli/spore_stims/simple_07_A_b.gif","images/stimuli/spore_stims/simple_08_A_a.gif","forced_long","","0","simple_dissimilar","images/stimuli/spore_stims/simple_08_A_a.gif","","","","",""
"","null","html-keyboard-response","19","235349","0.0-9.0-0.5","SS1618435644758","","","null","","","","","","<p><img src= images/blank.png width =""600"" height = ""600"" style=""position:fixed;top:50%; left:50%; transform: translate(-50%, -50%); border:5px solid black"">","","","","","","","",""
"","5696.649999998044","sequential-stimulus-presentation-old","20","241549","0.0-9.0-1.5","SS1618435644758","trial","","40","500","6196.649999998044","images/stimuli/spore_stims/simple_07_A_b.gif","images/stimuli/spore_stims/simple_08_A_a.gif","forced_long","","0","simple_dissimilar","images/stimuli/spore_stims/simple_07_A_b.gif","","","","",""
"","7233.030000003055","survey-multi-choice","21","248785","0.0-10.0","SS1618435644758","math_question","","","","","","","","","","","","{""Q0"":""14""}","[0]","14","",""
"","null","html-keyboard-response","22","250069","0.0-11.0-0.0","SS1618435644758","","","null","","","","","","<p><img src= images/blank.png width =""600"" height = ""600"" style=""position:fixed;top:50%; left:50%; transform: translate(-50%, -50%); border:5px solid black"">","","","","","","","",""
"","2443.2249999954365","sequential-stimulus-presentation-old","23","252568","0.0-11.0-1.0","SS1618435644758","trial","","40","500","2943.2249999954365","images/stimuli/spore_stims/complex_09_A_b.gif","images/stimuli/spore_stims/complex_15_A_a.gif","forced_short","","1","complex_dissimilar","images/stimuli/spore_stims/complex_15_A_a.gif","","","","",""
"","null","html-keyboard-response","24","253693","0.0-11.0-0.1","SS1618435644758","","","null","","","","","","<p><img src= images/blank.png width =""600"" height = ""600"" style=""position:fixed;top:50%; left:50%; transform: translate(-50%, -50%); border:5px solid black"">","","","","","","","",""
"","5644.579999992857","sequential-stimulus-presentation-old","25","259845","0.0-11.0-1.1","SS1618435644758","trial","","40","500","6144.579999992857","images/stimuli/spore_stims/complex_09_A_b.gif","images/stimuli/spore_stims/complex_15_A_a.gif","forced_short","","1","complex_dissimilar","images/stimuli/spore_stims/complex_15_A_a.gif","","","","",""
"","null","html-keyboard-response","26","260653","0.0-11.0-0.2","SS1618435644758","","","null","","","","","","<p><img src= images/blank.png width =""600"" height = ""600"" style=""position:fixed;top:50%; left:50%; transform: translate(-50%, -50%); border:5px solid black"">","","","","","","","",""
"","4713.179999991553","sequential-stimulus-presentation-old","27","265876","0.0-11.0-1.2","SS1618435644758","trial","","40","500","5213.179999991553","images/stimuli/spore_stims/complex_09_A_b.gif","images/stimuli/spore_stims/complex_15_A_a.gif","forced_short","","1","complex_dissimilar","images/stimuli/spore_stims/complex_15_A_a.gif","","","","",""
"","null","html-keyboard-response","28","266703","0.0-11.0-0.3","SS1618435644758","","","null","","","","","","<p><img src= images/blank.png width =""600"" height = ""600"" style=""position:fixed;top:50%; left:50%; transform: translate(-50%, -50%); border:5px solid black"">","","","","","","","",""
"","4624.559999996563","sequential-stimulus-presentation-old","29","271839","0.0-11.0-1.3","SS1618435644758","trial","","40","500","5124.559999996563","images/stimuli/spore_stims/complex_09_A_b.gif","images/stimuli/spore_stims/complex_15_A_a.gif","forced_short","","1","complex_dissimilar","images/stimuli/spore_stims/complex_15_A_a.gif","","","","",""
"","3335.7400000095367","survey-multi-choice","30","275177","0.0-12.0","SS1618435644758","math_question","","","","","","","","","","","","{""Q0"":""12""}","[0]","12","",""
"","null","html-keyboard-response","31","276239","0.0-13.0-0.0","SS1618435644758","","","null","","","","","","<p><img src= images/blank.png width =""600"" height = ""600"" style=""position:fixed;top:50%; left:50%; transform: translate(-50%, -50%); border:5px solid black"">","","","","","","","",""
"","5556.725000002189","sequential-stimulus-presentation-old","32","282309","0.0-13.0-1.0","SS1618435644758","trial","","40","500","6056.725000002189","images/stimuli/spore_stims/complex_14_A_b.gif","images/stimuli/spore_stims/complex_03_A_a.gif","self_paced","","2","complex_dissimilar","images/stimuli/spore_stims/complex_03_A_a.gif","","","","",""
"","null","html-keyboard-response","33","283234","0.0-13.0-0.1","SS1618435644758","","","null","","","","","","<p><img src= images/blank.png width =""600"" height = ""600"" style=""position:fixed;top:50%; left:50%; transform: translate(-50%, -50%); border:5px solid black"">","","","","","","","",""
"","4237.314999976661","sequential-stimulus-presentation-old","34","287979","0.0-13.0-1.1","SS1618435644758","trial","","40","500","4737.314999976661","images/stimuli/spore_stims/complex_14_A_b.gif","images/stimuli/spore_stims/complex_03_A_a.gif","self_paced","","2","complex_dissimilar","images/stimuli/spore_stims/complex_03_A_a.gif","","","","",""
"","null","html-keyboard-response","35","288785","0.0-13.0-0.2","SS1618435644758","","","null","","","","","","<p><img src= images/blank.png width =""600"" height = ""600"" style=""position:fixed;top:50%; left:50%; transform: translate(-50%, -50%); border:5px solid black"">","","","","","","","",""
"","3646.9949999882374","sequential-stimulus-presentation-old","36","292936","0.0-13.0-1.2","SS1618435644758","trial","","40","500","4146.994999988237","images/stimuli/spore_stims/complex_14_A_b.gif","images/stimuli/spore_stims/complex_03_A_a.gif","self_paced","","2","complex_dissimilar","images/stimuli/spore_stims/complex_03_A_a.gif","","","","",""
"","null","html-keyboard-response","37","293760","0.0-13.0-0.3","SS1618435644758","","","null","","","","","","<p><img src= images/blank.png width =""600"" height = ""600"" style=""position:fixed;top:50%; left:50%; transform: translate(-50%, -50%); border:5px solid black"">","","","","","","","",""
"","4033.274999994319","sequential-stimulus-presentation-old","38","298307","0.0-13.0-1.3","SS1618435644758","trial","","40","500","4533.274999994319","images/stimuli/spore_stims/complex_14_A_b.gif","images/stimuli/spore_stims/complex_03_A_a.gif","self_paced","","2","complex_dissimilar","images/stimuli/spore_stims/complex_03_A_a.gif","","","","",""
"","3339.3149999901652","survey-multi-choice","39","301650","0.0-14.0","SS1618435644758","math_question","","","","","","","","","","","","{""Q0"":""12""}","[0]","12","",""
"","null","html-keyboard-response","40","302853","0.0-15.0-0.0","SS1618435644758","","","null","","","","","","<p><img src= images/blank.png width =""600"" height = ""600"" style=""position:fixed;top:50%; left:50%; transform: translate(-50%, -50%); border:5px solid black"">","","","","","","","",""
"","3886.094999994384","sequential-stimulus-presentation-old","41","307246","0.0-15.0-1.0","SS1618435644758","trial","","40","500","4386.094999994384","images/stimuli/spore_stims/simple_03_A_a.gif","images/stimuli/spore_stims/simple_13_A_b.gif","self_paced","","3","simple_dissimilar","images/stimuli/spore_stims/simple_13_A_b.gif","","","","",""
"","null","html-keyboard-response","42","308368","0.0-15.0-0.1","SS1618435644758","","","null","","","","","","<p><img src= images/blank.png width =""600"" height = ""600"" style=""position:fixed;top:50%; left:50%; transform: translate(-50%, -50%); border:5px solid black"">","","","","","","","",""
"","3730.184999993071","sequential-stimulus-presentation-old","43","312603","0.0-15.0-1.1","SS1618435644758","trial","","40","500","4230.184999993071","images/stimuli/spore_stims/simple_03_A_a.gif","images/stimuli/spore_stims/simple_13_A_b.gif","self_paced","","3","simple_dissimilar","images/stimuli/spore_stims/simple_13_A_b.gif","","","","",""
"","null","html-keyboard-response","44","313407","0.0-15.0-0.2","SS1618435644758","","","null","","","","","","<p><img src= images/blank.png width =""600"" height = ""600"" style=""position:fixed;top:50%; left:50%; transform: translate(-50%, -50%); border:5px solid black"">","","","","","","","",""
"","4832.039999979315","sequential-stimulus-presentation-old","45","318749","0.0-15.0-1.2","SS1618435644758","trial","","40","500","5332.039999979315","images/stimuli/spore_stims/simple_03_A_a.gif","images/stimuli/spore_stims/simple_13_A_b.gif","self_paced","","3","simple_dissimilar","images/stimuli/spore_stims/simple_13_A_b.gif","","","","",""
"","null","html-keyboard-response","46","320036","0.0-15.0-0.3","SS1618435644758","","","null","","","","","","<p><img src= images/blank.png width =""600"" height = ""600"" style=""position:fixed;top:50%; left:50%; transform: translate(-50%, -50%); border:5px solid black"">","","","","","","","",""
"","4261.869999987539","sequential-stimulus-presentation-old","47","324802","0.0-15.0-1.3","SS1618435644758","trial","","40","500","4761.869999987539","images/stimuli/spore_stims/simple_03_A_a.gif","images/stimuli/spore_stims/simple_13_A_b.gif","self_paced","","3","simple_dissimilar","images/stimuli/spore_stims/simple_13_A_b.gif","","","","",""
"","null","html-keyboard-response","48","326075","0.0-15.0-0.4","SS1618435644758","","","null","","","","","","<p><img src= images/blank.png width =""600"" height = ""600"" style=""position:fixed;top:50%; left:50%; transform: translate(-50%, -50%); border:5px solid black"">","","","","","","","",""
"","3564.879999990808","sequential-stimulus-presentation-old","49","330152","0.0-15.0-1.4","SS1618435644758","trial","","40","500","4064.879999990808","images/stimuli/spore_stims/simple_03_A_a.gif","images/stimuli/spore_stims/simple_13_A_b.gif","self_paced","","3","simple_dissimilar","images/stimuli/spore_stims/simple_13_A_b.gif","","","","",""
"","null","html-keyboard-response","50","331288","0.0-15.0-0.5","SS1618435644758","","","null","","","","","","<p><img src= images/blank.png width =""600"" height = ""600"" style=""position:fixed;top:50%; left:50%; transform: translate(-50%, -50%); border:5px solid black"">","","","","","","","",""
"","5682.440000004135","sequential-stimulus-presentation-old","51","337482","0.0-15.0-1.5","SS1618435644758","trial","","40","500","6182.440000004135","images/stimuli/spore_stims/simple_03_A_a.gif","images/stimuli/spore_stims/simple_13_A_b.gif","self_paced","","3","simple_dissimilar","images/stimuli/spore_stims/simple_13_A_b.gif","","","","",""
"","4607.075000007171","survey-multi-choice","52","342091","0.0-16.0","SS1618435644758","math_question","","","","","","","","","","","","{""Q0"":""12""}","[0]","12","",""
"","null","html-keyboard-response","53","343217","0.0-17.0-0.0","SS1618435644758","","","null","","","","","","<p><img src= images/blank.png width =""600"" height = ""600"" style=""position:fixed;top:50%; left:50%; transform: translate(-50%, -50%); border:5px solid black"">","","","","","","","",""
"","1369.5350000052713","sequential-stimulus-presentation-old","54","344641","0.0-17.0-1.0","SS1618435644758","trial","","40","500","1869.5350000052713","images/stimuli/spore_stims/complex_12_A_a.gif","images/stimuli/spore_stims/complex_19_A_b.gif","forced_short","","4","complex_dissimilar","images/stimuli/spore_stims/complex_19_A_b.gif","","","","",""
"","null","html-keyboard-response","55","345837","0.0-17.0-0.1","SS1618435644758","","","null","","","","","","<p><img src= images/blank.png width =""600"" height = ""600"" style=""position:fixed;top:50%; left:50%; transform: translate(-50%, -50%); border:5px solid black"">","","","","","","","",""
"","3836.7699999944307","sequential-stimulus-presentation-old","56","350178","0.0-17.0-1.1","SS1618435644758","trial","","40","500","4336.769999994431","images/stimuli/spore_stims/complex_12_A_a.gif","images/stimuli/spore_stims/complex_19_A_b.gif","forced_short","","4","complex_dissimilar","images/stimuli/spore_stims/complex_19_A_b.gif","","","","",""
"","null","html-keyboard-response","57","350987","0.0-17.0-0.2","SS1618435644758","","","null","","","","","","<p><img src= images/blank.png width =""600"" height = ""600"" style=""position:fixed;top:50%; left:50%; transform: translate(-50%, -50%); border:5px solid black"">","","","","","","","",""
"","3826.3499999884516","sequential-stimulus-presentation-old","58","355324","0.0-17.0-1.2","SS1618435644758","trial","","40","500","4326.349999988452","images/stimuli/spore_stims/complex_12_A_a.gif","images/stimuli/spore_stims/complex_19_A_b.gif","forced_short","","4","complex_dissimilar","images/stimuli/spore_stims/complex_12_A_a.gif","","","","",""
"","null","html-keyboard-response","59","356280","0.0-17.0-0.3","SS1618435644758","","","null","","","","","","<p><img src= images/blank.png width =""600"" height = ""600"" style=""position:fixed;top:50%; left:50%; transform: translate(-50%, -50%); border:5px solid black"">","","","","","","","",""
"","4692.575000022771","sequential-stimulus-presentation-old","60","361479","0.0-17.0-1.3","SS1618435644758","trial","","40","500","5192.575000022771","images/stimuli/spore_stims/complex_12_A_a.gif","images/stimuli/spore_stims/complex_19_A_b.gif","forced_short","","4","complex_dissimilar","images/stimuli/spore_stims/complex_19_A_b.gif","","","","",""
"","null","html-keyboard-response","61","362712","0.0-17.0-0.4","SS1618435644758","","","null","","","","","","<p><img src= images/blank.png width =""600"" height = ""600"" style=""position:fixed;top:50%; left:50%; transform: translate(-50%, -50%); border:5px solid black"">","","","","","","","",""
"","2711.4950000250246","sequential-stimulus-presentation-old","62","365935","0.0-17.0-1.4","SS1618435644758","trial","","40","500","3211.4950000250246","images/stimuli/spore_stims/complex_12_A_a.gif","images/stimuli/spore_stims/complex_19_A_b.gif","forced_short","","4","complex_dissimilar","images/stimuli/spore_stims/complex_12_A_a.gif","","","","",""
"","2720.9250000014435","survey-multi-choice","63","368665","0.0-18.0","SS1618435644758","math_question","","","","","","","","","","","","{""Q0"":""6""}","[0]","6","",""
"","null","html-keyboard-response","64","369767","0.0-19.0-0.0","SS1618435644758","","","null","","","","","","<p><img src= images/blank.png width =""600"" height = ""600"" style=""position:fixed;top:50%; left:50%; transform: translate(-50%, -50%); border:5px solid black"">","","","","","","","",""
"","4669.43499998888","sequential-stimulus-presentation-old","65","379454","0.0-19.0-1.0","SS1618435644758","trial","","40","500","5169.43499998888","images/stimuli/spore_stims/complex_18_A_a.gif","images/stimuli/spore_stims/complex_01_A_b.gif","forced_long","","5","complex_dissimilar","images/stimuli/spore_stims/complex_01_A_b.gif","","","","",""
"","null","html-keyboard-response","66","380571","0.0-19.0-0.1","SS1618435644758","","","null","","","","","","<p><img src= images/blank.png width =""600"" height = ""600"" style=""position:fixed;top:50%; left:50%; transform: translate(-50%, -50%); border:5px solid black"">","","","","","","","",""
"","3559.674999996787","sequential-stimulus-presentation-old","67","384646","0.0-19.0-1.1","SS1618435644758","trial","","40","500","4059.674999996787","images/stimuli/spore_stims/complex_18_A_a.gif","images/stimuli/spore_stims/complex_01_A_b.gif","forced_long","","5","complex_dissimilar","images/stimuli/spore_stims/complex_01_A_b.gif","","","","",""
"","null","html-keyboard-response","68","385593","0.0-19.0-0.2","SS1618435644758","","","null","","","","","","<p><img src= images/blank.png width =""600"" height = ""600"" style=""position:fixed;top:50%; left:50%; transform: translate(-50%, -50%); border:5px solid black"">","","","","","","","",""
"","3279.175000003306","sequential-stimulus-presentation-old","69","389394","0.0-19.0-1.2","SS1618435644758","trial","","40","500","3779.175000003306","images/stimuli/spore_stims/complex_18_A_a.gif","images/stimuli/spore_stims/complex_01_A_b.gif","forced_long","","5","complex_dissimilar","images/stimuli/spore_stims/complex_01_A_b.gif","","","","",""
"","null","html-keyboard-response","70","390688","0.0-19.0-0.3","SS1618435644758","","","null","","","","","","<p><img src= images/blank.png width =""600"" height = ""600"" style=""position:fixed;top:50%; left:50%; transform: translate(-50%, -50%); border:5px solid black"">","","","","","","","",""
"","3108.295000012731","sequential-stimulus-presentation-old","71","394300","0.0-19.0-1.3","SS1618435644758","trial","","40","500","3608.295000012731","images/stimuli/spore_stims/complex_18_A_a.gif","images/stimuli/spore_stims/complex_01_A_b.gif","forced_long","","5","complex_dissimilar","images/stimuli/spore_stims/complex_01_A_b.gif","","","","",""
"","null","html-keyboard-response","72","395575","0.0-19.0-0.4","SS1618435644758","","","null","","","","","","<p><img src= images/blank.png width =""600"" height = ""600"" style=""position:fixed;top:50%; left:50%; transform: translate(-50%, -50%); border:5px solid black"">","","","","","","","",""
"","3012.380000000121","sequential-stimulus-presentation-old","73","399099","0.0-19.0-1.4","SS1618435644758","trial","","40","500","3512.380000000121","images/stimuli/spore_stims/complex_18_A_a.gif","images/stimuli/spore_stims/complex_01_A_b.gif","forced_long","","5","complex_dissimilar","images/stimuli/spore_stims/complex_01_A_b.gif","","","","",""
"","null","html-keyboard-response","74","399924","0.0-19.0-0.5","SS1618435644758","","","null","","","","","","<p><img src= images/blank.png width =""600"" height = ""600"" style=""position:fixed;top:50%; left:50%; transform: translate(-50%, -50%); border:5px solid black"">","","","","","","","",""
"","2007.3900000134017","sequential-stimulus-presentation-old","75","402445","0.0-19.0-1.5","SS1618435644758","trial","","40","500","2507.3900000134017","images/stimuli/spore_stims/complex_18_A_a.gif","images/stimuli/spore_stims/complex_01_A_b.gif","forced_long","","5","complex_dissimilar","images/stimuli/spore_stims/complex_01_A_b.gif","","","","",""
"","3029.4449999928474","survey-multi-choice","76","405478","0.0-20.0","SS1618435644758","math_question","","","","","","","","","","","","{""Q0"":""7""}","[0]","7","",""
"","null","html-keyboard-response","77","406306","0.0-21.0-0.0","SS1618435644758","","","null","","","","","","<p><img src= images/blank.png width =""600"" height = ""600"" style=""position:fixed;top:50%; left:50%; transform: translate(-50%, -50%); border:5px solid black"">","","","","","","","",""
"","6409.619999991264","sequential-stimulus-presentation-old","78","413220","0.0-21.0-1.0","SS1618435644758","trial","","40","500","6909.619999991264","images/stimuli/spore_stims/complex_08_A_a.gif","images/stimuli/spore_stims/complex_17_A_b.gif","self_paced","","6","complex_dissimilar","images/stimuli/spore_stims/complex_17_A_b.gif","","","","",""
"","null","html-keyboard-response","79","414291","0.0-21.0-0.1","SS1618435644758","","","null","","","","","","<p><img src= images/blank.png width =""600"" height = ""600"" style=""position:fixed;top:50%; left:50%; transform: translate(-50%, -50%); border:5px solid black"">","","","","","","","",""
"","3705.7649999915157","sequential-stimulus-presentation-old","80","418515","0.0-21.0-1.1","SS1618435644758","trial","","40","500","4205.764999991516","images/stimuli/spore_stims/complex_08_A_a.gif","images/stimuli/spore_stims/complex_17_A_b.gif","self_paced","","6","complex_dissimilar","images/stimuli/spore_stims/complex_08_A_a.gif","","","","",""
"","null","html-keyboard-response","81","419712","0.0-21.0-0.2","SS1618435644758","","","null","","","","","","<p><img src= images/blank.png width =""600"" height = ""600"" style=""position:fixed;top:50%; left:50%; transform: translate(-50%, -50%); border:5px solid black"">","","","","","","","",""
"","3154.2049999989104","sequential-stimulus-presentation-old","82","423374","0.0-21.0-1.2","SS1618435644758","trial","","40","500","3654.2049999989104","images/stimuli/spore_stims/complex_08_A_a.gif","images/stimuli/spore_stims/complex_17_A_b.gif","self_paced","","6","complex_dissimilar","images/stimuli/spore_stims/complex_17_A_b.gif","","","","",""
"","null","html-keyboard-response","83","424403","0.0-21.0-0.3","SS1618435644758","","","null","","","","","","<p><img src= images/blank.png width =""600"" height = ""600"" style=""position:fixed;top:50%; left:50%; transform: translate(-50%, -50%); border:5px solid black"">","","","","","","","",""
"","3295.249999995576","sequential-stimulus-presentation-old","84","428208","0.0-21.0-1.3","SS1618435644758","trial","","40","500","3795.249999995576","images/stimuli/spore_stims/complex_08_A_a.gif","images/stimuli/spore_stims/complex_17_A_b.gif","self_paced","","6","complex_dissimilar","images/stimuli/spore_stims/complex_17_A_b.gif","","","","",""
"","null","html-keyboard-response","85","429179","0.0-21.0-0.4","SS1618435644758","","","null","","","","","","<p><img src= images/blank.png width =""600"" height = ""600"" style=""position:fixed;top:50%; left:50%; transform: translate(-50%, -50%); border:5px solid black"">","","","","","","","",""
"","3566.4549999928568","sequential-stimulus-presentation-old","86","433257","0.0-21.0-1.4","SS1618435644758","trial","","40","500","4066.4549999928568","images/stimuli/spore_stims/complex_08_A_a.gif","images/stimuli/spore_stims/complex_17_A_b.gif","self_paced","","6","complex_dissimilar","images/stimuli/spore_stims/complex_17_A_b.gif","","","","",""
"","null","html-keyboard-response","87","434106","0.0-21.0-0.5","SS1618435644758","","","null","","","","","","<p><img src= images/blank.png width =""600"" height = ""600"" style=""position:fixed;top:50%; left:50%; transform: translate(-50%, -50%); border:5px solid black"">","","","","","","","",""
"","4364.75999999675","sequential-stimulus-presentation-old","88","438982","0.0-21.0-1.5","SS1618435644758","trial","","40","500","4864.75999999675","images/stimuli/spore_stims/complex_08_A_a.gif","images/stimuli/spore_stims/complex_17_A_b.gif","self_paced","","6","complex_dissimilar","images/stimuli/spore_stims/complex_08_A_a.gif","","","","",""
"","2717.849999986356","survey-multi-choice","89","441705","0.0-22.0","SS1618435644758","math_question","","","","","","","","","","","","{""Q0"":""11""}","[0]","11","",""
"","null","html-keyboard-response","90","442614","0.0-23.0-0.0","SS1618435644758","","","null","","","","","","<p><img src= images/blank.png width =""600"" height = ""600"" style=""position:fixed;top:50%; left:50%; transform: translate(-50%, -50%); border:5px solid black"">","","","","","","","",""
"","1010.8949999848846","sequential-stimulus-presentation-old","91","443680","0.0-23.0-1.0","SS1618435644758","trial","","40","500","1510.8949999848846","images/stimuli/spore_stims/simple_16_A_b.gif","images/stimuli/spore_stims/simple_15_A_a.gif","forced_short","","7","simple_dissimilar","images/stimuli/spore_stims/simple_15_A_a.gif","","","","",""
"","null","html-keyboard-response","92","444543","0.0-23.0-0.1","SS1618435644758","","","null","","","","","","<p><img src= images/blank.png width =""600"" height = ""600"" style=""position:fixed;top:50%; left:50%; transform: translate(-50%, -50%); border:5px solid black"">","","","","","","","",""
"","3572.3549999820534","sequential-stimulus-presentation-old","93","448620","0.0-23.0-1.1","SS1618435644758","trial","","40","500","4072.3549999820534","images/stimuli/spore_stims/simple_16_A_b.gif","images/stimuli/spore_stims/simple_15_A_a.gif","forced_short","","7","simple_dissimilar","images/stimuli/spore_stims/simple_15_A_a.gif","","","","",""
"","null","html-keyboard-response","94","449570","0.0-23.0-0.2","SS1618435644758","","","null","","","","","","<p><img src= images/blank.png width =""600"" height = ""600"" style=""position:fixed;top:50%; left:50%; transform: translate(-50%, -50%); border:5px solid black"">","","","","","","","",""
"","4098.765000002459","sequential-stimulus-presentation-old","95","454174","0.0-23.0-1.2","SS1618435644758","trial","","40","500","4598.765000002459","images/stimuli/spore_stims/simple_16_A_b.gif","images/stimuli/spore_stims/simple_15_A_a.gif","forced_short","","7","simple_dissimilar","images/stimuli/spore_stims/simple_15_A_a.gif","","","","",""
"","null","html-keyboard-response","96","455032","0.0-23.0-0.3","SS1618435644758","","","null","","","","","","<p><img src= images/blank.png width =""600"" height = ""600"" style=""position:fixed;top:50%; left:50%; transform: translate(-50%, -50%); border:5px solid black"">","","","","","","","",""
"","1142.6349999965169","sequential-stimulus-presentation-old","97","456684","0.0-23.0-1.3","SS1618435644758","trial","","40","500","1642.6349999965169","images/stimuli/spore_stims/simple_16_A_b.gif","images/stimuli/spore_stims/simple_15_A_a.gif","forced_short","","7","simple_dissimilar","images/stimuli/spore_stims/simple_15_A_a.gif","","","","",""
"","2354.959999996936","survey-multi-choice","98","459043","0.0-24.0","SS1618435644758","math_question","","","","","","","","","","","","{""Q0"":""12""}","[0]","12","",""
"","null","html-keyboard-response","99","460122","0.0-25.0-0.0","SS1618435644758","","","null","","","","","","<p><img src= images/blank.png width =""600"" height = ""600"" style=""position:fixed;top:50%; left:50%; transform: translate(-50%, -50%); border:5px solid black"">","","","","","","","",""
"","820.6349999818485","sequential-stimulus-presentation-old","100","461007","0.0-25.0-1.0","SS1618435644758","trial","","40","500","1320.6349999818485","images/stimuli/spore_stims/simple_19_A_a.gif","images/stimuli/spore_stims/simple_18_A_b.gif","forced_short","","8","simple_dissimilar","images/stimuli/spore_stims/simple_18_A_b.gif","","","","",""
"","null","html-keyboard-response","101","461878","0.0-25.0-0.1","SS1618435644758","","","null","","","","","","<p><img src= images/blank.png width =""600"" height = ""600"" style=""position:fixed;top:50%; left:50%; transform: translate(-50%, -50%); border:5px solid black"">","","","","","","","",""
"","3202.309999993304","sequential-stimulus-presentation-old","102","465589","0.0-25.0-1.1","SS1618435644758","trial","","40","500","3702.309999993304","images/stimuli/spore_stims/simple_19_A_a.gif","images/stimuli/spore_stims/simple_18_A_b.gif","forced_short","","8","simple_dissimilar","images/stimuli/spore_stims/simple_18_A_b.gif","","","","",""
"","null","html-keyboard-response","103","466860","0.0-25.0-0.2","SS1618435644758","","","null","","","","","","<p><img src= images/blank.png width =""600"" height = ""600"" style=""position:fixed;top:50%; left:50%; transform: translate(-50%, -50%); border:5px solid black"">","","","","","","","",""
"","3015.0849999918137","sequential-stimulus-presentation-old","104","470387","0.0-25.0-1.2","SS1618435644758","trial","","40","500","3515.0849999918137","images/stimuli/spore_stims/simple_19_A_a.gif","images/stimuli/spore_stims/simple_18_A_b.gif","forced_short","","8","simple_dissimilar","images/stimuli/spore_stims/simple_19_A_a.gif","","","","",""
"","null","html-keyboard-response","105","471517","0.0-25.0-0.3","SS1618435644758","","","null","","","","","","<p><img src= images/blank.png width =""600"" height = ""600"" style=""position:fixed;top:50%; left:50%; transform: translate(-50%, -50%); border:5px solid black"">","","","","","","","",""
"","1934.450000000652","sequential-stimulus-presentation-old","106","473959","0.0-25.0-1.3","SS1618435644758","trial","","40","500","2434.450000000652","images/stimuli/spore_stims/simple_19_A_a.gif","images/stimuli/spore_stims/simple_18_A_b.gif","forced_short","","8","simple_dissimilar","images/stimuli/spore_stims/simple_18_A_b.gif","","","","",""
"","null","html-keyboard-response","107","475251","0.0-25.0-0.4","SS1618435644758","","","null","","","","","","<p><img src= images/blank.png width =""600"" height = ""600"" style=""position:fixed;top:50%; left:50%; transform: translate(-50%, -50%); border:5px solid black"">","","","","","","","",""
"","2208.440000016708","sequential-stimulus-presentation-old","108","477969","0.0-25.0-1.4","SS1618435644758","trial","","40","500","2708.440000016708","images/stimuli/spore_stims/simple_19_A_a.gif","images/stimuli/spore_stims/simple_18_A_b.gif","forced_short","","8","simple_dissimilar","images/stimuli/spore_stims/simple_19_A_a.gif","","","","",""
"","2507.645000005141","survey-multi-choice","109","480478","0.0-26.0","SS1618435644758","math_question","","","","","","","","","","","","{""Q0"":""14""}","[0]","14","",""
"","null","html-keyboard-response","110","481724","0.0-27.0-0.0","SS1618435644758","","","null","","","","","","<p><img src= images/blank.png width =""600"" height = ""600"" style=""position:fixed;top:50%; left:50%; transform: translate(-50%, -50%); border:5px solid black"">","","","","","","","",""
"","3479.5049999956973","sequential-stimulus-presentation-old","111","485710","0.0-27.0-1.0","SS1618435644758","trial","","40","500","3979.5049999956973","images/stimuli/spore_stims/simple_16_A_a.gif","images/stimuli/spore_stims/simple_01_A_b.gif","self_paced","","9","simple_dissimilar","images/stimuli/spore_stims/simple_01_A_b.gif","","","","",""
"","null","html-keyboard-response","112","486895","0.0-27.0-0.1","SS1618435644758","","","null","","","","","","<p><img src= images/blank.png width =""600"" height = ""600"" style=""position:fixed;top:50%; left:50%; transform: translate(-50%, -50%); border:5px solid black"">","","","","","","","",""
"","3277.1950000023935","sequential-stimulus-presentation-old","113","490677","0.0-27.0-1.1","SS1618435644758","trial","","40","500","3777.1950000023935","images/stimuli/spore_stims/simple_16_A_a.gif","images/stimuli/spore_stims/simple_01_A_b.gif","self_paced","","9","simple_dissimilar","images/stimuli/spore_stims/simple_01_A_b.gif","","","","",""
"","null","html-keyboard-response","114","491930","0.0-27.0-0.2","SS1618435644758","","","null","","","","","","<p><img src= images/blank.png width =""600"" height = ""600"" style=""position:fixed;top:50%; left:50%; transform: translate(-50%, -50%); border:5px solid black"">","","","","","","","",""
"","3691.2850000080653","sequential-stimulus-presentation-old","115","496125","0.0-27.0-1.2","SS1618435644758","trial","","40","500","4191.285000008065","images/stimuli/spore_stims/simple_16_A_a.gif","images/stimuli/spore_stims/simple_01_A_b.gif","self_paced","","9","simple_dissimilar","images/stimuli/spore_stims/simple_01_A_b.gif","","","","",""
"","null","html-keyboard-response","116","496998","0.0-27.0-0.3","SS1618435644758","","","null","","","","","","<p><img src= images/blank.png width =""600"" height = ""600"" style=""position:fixed;top:50%; left:50%; transform: translate(-50%, -50%); border:5px solid black"">","","","","","","","",""
"","3276.6199999896344","sequential-stimulus-presentation-old","117","500780","0.0-27.0-1.3","SS1618435644758","trial","","40","500","3776.6199999896344","images/stimuli/spore_stims/simple_16_A_a.gif","images/stimuli/spore_stims/simple_01_A_b.gif","self_paced","","9","simple_dissimilar","images/stimuli/spore_stims/simple_16_A_a.gif","","","","",""
"","null","html-keyboard-response","118","501589","0.0-27.0-0.4","SS1618435644758","","","null","","","","","","<p><img src= images/blank.png width =""600"" height = ""600"" style=""position:fixed;top:50%; left:50%; transform: translate(-50%, -50%); border:5px solid black"">","","","","","","","",""
"","4352.0299999800045","sequential-stimulus-presentation-old","119","506446","0.0-27.0-1.4","SS1618435644758","trial","","40","500","4852.0299999800045","images/stimuli/spore_stims/simple_16_A_a.gif","images/stimuli/spore_stims/simple_01_A_b.gif","self_paced","","9","simple_dissimilar","images/stimuli/spore_stims/simple_16_A_a.gif","","","","",""
"","51629.509999998845","survey-multi-choice","120","558084","0.0-28.0","SS1618435644758","math_question","","","","","","","","","","","","{""Q0"":""11""}","[0]","11","",""
"","null","html-keyboard-response","121","559198","0.0-29.0-0.0","SS1618435644758","","","null","","","","","","<p><img src= images/blank.png width =""600"" height = ""600"" style=""position:fixed;top:50%; left:50%; transform: translate(-50%, -50%); border:5px solid black"">","","","","","","","",""
"","4292.470000014873","sequential-stimulus-presentation-old","122","568496","0.0-29.0-1.0","SS1618435644758","trial","","40","500","4792.470000014873","images/stimuli/spore_stims/simple_05_A_b.gif","images/stimuli/spore_stims/simple_12_A_a.gif","forced_long","","10","simple_dissimilar","images/stimuli/spore_stims/simple_12_A_a.gif","","","","",""
"","null","html-keyboard-response","123","569681","0.0-29.0-0.1","SS1618435644758","","","null","","","","","","<p><img src= images/blank.png width =""600"" height = ""600"" style=""position:fixed;top:50%; left:50%; transform: translate(-50%, -50%); border:5px solid black"">","","","","","","","",""
"","2721.2650000001304","sequential-stimulus-presentation-old","124","572912","0.0-29.0-1.1","SS1618435644758","trial","","40","500","3221.2650000001304","images/stimuli/spore_stims/simple_05_A_b.gif","images/stimuli/spore_stims/simple_12_A_a.gif","forced_long","","10","simple_dissimilar","images/stimuli/spore_stims/simple_05_A_b.gif","","","","",""
"","null","html-keyboard-response","125","574043","0.0-29.0-0.2","SS1618435644758","","","null","","","","","","<p><img src= images/blank.png width =""600"" height = ""600"" style=""position:fixed;top:50%; left:50%; transform: translate(-50%, -50%); border:5px solid black"">","","","","","","","",""
"","1389.2549999873154","sequential-stimulus-presentation-old","126","575944","0.0-29.0-1.2","SS1618435644758","trial","","40","500","1889.2549999873154","images/stimuli/spore_stims/simple_05_A_b.gif","images/stimuli/spore_stims/simple_12_A_a.gif","forced_long","","10","simple_dissimilar","images/stimuli/spore_stims/simple_12_A_a.gif","","","","",""
"","null","html-keyboard-response","127","576905","0.0-29.0-0.3","SS1618435644758","","","null","","","","","","<p><img src= images/blank.png width =""600"" height = ""600"" style=""position:fixed;top:50%; left:50%; transform: translate(-50%, -50%); border:5px solid black"">","","","","","","","",""
"","1294.7449999919627","sequential-stimulus-presentation-old","128","578708","0.0-29.0-1.3","SS1618435644758","trial","","40","500","1794.7449999919627","images/stimuli/spore_stims/simple_05_A_b.gif","images/stimuli/spore_stims/simple_12_A_a.gif","forced_long","","10","simple_dissimilar","images/stimuli/spore_stims/simple_12_A_a.gif","","","","",""
"","null","html-keyboard-response","129","579883","0.0-29.0-0.4","SS1618435644758","","","null","","","","","","<p><img src= images/blank.png width =""600"" height = ""600"" style=""position:fixed;top:50%; left:50%; transform: translate(-50%, -50%); border:5px solid black"">","","","","","","","",""
"","1507.5350000115577","sequential-stimulus-presentation-old","130","581901","0.0-29.0-1.4","SS1618435644758","trial","","40","500","2007.5350000115577","images/stimuli/spore_stims/simple_05_A_b.gif","images/stimuli/spore_stims/simple_12_A_a.gif","forced_long","","10","simple_dissimilar","images/stimuli/spore_stims/simple_05_A_b.gif","","","","",""
"","2518.3300000207964","survey-multi-choice","131","584427","0.0-30.0","SS1618435644758","math_question","","","","","","","","","","","","{""Q0"":""11""}","[0]","11","",""
"","null","html-keyboard-response","132","585349","0.0-31.0-0.0","SS1618435644758","","","null","","","","","","<p><img src= images/blank.png width =""600"" height = ""600"" style=""position:fixed;top:50%; left:50%; transform: translate(-50%, -50%); border:5px solid black"">","","","","","","","",""
"","4347.955000004731","sequential-stimulus-presentation-old","133","594717","0.0-31.0-1.0","SS1618435644758","trial","","40","500","4847.955000004731","images/stimuli/spore_stims/complex_20_A_a.gif","images/stimuli/spore_stims/complex_13_A_b.gif","forced_long","","11","complex_dissimilar","images/stimuli/spore_stims/complex_13_A_b.gif","","","","",""
"","null","html-keyboard-response","134","596014","0.0-31.0-0.1","SS1618435644758","","","null","","","","","","<p><img src= images/blank.png width =""600"" height = ""600"" style=""position:fixed;top:50%; left:50%; transform: translate(-50%, -50%); border:5px solid black"">","","","","","","","",""
"","2547.775000013644","sequential-stimulus-presentation-old","135","599072","0.0-31.0-1.1","SS1618435644758","trial","","40","500","3047.775000013644","images/stimuli/spore_stims/complex_20_A_a.gif","images/stimuli/spore_stims/complex_13_A_b.gif","forced_long","","11","complex_dissimilar","images/stimuli/spore_stims/complex_13_A_b.gif","","","","",""
"","null","html-keyboard-response","136","599978","0.0-31.0-0.2","SS1618435644758","","","null","","","","","","<p><img src= images/blank.png width =""600"" height = ""600"" style=""position:fixed;top:50%; left:50%; transform: translate(-50%, -50%); border:5px solid black"">","","","","","","","",""
"","1295.8999999973457","sequential-stimulus-presentation-old","137","601789","0.0-31.0-1.2","SS1618435644758","trial","","40","500","1795.8999999973457","images/stimuli/spore_stims/complex_20_A_a.gif","images/stimuli/spore_stims/complex_13_A_b.gif","forced_long","","11","complex_dissimilar","images/stimuli/spore_stims/complex_13_A_b.gif","","","","",""
"","null","html-keyboard-response","138","602889","0.0-31.0-0.3","SS1618435644758","","","null","","","","","","<p><img src= images/blank.png width =""600"" height = ""600"" style=""position:fixed;top:50%; left:50%; transform: translate(-50%, -50%); border:5px solid black"">","","","","","","","",""
"","411.0449999861885","sequential-stimulus-presentation-old","139","603813","0.0-31.0-1.3","SS1618435644758","trial","","40","500","911.0449999861885","images/stimuli/spore_stims/complex_20_A_a.gif","images/stimuli/spore_stims/complex_13_A_b.gif","forced_long","","11","complex_dissimilar","images/stimuli/spore_stims/complex_13_A_b.gif","","","","",""
"","null","html-keyboard-response","140","605008","0.0-31.0-0.4","SS1618435644758","","","null","","","","","","<p><img src= images/blank.png width =""600"" height = ""600"" style=""position:fixed;top:50%; left:50%; transform: translate(-50%, -50%); border:5px solid black"">","","","","","","","",""
"","2944.0400000021327","sequential-stimulus-presentation-old","141","608461","0.0-31.0-1.4","SS1618435644758","trial","","40","500","3444.0400000021327","images/stimuli/spore_stims/complex_20_A_a.gif","images/stimuli/spore_stims/complex_13_A_b.gif","forced_long","","11","complex_dissimilar","images/stimuli/spore_stims/complex_20_A_a.gif","","","","",""
"","null","html-keyboard-response","142","609730","0.0-31.0-0.5","SS1618435644758","","","null","","","","","","<p><img src= images/blank.png width =""600"" height = ""600"" style=""position:fixed;top:50%; left:50%; transform: translate(-50%, -50%); border:5px solid black"">","","","","","","","",""
"","1076.679999998305","sequential-stimulus-presentation-old","143","611328","0.0-31.0-1.5","SS1618435644758","trial","","40","500","1576.679999998305","images/stimuli/spore_stims/complex_20_A_a.gif","images/stimuli/spore_stims/complex_13_A_b.gif","forced_long","","11","complex_dissimilar","images/stimuli/spore_stims/complex_20_A_a.gif","","","","",""
"[{""page_index"":0,""viewing_time"":4199.85999999335}]","4200.320000003558","instructions","144","615535","0.0-32.0","SS1618435644758","instructions","","","","","","","","","","","","","","","",""
"","5082.669999974314","survey-likert","145","620624","0.0-33.0","SS1618435644758","similarity_question","","","","","","","","","","","","{""Q0"":4}","[0]","","images/stimuli/spore_stims/simple_12_A_a.gif","images/stimuli/spore_stims/simple_05_A_b.gif"
"","7453.234999993583","survey-likert","146","628088","0.0-34.0","SS1618435644758","similarity_question","","","","","","","","","","","","{""Q0"":2}","[0]","","images/stimuli/spore_stims/complex_01_A_b.gif","images/stimuli/spore_stims/complex_18_A_a.gif"
"","7786.424999998417","survey-likert","147","635882","0.0-35.0","SS1618435644758","similarity_question","","","","","","","","","","","","{""Q0"":1}","[0]","","images/stimuli/spore_stims/complex_13_A_b.gif","images/stimuli/spore_stims/complex_20_A_a.gif"
"","6202.264999999898","survey-likert","148","642093","0.0-36.0","SS1618435644758","similarity_question","","","","","","","","","","","","{""Q0"":4}","[0]","","images/stimuli/spore_stims/complex_19_A_b.gif","images/stimuli/spore_stims/complex_12_A_a.gif"
"","4507.605000020703","survey-likert","149","646610","0.0-37.0","SS1618435644758","similarity_question","","","","","","","","","","","","{""Q0"":5}","[0]","","images/stimuli/spore_stims/simple_19_A_a.gif","images/stimuli/spore_stims/simple_18_A_b.gif"
"","7471.829999994952","survey-likert","150","654092","0.0-38.0","SS1618435644758","similarity_question","","","","","","","","","","","","{""Q0"":4}","[0]","","images/stimuli/spore_stims/simple_07_A_b.gif","images/stimuli/spore_stims/simple_08_A_a.gif"
"","6021.234999992885","survey-likert","151","660121","0.0-39.0","SS1618435644758","similarity_question","","","","","","","","","","","","{""Q0"":5}","[0]","","images/stimuli/spore_stims/simple_15_A_a.gif","images/stimuli/spore_stims/simple_16_A_b.gif"
"","4765.790000004927","survey-likert","152","664895","0.0-40.0","SS1618435644758","similarity_question","","","","","","","","","","","","{""Q0"":4}","[0]","","images/stimuli/spore_stims/complex_14_A_b.gif","images/stimuli/spore_stims/complex_03_A_a.gif"
"","2916.304999991553","survey-likert","153","667820","0.0-41.0","SS1618435644758","similarity_question","","","","","","","","","","","","{""Q0"":5}","[0]","","images/stimuli/spore_stims/simple_01_A_b.gif","images/stimuli/spore_stims/simple_16_A_a.gif"
"","3094.604999991134","survey-likert","154","670925","0.0-42.0","SS1618435644758","similarity_question","","","","","","","","","","","","{""Q0"":4}","[0]","","images/stimuli/spore_stims/complex_17_A_b.gif","images/stimuli/spore_stims/complex_08_A_a.gif"
"","4660.715000005439","survey-likert","155","675594","0.0-43.0","SS1618435644758","similarity_question","","","","","","","","","","","","{""Q0"":2}","[0]","","images/stimuli/spore_stims/complex_09_A_b.gif","images/stimuli/spore_stims/complex_15_A_a.gif"
"","2280.995000008261","survey-likert","156","677882","0.0-44.0","SS1618435644758","similarity_question","","","","","","","","","","","","{""Q0"":6}","[0]","","images/stimuli/spore_stims/simple_03_A_a.gif","images/stimuli/spore_stims/simple_13_A_b.gif"
"[{""page_index"":0,""viewing_time"":2116.584999981569}]","2116.9949999894015","instructions","157","680005","0.0-45.0","SS1618435644758","instructions","","","","","","","","","","","","","","","",""
"","2818.390000000363","survey-likert","158","682828","0.0-46.0","SS1618435644758","","","","","","","","","images/stimuli/spore_stims/simple_07_A_b.gif","","","","{""Q0"":1}","[0]","","",""
"","4630.520000006072","survey-likert","159","687465","0.0-47.0","SS1618435644758","","","","","","","","","images/stimuli/spore_stims/complex_15_A_a.gif","","","","{""Q0"":6}","[0]","","",""
"","3060.2300000027753","survey-likert","160","690535","0.0-48.0","SS1618435644758","","","","","","","","","images/stimuli/spore_stims/complex_01_A_b.gif","","","","{""Q0"":4}","[0]","","",""
"","2127.1950000082143","survey-likert","161","692670","0.0-49.0","SS1618435644758","","","","","","","","","images/stimuli/spore_stims/complex_20_A_a.gif","","","","{""Q0"":5}","[0]","","",""
"","3522.4400000006426","survey-likert","162","696200","0.0-50.0","SS1618435644758","","","","","","","","","images/stimuli/spore_stims/simple_16_A_a.gif","","","","{""Q0"":1}","[0]","","",""
"","3029.175000003306","survey-likert","163","699241","0.0-51.0","SS1618435644758","","","","","","","","","images/stimuli/spore_stims/simple_18_A_b.gif","","","","{""Q0"":1}","[0]","","",""
"","2346.385000011651","survey-likert","164","701595","0.0-52.0","SS1618435644758","","","","","","","","","images/stimuli/spore_stims/complex_12_A_a.gif","","","","{""Q0"":6}","[0]","","",""
"","2202.4850000161678","survey-likert","165","703807","0.0-53.0","SS1618435644758","","","","","","","","","images/stimuli/spore_stims/simple_05_A_b.gif","","","","{""Q0"":0}","[0]","","",""
"","3783.225000021048","survey-likert","166","707597","0.0-54.0","SS1618435644758","","","","","","","","","images/stimuli/spore_stims/complex_14_A_b.gif","","","","{""Q0"":5}","[0]","","",""
"","3080.6549999979325","survey-likert","167","710685","0.0-55.0","SS1618435644758","","","","","","","","","images/stimuli/spore_stims/complex_17_A_b.gif","","","","{""Q0"":6}","[0]","","",""
"","2059.460000018589","survey-likert","168","712752","0.0-56.0","SS1618435644758","","","","","","","","","images/stimuli/spore_stims/simple_13_A_b.gif","","","","{""Q0"":0}","[0]","","",""
"","1931.4749999903142","survey-likert","169","714691","0.0-57.0","SS1618435644758","","","","","","","","","images/stimuli/spore_stims/simple_15_A_a.gif","","","","{""Q0"":0}","[0]","","",""
"[{""page_index"":0,""viewing_time"":1445.4900000127964}]","1445.850000018254","instructions","170","716142","0.0-58.0","SS1618435644758","instructions","","","","","","","","","","","","","","","",""
"","2027.349999989383","demog-age","171","718176","0.0-59.0","SS1618435644758","","","","","","","","","","","","","{""age"":""23""}","","","",""
"","4274.355000001378","demog-ethnic-US","172","722460","0.0-60.0","SS1618435644758","","","","","","","","","","","","","{""ethnicity"":[""White""]}","[0]","","",""
"","7613.024999998743","demog-gender-and-education","173","730080","0.0-61.0","SS1618435644758","","","","","","","","","","","","","{""gender"":""Female"",""education"":""Associate Degree/Technical certification""}","[0,1]","","",""
"","20657.24999998929","survey-text","174","750747","0.0-62.0","SS1618435644758","feedback","","","","","","","","","","","","{""Q0"":""Thank you for letting me participate, the animations were really cute!""}","","","",""
"[{""page_index"":0,""viewing_time"":929.2949999799021}]","929.680000001099","instructions","175","751680","0.0-63.0","SS1618435644758","instructions","","","","","","","","","","","","","","","",""
