"view_history","rt","trial_type","trial_index","time_elapsed","internal_node_id","subject","stimulus_type","trial_stimulus","key_press","minimum_viewing_duration","trial_looking_time","block_deviant","block_background","exposure_type","stimulus","block_number","block_type","stimulus_displayed","responses","question_order","math_correct_answer","stimulus_left","stimulus_right"
"[{""page_index"":0,""viewing_time"":261139.84999991953}]","261140.87500004098","instructions","0","261146","0.0-0.0","SS1618365448276","","","","","","","","","","","","","","","","",""
"[{""page_index"":0,""viewing_time"":2924.305000109598},{""page_index"":1,""viewing_time"":6320.240000030026}]","9244.865000015125","instructions","1","272396","0.0-1.0","SS1618365448276","instructions","","","","","","","","","","","","","","","",""
"","8062.424999894574","sequential-stimulus-presentation-old","2","280986","0.0-2.0","SS1618365448276","","","40","500","8562.424999894574","null","null","self_paced","","","","","","","","",""
"","771.2300000712276","sequential-stimulus-presentation-old","3","282263","0.0-3.0","SS1618365448276","","","40","500","1271.2300000712276","null","null","self_paced","","","","","","","","",""
"[{""page_index"":0,""viewing_time"":2659.4200001563877}]","2659.620000049472","instructions","4","284923","0.0-4.0","SS1618365448276","instructions","","","","","","","","","","","","","","","",""
"","15931.540000019595","sequential-stimulus-presentation-old","5","305860","0.0-5.0","SS1618365448276","","","40","500","16431.540000019595","null","null","forced_long","","","","","","","","",""
"","6422.935000155121","sequential-stimulus-presentation-old","6","312340","0.0-6.0","SS1618365448276","","","40","50","6472.935000155121","null","null","forced_long","","","","","","","","",""
"[{""page_index"":0,""viewing_time"":24056.439999956638}]","24056.74499995075","instructions","7","336397","0.0-7.0","SS1618365448276","instructions","","","","","","","","","","","","","","","",""
"[{""page_index"":0,""viewing_time"":6275.919999927282},{""page_index"":1,""viewing_time"":3531.3800000585616},{""page_index"":2,""viewing_time"":3410.9300000127405},{""page_index"":3,""viewing_time"":3368.125000037253},{""page_index"":4,""viewing_time"":1250.5999999120831}]","17837.245000060648","instructions","8","354236","0.0-8.0","SS1618365448276","instructions","","","","","","","","","","","","","","","",""
"","null","html-keyboard-response","9","355515","0.0-9.0-0.0","SS1618365448276","","","null","","","","","","<p><img src= images/blank.png width =""600"" height = ""600"" style=""position:fixed;top:50%; left:50%; transform: translate(-50%, -50%); border:5px solid black"">","","","","","","","",""
"","1772.9650000110269","sequential-stimulus-presentation-old","10","357795","0.0-9.0-1.0","SS1618365448276","trial","","40","500","2272.965000011027","images/stimuli/spore_stims/simple_04_A_a.gif","images/stimuli/spore_stims/simple_01_A_b.gif","self_paced","","0","simple_dissimilar","images/stimuli/spore_stims/simple_01_A_b.gif","","","","",""
"","null","html-keyboard-response","11","359096","0.0-9.0-0.1","SS1618365448276","","","null","","","","","","<p><img src= images/blank.png width =""600"" height = ""600"" style=""position:fixed;top:50%; left:50%; transform: translate(-50%, -50%); border:5px solid black"">","","","","","","","",""
"","2485.080000013113","sequential-stimulus-presentation-old","12","362090","0.0-9.0-1.1","SS1618365448276","trial","","40","500","2985.080000013113","images/stimuli/spore_stims/simple_04_A_a.gif","images/stimuli/spore_stims/simple_01_A_b.gif","self_paced","","0","simple_dissimilar","images/stimuli/spore_stims/simple_01_A_b.gif","","","","",""
"","null","html-keyboard-response","13","363014","0.0-9.0-0.2","SS1618365448276","","","null","","","","","","<p><img src= images/blank.png width =""600"" height = ""600"" style=""position:fixed;top:50%; left:50%; transform: translate(-50%, -50%); border:5px solid black"">","","","","","","","",""
"","248.11999988742173","sequential-stimulus-presentation-old","14","363775","0.0-9.0-1.2","SS1618365448276","trial","","40","500","748.1199998874217","images/stimuli/spore_stims/simple_04_A_a.gif","images/stimuli/spore_stims/simple_01_A_b.gif","self_paced","","0","simple_dissimilar","images/stimuli/spore_stims/simple_01_A_b.gif","","","","",""
"","null","html-keyboard-response","15","364988","0.0-9.0-0.3","SS1618365448276","","","null","","","","","","<p><img src= images/blank.png width =""600"" height = ""600"" style=""position:fixed;top:50%; left:50%; transform: translate(-50%, -50%); border:5px solid black"">","","","","","","","",""
"","71.12499978393316","sequential-stimulus-presentation-old","16","365565","0.0-9.0-1.3","SS1618365448276","trial","","40","500","571.1249997839332","images/stimuli/spore_stims/simple_04_A_a.gif","images/stimuli/spore_stims/simple_01_A_b.gif","self_paced","","0","simple_dissimilar","images/stimuli/spore_stims/simple_01_A_b.gif","","","","",""
"","3520.6299999263138","survey-multi-choice","17","369105","0.0-10.0","SS1618365448276","math_question","","","","","","","","","","","","{""Q0"":""6""}","[0]","6","",""
"","null","html-keyboard-response","18","370056","0.0-11.0-0.0","SS1618365448276","","","null","","","","","","<p><img src= images/blank.png width =""600"" height = ""600"" style=""position:fixed;top:50%; left:50%; transform: translate(-50%, -50%); border:5px solid black"">","","","","","","","",""
"","206.60499995574355","sequential-stimulus-presentation-old","19","370781","0.0-11.0-1.0","SS1618365448276","trial","","40","500","706.6049999557436","images/stimuli/spore_stims/complex_06_A_a.gif","images/stimuli/spore_stims/complex_16_A_b.gif","self_paced","","1","complex_dissimilar","images/stimuli/spore_stims/complex_16_A_b.gif","","","","",""
"","null","html-keyboard-response","20","371664","0.0-11.0-0.1","SS1618365448276","","","null","","","","","","<p><img src= images/blank.png width =""600"" height = ""600"" style=""position:fixed;top:50%; left:50%; transform: translate(-50%, -50%); border:5px solid black"">","","","","","","","",""
"","95.01499985344708","sequential-stimulus-presentation-old","21","372263","0.0-11.0-1.1","SS1618365448276","trial","","40","500","595.0149998534471","images/stimuli/spore_stims/complex_06_A_a.gif","images/stimuli/spore_stims/complex_16_A_b.gif","self_paced","","1","complex_dissimilar","images/stimuli/spore_stims/complex_16_A_b.gif","","","","",""
"","null","html-keyboard-response","22","373523","0.0-11.0-0.2","SS1618365448276","","","null","","","","","","<p><img src= images/blank.png width =""600"" height = ""600"" style=""position:fixed;top:50%; left:50%; transform: translate(-50%, -50%); border:5px solid black"">","","","","","","","",""
"","4143.790000118315","sequential-stimulus-presentation-old","23","378174","0.0-11.0-1.2","SS1618365448276","trial","","40","500","4643.790000118315","images/stimuli/spore_stims/complex_06_A_a.gif","images/stimuli/spore_stims/complex_16_A_b.gif","self_paced","","1","complex_dissimilar","images/stimuli/spore_stims/complex_06_A_a.gif","","","","",""
"","null","html-keyboard-response","24","379078","0.0-11.0-0.3","SS1618365448276","","","null","","","","","","<p><img src= images/blank.png width =""600"" height = ""600"" style=""position:fixed;top:50%; left:50%; transform: translate(-50%, -50%); border:5px solid black"">","","","","","","","",""
"","20.610000006854534","sequential-stimulus-presentation-old","25","379608","0.0-11.0-1.3","SS1618365448276","trial","","40","500","520.6100000068545","images/stimuli/spore_stims/complex_06_A_a.gif","images/stimuli/spore_stims/complex_16_A_b.gif","self_paced","","1","complex_dissimilar","images/stimuli/spore_stims/complex_16_A_b.gif","","","","",""
"","null","html-keyboard-response","26","380803","0.0-11.0-0.4","SS1618365448276","","","null","","","","","","<p><img src= images/blank.png width =""600"" height = ""600"" style=""position:fixed;top:50%; left:50%; transform: translate(-50%, -50%); border:5px solid black"">","","","","","","","",""
"","263.55000003241","sequential-stimulus-presentation-old","27","381577","0.0-11.0-1.4","SS1618365448276","trial","","40","500","763.55000003241","images/stimuli/spore_stims/complex_06_A_a.gif","images/stimuli/spore_stims/complex_16_A_b.gif","self_paced","","1","complex_dissimilar","images/stimuli/spore_stims/complex_16_A_b.gif","","","","",""
"","null","html-keyboard-response","28","382393","0.0-11.0-0.5","SS1618365448276","","","null","","","","","","<p><img src= images/blank.png width =""600"" height = ""600"" style=""position:fixed;top:50%; left:50%; transform: translate(-50%, -50%); border:5px solid black"">","","","","","","","",""
"","134.69500001519918","sequential-stimulus-presentation-old","29","383037","0.0-11.0-1.5","SS1618365448276","trial","","40","500","634.6950000151992","images/stimuli/spore_stims/complex_06_A_a.gif","images/stimuli/spore_stims/complex_16_A_b.gif","self_paced","","1","complex_dissimilar","images/stimuli/spore_stims/complex_16_A_b.gif","","","","",""
"","3852.375000016764","survey-multi-choice","30","386891","0.0-12.0","SS1618365448276","math_question","","","","","","","","","","","","{""Q0"":""13""}","[0]","13","",""
"","null","html-keyboard-response","31","388153","0.0-13.0-0.0","SS1618365448276","","","null","","","","","","<p><img src= images/blank.png width =""600"" height = ""600"" style=""position:fixed;top:50%; left:50%; transform: translate(-50%, -50%); border:5px solid black"">","","","","","","","",""
"","85.57499991729856","sequential-stimulus-presentation-old","32","388744","0.0-13.0-1.0","SS1618365448276","trial","","40","500","585.5749999172986","images/stimuli/spore_stims/simple_17_A_a.gif","images/stimuli/spore_stims/simple_04_A_b.gif","self_paced","","2","simple_dissimilar","images/stimuli/spore_stims/simple_04_A_b.gif","","","","",""
"","null","html-keyboard-response","33","389844","0.0-13.0-0.1","SS1618365448276","","","null","","","","","","<p><img src= images/blank.png width =""600"" height = ""600"" style=""position:fixed;top:50%; left:50%; transform: translate(-50%, -50%); border:5px solid black"">","","","","","","","",""
"","335.0750000681728","sequential-stimulus-presentation-old","34","390691","0.0-13.0-1.1","SS1618365448276","trial","","40","500","835.0750000681728","images/stimuli/spore_stims/simple_17_A_a.gif","images/stimuli/spore_stims/simple_04_A_b.gif","self_paced","","2","simple_dissimilar","images/stimuli/spore_stims/simple_17_A_a.gif","","","","",""
"","null","html-keyboard-response","35","391581","0.0-13.0-0.2","SS1618365448276","","","null","","","","","","<p><img src= images/blank.png width =""600"" height = ""600"" style=""position:fixed;top:50%; left:50%; transform: translate(-50%, -50%); border:5px solid black"">","","","","","","","",""
"","6.805000128224492","sequential-stimulus-presentation-old","36","392091","0.0-13.0-1.2","SS1618365448276","trial","","40","500","506.8050001282245","images/stimuli/spore_stims/simple_17_A_a.gif","images/stimuli/spore_stims/simple_04_A_b.gif","self_paced","","2","simple_dissimilar","images/stimuli/spore_stims/simple_17_A_a.gif","","","","",""
"","null","html-keyboard-response","37","393251","0.0-13.0-0.3","SS1618365448276","","","null","","","","","","<p><img src= images/blank.png width =""600"" height = ""600"" style=""position:fixed;top:50%; left:50%; transform: translate(-50%, -50%); border:5px solid black"">","","","","","","","",""
"","120.1349999755621","sequential-stimulus-presentation-old","38","393884","0.0-13.0-1.3","SS1618365448276","trial","","40","500","620.1349999755621","images/stimuli/spore_stims/simple_17_A_a.gif","images/stimuli/spore_stims/simple_04_A_b.gif","self_paced","","2","simple_dissimilar","images/stimuli/spore_stims/simple_04_A_b.gif","","","","",""
"","2772.6449999026954","survey-multi-choice","39","396658","0.0-14.0","SS1618365448276","math_question","","","","","","","","","","","","{""Q0"":""6""}","[0]","6","",""
"","null","html-keyboard-response","40","397730","0.0-15.0-0.0","SS1618365448276","","","null","","","","","","<p><img src= images/blank.png width =""600"" height = ""600"" style=""position:fixed;top:50%; left:50%; transform: translate(-50%, -50%); border:5px solid black"">","","","","","","","",""
"","202.2049999795854","sequential-stimulus-presentation-old","41","397994","0.0-15.0-1.0","SS1618365448276","trial","","40","500","702.2049999795854","images/stimuli/spore_stims/simple_15_A_b.gif","images/stimuli/spore_stims/simple_03_A_a.gif","forced_short","","3","simple_dissimilar","images/stimuli/spore_stims/simple_03_A_a.gif","","","","",""
"","null","html-keyboard-response","42","399030","0.0-15.0-0.1","SS1618365448276","","","null","","","","","","<p><img src= images/blank.png width =""600"" height = ""600"" style=""position:fixed;top:50%; left:50%; transform: translate(-50%, -50%); border:5px solid black"">","","","","","","","",""
"","79.51500010676682","sequential-stimulus-presentation-old","43","399612","0.0-15.0-1.1","SS1618365448276","trial","","40","500","579.5150001067668","images/stimuli/spore_stims/simple_15_A_b.gif","images/stimuli/spore_stims/simple_03_A_a.gif","forced_short","","3","simple_dissimilar","images/stimuli/spore_stims/simple_15_A_b.gif","","","","",""
"","null","html-keyboard-response","44","400593","0.0-15.0-0.2","SS1618365448276","","","null","","","","","","<p><img src= images/blank.png width =""600"" height = ""600"" style=""position:fixed;top:50%; left:50%; transform: translate(-50%, -50%); border:5px solid black"">","","","","","","","",""
"","548.9750001579523","sequential-stimulus-presentation-old","45","401644","0.0-15.0-1.2","SS1618365448276","trial","","40","500","1048.9750001579523","images/stimuli/spore_stims/simple_15_A_b.gif","images/stimuli/spore_stims/simple_03_A_a.gif","forced_short","","3","simple_dissimilar","images/stimuli/spore_stims/simple_03_A_a.gif","","","","",""
"","null","html-keyboard-response","46","402818","0.0-15.0-0.3","SS1618365448276","","","null","","","","","","<p><img src= images/blank.png width =""600"" height = ""600"" style=""position:fixed;top:50%; left:50%; transform: translate(-50%, -50%); border:5px solid black"">","","","","","","","",""
"","54.5200000051409","sequential-stimulus-presentation-old","47","403377","0.0-15.0-1.3","SS1618365448276","trial","","40","500","554.5200000051409","images/stimuli/spore_stims/simple_15_A_b.gif","images/stimuli/spore_stims/simple_03_A_a.gif","forced_short","","3","simple_dissimilar","images/stimuli/spore_stims/simple_03_A_a.gif","","","","",""
"","null","html-keyboard-response","48","404482","0.0-15.0-0.4","SS1618365448276","","","null","","","","","","<p><img src= images/blank.png width =""600"" height = ""600"" style=""position:fixed;top:50%; left:50%; transform: translate(-50%, -50%); border:5px solid black"">","","","","","","","",""
"","170.97499989904463","sequential-stimulus-presentation-old","49","405161","0.0-15.0-1.4","SS1618365448276","trial","","40","500","670.9749998990446","images/stimuli/spore_stims/simple_15_A_b.gif","images/stimuli/spore_stims/simple_03_A_a.gif","forced_short","","3","simple_dissimilar","images/stimuli/spore_stims/simple_03_A_a.gif","","","","",""
"","1968.4849998448044","survey-multi-choice","50","407131","0.0-16.0","SS1618365448276","math_question","","","","","","","","","","","","{""Q0"":""10""}","[0]","10","",""
"","null","html-keyboard-response","51","408099","0.0-17.0-0.0","SS1618365448276","","","null","","","","","","<p><img src= images/blank.png width =""600"" height = ""600"" style=""position:fixed;top:50%; left:50%; transform: translate(-50%, -50%); border:5px solid black"">","","","","","","","",""
"","34.52999982982874","sequential-stimulus-presentation-old","52","413142","0.0-17.0-1.0","SS1618365448276","trial","","40","500","534.5299998298287","images/stimuli/spore_stims/complex_01_A_b.gif","images/stimuli/spore_stims/complex_14_A_a.gif","forced_long","","4","complex_dissimilar","images/stimuli/spore_stims/complex_14_A_a.gif","","","","",""
"","null","html-keyboard-response","53","414309","0.0-17.0-0.1","SS1618365448276","","","null","","","","","","<p><img src= images/blank.png width =""600"" height = ""600"" style=""position:fixed;top:50%; left:50%; transform: translate(-50%, -50%); border:5px solid black"">","","","","","","","",""
"","38.70999999344349","sequential-stimulus-presentation-old","54","414851","0.0-17.0-1.1","SS1618365448276","trial","","40","500","538.7099999934435","images/stimuli/spore_stims/complex_01_A_b.gif","images/stimuli/spore_stims/complex_14_A_a.gif","forced_long","","4","complex_dissimilar","images/stimuli/spore_stims/complex_14_A_a.gif","","","","",""
"","null","html-keyboard-response","55","416129","0.0-17.0-0.2","SS1618365448276","","","null","","","","","","<p><img src= images/blank.png width =""600"" height = ""600"" style=""position:fixed;top:50%; left:50%; transform: translate(-50%, -50%); border:5px solid black"">","","","","","","","",""
"","470.49999982118607","sequential-stimulus-presentation-old","56","417108","0.0-17.0-1.2","SS1618365448276","trial","","40","500","970.4999998211861","images/stimuli/spore_stims/complex_01_A_b.gif","images/stimuli/spore_stims/complex_14_A_a.gif","forced_long","","4","complex_dissimilar","images/stimuli/spore_stims/complex_14_A_a.gif","","","","",""
"","null","html-keyboard-response","57","417962","0.0-17.0-0.3","SS1618365448276","","","null","","","","","","<p><img src= images/blank.png width =""600"" height = ""600"" style=""position:fixed;top:50%; left:50%; transform: translate(-50%, -50%); border:5px solid black"">","","","","","","","",""
"","301.4549999497831","sequential-stimulus-presentation-old","58","418767","0.0-17.0-1.3","SS1618365448276","trial","","40","500","801.4549999497831","images/stimuli/spore_stims/complex_01_A_b.gif","images/stimuli/spore_stims/complex_14_A_a.gif","forced_long","","4","complex_dissimilar","images/stimuli/spore_stims/complex_01_A_b.gif","","","","",""
"","null","html-keyboard-response","59","419911","0.0-17.0-0.4","SS1618365448276","","","null","","","","","","<p><img src= images/blank.png width =""600"" height = ""600"" style=""position:fixed;top:50%; left:50%; transform: translate(-50%, -50%); border:5px solid black"">","","","","","","","",""
"","156.53500007465482","sequential-stimulus-presentation-old","60","420580","0.0-17.0-1.4","SS1618365448276","trial","","40","500","656.5350000746548","images/stimuli/spore_stims/complex_01_A_b.gif","images/stimuli/spore_stims/complex_14_A_a.gif","forced_long","","4","complex_dissimilar","images/stimuli/spore_stims/complex_14_A_a.gif","","","","",""
"","null","html-keyboard-response","61","421798","0.0-17.0-0.5","SS1618365448276","","","null","","","","","","<p><img src= images/blank.png width =""600"" height = ""600"" style=""position:fixed;top:50%; left:50%; transform: translate(-50%, -50%); border:5px solid black"">","","","","","","","",""
"","107.90000017732382","sequential-stimulus-presentation-old","62","422410","0.0-17.0-1.5","SS1618365448276","trial","","40","500","607.9000001773238","images/stimuli/spore_stims/complex_01_A_b.gif","images/stimuli/spore_stims/complex_14_A_a.gif","forced_long","","4","complex_dissimilar","images/stimuli/spore_stims/complex_14_A_a.gif","","","","",""
"","2181.364999851212","survey-multi-choice","63","424593","0.0-18.0","SS1618365448276","math_question","","","","","","","","","","","","{""Q0"":""12""}","[0]","12","",""
"","null","html-keyboard-response","64","425635","0.0-19.0-0.0","SS1618365448276","","","null","","","","","","<p><img src= images/blank.png width =""600"" height = ""600"" style=""position:fixed;top:50%; left:50%; transform: translate(-50%, -50%); border:5px solid black"">","","","","","","","",""
"","16127.315000165254","sequential-stimulus-presentation-old","65","446771","0.0-19.0-1.0","SS1618365448276","trial","","40","500","16627.315000165254","images/stimuli/spore_stims/simple_09_A_a.gif","images/stimuli/spore_stims/simple_06_A_b.gif","forced_long","","5","simple_dissimilar","images/stimuli/spore_stims/simple_06_A_b.gif","","","","",""
"","null","html-keyboard-response","66","447720","0.0-19.0-0.1","SS1618365448276","","","null","","","","","","<p><img src= images/blank.png width =""600"" height = ""600"" style=""position:fixed;top:50%; left:50%; transform: translate(-50%, -50%); border:5px solid black"">","","","","","","","",""
"","6310.689999954775","sequential-stimulus-presentation-old","67","454540","0.0-19.0-1.1","SS1618365448276","trial","","40","500","6810.689999954775","images/stimuli/spore_stims/simple_09_A_a.gif","images/stimuli/spore_stims/simple_06_A_b.gif","forced_long","","5","simple_dissimilar","images/stimuli/spore_stims/simple_09_A_a.gif","","","","",""
"","null","html-keyboard-response","68","455606","0.0-19.0-0.2","SS1618365448276","","","null","","","","","","<p><img src= images/blank.png width =""600"" height = ""600"" style=""position:fixed;top:50%; left:50%; transform: translate(-50%, -50%); border:5px solid black"">","","","","","","","",""
"","10.860000038519502","sequential-stimulus-presentation-old","69","456127","0.0-19.0-1.2","SS1618365448276","trial","","40","500","510.8600000385195","images/stimuli/spore_stims/simple_09_A_a.gif","images/stimuli/spore_stims/simple_06_A_b.gif","forced_long","","5","simple_dissimilar","images/stimuli/spore_stims/simple_09_A_a.gif","","","","",""
"","null","html-keyboard-response","70","456995","0.0-19.0-0.3","SS1618365448276","","","null","","","","","","<p><img src= images/blank.png width =""600"" height = ""600"" style=""position:fixed;top:50%; left:50%; transform: translate(-50%, -50%); border:5px solid black"">","","","","","","","",""
"","287.0500001590699","sequential-stimulus-presentation-old","71","457791","0.0-19.0-1.3","SS1618365448276","trial","","40","500","787.0500001590699","images/stimuli/spore_stims/simple_09_A_a.gif","images/stimuli/spore_stims/simple_06_A_b.gif","forced_long","","5","simple_dissimilar","images/stimuli/spore_stims/simple_06_A_b.gif","","","","",""
"","2067.384999943897","survey-multi-choice","72","459860","0.0-20.0","SS1618365448276","math_question","","","","","","","","","","","","{""Q0"":""9""}","[0]","9","",""
"","null","html-keyboard-response","73","460681","0.0-21.0-0.0","SS1618365448276","","","null","","","","","","<p><img src= images/blank.png width =""600"" height = ""600"" style=""position:fixed;top:50%; left:50%; transform: translate(-50%, -50%); border:5px solid black"">","","","","","","","",""
"","266.8100001756102","sequential-stimulus-presentation-old","74","461011","0.0-21.0-1.0","SS1618365448276","trial","","40","500","766.8100001756102","images/stimuli/spore_stims/complex_15_A_b.gif","images/stimuli/spore_stims/complex_01_A_a.gif","forced_short","","6","complex_dissimilar","images/stimuli/spore_stims/complex_01_A_a.gif","","","","",""
"","null","html-keyboard-response","75","461837","0.0-21.0-0.1","SS1618365448276","","","null","","","","","","<p><img src= images/blank.png width =""600"" height = ""600"" style=""position:fixed;top:50%; left:50%; transform: translate(-50%, -50%); border:5px solid black"">","","","","","","","",""
"","63.215000089257956","sequential-stimulus-presentation-old","76","462410","0.0-21.0-1.1","SS1618365448276","trial","","40","500","563.215000089258","images/stimuli/spore_stims/complex_15_A_b.gif","images/stimuli/spore_stims/complex_01_A_a.gif","forced_short","","6","complex_dissimilar","images/stimuli/spore_stims/complex_01_A_a.gif","","","","",""
"","null","html-keyboard-response","77","463474","0.0-21.0-0.2","SS1618365448276","","","null","","","","","","<p><img src= images/blank.png width =""600"" height = ""600"" style=""position:fixed;top:50%; left:50%; transform: translate(-50%, -50%); border:5px solid black"">","","","","","","","",""
"","366.67499993927777","sequential-stimulus-presentation-old","78","464344","0.0-21.0-1.2","SS1618365448276","trial","","40","500","866.6749999392778","images/stimuli/spore_stims/complex_15_A_b.gif","images/stimuli/spore_stims/complex_01_A_a.gif","forced_short","","6","complex_dissimilar","images/stimuli/spore_stims/complex_01_A_a.gif","","","","",""
"","null","html-keyboard-response","79","465252","0.0-21.0-0.3","SS1618365448276","","","null","","","","","","<p><img src= images/blank.png width =""600"" height = ""600"" style=""position:fixed;top:50%; left:50%; transform: translate(-50%, -50%); border:5px solid black"">","","","","","","","",""
"","160.23499984294176","sequential-stimulus-presentation-old","80","465924","0.0-21.0-1.3","SS1618365448276","trial","","40","500","660.2349998429418","images/stimuli/spore_stims/complex_15_A_b.gif","images/stimuli/spore_stims/complex_01_A_a.gif","forced_short","","6","complex_dissimilar","images/stimuli/spore_stims/complex_01_A_a.gif","","","","",""
"","null","html-keyboard-response","81","466766","0.0-21.0-0.4","SS1618365448276","","","null","","","","","","<p><img src= images/blank.png width =""600"" height = ""600"" style=""position:fixed;top:50%; left:50%; transform: translate(-50%, -50%); border:5px solid black"">","","","","","","","",""
"","51.3049999717623","sequential-stimulus-presentation-old","82","467324","0.0-21.0-1.4","SS1618365448276","trial","","40","500","551.3049999717623","images/stimuli/spore_stims/complex_15_A_b.gif","images/stimuli/spore_stims/complex_01_A_a.gif","forced_short","","6","complex_dissimilar","images/stimuli/spore_stims/complex_15_A_b.gif","","","","",""
"","3430.6749999523163","survey-multi-choice","83","470758","0.0-22.0","SS1618365448276","math_question","","","","","","","","","","","","{""Q0"":""11""}","[0]","11","",""
"","null","html-keyboard-response","84","471969","0.0-23.0-0.0","SS1618365448276","","","null","","","","","","<p><img src= images/blank.png width =""600"" height = ""600"" style=""position:fixed;top:50%; left:50%; transform: translate(-50%, -50%); border:5px solid black"">","","","","","","","",""
"","682.3549999389797","sequential-stimulus-presentation-old","85","477662","0.0-23.0-1.0","SS1618365448276","trial","","40","500","1182.3549999389797","images/stimuli/spore_stims/simple_05_A_a.gif","images/stimuli/spore_stims/simple_11_A_b.gif","forced_long","","7","simple_dissimilar","images/stimuli/spore_stims/simple_11_A_b.gif","","","","",""
"","null","html-keyboard-response","86","478803","0.0-23.0-0.1","SS1618365448276","","","null","","","","","","<p><img src= images/blank.png width =""600"" height = ""600"" style=""position:fixed;top:50%; left:50%; transform: translate(-50%, -50%); border:5px solid black"">","","","","","","","",""
"","86.9849999435246","sequential-stimulus-presentation-old","87","479396","0.0-23.0-1.1","SS1618365448276","trial","","40","500","586.9849999435246","images/stimuli/spore_stims/simple_05_A_a.gif","images/stimuli/spore_stims/simple_11_A_b.gif","forced_long","","7","simple_dissimilar","images/stimuli/spore_stims/simple_05_A_a.gif","","","","",""
"","null","html-keyboard-response","88","480343","0.0-23.0-0.2","SS1618365448276","","","null","","","","","","<p><img src= images/blank.png width =""600"" height = ""600"" style=""position:fixed;top:50%; left:50%; transform: translate(-50%, -50%); border:5px solid black"">","","","","","","","",""
"","206.7599999718368","sequential-stimulus-presentation-old","89","481057","0.0-23.0-1.2","SS1618365448276","trial","","40","500","706.7599999718368","images/stimuli/spore_stims/simple_05_A_a.gif","images/stimuli/spore_stims/simple_11_A_b.gif","forced_long","","7","simple_dissimilar","images/stimuli/spore_stims/simple_11_A_b.gif","","","","",""
"","null","html-keyboard-response","90","482037","0.0-23.0-0.3","SS1618365448276","","","null","","","","","","<p><img src= images/blank.png width =""600"" height = ""600"" style=""position:fixed;top:50%; left:50%; transform: translate(-50%, -50%); border:5px solid black"">","","","","","","","",""
"","500","sequential-stimulus-presentation-old","91","483042","0.0-23.0-1.3","SS1618365448276","trial","","40","500","1000","images/stimuli/spore_stims/simple_05_A_a.gif","images/stimuli/spore_stims/simple_11_A_b.gif","forced_long","","7","simple_dissimilar","images/stimuli/spore_stims/simple_11_A_b.gif","","","","",""
"","null","html-keyboard-response","92","484041","0.0-23.0-0.4","SS1618365448276","","","null","","","","","","<p><img src= images/blank.png width =""600"" height = ""600"" style=""position:fixed;top:50%; left:50%; transform: translate(-50%, -50%); border:5px solid black"">","","","","","","","",""
"","30.29999998398125","sequential-stimulus-presentation-old","93","484579","0.0-23.0-1.4","SS1618365448276","trial","","40","500","530.2999999839813","images/stimuli/spore_stims/simple_05_A_a.gif","images/stimuli/spore_stims/simple_11_A_b.gif","forced_long","","7","simple_dissimilar","images/stimuli/spore_stims/simple_11_A_b.gif","","","","",""
"","null","html-keyboard-response","94","485564","0.0-23.0-0.5","SS1618365448276","","","null","","","","","","<p><img src= images/blank.png width =""600"" height = ""600"" style=""position:fixed;top:50%; left:50%; transform: translate(-50%, -50%); border:5px solid black"">","","","","","","","",""
"","102.35499986447394","sequential-stimulus-presentation-old","95","486171","0.0-23.0-1.5","SS1618365448276","trial","","40","500","602.3549998644739","images/stimuli/spore_stims/simple_05_A_a.gif","images/stimuli/spore_stims/simple_11_A_b.gif","forced_long","","7","simple_dissimilar","images/stimuli/spore_stims/simple_05_A_a.gif","","","","",""
"","2304.844999918714","survey-multi-choice","96","488478","0.0-24.0","SS1618365448276","math_question","","","","","","","","","","","","{""Q0"":""11""}","[0]","11","",""
"","null","html-keyboard-response","97","489621","0.0-25.0-0.0","SS1618365448276","","","null","","","","","","<p><img src= images/blank.png width =""600"" height = ""600"" style=""position:fixed;top:50%; left:50%; transform: translate(-50%, -50%); border:5px solid black"">","","","","","","","",""
"","34.835000056773424","sequential-stimulus-presentation-old","98","489718","0.0-25.0-1.0","SS1618365448276","trial","","40","500","534.8350000567734","images/stimuli/spore_stims/simple_17_A_b.gif","images/stimuli/spore_stims/simple_10_A_a.gif","forced_short","","8","simple_dissimilar","images/stimuli/spore_stims/simple_10_A_a.gif","","","","",""
"","null","html-keyboard-response","99","491026","0.0-25.0-0.1","SS1618365448276","","","null","","","","","","<p><img src= images/blank.png width =""600"" height = ""600"" style=""position:fixed;top:50%; left:50%; transform: translate(-50%, -50%); border:5px solid black"">","","","","","","","",""
"","589.3500000238419","sequential-stimulus-presentation-old","100","492120","0.0-25.0-1.1","SS1618365448276","trial","","40","500","1089.3500000238419","images/stimuli/spore_stims/simple_17_A_b.gif","images/stimuli/spore_stims/simple_10_A_a.gif","forced_short","","8","simple_dissimilar","images/stimuli/spore_stims/simple_10_A_a.gif","","","","",""
"","null","html-keyboard-response","101","493203","0.0-25.0-0.2","SS1618365448276","","","null","","","","","","<p><img src= images/blank.png width =""600"" height = ""600"" style=""position:fixed;top:50%; left:50%; transform: translate(-50%, -50%); border:5px solid black"">","","","","","","","",""
"","103.74499997124076","sequential-stimulus-presentation-old","102","493812","0.0-25.0-1.2","SS1618365448276","trial","","40","500","603.7449999712408","images/stimuli/spore_stims/simple_17_A_b.gif","images/stimuli/spore_stims/simple_10_A_a.gif","forced_short","","8","simple_dissimilar","images/stimuli/spore_stims/simple_10_A_a.gif","","","","",""
"","null","html-keyboard-response","103","494750","0.0-25.0-0.3","SS1618365448276","","","null","","","","","","<p><img src= images/blank.png width =""600"" height = ""600"" style=""position:fixed;top:50%; left:50%; transform: translate(-50%, -50%); border:5px solid black"">","","","","","","","",""
"","1060.5399999767542","sequential-stimulus-presentation-old","104","496320","0.0-25.0-1.3","SS1618365448276","trial","","40","500","1560.5399999767542","images/stimuli/spore_stims/simple_17_A_b.gif","images/stimuli/spore_stims/simple_10_A_a.gif","forced_short","","8","simple_dissimilar","images/stimuli/spore_stims/simple_10_A_a.gif","","","","",""
"","null","html-keyboard-response","105","497331","0.0-25.0-0.4","SS1618365448276","","","null","","","","","","<p><img src= images/blank.png width =""600"" height = ""600"" style=""position:fixed;top:50%; left:50%; transform: translate(-50%, -50%); border:5px solid black"">","","","","","","","",""
"","183.82500018924475","sequential-stimulus-presentation-old","106","498029","0.0-25.0-1.4","SS1618365448276","trial","","40","500","683.8250001892447","images/stimuli/spore_stims/simple_17_A_b.gif","images/stimuli/spore_stims/simple_10_A_a.gif","forced_short","","8","simple_dissimilar","images/stimuli/spore_stims/simple_10_A_a.gif","","","","",""
"","2174.085000064224","survey-multi-choice","107","500205","0.0-26.0","SS1618365448276","math_question","","","","","","","","","","","","{""Q0"":""9""}","[0]","9","",""
"","null","html-keyboard-response","108","501425","0.0-27.0-0.0","SS1618365448276","","","null","","","","","","<p><img src= images/blank.png width =""600"" height = ""600"" style=""position:fixed;top:50%; left:50%; transform: translate(-50%, -50%); border:5px solid black"">","","","","","","","",""
"","16.89500012435019","sequential-stimulus-presentation-old","109","501497","0.0-27.0-1.0","SS1618365448276","trial","","40","500","516.8950001243502","images/stimuli/spore_stims/complex_08_A_a.gif","images/stimuli/spore_stims/complex_05_A_b.gif","forced_short","","9","complex_dissimilar","images/stimuli/spore_stims/complex_05_A_b.gif","","","","",""
"","null","html-keyboard-response","110","502352","0.0-27.0-0.1","SS1618365448276","","","null","","","","","","<p><img src= images/blank.png width =""600"" height = ""600"" style=""position:fixed;top:50%; left:50%; transform: translate(-50%, -50%); border:5px solid black"">","","","","","","","",""
"","76.06499991379678","sequential-stimulus-presentation-old","111","502933","0.0-27.0-1.1","SS1618365448276","trial","","40","500","576.0649999137968","images/stimuli/spore_stims/complex_08_A_a.gif","images/stimuli/spore_stims/complex_05_A_b.gif","forced_short","","9","complex_dissimilar","images/stimuli/spore_stims/complex_08_A_a.gif","","","","",""
"","null","html-keyboard-response","112","503902","0.0-27.0-0.2","SS1618365448276","","","null","","","","","","<p><img src= images/blank.png width =""600"" height = ""600"" style=""position:fixed;top:50%; left:50%; transform: translate(-50%, -50%); border:5px solid black"">","","","","","","","",""
"","318.144999910146","sequential-stimulus-presentation-old","113","504730","0.0-27.0-1.2","SS1618365448276","trial","","40","500","818.144999910146","images/stimuli/spore_stims/complex_08_A_a.gif","images/stimuli/spore_stims/complex_05_A_b.gif","forced_short","","9","complex_dissimilar","images/stimuli/spore_stims/complex_05_A_b.gif","","","","",""
"","null","html-keyboard-response","114","505735","0.0-27.0-0.3","SS1618365448276","","","null","","","","","","<p><img src= images/blank.png width =""600"" height = ""600"" style=""position:fixed;top:50%; left:50%; transform: translate(-50%, -50%); border:5px solid black"">","","","","","","","",""
"","412.8200002014637","sequential-stimulus-presentation-old","115","506653","0.0-27.0-1.3","SS1618365448276","trial","","40","500","912.8200002014637","images/stimuli/spore_stims/complex_08_A_a.gif","images/stimuli/spore_stims/complex_05_A_b.gif","forced_short","","9","complex_dissimilar","images/stimuli/spore_stims/complex_05_A_b.gif","","","","",""
"","null","html-keyboard-response","116","507765","0.0-27.0-0.4","SS1618365448276","","","null","","","","","","<p><img src= images/blank.png width =""600"" height = ""600"" style=""position:fixed;top:50%; left:50%; transform: translate(-50%, -50%); border:5px solid black"">","","","","","","","",""
"","5.7200000155717134","sequential-stimulus-presentation-old","117","508275","0.0-27.0-1.4","SS1618365448276","trial","","40","500","505.7200000155717","images/stimuli/spore_stims/complex_08_A_a.gif","images/stimuli/spore_stims/complex_05_A_b.gif","forced_short","","9","complex_dissimilar","images/stimuli/spore_stims/complex_05_A_b.gif","","","","",""
"","2218.5249999165535","survey-multi-choice","118","510496","0.0-28.0","SS1618365448276","math_question","","","","","","","","","","","","{""Q0"":""12""}","[0]","12","",""
"","null","html-keyboard-response","119","511695","0.0-29.0-0.0","SS1618365448276","","","null","","","","","","<p><img src= images/blank.png width =""600"" height = ""600"" style=""position:fixed;top:50%; left:50%; transform: translate(-50%, -50%); border:5px solid black"">","","","","","","","",""
"","4649.934999877587","sequential-stimulus-presentation-old","120","521351","0.0-29.0-1.0","SS1618365448276","trial","","40","500","5149.934999877587","images/stimuli/spore_stims/complex_10_A_b.gif","images/stimuli/spore_stims/complex_16_A_a.gif","forced_long","","10","complex_dissimilar","images/stimuli/spore_stims/complex_16_A_a.gif","","","","",""
"","null","html-keyboard-response","121","522592","0.0-29.0-0.1","SS1618365448276","","","null","","","","","","<p><img src= images/blank.png width =""600"" height = ""600"" style=""position:fixed;top:50%; left:50%; transform: translate(-50%, -50%); border:5px solid black"">","","","","","","","",""
"","59.375000186264515","sequential-stimulus-presentation-old","122","523159","0.0-29.0-1.1","SS1618365448276","trial","","40","500","559.3750001862645","images/stimuli/spore_stims/complex_10_A_b.gif","images/stimuli/spore_stims/complex_16_A_a.gif","forced_long","","10","complex_dissimilar","images/stimuli/spore_stims/complex_10_A_b.gif","","","","",""
"","null","html-keyboard-response","123","524097","0.0-29.0-0.2","SS1618365448276","","","null","","","","","","<p><img src= images/blank.png width =""600"" height = ""600"" style=""position:fixed;top:50%; left:50%; transform: translate(-50%, -50%); border:5px solid black"">","","","","","","","",""
"","265.74499998241663","sequential-stimulus-presentation-old","124","524871","0.0-29.0-1.2","SS1618365448276","trial","","40","500","765.7449999824166","images/stimuli/spore_stims/complex_10_A_b.gif","images/stimuli/spore_stims/complex_16_A_a.gif","forced_long","","10","complex_dissimilar","images/stimuli/spore_stims/complex_10_A_b.gif","","","","",""
"","null","html-keyboard-response","125","526004","0.0-29.0-0.3","SS1618365448276","","","null","","","","","","<p><img src= images/blank.png width =""600"" height = ""600"" style=""position:fixed;top:50%; left:50%; transform: translate(-50%, -50%); border:5px solid black"">","","","","","","","",""
"","19.434999907389283","sequential-stimulus-presentation-old","126","526530","0.0-29.0-1.3","SS1618365448276","trial","","40","500","519.4349999073893","images/stimuli/spore_stims/complex_10_A_b.gif","images/stimuli/spore_stims/complex_16_A_a.gif","forced_long","","10","complex_dissimilar","images/stimuli/spore_stims/complex_16_A_a.gif","","","","",""
"","null","html-keyboard-response","127","527407","0.0-29.0-0.4","SS1618365448276","","","null","","","","","","<p><img src= images/blank.png width =""600"" height = ""600"" style=""position:fixed;top:50%; left:50%; transform: translate(-50%, -50%); border:5px solid black"">","","","","","","","",""
"","133.05500010028481","sequential-stimulus-presentation-old","128","528043","0.0-29.0-1.4","SS1618365448276","trial","","40","500","633.0550001002848","images/stimuli/spore_stims/complex_10_A_b.gif","images/stimuli/spore_stims/complex_16_A_a.gif","forced_long","","10","complex_dissimilar","images/stimuli/spore_stims/complex_16_A_a.gif","","","","",""
"","null","html-keyboard-response","129","529236","0.0-29.0-0.5","SS1618365448276","","","null","","","","","","<p><img src= images/blank.png width =""600"" height = ""600"" style=""position:fixed;top:50%; left:50%; transform: translate(-50%, -50%); border:5px solid black"">","","","","","","","",""
"","115.40000000968575","sequential-stimulus-presentation-old","130","529862","0.0-29.0-1.5","SS1618365448276","trial","","40","500","615.4000000096858","images/stimuli/spore_stims/complex_10_A_b.gif","images/stimuli/spore_stims/complex_16_A_a.gif","forced_long","","10","complex_dissimilar","images/stimuli/spore_stims/complex_16_A_a.gif","","","","",""
"","2749.2750000674278","survey-multi-choice","131","532614","0.0-30.0","SS1618365448276","math_question","","","","","","","","","","","","{""Q0"":""15""}","[0]","15","",""
"","null","html-keyboard-response","132","533919","0.0-31.0-0.0","SS1618365448276","","","null","","","","","","<p><img src= images/blank.png width =""600"" height = ""600"" style=""position:fixed;top:50%; left:50%; transform: translate(-50%, -50%); border:5px solid black"">","","","","","","","",""
"","119.08500012941658","sequential-stimulus-presentation-old","133","534542","0.0-31.0-1.0","SS1618365448276","trial","","40","500","619.0850001294166","images/stimuli/spore_stims/complex_02_A_a.gif","images/stimuli/spore_stims/complex_12_A_b.gif","self_paced","","11","complex_dissimilar","images/stimuli/spore_stims/complex_12_A_b.gif","","","","",""
"","null","html-keyboard-response","134","535704","0.0-31.0-0.1","SS1618365448276","","","null","","","","","","<p><img src= images/blank.png width =""600"" height = ""600"" style=""position:fixed;top:50%; left:50%; transform: translate(-50%, -50%); border:5px solid black"">","","","","","","","",""
"","201.97499985806644","sequential-stimulus-presentation-old","135","536410","0.0-31.0-1.1","SS1618365448276","trial","","40","500","701.9749998580664","images/stimuli/spore_stims/complex_02_A_a.gif","images/stimuli/spore_stims/complex_12_A_b.gif","self_paced","","11","complex_dissimilar","images/stimuli/spore_stims/complex_02_A_a.gif","","","","",""
"","null","html-keyboard-response","136","537596","0.0-31.0-0.2","SS1618365448276","","","null","","","","","","<p><img src= images/blank.png width =""600"" height = ""600"" style=""position:fixed;top:50%; left:50%; transform: translate(-50%, -50%); border:5px solid black"">","","","","","","","",""
"","270.47999994829297","sequential-stimulus-presentation-old","137","538375","0.0-31.0-1.2","SS1618365448276","trial","","40","500","770.479999948293","images/stimuli/spore_stims/complex_02_A_a.gif","images/stimuli/spore_stims/complex_12_A_b.gif","self_paced","","11","complex_dissimilar","images/stimuli/spore_stims/complex_12_A_b.gif","","","","",""
"","null","html-keyboard-response","138","539382","0.0-31.0-0.3","SS1618365448276","","","null","","","","","","<p><img src= images/blank.png width =""600"" height = ""600"" style=""position:fixed;top:50%; left:50%; transform: translate(-50%, -50%); border:5px solid black"">","","","","","","","",""
"","135.82000019960105","sequential-stimulus-presentation-old","139","540028","0.0-31.0-1.3","SS1618365448276","trial","","40","500","635.820000199601","images/stimuli/spore_stims/complex_02_A_a.gif","images/stimuli/spore_stims/complex_12_A_b.gif","self_paced","","11","complex_dissimilar","images/stimuli/spore_stims/complex_12_A_b.gif","","","","",""
"[{""page_index"":0,""viewing_time"":4673.204999882728}]","4673.384999856353","instructions","140","544704","0.0-32.0","SS1618365448276","instructions","","","","","","","","","","","","","","","",""
"","8693.814999889582","survey-likert","141","553402","0.0-33.0","SS1618365448276","similarity_question","","","","","","","","","","","","{""Q0"":2}","[0]","","images/stimuli/spore_stims/simple_05_A_a.gif","images/stimuli/spore_stims/simple_11_A_b.gif"
"","5016.204999992624","survey-likert","142","558422","0.0-34.0","SS1618365448276","similarity_question","","","","","","","","","","","","{""Q0"":1}","[0]","","images/stimuli/spore_stims/simple_01_A_b.gif","images/stimuli/spore_stims/simple_04_A_a.gif"
"","2806.3650000840425","survey-likert","143","561232","0.0-35.0","SS1618365448276","similarity_question","","","","","","","","","","","","{""Q0"":5}","[0]","","images/stimuli/spore_stims/complex_15_A_b.gif","images/stimuli/spore_stims/complex_01_A_a.gif"
"","3381.380000151694","survey-likert","144","564618","0.0-36.0","SS1618365448276","similarity_question","","","","","","","","","","","","{""Q0"":2}","[0]","","images/stimuli/spore_stims/simple_17_A_b.gif","images/stimuli/spore_stims/simple_10_A_a.gif"
"","1977.6550000533462","survey-likert","145","566600","0.0-37.0","SS1618365448276","similarity_question","","","","","","","","","","","","{""Q0"":2}","[0]","","images/stimuli/spore_stims/simple_17_A_a.gif","images/stimuli/spore_stims/simple_04_A_b.gif"
"","2800.180000020191","survey-likert","146","569405","0.0-38.0","SS1618365448276","similarity_question","","","","","","","","","","","","{""Q0"":4}","[0]","","images/stimuli/spore_stims/complex_16_A_a.gif","images/stimuli/spore_stims/complex_10_A_b.gif"
"","2943.669999949634","survey-likert","147","572353","0.0-39.0","SS1618365448276","similarity_question","","","","","","","","","","","","{""Q0"":5}","[0]","","images/stimuli/spore_stims/complex_06_A_a.gif","images/stimuli/spore_stims/complex_16_A_b.gif"
"","2281.084999907762","survey-likert","148","574639","0.0-40.0","SS1618365448276","similarity_question","","","","","","","","","","","","{""Q0"":4}","[0]","","images/stimuli/spore_stims/complex_08_A_a.gif","images/stimuli/spore_stims/complex_05_A_b.gif"
"","2296.9500001054257","survey-likert","149","576940","0.0-41.0","SS1618365448276","similarity_question","","","","","","","","","","","","{""Q0"":4}","[0]","","images/stimuli/spore_stims/complex_12_A_b.gif","images/stimuli/spore_stims/complex_02_A_a.gif"
"","2312.7550000790507","survey-likert","150","579259","0.0-42.0","SS1618365448276","similarity_question","","","","","","","","","","","","{""Q0"":5}","[0]","","images/stimuli/spore_stims/simple_15_A_b.gif","images/stimuli/spore_stims/simple_03_A_a.gif"
"","2892.6750000100583","survey-likert","151","582157","0.0-43.0","SS1618365448276","similarity_question","","","","","","","","","","","","{""Q0"":5}","[0]","","images/stimuli/spore_stims/simple_09_A_a.gif","images/stimuli/spore_stims/simple_06_A_b.gif"
"","3639.369999989867","survey-likert","152","585801","0.0-44.0","SS1618365448276","similarity_question","","","","","","","","","","","","{""Q0"":6}","[0]","","images/stimuli/spore_stims/complex_01_A_b.gif","images/stimuli/spore_stims/complex_14_A_a.gif"
"[{""page_index"":0,""viewing_time"":4404.229999985546}]","4404.414999997243","instructions","153","590209","0.0-45.0","SS1618365448276","instructions","","","","","","","","","","","","","","","",""
"","3978.6000000312924","survey-likert","154","594192","0.0-46.0","SS1618365448276","","","","","","","","","images/stimuli/spore_stims/complex_12_A_b.gif","","","","{""Q0"":5}","[0]","","",""
"","4118.885000003502","survey-likert","155","598315","0.0-47.0","SS1618365448276","","","","","","","","","images/stimuli/spore_stims/simple_10_A_a.gif","","","","{""Q0"":0}","[0]","","",""
"","1791.620000032708","survey-likert","156","600112","0.0-48.0","SS1618365448276","","","","","","","","","images/stimuli/spore_stims/simple_09_A_a.gif","","","","{""Q0"":1}","[0]","","",""
"","3335.0599999539554","survey-likert","157","603452","0.0-49.0","SS1618365448276","","","","","","","","","images/stimuli/spore_stims/complex_15_A_b.gif","","","","{""Q0"":4}","[0]","","",""
"","2294.4499999284744","survey-likert","158","605750","0.0-50.0","SS1618365448276","","","","","","","","","images/stimuli/spore_stims/simple_05_A_a.gif","","","","{""Q0"":0}","[0]","","",""
"","1671.2700000498444","survey-likert","159","607428","0.0-51.0","SS1618365448276","","","","","","","","","images/stimuli/spore_stims/simple_04_A_b.gif","","","","{""Q0"":1}","[0]","","",""
"","4666.070000035688","survey-likert","160","612098","0.0-52.0","SS1618365448276","","","","","","","","","images/stimuli/spore_stims/complex_01_A_b.gif","","","","{""Q0"":4}","[0]","","",""
"","2755.434999940917","survey-likert","161","614859","0.0-53.0","SS1618365448276","","","","","","","","","images/stimuli/spore_stims/complex_16_A_a.gif","","","","{""Q0"":6}","[0]","","",""
"","1571.4050000533462","survey-likert","162","616435","0.0-54.0","SS1618365448276","","","","","","","","","images/stimuli/spore_stims/complex_06_A_a.gif","","","","{""Q0"":4}","[0]","","",""
"","1771.40500000678","survey-likert","163","618211","0.0-55.0","SS1618365448276","","","","","","","","","images/stimuli/spore_stims/complex_08_A_a.gif","","","","{""Q0"":4}","[0]","","",""
"","1610.270000062883","survey-likert","164","619825","0.0-56.0","SS1618365448276","","","","","","","","","images/stimuli/spore_stims/simple_04_A_a.gif","","","","{""Q0"":1}","[0]","","",""
"","3349.1549999453127","survey-likert","165","623178","0.0-57.0","SS1618365448276","","","","","","","","","images/stimuli/spore_stims/simple_15_A_b.gif","","","","{""Q0"":0}","[0]","","",""
"[{""page_index"":0,""viewing_time"":1428.8800000213087}]","1429.1350001003593","instructions","166","624611","0.0-58.0","SS1618365448276","instructions","","","","","","","","","","","","","","","",""
"","4876.365000149235","demog-age","167","629495","0.0-59.0","SS1618365448276","","","","","","","","","","","","","{""age"":""19""}","","","",""
"","2181.5150000620633","demog-ethnic-US","168","631682","0.0-60.0","SS1618365448276","","","","","","","","","","","","","{""ethnicity"":[""White""]}","[0]","","",""
"","3192.8850000258535","demog-gender-and-education","169","634879","0.0-61.0","SS1618365448276","","","","","","","","","","","","","{""gender"":""Female"",""education"":""High school diploma""}","[0,1]","","",""
"","13943.285000044852","survey-text","170","648828","0.0-62.0","SS1618365448276","feedback","","","","","","","","","","","","{""Q0"":""no""}","","","",""
"[{""page_index"":0,""viewing_time"":1511.0400000121444}]","1511.2850000150502","instructions","171","650343","0.0-63.0","SS1618365448276","instructions","","","","","","","","","","","","","","","",""
