"view_history","rt","trial_type","trial_index","time_elapsed","internal_node_id","subject","stimulus_type","trial_stimulus","key_press","minimum_viewing_duration","trial_looking_time","block_deviant","block_background","exposure_type","stimulus","block_number","block_type","stimulus_displayed","responses","question_order","math_correct_answer","stimulus_left","stimulus_right"
"[{""page_index"":0,""viewing_time"":5950.2900000006775}]","5950.855000000956","instructions","0","5952","0.0-0.0","SS1618365733978","","","","","","","","","","","","","","","","",""
"[{""page_index"":0,""viewing_time"":12109.72000000038},{""page_index"":1,""viewing_time"":5640.339999999924}]","17750.34500000038","instructions","1","25703","0.0-1.0","SS1618365733978","instructions","","","","","","","","","","","","","","","",""
"","4699.015000000145","sequential-stimulus-presentation-old","2","30908","0.0-2.0","SS1618365733978","","","40","500","5199.015000000145","null","null","self_paced","","","","","","","","",""
"","2902.5000000001455","sequential-stimulus-presentation-old","3","34315","0.0-3.0","SS1618365733978","","","40","500","3402.5000000001455","null","null","self_paced","","","","","","","","",""
"[{""page_index"":0,""viewing_time"":9562.835000000632}]","9563.140000000203","instructions","4","43878","0.0-4.0","SS1618365733978","instructions","","","","","","","","","","","","","","","",""
"","9067.070000000967","sequential-stimulus-presentation-old","5","57947","0.0-5.0","SS1618365733978","","","40","500","9567.070000000967","null","null","forced_long","","","","","","","","",""
"","3033.335000000079","sequential-stimulus-presentation-old","6","61033","0.0-6.0","SS1618365733978","","","40","50","3083.335000000079","null","null","forced_long","","","","","","","","",""
"[{""page_index"":0,""viewing_time"":3555.8249999994587}]","3556.1049999996612","instructions","7","64589","0.0-7.0","SS1618365733978","instructions","","","","","","","","","","","","","","","",""
"[{""page_index"":0,""viewing_time"":8733.814999999595},{""page_index"":1,""viewing_time"":4596.6800000005605},{""page_index"":2,""viewing_time"":2891.9850000002043},{""page_index"":3,""viewing_time"":1156.074999998964},{""page_index"":4,""viewing_time"":1184.1800000001967}]","18563.02499999947","instructions","8","83153","0.0-8.0","SS1618365733978","instructions","","","","","","","","","","","","","","","",""
"","null","html-keyboard-response","9","84261","0.0-9.0-0.0","SS1618365733978","","","null","","","","","","<p><img src= images/blank.png width =""600"" height = ""600"" style=""position:fixed;top:50%; left:50%; transform: translate(-50%, -50%); border:5px solid black"">","","","","","","","",""
"","5872.045000000071","sequential-stimulus-presentation-old","10","90640","0.0-9.0-1.0","SS1618365733978","trial","","40","500","6372.045000000071","images/stimuli/spore_stims/complex_11_A_a.gif","images/stimuli/spore_stims/complex_06_A_b.gif","self_paced","","0","complex_dissimilar","images/stimuli/spore_stims/complex_06_A_b.gif","","","","",""
"","null","html-keyboard-response","11","91744","0.0-9.0-0.1","SS1618365733978","","","null","","","","","","<p><img src= images/blank.png width =""600"" height = ""600"" style=""position:fixed;top:50%; left:50%; transform: translate(-50%, -50%); border:5px solid black"">","","","","","","","",""
"","2879.2799999991985","sequential-stimulus-presentation-old","12","95128","0.0-9.0-1.1","SS1618365733978","trial","","40","500","3379.2799999991985","images/stimuli/spore_stims/complex_11_A_a.gif","images/stimuli/spore_stims/complex_06_A_b.gif","self_paced","","0","complex_dissimilar","images/stimuli/spore_stims/complex_06_A_b.gif","","","","",""
"","null","html-keyboard-response","13","95966","0.0-9.0-0.2","SS1618365733978","","","null","","","","","","<p><img src= images/blank.png width =""600"" height = ""600"" style=""position:fixed;top:50%; left:50%; transform: translate(-50%, -50%); border:5px solid black"">","","","","","","","",""
"","1874.2750000001251","sequential-stimulus-presentation-old","14","98344","0.0-9.0-1.2","SS1618365733978","trial","","40","500","2374.275000000125","images/stimuli/spore_stims/complex_11_A_a.gif","images/stimuli/spore_stims/complex_06_A_b.gif","self_paced","","0","complex_dissimilar","images/stimuli/spore_stims/complex_06_A_b.gif","","","","",""
"","null","html-keyboard-response","15","99582","0.0-9.0-0.3","SS1618365733978","","","null","","","","","","<p><img src= images/blank.png width =""600"" height = ""600"" style=""position:fixed;top:50%; left:50%; transform: translate(-50%, -50%); border:5px solid black"">","","","","","","","",""
"","4034.349999999904","sequential-stimulus-presentation-old","16","104121","0.0-9.0-1.3","SS1618365733978","trial","","40","500","4534.349999999904","images/stimuli/spore_stims/complex_11_A_a.gif","images/stimuli/spore_stims/complex_06_A_b.gif","self_paced","","0","complex_dissimilar","images/stimuli/spore_stims/complex_11_A_a.gif","","","","",""
"","null","html-keyboard-response","17","105182","0.0-9.0-0.4","SS1618365733978","","","null","","","","","","<p><img src= images/blank.png width =""600"" height = ""600"" style=""position:fixed;top:50%; left:50%; transform: translate(-50%, -50%); border:5px solid black"">","","","","","","","",""
"","758.0150000012509","sequential-stimulus-presentation-old","18","106447","0.0-9.0-1.4","SS1618365733978","trial","","40","500","1258.0150000012509","images/stimuli/spore_stims/complex_11_A_a.gif","images/stimuli/spore_stims/complex_06_A_b.gif","self_paced","","0","complex_dissimilar","images/stimuli/spore_stims/complex_06_A_b.gif","","","","",""
"","null","html-keyboard-response","19","107751","0.0-9.0-0.5","SS1618365733978","","","null","","","","","","<p><img src= images/blank.png width =""600"" height = ""600"" style=""position:fixed;top:50%; left:50%; transform: translate(-50%, -50%); border:5px solid black"">","","","","","","","",""
"","2311.969999998837","sequential-stimulus-presentation-old","20","110566","0.0-9.0-1.5","SS1618365733978","trial","","40","500","2811.969999998837","images/stimuli/spore_stims/complex_11_A_a.gif","images/stimuli/spore_stims/complex_06_A_b.gif","self_paced","","0","complex_dissimilar","images/stimuli/spore_stims/complex_11_A_a.gif","","","","",""
"","4619.300000000294","survey-multi-choice","21","115188","0.0-10.0","SS1618365733978","math_question","","","","","","","","","","","","{""Q0"":""13""}","[0]","13","",""
"","null","html-keyboard-response","22","115995","0.0-11.0-0.0","SS1618365733978","","","null","","","","","","<p><img src= images/blank.png width =""600"" height = ""600"" style=""position:fixed;top:50%; left:50%; transform: translate(-50%, -50%); border:5px solid black"">","","","","","","","",""
"","1367.4900000005437","sequential-stimulus-presentation-old","23","122366","0.0-11.0-1.0","SS1618365733978","trial","","40","500","1867.4900000005437","images/stimuli/spore_stims/simple_15_A_b.gif","images/stimuli/spore_stims/simple_05_A_a.gif","forced_long","","1","simple_dissimilar","images/stimuli/spore_stims/simple_05_A_a.gif","","","","",""
"","null","html-keyboard-response","24","123392","0.0-11.0-0.1","SS1618365733978","","","null","","","","","","<p><img src= images/blank.png width =""600"" height = ""600"" style=""position:fixed;top:50%; left:50%; transform: translate(-50%, -50%); border:5px solid black"">","","","","","","","",""
"","1532.0900000006077","sequential-stimulus-presentation-old","25","125432","0.0-11.0-1.1","SS1618365733978","trial","","40","500","2032.0900000006077","images/stimuli/spore_stims/simple_15_A_b.gif","images/stimuli/spore_stims/simple_05_A_a.gif","forced_long","","1","simple_dissimilar","images/stimuli/spore_stims/simple_05_A_a.gif","","","","",""
"","null","html-keyboard-response","26","126645","0.0-11.0-0.2","SS1618365733978","","","null","","","","","","<p><img src= images/blank.png width =""600"" height = ""600"" style=""position:fixed;top:50%; left:50%; transform: translate(-50%, -50%); border:5px solid black"">","","","","","","","",""
"","24.234999998967396","sequential-stimulus-presentation-old","27","127174","0.0-11.0-1.2","SS1618365733978","trial","","40","500","524.2349999989674","images/stimuli/spore_stims/simple_15_A_b.gif","images/stimuli/spore_stims/simple_05_A_a.gif","forced_long","","1","simple_dissimilar","images/stimuli/spore_stims/simple_05_A_a.gif","","","","",""
"","null","html-keyboard-response","28","128353","0.0-11.0-0.3","SS1618365733978","","","null","","","","","","<p><img src= images/blank.png width =""600"" height = ""600"" style=""position:fixed;top:50%; left:50%; transform: translate(-50%, -50%); border:5px solid black"">","","","","","","","",""
"","1708.8199999998324","sequential-stimulus-presentation-old","29","130566","0.0-11.0-1.3","SS1618365733978","trial","","40","500","2208.8199999998324","images/stimuli/spore_stims/simple_15_A_b.gif","images/stimuli/spore_stims/simple_05_A_a.gif","forced_long","","1","simple_dissimilar","images/stimuli/spore_stims/simple_05_A_a.gif","","","","",""
"","8495.579999998881","survey-multi-choice","30","139063","0.0-12.0","SS1618365733978","math_question","","","","","","","","","","","","{""Q0"":""15""}","[0]","15","",""
"","null","html-keyboard-response","31","140162","0.0-13.0-0.0","SS1618365733978","","","null","","","","","","<p><img src= images/blank.png width =""600"" height = ""600"" style=""position:fixed;top:50%; left:50%; transform: translate(-50%, -50%); border:5px solid black"">","","","","","","","",""
"","1337.5799999994342","sequential-stimulus-presentation-old","32","141558","0.0-13.0-1.0","SS1618365733978","trial","","40","500","1837.5799999994342","images/stimuli/spore_stims/simple_17_A_b.gif","images/stimuli/spore_stims/simple_07_A_a.gif","forced_short","","2","simple_dissimilar","images/stimuli/spore_stims/simple_07_A_a.gif","","","","",""
"","null","html-keyboard-response","33","142723","0.0-13.0-0.1","SS1618365733978","","","null","","","","","","<p><img src= images/blank.png width =""600"" height = ""600"" style=""position:fixed;top:50%; left:50%; transform: translate(-50%, -50%); border:5px solid black"">","","","","","","","",""
"","5296.255000001111","sequential-stimulus-presentation-old","34","148527","0.0-13.0-1.1","SS1618365733978","trial","","40","500","5796.255000001111","images/stimuli/spore_stims/simple_17_A_b.gif","images/stimuli/spore_stims/simple_07_A_a.gif","forced_short","","2","simple_dissimilar","images/stimuli/spore_stims/simple_07_A_a.gif","","","","",""
"","null","html-keyboard-response","35","149339","0.0-13.0-0.2","SS1618365733978","","","null","","","","","","<p><img src= images/blank.png width =""600"" height = ""600"" style=""position:fixed;top:50%; left:50%; transform: translate(-50%, -50%); border:5px solid black"">","","","","","","","",""
"","1394.765000000887","sequential-stimulus-presentation-old","36","151237","0.0-13.0-1.2","SS1618365733978","trial","","40","500","1894.765000000887","images/stimuli/spore_stims/simple_17_A_b.gif","images/stimuli/spore_stims/simple_07_A_a.gif","forced_short","","2","simple_dissimilar","images/stimuli/spore_stims/simple_07_A_a.gif","","","","",""
"","null","html-keyboard-response","37","152508","0.0-13.0-0.3","SS1618365733978","","","null","","","","","","<p><img src= images/blank.png width =""600"" height = ""600"" style=""position:fixed;top:50%; left:50%; transform: translate(-50%, -50%); border:5px solid black"">","","","","","","","",""
"","1618.800000000163","sequential-stimulus-presentation-old","38","154629","0.0-13.0-1.3","SS1618365733978","trial","","40","500","2118.800000000163","images/stimuli/spore_stims/simple_17_A_b.gif","images/stimuli/spore_stims/simple_07_A_a.gif","forced_short","","2","simple_dissimilar","images/stimuli/spore_stims/simple_07_A_a.gif","","","","",""
"","2971.8049999992363","survey-multi-choice","39","157602","0.0-14.0","SS1618365733978","math_question","","","","","","","","","","","","{""Q0"":""10""}","[0]","10","",""
"","null","html-keyboard-response","40","158878","0.0-15.0-0.0","SS1618365733978","","","null","","","","","","<p><img src= images/blank.png width =""600"" height = ""600"" style=""position:fixed;top:50%; left:50%; transform: translate(-50%, -50%); border:5px solid black"">","","","","","","","",""
"","3605.7099999998172","sequential-stimulus-presentation-old","41","162542","0.0-15.0-1.0","SS1618365733978","trial","","40","500","4105.709999999817","images/stimuli/spore_stims/complex_15_A_b.gif","images/stimuli/spore_stims/complex_04_A_a.gif","forced_short","","3","complex_dissimilar","images/stimuli/spore_stims/complex_04_A_a.gif","","","","",""
"","null","html-keyboard-response","42","163481","0.0-15.0-0.1","SS1618365733978","","","null","","","","","","<p><img src= images/blank.png width =""600"" height = ""600"" style=""position:fixed;top:50%; left:50%; transform: translate(-50%, -50%); border:5px solid black"">","","","","","","","",""
"","10458.570000000705","sequential-stimulus-presentation-old","43","174445","0.0-15.0-1.1","SS1618365733978","trial","","40","500","10958.570000000705","images/stimuli/spore_stims/complex_15_A_b.gif","images/stimuli/spore_stims/complex_04_A_a.gif","forced_short","","3","complex_dissimilar","images/stimuli/spore_stims/complex_15_A_b.gif","","","","",""
"","null","html-keyboard-response","44","175428","0.0-15.0-0.2","SS1618365733978","","","null","","","","","","<p><img src= images/blank.png width =""600"" height = ""600"" style=""position:fixed;top:50%; left:50%; transform: translate(-50%, -50%); border:5px solid black"">","","","","","","","",""
"","4763.745000000199","sequential-stimulus-presentation-old","45","180700","0.0-15.0-1.2","SS1618365733978","trial","","40","500","5263.745000000199","images/stimuli/spore_stims/complex_15_A_b.gif","images/stimuli/spore_stims/complex_04_A_a.gif","forced_short","","3","complex_dissimilar","images/stimuli/spore_stims/complex_15_A_b.gif","","","","",""
"","null","html-keyboard-response","46","181658","0.0-15.0-0.3","SS1618365733978","","","null","","","","","","<p><img src= images/blank.png width =""600"" height = ""600"" style=""position:fixed;top:50%; left:50%; transform: translate(-50%, -50%); border:5px solid black"">","","","","","","","",""
"","2083.6199999994133","sequential-stimulus-presentation-old","47","184244","0.0-15.0-1.3","SS1618365733978","trial","","40","500","2583.6199999994133","images/stimuli/spore_stims/complex_15_A_b.gif","images/stimuli/spore_stims/complex_04_A_a.gif","forced_short","","3","complex_dissimilar","images/stimuli/spore_stims/complex_04_A_a.gif","","","","",""
"","3121.6949999998324","survey-multi-choice","48","187368","0.0-16.0","SS1618365733978","math_question","","","","","","","","","","","","{""Q0"":""9""}","[0]","9","",""
"","null","html-keyboard-response","49","188637","0.0-17.0-0.0","SS1618365733978","","","null","","","","","","<p><img src= images/blank.png width =""600"" height = ""600"" style=""position:fixed;top:50%; left:50%; transform: translate(-50%, -50%); border:5px solid black"">","","","","","","","",""
"","746.5950000004959","sequential-stimulus-presentation-old","50","194387","0.0-17.0-1.0","SS1618365733978","trial","","40","500","1246.595000000496","images/stimuli/spore_stims/complex_19_A_b.gif","images/stimuli/spore_stims/complex_15_A_a.gif","forced_long","","4","complex_dissimilar","images/stimuli/spore_stims/complex_15_A_a.gif","","","","",""
"","null","html-keyboard-response","51","195628","0.0-17.0-0.1","SS1618365733978","","","null","","","","","","<p><img src= images/blank.png width =""600"" height = ""600"" style=""position:fixed;top:50%; left:50%; transform: translate(-50%, -50%); border:5px solid black"">","","","","","","","",""
"","2060.8899999988207","sequential-stimulus-presentation-old","52","198196","0.0-17.0-1.1","SS1618365733978","trial","","40","500","2560.8899999988207","images/stimuli/spore_stims/complex_19_A_b.gif","images/stimuli/spore_stims/complex_15_A_a.gif","forced_long","","4","complex_dissimilar","images/stimuli/spore_stims/complex_19_A_b.gif","","","","",""
"","null","html-keyboard-response","53","199438","0.0-17.0-0.2","SS1618365733978","","","null","","","","","","<p><img src= images/blank.png width =""600"" height = ""600"" style=""position:fixed;top:50%; left:50%; transform: translate(-50%, -50%); border:5px solid black"">","","","","","","","",""
"","2069.6099999986473","sequential-stimulus-presentation-old","54","202011","0.0-17.0-1.2","SS1618365733978","trial","","40","500","2569.6099999986473","images/stimuli/spore_stims/complex_19_A_b.gif","images/stimuli/spore_stims/complex_15_A_a.gif","forced_long","","4","complex_dissimilar","images/stimuli/spore_stims/complex_19_A_b.gif","","","","",""
"","null","html-keyboard-response","55","203164","0.0-17.0-0.3","SS1618365733978","","","null","","","","","","<p><img src= images/blank.png width =""600"" height = ""600"" style=""position:fixed;top:50%; left:50%; transform: translate(-50%, -50%); border:5px solid black"">","","","","","","","",""
"","4687.985000000452","sequential-stimulus-presentation-old","56","208356","0.0-17.0-1.3","SS1618365733978","trial","","40","500","5187.985000000452","images/stimuli/spore_stims/complex_19_A_b.gif","images/stimuli/spore_stims/complex_15_A_a.gif","forced_long","","4","complex_dissimilar","images/stimuli/spore_stims/complex_15_A_a.gif","","","","",""
"","null","html-keyboard-response","57","209550","0.0-17.0-0.4","SS1618365733978","","","null","","","","","","<p><img src= images/blank.png width =""600"" height = ""600"" style=""position:fixed;top:50%; left:50%; transform: translate(-50%, -50%); border:5px solid black"">","","","","","","","",""
"","1961.0799999991432","sequential-stimulus-presentation-old","58","212018","0.0-17.0-1.4","SS1618365733978","trial","","40","500","2461.079999999143","images/stimuli/spore_stims/complex_19_A_b.gif","images/stimuli/spore_stims/complex_15_A_a.gif","forced_long","","4","complex_dissimilar","images/stimuli/spore_stims/complex_15_A_a.gif","","","","",""
"","null","html-keyboard-response","59","213045","0.0-17.0-0.5","SS1618365733978","","","null","","","","","","<p><img src= images/blank.png width =""600"" height = ""600"" style=""position:fixed;top:50%; left:50%; transform: translate(-50%, -50%); border:5px solid black"">","","","","","","","",""
"","619.6849999996775","sequential-stimulus-presentation-old","60","214170","0.0-17.0-1.5","SS1618365733978","trial","","40","500","1119.6849999996775","images/stimuli/spore_stims/complex_19_A_b.gif","images/stimuli/spore_stims/complex_15_A_a.gif","forced_long","","4","complex_dissimilar","images/stimuli/spore_stims/complex_15_A_a.gif","","","","",""
"","2558.209999999235","survey-multi-choice","61","216730","0.0-18.0","SS1618365733978","math_question","","","","","","","","","","","","{""Q0"":""9""}","[0]","9","",""
"","null","html-keyboard-response","62","217687","0.0-19.0-0.0","SS1618365733978","","","null","","","","","","<p><img src= images/blank.png width =""600"" height = ""600"" style=""position:fixed;top:50%; left:50%; transform: translate(-50%, -50%); border:5px solid black"">","","","","","","","",""
"","1504.5350000000326","sequential-stimulus-presentation-old","63","219251","0.0-19.0-1.0","SS1618365733978","trial","","40","500","2004.5350000000326","images/stimuli/spore_stims/simple_17_A_a.gif","images/stimuli/spore_stims/simple_06_A_b.gif","forced_short","","5","simple_dissimilar","images/stimuli/spore_stims/simple_06_A_b.gif","","","","",""
"","null","html-keyboard-response","64","220273","0.0-19.0-0.1","SS1618365733978","","","null","","","","","","<p><img src= images/blank.png width =""600"" height = ""600"" style=""position:fixed;top:50%; left:50%; transform: translate(-50%, -50%); border:5px solid black"">","","","","","","","",""
"","2555.0149999999267","sequential-stimulus-presentation-old","65","223330","0.0-19.0-1.1","SS1618365733978","trial","","40","500","3055.0149999999267","images/stimuli/spore_stims/simple_17_A_a.gif","images/stimuli/spore_stims/simple_06_A_b.gif","forced_short","","5","simple_dissimilar","images/stimuli/spore_stims/simple_06_A_b.gif","","","","",""
"","null","html-keyboard-response","66","224632","0.0-19.0-0.2","SS1618365733978","","","null","","","","","","<p><img src= images/blank.png width =""600"" height = ""600"" style=""position:fixed;top:50%; left:50%; transform: translate(-50%, -50%); border:5px solid black"">","","","","","","","",""
"","915.6399999992573","sequential-stimulus-presentation-old","67","226051","0.0-19.0-1.2","SS1618365733978","trial","","40","500","1415.6399999992573","images/stimuli/spore_stims/simple_17_A_a.gif","images/stimuli/spore_stims/simple_06_A_b.gif","forced_short","","5","simple_dissimilar","images/stimuli/spore_stims/simple_06_A_b.gif","","","","",""
"","null","html-keyboard-response","68","227114","0.0-19.0-0.3","SS1618365733978","","","null","","","","","","<p><img src= images/blank.png width =""600"" height = ""600"" style=""position:fixed;top:50%; left:50%; transform: translate(-50%, -50%); border:5px solid black"">","","","","","","","",""
"","999.8849999992817","sequential-stimulus-presentation-old","69","228618","0.0-19.0-1.3","SS1618365733978","trial","","40","500","1499.8849999992817","images/stimuli/spore_stims/simple_17_A_a.gif","images/stimuli/spore_stims/simple_06_A_b.gif","forced_short","","5","simple_dissimilar","images/stimuli/spore_stims/simple_06_A_b.gif","","","","",""
"","null","html-keyboard-response","70","229600","0.0-19.0-0.4","SS1618365733978","","","null","","","","","","<p><img src= images/blank.png width =""600"" height = ""600"" style=""position:fixed;top:50%; left:50%; transform: translate(-50%, -50%); border:5px solid black"">","","","","","","","",""
"","300.44499999895925","sequential-stimulus-presentation-old","71","230404","0.0-19.0-1.4","SS1618365733978","trial","","40","500","800.4449999989592","images/stimuli/spore_stims/simple_17_A_a.gif","images/stimuli/spore_stims/simple_06_A_b.gif","forced_short","","5","simple_dissimilar","images/stimuli/spore_stims/simple_06_A_b.gif","","","","",""
"","null","html-keyboard-response","72","231501","0.0-19.0-0.5","SS1618365733978","","","null","","","","","","<p><img src= images/blank.png width =""600"" height = ""600"" style=""position:fixed;top:50%; left:50%; transform: translate(-50%, -50%); border:5px solid black"">","","","","","","","",""
"","1147.9049999998242","sequential-stimulus-presentation-old","73","233153","0.0-19.0-1.5","SS1618365733978","trial","","40","500","1647.9049999998242","images/stimuli/spore_stims/simple_17_A_a.gif","images/stimuli/spore_stims/simple_06_A_b.gif","forced_short","","5","simple_dissimilar","images/stimuli/spore_stims/simple_06_A_b.gif","","","","",""
"","2951.125000001397","survey-multi-choice","74","236106","0.0-20.0","SS1618365733978","math_question","","","","","","","","","","","","{""Q0"":""11""}","[0]","11","",""
"","null","html-keyboard-response","75","237197","0.0-21.0-0.0","SS1618365733978","","","null","","","","","","<p><img src= images/blank.png width =""600"" height = ""600"" style=""position:fixed;top:50%; left:50%; transform: translate(-50%, -50%); border:5px solid black"">","","","","","","","",""
"","4419.989999998506","sequential-stimulus-presentation-old","76","242123","0.0-21.0-1.0","SS1618365733978","trial","","40","500","4919.989999998506","images/stimuli/spore_stims/simple_18_A_a.gif","images/stimuli/spore_stims/simple_08_A_b.gif","self_paced","","6","simple_dissimilar","images/stimuli/spore_stims/simple_08_A_b.gif","","","","",""
"","null","html-keyboard-response","77","243429","0.0-21.0-0.1","SS1618365733978","","","null","","","","","","<p><img src= images/blank.png width =""600"" height = ""600"" style=""position:fixed;top:50%; left:50%; transform: translate(-50%, -50%); border:5px solid black"">","","","","","","","",""
"","2521.539999999717","sequential-stimulus-presentation-old","78","246459","0.0-21.0-1.1","SS1618365733978","trial","","40","500","3021.539999999717","images/stimuli/spore_stims/simple_18_A_a.gif","images/stimuli/spore_stims/simple_08_A_b.gif","self_paced","","6","simple_dissimilar","images/stimuli/spore_stims/simple_18_A_a.gif","","","","",""
"","null","html-keyboard-response","79","247480","0.0-21.0-0.2","SS1618365733978","","","null","","","","","","<p><img src= images/blank.png width =""600"" height = ""600"" style=""position:fixed;top:50%; left:50%; transform: translate(-50%, -50%); border:5px solid black"">","","","","","","","",""
"","198.09499999973923","sequential-stimulus-presentation-old","80","248185","0.0-21.0-1.2","SS1618365733978","trial","","40","500","698.0949999997392","images/stimuli/spore_stims/simple_18_A_a.gif","images/stimuli/spore_stims/simple_08_A_b.gif","self_paced","","6","simple_dissimilar","images/stimuli/spore_stims/simple_18_A_a.gif","","","","",""
"","null","html-keyboard-response","81","249042","0.0-21.0-0.3","SS1618365733978","","","null","","","","","","<p><img src= images/blank.png width =""600"" height = ""600"" style=""position:fixed;top:50%; left:50%; transform: translate(-50%, -50%); border:5px solid black"">","","","","","","","",""
"","1771.199999999255","sequential-stimulus-presentation-old","82","251321","0.0-21.0-1.3","SS1618365733978","trial","","40","500","2271.199999999255","images/stimuli/spore_stims/simple_18_A_a.gif","images/stimuli/spore_stims/simple_08_A_b.gif","self_paced","","6","simple_dissimilar","images/stimuli/spore_stims/simple_08_A_b.gif","","","","",""
"","null","html-keyboard-response","83","252277","0.0-21.0-0.4","SS1618365733978","","","null","","","","","","<p><img src= images/blank.png width =""600"" height = ""600"" style=""position:fixed;top:50%; left:50%; transform: translate(-50%, -50%); border:5px solid black"">","","","","","","","",""
"","731.6900000005262","sequential-stimulus-presentation-old","84","253513","0.0-21.0-1.4","SS1618365733978","trial","","40","500","1231.6900000005262","images/stimuli/spore_stims/simple_18_A_a.gif","images/stimuli/spore_stims/simple_08_A_b.gif","self_paced","","6","simple_dissimilar","images/stimuli/spore_stims/simple_08_A_b.gif","","","","",""
"","2742.3749999998254","survey-multi-choice","85","256258","0.0-22.0","SS1618365733978","math_question","","","","","","","","","","","","{""Q0"":""3""}","[0]","3","",""
"","null","html-keyboard-response","86","257241","0.0-23.0-0.0","SS1618365733978","","","null","","","","","","<p><img src= images/blank.png width =""600"" height = ""600"" style=""position:fixed;top:50%; left:50%; transform: translate(-50%, -50%); border:5px solid black"">","","","","","","","",""
"","3114.924999999872","sequential-stimulus-presentation-old","87","260865","0.0-23.0-1.0","SS1618365733978","trial","","40","500","3614.924999999872","images/stimuli/spore_stims/complex_10_A_b.gif","images/stimuli/spore_stims/complex_01_A_a.gif","self_paced","","7","complex_dissimilar","images/stimuli/spore_stims/complex_01_A_a.gif","","","","",""
"","null","html-keyboard-response","88","261839","0.0-23.0-0.1","SS1618365733978","","","null","","","","","","<p><img src= images/blank.png width =""600"" height = ""600"" style=""position:fixed;top:50%; left:50%; transform: translate(-50%, -50%); border:5px solid black"">","","","","","","","",""
"","850.6999999990221","sequential-stimulus-presentation-old","89","263201","0.0-23.0-1.1","SS1618365733978","trial","","40","500","1350.699999999022","images/stimuli/spore_stims/complex_10_A_b.gif","images/stimuli/spore_stims/complex_01_A_a.gif","self_paced","","7","complex_dissimilar","images/stimuli/spore_stims/complex_01_A_a.gif","","","","",""
"","null","html-keyboard-response","90","264426","0.0-23.0-0.2","SS1618365733978","","","null","","","","","","<p><img src= images/blank.png width =""600"" height = ""600"" style=""position:fixed;top:50%; left:50%; transform: translate(-50%, -50%); border:5px solid black"">","","","","","","","",""
"","603.4049999997951","sequential-stimulus-presentation-old","91","265538","0.0-23.0-1.2","SS1618365733978","trial","","40","500","1103.404999999795","images/stimuli/spore_stims/complex_10_A_b.gif","images/stimuli/spore_stims/complex_01_A_a.gif","self_paced","","7","complex_dissimilar","images/stimuli/spore_stims/complex_01_A_a.gif","","","","",""
"","null","html-keyboard-response","92","266777","0.0-23.0-0.3","SS1618365733978","","","null","","","","","","<p><img src= images/blank.png width =""600"" height = ""600"" style=""position:fixed;top:50%; left:50%; transform: translate(-50%, -50%); border:5px solid black"">","","","","","","","",""
"","2349.0400000009686","sequential-stimulus-presentation-old","93","269632","0.0-23.0-1.3","SS1618365733978","trial","","40","500","2849.0400000009686","images/stimuli/spore_stims/complex_10_A_b.gif","images/stimuli/spore_stims/complex_01_A_a.gif","self_paced","","7","complex_dissimilar","images/stimuli/spore_stims/complex_10_A_b.gif","","","","",""
"","2978.6750000002794","survey-multi-choice","94","272612","0.0-24.0","SS1618365733978","math_question","","","","","","","","","","","","{""Q0"":""6""}","[0]","6","",""
"","null","html-keyboard-response","95","273785","0.0-25.0-0.0","SS1618365733978","","","null","","","","","","<p><img src= images/blank.png width =""600"" height = ""600"" style=""position:fixed;top:50%; left:50%; transform: translate(-50%, -50%); border:5px solid black"">","","","","","","","",""
"","1337.864999999525","sequential-stimulus-presentation-old","96","280128","0.0-25.0-1.0","SS1618365733978","trial","","40","500","1837.864999999525","images/stimuli/spore_stims/complex_09_A_b.gif","images/stimuli/spore_stims/complex_12_A_a.gif","forced_long","","8","complex_dissimilar","images/stimuli/spore_stims/complex_12_A_a.gif","","","","",""
"","null","html-keyboard-response","97","281245","0.0-25.0-0.1","SS1618365733978","","","null","","","","","","<p><img src= images/blank.png width =""600"" height = ""600"" style=""position:fixed;top:50%; left:50%; transform: translate(-50%, -50%); border:5px solid black"">","","","","","","","",""
"","410.41000000044005","sequential-stimulus-presentation-old","98","282160","0.0-25.0-1.1","SS1618365733978","trial","","40","500","910.41000000044","images/stimuli/spore_stims/complex_09_A_b.gif","images/stimuli/spore_stims/complex_12_A_a.gif","forced_long","","8","complex_dissimilar","images/stimuli/spore_stims/complex_12_A_a.gif","","","","",""
"","null","html-keyboard-response","99","283338","0.0-25.0-0.2","SS1618365733978","","","null","","","","","","<p><img src= images/blank.png width =""600"" height = ""600"" style=""position:fixed;top:50%; left:50%; transform: translate(-50%, -50%); border:5px solid black"">","","","","","","","",""
"","3191.064999999071","sequential-stimulus-presentation-old","100","287033","0.0-25.0-1.2","SS1618365733978","trial","","40","500","3691.064999999071","images/stimuli/spore_stims/complex_09_A_b.gif","images/stimuli/spore_stims/complex_12_A_a.gif","forced_long","","8","complex_dissimilar","images/stimuli/spore_stims/complex_09_A_b.gif","","","","",""
"","null","html-keyboard-response","101","288203","0.0-25.0-0.3","SS1618365733978","","","null","","","","","","<p><img src= images/blank.png width =""600"" height = ""600"" style=""position:fixed;top:50%; left:50%; transform: translate(-50%, -50%); border:5px solid black"">","","","","","","","",""
"","186.5350000007311","sequential-stimulus-presentation-old","102","288895","0.0-25.0-1.3","SS1618365733978","trial","","40","500","686.5350000007311","images/stimuli/spore_stims/complex_09_A_b.gif","images/stimuli/spore_stims/complex_12_A_a.gif","forced_long","","8","complex_dissimilar","images/stimuli/spore_stims/complex_12_A_a.gif","","","","",""
"","null","html-keyboard-response","103","290190","0.0-25.0-0.4","SS1618365733978","","","null","","","","","","<p><img src= images/blank.png width =""600"" height = ""600"" style=""position:fixed;top:50%; left:50%; transform: translate(-50%, -50%); border:5px solid black"">","","","","","","","",""
"","97.29999999946449","sequential-stimulus-presentation-old","104","290791","0.0-25.0-1.4","SS1618365733978","trial","","40","500","597.2999999994645","images/stimuli/spore_stims/complex_09_A_b.gif","images/stimuli/spore_stims/complex_12_A_a.gif","forced_long","","8","complex_dissimilar","images/stimuli/spore_stims/complex_09_A_b.gif","","","","",""
"","2849.825000001176","survey-multi-choice","105","293643","0.0-26.0","SS1618365733978","math_question","","","","","","","","","","","","{""Q0"":""6""}","[0]","6","",""
"","null","html-keyboard-response","106","294702","0.0-27.0-0.0","SS1618365733978","","","null","","","","","","<p><img src= images/blank.png width =""600"" height = ""600"" style=""position:fixed;top:50%; left:50%; transform: translate(-50%, -50%); border:5px solid black"">","","","","","","","",""
"","936.389999998908","sequential-stimulus-presentation-old","107","295694","0.0-27.0-1.0","SS1618365733978","trial","","40","500","1436.389999998908","images/stimuli/spore_stims/complex_13_A_a.gif","images/stimuli/spore_stims/complex_17_A_b.gif","forced_short","","9","complex_dissimilar","images/stimuli/spore_stims/complex_17_A_b.gif","","","","",""
"","null","html-keyboard-response","108","296637","0.0-27.0-0.1","SS1618365733978","","","null","","","","","","<p><img src= images/blank.png width =""600"" height = ""600"" style=""position:fixed;top:50%; left:50%; transform: translate(-50%, -50%); border:5px solid black"">","","","","","","","",""
"","6977.3100000002305","sequential-stimulus-presentation-old","109","304120","0.0-27.0-1.1","SS1618365733978","trial","","40","500","7477.3100000002305","images/stimuli/spore_stims/complex_13_A_a.gif","images/stimuli/spore_stims/complex_17_A_b.gif","forced_short","","9","complex_dissimilar","images/stimuli/spore_stims/complex_17_A_b.gif","","","","",""
"","null","html-keyboard-response","110","305349","0.0-27.0-0.2","SS1618365733978","","","null","","","","","","<p><img src= images/blank.png width =""600"" height = ""600"" style=""position:fixed;top:50%; left:50%; transform: translate(-50%, -50%); border:5px solid black"">","","","","","","","",""
"","3201.1650000003865","sequential-stimulus-presentation-old","111","309055","0.0-27.0-1.2","SS1618365733978","trial","","40","500","3701.1650000003865","images/stimuli/spore_stims/complex_13_A_a.gif","images/stimuli/spore_stims/complex_17_A_b.gif","forced_short","","9","complex_dissimilar","images/stimuli/spore_stims/complex_17_A_b.gif","","","","",""
"","null","html-keyboard-response","112","309964","0.0-27.0-0.3","SS1618365733978","","","null","","","","","","<p><img src= images/blank.png width =""600"" height = ""600"" style=""position:fixed;top:50%; left:50%; transform: translate(-50%, -50%); border:5px solid black"">","","","","","","","",""
"","2565.565000000759","sequential-stimulus-presentation-old","113","313038","0.0-27.0-1.3","SS1618365733978","trial","","40","500","3065.565000000759","images/stimuli/spore_stims/complex_13_A_a.gif","images/stimuli/spore_stims/complex_17_A_b.gif","forced_short","","9","complex_dissimilar","images/stimuli/spore_stims/complex_13_A_a.gif","","","","",""
"","null","html-keyboard-response","114","314058","0.0-27.0-0.4","SS1618365733978","","","null","","","","","","<p><img src= images/blank.png width =""600"" height = ""600"" style=""position:fixed;top:50%; left:50%; transform: translate(-50%, -50%); border:5px solid black"">","","","","","","","",""
"","1330.5600000002887","sequential-stimulus-presentation-old","115","315895","0.0-27.0-1.4","SS1618365733978","trial","","40","500","1830.5600000002887","images/stimuli/spore_stims/complex_13_A_a.gif","images/stimuli/spore_stims/complex_17_A_b.gif","forced_short","","9","complex_dissimilar","images/stimuli/spore_stims/complex_17_A_b.gif","","","","",""
"","null","html-keyboard-response","116","317142","0.0-27.0-0.5","SS1618365733978","","","null","","","","","","<p><img src= images/blank.png width =""600"" height = ""600"" style=""position:fixed;top:50%; left:50%; transform: translate(-50%, -50%); border:5px solid black"">","","","","","","","",""
"","107.53500000096392","sequential-stimulus-presentation-old","117","317758","0.0-27.0-1.5","SS1618365733978","trial","","40","500","607.5350000009639","images/stimuli/spore_stims/complex_13_A_a.gif","images/stimuli/spore_stims/complex_17_A_b.gif","forced_short","","9","complex_dissimilar","images/stimuli/spore_stims/complex_13_A_a.gif","","","","",""
"","3233.0300000012503","survey-multi-choice","118","320995","0.0-28.0","SS1618365733978","math_question","","","","","","","","","","","","{""Q0"":""14""}","[0]","14","",""
"","null","html-keyboard-response","119","322099","0.0-29.0-0.0","SS1618365733978","","","null","","","","","","<p><img src= images/blank.png width =""600"" height = ""600"" style=""position:fixed;top:50%; left:50%; transform: translate(-50%, -50%); border:5px solid black"">","","","","","","","",""
"","612.885000000475","sequential-stimulus-presentation-old","120","327718","0.0-29.0-1.0","SS1618365733978","trial","","40","500","1112.885000000475","images/stimuli/spore_stims/simple_18_A_b.gif","images/stimuli/spore_stims/simple_12_A_a.gif","forced_long","","10","simple_dissimilar","images/stimuli/spore_stims/simple_12_A_a.gif","","","","",""
"","null","html-keyboard-response","121","328803","0.0-29.0-0.1","SS1618365733978","","","null","","","","","","<p><img src= images/blank.png width =""600"" height = ""600"" style=""position:fixed;top:50%; left:50%; transform: translate(-50%, -50%); border:5px solid black"">","","","","","","","",""
"","327.1050000002724","sequential-stimulus-presentation-old","122","329637","0.0-29.0-1.1","SS1618365733978","trial","","40","500","827.1050000002724","images/stimuli/spore_stims/simple_18_A_b.gif","images/stimuli/spore_stims/simple_12_A_a.gif","forced_long","","10","simple_dissimilar","images/stimuli/spore_stims/simple_12_A_a.gif","","","","",""
"","null","html-keyboard-response","123","330896","0.0-29.0-0.2","SS1618365733978","","","null","","","","","","<p><img src= images/blank.png width =""600"" height = ""600"" style=""position:fixed;top:50%; left:50%; transform: translate(-50%, -50%); border:5px solid black"">","","","","","","","",""
"","278.0349999993923","sequential-stimulus-presentation-old","124","331677","0.0-29.0-1.2","SS1618365733978","trial","","40","500","778.0349999993923","images/stimuli/spore_stims/simple_18_A_b.gif","images/stimuli/spore_stims/simple_12_A_a.gif","forced_long","","10","simple_dissimilar","images/stimuli/spore_stims/simple_18_A_b.gif","","","","",""
"","null","html-keyboard-response","125","332507","0.0-29.0-0.3","SS1618365733978","","","null","","","","","","<p><img src= images/blank.png width =""600"" height = ""600"" style=""position:fixed;top:50%; left:50%; transform: translate(-50%, -50%); border:5px solid black"">","","","","","","","",""
"","14.230000000679865","sequential-stimulus-presentation-old","126","333029","0.0-29.0-1.3","SS1618365733978","trial","","40","500","514.2300000006799","images/stimuli/spore_stims/simple_18_A_b.gif","images/stimuli/spore_stims/simple_12_A_a.gif","forced_long","","10","simple_dissimilar","images/stimuli/spore_stims/simple_12_A_a.gif","","","","",""
"","null","html-keyboard-response","127","334083","0.0-29.0-0.4","SS1618365733978","","","null","","","","","","<p><img src= images/blank.png width =""600"" height = ""600"" style=""position:fixed;top:50%; left:50%; transform: translate(-50%, -50%); border:5px solid black"">","","","","","","","",""
"","2002.4650000014226","sequential-stimulus-presentation-old","128","336590","0.0-29.0-1.4","SS1618365733978","trial","","40","500","2502.4650000014226","images/stimuli/spore_stims/simple_18_A_b.gif","images/stimuli/spore_stims/simple_12_A_a.gif","forced_long","","10","simple_dissimilar","images/stimuli/spore_stims/simple_12_A_a.gif","","","","",""
"","null","html-keyboard-response","129","337614","0.0-29.0-0.5","SS1618365733978","","","null","","","","","","<p><img src= images/blank.png width =""600"" height = ""600"" style=""position:fixed;top:50%; left:50%; transform: translate(-50%, -50%); border:5px solid black"">","","","","","","","",""
"","173.9049999996787","sequential-stimulus-presentation-old","130","338293","0.0-29.0-1.5","SS1618365733978","trial","","40","500","673.9049999996787","images/stimuli/spore_stims/simple_18_A_b.gif","images/stimuli/spore_stims/simple_12_A_a.gif","forced_long","","10","simple_dissimilar","images/stimuli/spore_stims/simple_18_A_b.gif","","","","",""
"","7208.815000000002","survey-multi-choice","131","345505","0.0-30.0","SS1618365733978","math_question","","","","","","","","","","","","{""Q0"":""12""}","[0]","12","",""
"","null","html-keyboard-response","132","346625","0.0-31.0-0.0","SS1618365733978","","","null","","","","","","<p><img src= images/blank.png width =""600"" height = ""600"" style=""position:fixed;top:50%; left:50%; transform: translate(-50%, -50%); border:5px solid black"">","","","","","","","",""
"","1137.469999999681","sequential-stimulus-presentation-old","133","348270","0.0-31.0-1.0","SS1618365733978","trial","","40","500","1637.469999999681","images/stimuli/spore_stims/simple_05_A_b.gif","images/stimuli/spore_stims/simple_04_A_a.gif","self_paced","","11","simple_dissimilar","images/stimuli/spore_stims/simple_04_A_a.gif","","","","",""
"","null","html-keyboard-response","134","349108","0.0-31.0-0.1","SS1618365733978","","","null","","","","","","<p><img src= images/blank.png width =""600"" height = ""600"" style=""position:fixed;top:50%; left:50%; transform: translate(-50%, -50%); border:5px solid black"">","","","","","","","",""
"","77.58000000106404","sequential-stimulus-presentation-old","135","349693","0.0-31.0-1.1","SS1618365733978","trial","","40","500","577.580000001064","images/stimuli/spore_stims/simple_05_A_b.gif","images/stimuli/spore_stims/simple_04_A_a.gif","self_paced","","11","simple_dissimilar","images/stimuli/spore_stims/simple_04_A_a.gif","","","","",""
"","null","html-keyboard-response","136","350650","0.0-31.0-0.2","SS1618365733978","","","null","","","","","","<p><img src= images/blank.png width =""600"" height = ""600"" style=""position:fixed;top:50%; left:50%; transform: translate(-50%, -50%); border:5px solid black"">","","","","","","","",""
"","1074.2949999985285","sequential-stimulus-presentation-old","137","352228","0.0-31.0-1.2","SS1618365733978","trial","","40","500","1574.2949999985285","images/stimuli/spore_stims/simple_05_A_b.gif","images/stimuli/spore_stims/simple_04_A_a.gif","self_paced","","11","simple_dissimilar","images/stimuli/spore_stims/simple_04_A_a.gif","","","","",""
"","null","html-keyboard-response","138","353412","0.0-31.0-0.3","SS1618365733978","","","null","","","","","","<p><img src= images/blank.png width =""600"" height = ""600"" style=""position:fixed;top:50%; left:50%; transform: translate(-50%, -50%); border:5px solid black"">","","","","","","","",""
"","445.9800000003888","sequential-stimulus-presentation-old","139","354364","0.0-31.0-1.3","SS1618365733978","trial","","40","500","945.9800000003888","images/stimuli/spore_stims/simple_05_A_b.gif","images/stimuli/spore_stims/simple_04_A_a.gif","self_paced","","11","simple_dissimilar","images/stimuli/spore_stims/simple_05_A_b.gif","","","","",""
"","null","html-keyboard-response","140","355358","0.0-31.0-0.4","SS1618365733978","","","null","","","","","","<p><img src= images/blank.png width =""600"" height = ""600"" style=""position:fixed;top:50%; left:50%; transform: translate(-50%, -50%); border:5px solid black"">","","","","","","","",""
"","442.9950000012177","sequential-stimulus-presentation-old","141","356308","0.0-31.0-1.4","SS1618365733978","trial","","40","500","942.9950000012177","images/stimuli/spore_stims/simple_05_A_b.gif","images/stimuli/spore_stims/simple_04_A_a.gif","self_paced","","11","simple_dissimilar","images/stimuli/spore_stims/simple_05_A_b.gif","","","","",""
"","null","html-keyboard-response","142","357450","0.0-31.0-0.5","SS1618365733978","","","null","","","","","","<p><img src= images/blank.png width =""600"" height = ""600"" style=""position:fixed;top:50%; left:50%; transform: translate(-50%, -50%); border:5px solid black"">","","","","","","","",""
"","687.7349999995204","sequential-stimulus-presentation-old","143","358646","0.0-31.0-1.5","SS1618365733978","trial","","40","500","1187.7349999995204","images/stimuli/spore_stims/simple_05_A_b.gif","images/stimuli/spore_stims/simple_04_A_a.gif","self_paced","","11","simple_dissimilar","images/stimuli/spore_stims/simple_04_A_a.gif","","","","",""
"[{""page_index"":0,""viewing_time"":3891.1900000002934}]","3891.4499999991967","instructions","144","362540","0.0-32.0","SS1618365733978","instructions","","","","","","","","","","","","","","","",""
"","18877.8999999995","survey-likert","145","381421","0.0-33.0","SS1618365733978","similarity_question","","","","","","","","","","","","{""Q0"":2}","[0]","","images/stimuli/spore_stims/complex_17_A_b.gif","images/stimuli/spore_stims/complex_13_A_a.gif"
"","6287.854999998643","survey-likert","146","387716","0.0-34.0","SS1618365733978","similarity_question","","","","","","","","","","","","{""Q0"":1}","[0]","","images/stimuli/spore_stims/complex_04_A_a.gif","images/stimuli/spore_stims/complex_15_A_b.gif"
"","6224.920000000566","survey-likert","147","393951","0.0-35.0","SS1618365733978","similarity_question","","","","","","","","","","","","{""Q0"":5}","[0]","","images/stimuli/spore_stims/simple_06_A_b.gif","images/stimuli/spore_stims/simple_17_A_a.gif"
"","6282.390000000305","survey-likert","148","400239","0.0-36.0","SS1618365733978","similarity_question","","","","","","","","","","","","{""Q0"":0}","[0]","","images/stimuli/spore_stims/complex_19_A_b.gif","images/stimuli/spore_stims/complex_15_A_a.gif"
"","2804.095000001311","survey-likert","149","403051","0.0-37.0","SS1618365733978","similarity_question","","","","","","","","","","","","{""Q0"":4}","[0]","","images/stimuli/spore_stims/simple_18_A_b.gif","images/stimuli/spore_stims/simple_12_A_a.gif"
"","3427.6350000000093","survey-likert","150","406487","0.0-38.0","SS1618365733978","similarity_question","","","","","","","","","","","","{""Q0"":6}","[0]","","images/stimuli/spore_stims/simple_17_A_b.gif","images/stimuli/spore_stims/simple_07_A_a.gif"
"","6604.479999999981","survey-likert","151","413099","0.0-39.0","SS1618365733978","similarity_question","","","","","","","","","","","","{""Q0"":2}","[0]","","images/stimuli/spore_stims/complex_01_A_a.gif","images/stimuli/spore_stims/complex_10_A_b.gif"
"","5648.030000000319","survey-likert","152","418755","0.0-40.0","SS1618365733978","similarity_question","","","","","","","","","","","","{""Q0"":4}","[0]","","images/stimuli/spore_stims/complex_09_A_b.gif","images/stimuli/spore_stims/complex_12_A_a.gif"
"","2675.4349999991828","survey-likert","153","421438","0.0-41.0","SS1618365733978","similarity_question","","","","","","","","","","","","{""Q0"":6}","[0]","","images/stimuli/spore_stims/simple_04_A_a.gif","images/stimuli/spore_stims/simple_05_A_b.gif"
"","7539.045000001381","survey-likert","154","428982","0.0-42.0","SS1618365733978","similarity_question","","","","","","","","","","","","{""Q0"":0}","[0]","","images/stimuli/spore_stims/complex_11_A_a.gif","images/stimuli/spore_stims/complex_06_A_b.gif"
"","2019.9000000011292","survey-likert","155","431010","0.0-43.0","SS1618365733978","similarity_question","","","","","","","","","","","","{""Q0"":4}","[0]","","images/stimuli/spore_stims/simple_18_A_a.gif","images/stimuli/spore_stims/simple_08_A_b.gif"
"","2212.0999999988126","survey-likert","156","433230","0.0-44.0","SS1618365733978","similarity_question","","","","","","","","","","","","{""Q0"":5}","[0]","","images/stimuli/spore_stims/simple_05_A_a.gif","images/stimuli/spore_stims/simple_15_A_b.gif"
"[{""page_index"":0,""viewing_time"":3059.574999999313}]","3059.8099999988335","instructions","157","436297","0.0-45.0","SS1618365733978","instructions","","","","","","","","","","","","","","","",""
"","3474.1050000011455","survey-likert","158","439774","0.0-46.0","SS1618365733978","","","","","","","","","images/stimuli/spore_stims/simple_15_A_b.gif","","","","{""Q0"":0}","[0]","","",""
"","5551.784999999683","survey-likert","159","445333","0.0-47.0","SS1618365733978","","","","","","","","","images/stimuli/spore_stims/simple_17_A_b.gif","","","","{""Q0"":1}","[0]","","",""
"","8141.905000000435","survey-likert","160","453481","0.0-48.0","SS1618365733978","","","","","","","","","images/stimuli/spore_stims/complex_13_A_a.gif","","","","{""Q0"":6}","[0]","","",""
"","3467.5900000002002","survey-likert","161","456956","0.0-49.0","SS1618365733978","","","","","","","","","images/stimuli/spore_stims/simple_18_A_b.gif","","","","{""Q0"":1}","[0]","","",""
"","2462.945000001171","survey-likert","162","459425","0.0-50.0","SS1618365733978","","","","","","","","","images/stimuli/spore_stims/simple_06_A_b.gif","","","","{""Q0"":0}","[0]","","",""
"","6211.380000000587","survey-likert","163","465645","0.0-51.0","SS1618365733978","","","","","","","","","images/stimuli/spore_stims/complex_01_A_a.gif","","","","{""Q0"":4}","[0]","","",""
"","5639.8799999988405","survey-likert","164","471292","0.0-52.0","SS1618365733978","","","","","","","","","images/stimuli/spore_stims/complex_19_A_b.gif","","","","{""Q0"":5}","[0]","","",""
"","4459.655000000552","survey-likert","165","475759","0.0-53.0","SS1618365733978","","","","","","","","","images/stimuli/spore_stims/simple_04_A_a.gif","","","","{""Q0"":1}","[0]","","",""
"","6104.819999998668","survey-likert","166","481871","0.0-54.0","SS1618365733978","","","","","","","","","images/stimuli/spore_stims/complex_11_A_a.gif","","","","{""Q0"":5}","[0]","","",""
"","7765.919999999809","survey-likert","167","489644","0.0-55.0","SS1618365733978","","","","","","","","","images/stimuli/spore_stims/complex_09_A_b.gif","","","","{""Q0"":4}","[0]","","",""
"","2132.374999999185","survey-likert","168","491784","0.0-56.0","SS1618365733978","","","","","","","","","images/stimuli/spore_stims/simple_08_A_b.gif","","","","{""Q0"":0}","[0]","","",""
"","2762.995000000985","survey-likert","169","494555","0.0-57.0","SS1618365733978","","","","","","","","","images/stimuli/spore_stims/complex_15_A_b.gif","","","","{""Q0"":5}","[0]","","",""
"[{""page_index"":0,""viewing_time"":1634.0099999997765}]","1634.2299999996321","instructions","170","496194","0.0-58.0","SS1618365733978","instructions","","","","","","","","","","","","","","","",""
"","3120.3500000010245","demog-age","171","499319","0.0-59.0","SS1618365733978","","","","","","","","","","","","","{""age"":""28""}","","","",""
"","6158.129999999772","demog-ethnic-US","172","505483","0.0-60.0","SS1618365733978","","","","","","","","","","","","","{""ethnicity"":[""Asian""]}","[0]","","",""
"","4755.134999999427","demog-gender-and-education","173","510246","0.0-61.0","SS1618365733978","","","","","","","","","","","","","{""gender"":""Female"",""education"":""Associate Degree/Technical certification""}","[0,1]","","",""
"","147515.6100000004","survey-text","174","657769","0.0-62.0","SS1618365733978","feedback","","","","","","","","","","","","{""Q0"":""(The creatures grossed/creeped me out quite a lot. Definitely not the kind of cute I was expecting lol.)""}","","","",""
"[{""page_index"":0,""viewing_time"":1933.16500000027}]","1933.3900000001304","instructions","175","659705","0.0-63.0","SS1618365733978","instructions","","","","","","","","","","","","","","","",""
