"view_history","rt","trial_type","trial_index","time_elapsed","internal_node_id","subject","stimulus_type","trial_stimulus","key_press","minimum_viewing_duration","trial_looking_time","block_deviant","block_background","exposure_type","stimulus","block_number","block_type","stimulus_displayed","responses","question_order","math_correct_answer","stimulus_left","stimulus_right"
"[{""page_index"":0,""viewing_time"":9886.90000004135}]","9888.150000013411","instructions","0","9890","0.0-0.0","SS1618435650224","","","","","","","","","","","","","","","","",""
"[{""page_index"":0,""viewing_time"":17994.824999943376},{""page_index"":1,""viewing_time"":8832.129999995232}]","26827.249999856576","instructions","1","38720","0.0-1.0","SS1618435650224","instructions","","","","","","","","","","","","","","","",""
"","10298.389999894425","sequential-stimulus-presentation-old","2","49522","0.0-2.0","SS1618435650224","","","40","500","10798.389999894425","null","null","self_paced","","","","","","","","",""
"","13234.009999781847","sequential-stimulus-presentation-old","3","63273","0.0-3.0","SS1618435650224","","","40","500","13734.009999781847","null","null","self_paced","","","","","","","","",""
"[{""page_index"":0,""viewing_time"":18445.98999992013}]","18446.299999952316","instructions","4","81720","0.0-4.0","SS1618435650224","instructions","","","","","","","","","","","","","","","",""
"","4098.55500003323","sequential-stimulus-presentation-old","5","90822","0.0-5.0","SS1618435650224","","","40","500","4598.55500003323","null","null","forced_long","","","","","","","","",""
"","7553.800000110641","sequential-stimulus-presentation-old","6","98428","0.0-6.0","SS1618435650224","","","40","50","7603.800000110641","null","null","forced_long","","","","","","","","",""
"[{""page_index"":0,""viewing_time"":6994.540000101551}]","6994.815000100061","instructions","7","105424","0.0-7.0","SS1618435650224","instructions","","","","","","","","","","","","","","","",""
"[{""page_index"":0,""viewing_time"":9462.365000043064},{""page_index"":1,""viewing_time"":15679.694999940693},{""page_index"":2,""viewing_time"":11752.175000030547},{""page_index"":3,""viewing_time"":1623.9000000059605},{""page_index"":4,""viewing_time"":1360.0500000175089}]","39878.4750001505","instructions","8","145304","0.0-8.0","SS1618435650224","instructions","","","","","","","","","","","","","","","",""
"","null","html-keyboard-response","9","146262","0.0-9.0-0.0","SS1618435650224","","","null","","","","","","<p><img src= images/blank.png width =""600"" height = ""600"" style=""position:fixed;top:50%; left:50%; transform: translate(-50%, -50%); border:5px solid black"">","","","","","","","",""
"","1265.0549998506904","sequential-stimulus-presentation-old","10","152537","0.0-9.0-1.0","SS1618435650224","trial","","40","500","1765.0549998506904","images/stimuli/spore_stims/simple_02_A_a.gif","images/stimuli/spore_stims/simple_18_A_b.gif","forced_long","","0","simple_dissimilar","images/stimuli/spore_stims/simple_18_A_b.gif","","","","",""
"","null","html-keyboard-response","11","153452","0.0-9.0-0.1","SS1618435650224","","","null","","","","","","<p><img src= images/blank.png width =""600"" height = ""600"" style=""position:fixed;top:50%; left:50%; transform: translate(-50%, -50%); border:5px solid black"">","","","","","","","",""
"","1322.4250001367182","sequential-stimulus-presentation-old","12","155277","0.0-9.0-1.1","SS1618435650224","trial","","40","500","1822.4250001367182","images/stimuli/spore_stims/simple_02_A_a.gif","images/stimuli/spore_stims/simple_18_A_b.gif","forced_long","","0","simple_dissimilar","images/stimuli/spore_stims/simple_18_A_b.gif","","","","",""
"","null","html-keyboard-response","13","156271","0.0-9.0-0.2","SS1618435650224","","","null","","","","","","<p><img src= images/blank.png width =""600"" height = ""600"" style=""position:fixed;top:50%; left:50%; transform: translate(-50%, -50%); border:5px solid black"">","","","","","","","",""
"","5417.084999848157","sequential-stimulus-presentation-old","14","162192","0.0-9.0-1.2","SS1618435650224","trial","","40","500","5917.084999848157","images/stimuli/spore_stims/simple_02_A_a.gif","images/stimuli/spore_stims/simple_18_A_b.gif","forced_long","","0","simple_dissimilar","images/stimuli/spore_stims/simple_02_A_a.gif","","","","",""
"","null","html-keyboard-response","15","163132","0.0-9.0-0.3","SS1618435650224","","","null","","","","","","<p><img src= images/blank.png width =""600"" height = ""600"" style=""position:fixed;top:50%; left:50%; transform: translate(-50%, -50%); border:5px solid black"">","","","","","","","",""
"","6426.990000065416","sequential-stimulus-presentation-old","16","170063","0.0-9.0-1.3","SS1618435650224","trial","","40","500","6926.990000065416","images/stimuli/spore_stims/simple_02_A_a.gif","images/stimuli/spore_stims/simple_18_A_b.gif","forced_long","","0","simple_dissimilar","images/stimuli/spore_stims/simple_18_A_b.gif","","","","",""
"","null","html-keyboard-response","17","171052","0.0-9.0-0.4","SS1618435650224","","","null","","","","","","<p><img src= images/blank.png width =""600"" height = ""600"" style=""position:fixed;top:50%; left:50%; transform: translate(-50%, -50%); border:5px solid black"">","","","","","","","",""
"","4179.500000085682","sequential-stimulus-presentation-old","18","175736","0.0-9.0-1.4","SS1618435650224","trial","","40","500","4679.500000085682","images/stimuli/spore_stims/simple_02_A_a.gif","images/stimuli/spore_stims/simple_18_A_b.gif","forced_long","","0","simple_dissimilar","images/stimuli/spore_stims/simple_02_A_a.gif","","","","",""
"","null","html-keyboard-response","19","176775","0.0-9.0-0.5","SS1618435650224","","","null","","","","","","<p><img src= images/blank.png width =""600"" height = ""600"" style=""position:fixed;top:50%; left:50%; transform: translate(-50%, -50%); border:5px solid black"">","","","","","","","",""
"","3188.6349997948855","sequential-stimulus-presentation-old","20","180468","0.0-9.0-1.5","SS1618435650224","trial","","40","500","3688.6349997948855","images/stimuli/spore_stims/simple_02_A_a.gif","images/stimuli/spore_stims/simple_18_A_b.gif","forced_long","","0","simple_dissimilar","images/stimuli/spore_stims/simple_18_A_b.gif","","","","",""
"","5736.104999901727","survey-multi-choice","21","186208","0.0-10.0","SS1618435650224","math_question","","","","","","","","","","","","{""Q0"":""8""}","[0]","8","",""
"","null","html-keyboard-response","22","187028","0.0-11.0-0.0","SS1618435650224","","","null","","","","","","<p><img src= images/blank.png width =""600"" height = ""600"" style=""position:fixed;top:50%; left:50%; transform: translate(-50%, -50%); border:5px solid black"">","","","","","","","",""
"","4591.890000039712","sequential-stimulus-presentation-old","23","191674","0.0-11.0-1.0","SS1618435650224","trial","","40","500","5091.890000039712","images/stimuli/spore_stims/complex_14_A_a.gif","images/stimuli/spore_stims/complex_01_A_b.gif","forced_short","","1","complex_dissimilar","images/stimuli/spore_stims/complex_01_A_b.gif","","","","",""
"","null","html-keyboard-response","24","192662","0.0-11.0-0.1","SS1618435650224","","","null","","","","","","<p><img src= images/blank.png width =""600"" height = ""600"" style=""position:fixed;top:50%; left:50%; transform: translate(-50%, -50%); border:5px solid black"">","","","","","","","",""
"","13469.329999992624","sequential-stimulus-presentation-old","25","206635","0.0-11.0-1.1","SS1618435650224","trial","","40","500","13969.329999992624","images/stimuli/spore_stims/complex_14_A_a.gif","images/stimuli/spore_stims/complex_01_A_b.gif","forced_short","","1","complex_dissimilar","images/stimuli/spore_stims/complex_14_A_a.gif","","","","",""
"","null","html-keyboard-response","26","207830","0.0-11.0-0.2","SS1618435650224","","","null","","","","","","<p><img src= images/blank.png width =""600"" height = ""600"" style=""position:fixed;top:50%; left:50%; transform: translate(-50%, -50%); border:5px solid black"">","","","","","","","",""
"","13191.22499995865","sequential-stimulus-presentation-old","27","221525","0.0-11.0-1.2","SS1618435650224","trial","","40","500","13691.22499995865","images/stimuli/spore_stims/complex_14_A_a.gif","images/stimuli/spore_stims/complex_01_A_b.gif","forced_short","","1","complex_dissimilar","images/stimuli/spore_stims/complex_01_A_b.gif","","","","",""
"","null","html-keyboard-response","28","222557","0.0-11.0-0.3","SS1618435650224","","","null","","","","","","<p><img src= images/blank.png width =""600"" height = ""600"" style=""position:fixed;top:50%; left:50%; transform: translate(-50%, -50%); border:5px solid black"">","","","","","","","",""
"","3375.874999910593","sequential-stimulus-presentation-old","29","226438","0.0-11.0-1.3","SS1618435650224","trial","","40","500","3875.874999910593","images/stimuli/spore_stims/complex_14_A_a.gif","images/stimuli/spore_stims/complex_01_A_b.gif","forced_short","","1","complex_dissimilar","images/stimuli/spore_stims/complex_01_A_b.gif","","","","",""
"","null","html-keyboard-response","30","227365","0.0-11.0-0.4","SS1618435650224","","","null","","","","","","<p><img src= images/blank.png width =""600"" height = ""600"" style=""position:fixed;top:50%; left:50%; transform: translate(-50%, -50%); border:5px solid black"">","","","","","","","",""
"","1678.8600001018494","sequential-stimulus-presentation-old","31","229547","0.0-11.0-1.4","SS1618435650224","trial","","40","500","2178.8600001018494","images/stimuli/spore_stims/complex_14_A_a.gif","images/stimuli/spore_stims/complex_01_A_b.gif","forced_short","","1","complex_dissimilar","images/stimuli/spore_stims/complex_01_A_b.gif","","","","",""
"","4433.549999957904","survey-multi-choice","32","233984","0.0-12.0","SS1618435650224","math_question","","","","","","","","","","","","{""Q0"":""8""}","[0]","8","",""
"","null","html-keyboard-response","33","235185","0.0-13.0-0.0","SS1618435650224","","","null","","","","","","<p><img src= images/blank.png width =""600"" height = ""600"" style=""position:fixed;top:50%; left:50%; transform: translate(-50%, -50%); border:5px solid black"">","","","","","","","",""
"","1875.389999942854","sequential-stimulus-presentation-old","34","237115","0.0-13.0-1.0","SS1618435650224","trial","","40","500","2375.389999942854","images/stimuli/spore_stims/simple_04_A_b.gif","images/stimuli/spore_stims/simple_03_A_a.gif","forced_short","","2","simple_dissimilar","images/stimuli/spore_stims/simple_03_A_a.gif","","","","",""
"","null","html-keyboard-response","35","238109","0.0-13.0-0.1","SS1618435650224","","","null","","","","","","<p><img src= images/blank.png width =""600"" height = ""600"" style=""position:fixed;top:50%; left:50%; transform: translate(-50%, -50%); border:5px solid black"">","","","","","","","",""
"","3740.084999939427","sequential-stimulus-presentation-old","36","242353","0.0-13.0-1.1","SS1618435650224","trial","","40","500","4240.084999939427","images/stimuli/spore_stims/simple_04_A_b.gif","images/stimuli/spore_stims/simple_03_A_a.gif","forced_short","","2","simple_dissimilar","images/stimuli/spore_stims/simple_04_A_b.gif","","","","",""
"","null","html-keyboard-response","37","243310","0.0-13.0-0.2","SS1618435650224","","","null","","","","","","<p><img src= images/blank.png width =""600"" height = ""600"" style=""position:fixed;top:50%; left:50%; transform: translate(-50%, -50%); border:5px solid black"">","","","","","","","",""
"","7878.78999998793","sequential-stimulus-presentation-old","38","251693","0.0-13.0-1.2","SS1618435650224","trial","","40","500","8378.78999998793","images/stimuli/spore_stims/simple_04_A_b.gif","images/stimuli/spore_stims/simple_03_A_a.gif","forced_short","","2","simple_dissimilar","images/stimuli/spore_stims/simple_03_A_a.gif","","","","",""
"","null","html-keyboard-response","39","252757","0.0-13.0-0.3","SS1618435650224","","","null","","","","","","<p><img src= images/blank.png width =""600"" height = ""600"" style=""position:fixed;top:50%; left:50%; transform: translate(-50%, -50%); border:5px solid black"">","","","","","","","",""
"","3251.2250000145286","sequential-stimulus-presentation-old","40","256513","0.0-13.0-1.3","SS1618435650224","trial","","40","500","3751.2250000145286","images/stimuli/spore_stims/simple_04_A_b.gif","images/stimuli/spore_stims/simple_03_A_a.gif","forced_short","","2","simple_dissimilar","images/stimuli/spore_stims/simple_03_A_a.gif","","","","",""
"","5204.335000133142","survey-multi-choice","41","261719","0.0-14.0","SS1618435650224","math_question","","","","","","","","","","","","{""Q0"":""11""}","[0]","11","",""
"","null","html-keyboard-response","42","262548","0.0-15.0-0.0","SS1618435650224","","","null","","","","","","<p><img src= images/blank.png width =""600"" height = ""600"" style=""position:fixed;top:50%; left:50%; transform: translate(-50%, -50%); border:5px solid black"">","","","","","","","",""
"","1895.6500000786036","sequential-stimulus-presentation-old","43","269449","0.0-15.0-1.0","SS1618435650224","trial","","40","500","2395.6500000786036","images/stimuli/spore_stims/complex_09_A_a.gif","images/stimuli/spore_stims/complex_05_A_b.gif","forced_long","","3","complex_dissimilar","images/stimuli/spore_stims/complex_05_A_b.gif","","","","",""
"","null","html-keyboard-response","44","270705","0.0-15.0-0.1","SS1618435650224","","","null","","","","","","<p><img src= images/blank.png width =""600"" height = ""600"" style=""position:fixed;top:50%; left:50%; transform: translate(-50%, -50%); border:5px solid black"">","","","","","","","",""
"","10171.920000109822","sequential-stimulus-presentation-old","45","281380","0.0-15.0-1.1","SS1618435650224","trial","","40","500","10671.920000109822","images/stimuli/spore_stims/complex_09_A_a.gif","images/stimuli/spore_stims/complex_05_A_b.gif","forced_long","","3","complex_dissimilar","images/stimuli/spore_stims/complex_05_A_b.gif","","","","",""
"","null","html-keyboard-response","46","282242","0.0-15.0-0.2","SS1618435650224","","","null","","","","","","<p><img src= images/blank.png width =""600"" height = ""600"" style=""position:fixed;top:50%; left:50%; transform: translate(-50%, -50%); border:5px solid black"">","","","","","","","",""
"","7101.26500017941","sequential-stimulus-presentation-old","47","289852","0.0-15.0-1.2","SS1618435650224","trial","","40","500","7601.26500017941","images/stimuli/spore_stims/complex_09_A_a.gif","images/stimuli/spore_stims/complex_05_A_b.gif","forced_long","","3","complex_dissimilar","images/stimuli/spore_stims/complex_05_A_b.gif","","","","",""
"","null","html-keyboard-response","48","290955","0.0-15.0-0.3","SS1618435650224","","","null","","","","","","<p><img src= images/blank.png width =""600"" height = ""600"" style=""position:fixed;top:50%; left:50%; transform: translate(-50%, -50%); border:5px solid black"">","","","","","","","",""
"","3678.330000024289","sequential-stimulus-presentation-old","49","295138","0.0-15.0-1.3","SS1618435650224","trial","","40","500","4178.330000024289","images/stimuli/spore_stims/complex_09_A_a.gif","images/stimuli/spore_stims/complex_05_A_b.gif","forced_long","","3","complex_dissimilar","images/stimuli/spore_stims/complex_05_A_b.gif","","","","",""
"","5555.579999927431","survey-multi-choice","50","300696","0.0-16.0","SS1618435650224","math_question","","","","","","","","","","","","{""Q0"":""12""}","[0]","12","",""
"","null","html-keyboard-response","51","302009","0.0-17.0-0.0","SS1618435650224","","","null","","","","","","<p><img src= images/blank.png width =""600"" height = ""600"" style=""position:fixed;top:50%; left:50%; transform: translate(-50%, -50%); border:5px solid black"">","","","","","","","",""
"","2771.225000033155","sequential-stimulus-presentation-old","52","304843","0.0-17.0-1.0","SS1618435650224","trial","","40","500","3271.225000033155","images/stimuli/spore_stims/simple_10_A_b.gif","images/stimuli/spore_stims/simple_09_A_a.gif","forced_short","","4","simple_dissimilar","images/stimuli/spore_stims/simple_09_A_a.gif","","","","",""
"","null","html-keyboard-response","53","305708","0.0-17.0-0.1","SS1618435650224","","","null","","","","","","<p><img src= images/blank.png width =""600"" height = ""600"" style=""position:fixed;top:50%; left:50%; transform: translate(-50%, -50%); border:5px solid black"">","","","","","","","",""
"","6514.360000146553","sequential-stimulus-presentation-old","54","312729","0.0-17.0-1.1","SS1618435650224","trial","","40","500","7014.360000146553","images/stimuli/spore_stims/simple_10_A_b.gif","images/stimuli/spore_stims/simple_09_A_a.gif","forced_short","","4","simple_dissimilar","images/stimuli/spore_stims/simple_09_A_a.gif","","","","",""
"","null","html-keyboard-response","55","313535","0.0-17.0-0.2","SS1618435650224","","","null","","","","","","<p><img src= images/blank.png width =""600"" height = ""600"" style=""position:fixed;top:50%; left:50%; transform: translate(-50%, -50%); border:5px solid black"">","","","","","","","",""
"","3284.2499997932464","sequential-stimulus-presentation-old","56","317323","0.0-17.0-1.2","SS1618435650224","trial","","40","500","3784.2499997932464","images/stimuli/spore_stims/simple_10_A_b.gif","images/stimuli/spore_stims/simple_09_A_a.gif","forced_short","","4","simple_dissimilar","images/stimuli/spore_stims/simple_09_A_a.gif","","","","",""
"","null","html-keyboard-response","57","318612","0.0-17.0-0.3","SS1618435650224","","","null","","","","","","<p><img src= images/blank.png width =""600"" height = ""600"" style=""position:fixed;top:50%; left:50%; transform: translate(-50%, -50%); border:5px solid black"">","","","","","","","",""
"","2136.5350000560284","sequential-stimulus-presentation-old","58","321252","0.0-17.0-1.3","SS1618435650224","trial","","40","500","2636.5350000560284","images/stimuli/spore_stims/simple_10_A_b.gif","images/stimuli/spore_stims/simple_09_A_a.gif","forced_short","","4","simple_dissimilar","images/stimuli/spore_stims/simple_09_A_a.gif","","","","",""
"","3985.249999910593","survey-multi-choice","59","325240","0.0-18.0","SS1618435650224","math_question","","","","","","","","","","","","{""Q0"":""11""}","[0]","11","",""
"","null","html-keyboard-response","60","326233","0.0-19.0-0.0","SS1618435650224","","","null","","","","","","<p><img src= images/blank.png width =""600"" height = ""600"" style=""position:fixed;top:50%; left:50%; transform: translate(-50%, -50%); border:5px solid black"">","","","","","","","",""
"","8241.685000015423","sequential-stimulus-presentation-old","61","334980","0.0-19.0-1.0","SS1618435650224","trial","","40","500","8741.685000015423","images/stimuli/spore_stims/simple_19_A_b.gif","images/stimuli/spore_stims/simple_20_A_a.gif","self_paced","","5","simple_dissimilar","images/stimuli/spore_stims/simple_20_A_a.gif","","","","",""
"","null","html-keyboard-response","62","336225","0.0-19.0-0.1","SS1618435650224","","","null","","","","","","<p><img src= images/blank.png width =""600"" height = ""600"" style=""position:fixed;top:50%; left:50%; transform: translate(-50%, -50%); border:5px solid black"">","","","","","","","",""
"","5737.715000053868","sequential-stimulus-presentation-old","63","342467","0.0-19.0-1.1","SS1618435650224","trial","","40","500","6237.715000053868","images/stimuli/spore_stims/simple_19_A_b.gif","images/stimuli/spore_stims/simple_20_A_a.gif","self_paced","","5","simple_dissimilar","images/stimuli/spore_stims/simple_20_A_a.gif","","","","",""
"","null","html-keyboard-response","64","343577","0.0-19.0-0.2","SS1618435650224","","","null","","","","","","<p><img src= images/blank.png width =""600"" height = ""600"" style=""position:fixed;top:50%; left:50%; transform: translate(-50%, -50%); border:5px solid black"">","","","","","","","",""
"","4017.0549999456853","sequential-stimulus-presentation-old","65","348099","0.0-19.0-1.2","SS1618435650224","trial","","40","500","4517.054999945685","images/stimuli/spore_stims/simple_19_A_b.gif","images/stimuli/spore_stims/simple_20_A_a.gif","self_paced","","5","simple_dissimilar","images/stimuli/spore_stims/simple_20_A_a.gif","","","","",""
"","null","html-keyboard-response","66","349190","0.0-19.0-0.3","SS1618435650224","","","null","","","","","","<p><img src= images/blank.png width =""600"" height = ""600"" style=""position:fixed;top:50%; left:50%; transform: translate(-50%, -50%); border:5px solid black"">","","","","","","","",""
"","5634.420000016689","sequential-stimulus-presentation-old","67","355329","0.0-19.0-1.3","SS1618435650224","trial","","40","500","6134.420000016689","images/stimuli/spore_stims/simple_19_A_b.gif","images/stimuli/spore_stims/simple_20_A_a.gif","self_paced","","5","simple_dissimilar","images/stimuli/spore_stims/simple_19_A_b.gif","","","","",""
"","null","html-keyboard-response","68","356359","0.0-19.0-0.4","SS1618435650224","","","null","","","","","","<p><img src= images/blank.png width =""600"" height = ""600"" style=""position:fixed;top:50%; left:50%; transform: translate(-50%, -50%); border:5px solid black"">","","","","","","","",""
"","4173.04000002332","sequential-stimulus-presentation-old","69","361040","0.0-19.0-1.4","SS1618435650224","trial","","40","500","4673.04000002332","images/stimuli/spore_stims/simple_19_A_b.gif","images/stimuli/spore_stims/simple_20_A_a.gif","self_paced","","5","simple_dissimilar","images/stimuli/spore_stims/simple_20_A_a.gif","","","","",""
"","6420.415000058711","survey-multi-choice","70","367464","0.0-20.0","SS1618435650224","math_question","","","","","","","","","","","","{""Q0"":""10""}","[0]","10","",""
"","null","html-keyboard-response","71","368678","0.0-21.0-0.0","SS1618435650224","","","null","","","","","","<p><img src= images/blank.png width =""600"" height = ""600"" style=""position:fixed;top:50%; left:50%; transform: translate(-50%, -50%); border:5px solid black"">","","","","","","","",""
"","2220.594999846071","sequential-stimulus-presentation-old","72","370960","0.0-21.0-1.0","SS1618435650224","trial","","40","500","2720.594999846071","images/stimuli/spore_stims/complex_16_A_a.gif","images/stimuli/spore_stims/complex_04_A_b.gif","forced_short","","6","complex_dissimilar","images/stimuli/spore_stims/complex_04_A_b.gif","","","","",""
"","null","html-keyboard-response","73","372019","0.0-21.0-0.1","SS1618435650224","","","null","","","","","","<p><img src= images/blank.png width =""600"" height = ""600"" style=""position:fixed;top:50%; left:50%; transform: translate(-50%, -50%); border:5px solid black"">","","","","","","","",""
"","15474.250000203028","sequential-stimulus-presentation-old","74","388000","0.0-21.0-1.1","SS1618435650224","trial","","40","500","15974.250000203028","images/stimuli/spore_stims/complex_16_A_a.gif","images/stimuli/spore_stims/complex_04_A_b.gif","forced_short","","6","complex_dissimilar","images/stimuli/spore_stims/complex_16_A_a.gif","","","","",""
"","null","html-keyboard-response","75","389228","0.0-21.0-0.2","SS1618435650224","","","null","","","","","","<p><img src= images/blank.png width =""600"" height = ""600"" style=""position:fixed;top:50%; left:50%; transform: translate(-50%, -50%); border:5px solid black"">","","","","","","","",""
"","10341.620000079274","sequential-stimulus-presentation-old","76","400075","0.0-21.0-1.2","SS1618435650224","trial","","40","500","10841.620000079274","images/stimuli/spore_stims/complex_16_A_a.gif","images/stimuli/spore_stims/complex_04_A_b.gif","forced_short","","6","complex_dissimilar","images/stimuli/spore_stims/complex_04_A_b.gif","","","","",""
"","null","html-keyboard-response","77","400919","0.0-21.0-0.3","SS1618435650224","","","null","","","","","","<p><img src= images/blank.png width =""600"" height = ""600"" style=""position:fixed;top:50%; left:50%; transform: translate(-50%, -50%); border:5px solid black"">","","","","","","","",""
"","6564.939999952912","sequential-stimulus-presentation-old","78","407990","0.0-21.0-1.3","SS1618435650224","trial","","40","500","7064.939999952912","images/stimuli/spore_stims/complex_16_A_a.gif","images/stimuli/spore_stims/complex_04_A_b.gif","forced_short","","6","complex_dissimilar","images/stimuli/spore_stims/complex_16_A_a.gif","","","","",""
"","null","html-keyboard-response","79","409095","0.0-21.0-0.4","SS1618435650224","","","null","","","","","","<p><img src= images/blank.png width =""600"" height = ""600"" style=""position:fixed;top:50%; left:50%; transform: translate(-50%, -50%); border:5px solid black"">","","","","","","","",""
"","5213.8150001410395","sequential-stimulus-presentation-old","80","414813","0.0-21.0-1.4","SS1618435650224","trial","","40","500","5713.8150001410395","images/stimuli/spore_stims/complex_16_A_a.gif","images/stimuli/spore_stims/complex_04_A_b.gif","forced_short","","6","complex_dissimilar","images/stimuli/spore_stims/complex_04_A_b.gif","","","","",""
"","null","html-keyboard-response","81","415661","0.0-21.0-0.5","SS1618435650224","","","null","","","","","","<p><img src= images/blank.png width =""600"" height = ""600"" style=""position:fixed;top:50%; left:50%; transform: translate(-50%, -50%); border:5px solid black"">","","","","","","","",""
"","2953.029999975115","sequential-stimulus-presentation-old","82","419119","0.0-21.0-1.5","SS1618435650224","trial","","40","500","3453.029999975115","images/stimuli/spore_stims/complex_16_A_a.gif","images/stimuli/spore_stims/complex_04_A_b.gif","forced_short","","6","complex_dissimilar","images/stimuli/spore_stims/complex_04_A_b.gif","","","","",""
"","3301.060000201687","survey-multi-choice","83","422424","0.0-22.0","SS1618435650224","math_question","","","","","","","","","","","","{""Q0"":""8""}","[0]","8","",""
"","null","html-keyboard-response","84","423618","0.0-23.0-0.0","SS1618435650224","","","null","","","","","","<p><img src= images/blank.png width =""600"" height = ""600"" style=""position:fixed;top:50%; left:50%; transform: translate(-50%, -50%); border:5px solid black"">","","","","","","","",""
"","4158.969999989495","sequential-stimulus-presentation-old","85","428290","0.0-23.0-1.0","SS1618435650224","trial","","40","500","4658.969999989495","images/stimuli/spore_stims/simple_08_A_a.gif","images/stimuli/spore_stims/simple_03_A_b.gif","self_paced","","7","simple_dissimilar","images/stimuli/spore_stims/simple_03_A_b.gif","","","","",""
"","null","html-keyboard-response","86","429551","0.0-23.0-0.1","SS1618435650224","","","null","","","","","","<p><img src= images/blank.png width =""600"" height = ""600"" style=""position:fixed;top:50%; left:50%; transform: translate(-50%, -50%); border:5px solid black"">","","","","","","","",""
"","2924.265000037849","sequential-stimulus-presentation-old","87","432980","0.0-23.0-1.1","SS1618435650224","trial","","40","500","3424.265000037849","images/stimuli/spore_stims/simple_08_A_a.gif","images/stimuli/spore_stims/simple_03_A_b.gif","self_paced","","7","simple_dissimilar","images/stimuli/spore_stims/simple_03_A_b.gif","","","","",""
"","null","html-keyboard-response","88","433965","0.0-23.0-0.2","SS1618435650224","","","null","","","","","","<p><img src= images/blank.png width =""600"" height = ""600"" style=""position:fixed;top:50%; left:50%; transform: translate(-50%, -50%); border:5px solid black"">","","","","","","","",""
"","5470.174999907613","sequential-stimulus-presentation-old","89","439941","0.0-23.0-1.2","SS1618435650224","trial","","40","500","5970.174999907613","images/stimuli/spore_stims/simple_08_A_a.gif","images/stimuli/spore_stims/simple_03_A_b.gif","self_paced","","7","simple_dissimilar","images/stimuli/spore_stims/simple_08_A_a.gif","","","","",""
"","null","html-keyboard-response","90","440918","0.0-23.0-0.3","SS1618435650224","","","null","","","","","","<p><img src= images/blank.png width =""600"" height = ""600"" style=""position:fixed;top:50%; left:50%; transform: translate(-50%, -50%); border:5px solid black"">","","","","","","","",""
"","2109.2749999370426","sequential-stimulus-presentation-old","91","443532","0.0-23.0-1.3","SS1618435650224","trial","","40","500","2609.2749999370426","images/stimuli/spore_stims/simple_08_A_a.gif","images/stimuli/spore_stims/simple_03_A_b.gif","self_paced","","7","simple_dissimilar","images/stimuli/spore_stims/simple_03_A_b.gif","","","","",""
"","3879.7549998853356","survey-multi-choice","92","447415","0.0-24.0","SS1618435650224","math_question","","","","","","","","","","","","{""Q0"":""12""}","[0]","12","",""
"","null","html-keyboard-response","93","448630","0.0-25.0-0.0","SS1618435650224","","","null","","","","","","<p><img src= images/blank.png width =""600"" height = ""600"" style=""position:fixed;top:50%; left:50%; transform: translate(-50%, -50%); border:5px solid black"">","","","","","","","",""
"","9353.795000119135","sequential-stimulus-presentation-old","94","458488","0.0-25.0-1.0","SS1618435650224","trial","","40","500","9853.795000119135","images/stimuli/spore_stims/complex_18_A_a.gif","images/stimuli/spore_stims/complex_12_A_b.gif","self_paced","","8","complex_dissimilar","images/stimuli/spore_stims/complex_12_A_b.gif","","","","",""
"","null","html-keyboard-response","95","459430","0.0-25.0-0.1","SS1618435650224","","","null","","","","","","<p><img src= images/blank.png width =""600"" height = ""600"" style=""position:fixed;top:50%; left:50%; transform: translate(-50%, -50%); border:5px solid black"">","","","","","","","",""
"","7223.590000066906","sequential-stimulus-presentation-old","96","467160","0.0-25.0-1.1","SS1618435650224","trial","","40","500","7723.590000066906","images/stimuli/spore_stims/complex_18_A_a.gif","images/stimuli/spore_stims/complex_12_A_b.gif","self_paced","","8","complex_dissimilar","images/stimuli/spore_stims/complex_12_A_b.gif","","","","",""
"","null","html-keyboard-response","97","468008","0.0-25.0-0.2","SS1618435650224","","","null","","","","","","<p><img src= images/blank.png width =""600"" height = ""600"" style=""position:fixed;top:50%; left:50%; transform: translate(-50%, -50%); border:5px solid black"">","","","","","","","",""
"","6441.569999791682","sequential-stimulus-presentation-old","98","474961","0.0-25.0-1.2","SS1618435650224","trial","","40","500","6941.569999791682","images/stimuli/spore_stims/complex_18_A_a.gif","images/stimuli/spore_stims/complex_12_A_b.gif","self_paced","","8","complex_dissimilar","images/stimuli/spore_stims/complex_12_A_b.gif","","","","",""
"","null","html-keyboard-response","99","475960","0.0-25.0-0.3","SS1618435650224","","","null","","","","","","<p><img src= images/blank.png width =""600"" height = ""600"" style=""position:fixed;top:50%; left:50%; transform: translate(-50%, -50%); border:5px solid black"">","","","","","","","",""
"","5461.665000068024","sequential-stimulus-presentation-old","100","481928","0.0-25.0-1.3","SS1618435650224","trial","","40","500","5961.665000068024","images/stimuli/spore_stims/complex_18_A_a.gif","images/stimuli/spore_stims/complex_12_A_b.gif","self_paced","","8","complex_dissimilar","images/stimuli/spore_stims/complex_18_A_a.gif","","","","",""
"","3404.2950000148267","survey-multi-choice","101","485337","0.0-26.0","SS1618435650224","math_question","","","","","","","","","","","","{""Q0"":""4""}","[0]","4","",""
"","null","html-keyboard-response","102","486458","0.0-27.0-0.0","SS1618435650224","","","null","","","","","","<p><img src= images/blank.png width =""600"" height = ""600"" style=""position:fixed;top:50%; left:50%; transform: translate(-50%, -50%); border:5px solid black"">","","","","","","","",""
"","857.1200000587851","sequential-stimulus-presentation-old","103","492321","0.0-27.0-1.0","SS1618435650224","trial","","40","500","1357.120000058785","images/stimuli/spore_stims/complex_03_A_a.gif","images/stimuli/spore_stims/complex_18_A_b.gif","forced_long","","9","complex_dissimilar","images/stimuli/spore_stims/complex_18_A_b.gif","","","","",""
"","null","html-keyboard-response","104","493362","0.0-27.0-0.1","SS1618435650224","","","null","","","","","","<p><img src= images/blank.png width =""600"" height = ""600"" style=""position:fixed;top:50%; left:50%; transform: translate(-50%, -50%); border:5px solid black"">","","","","","","","",""
"","3412.470000097528","sequential-stimulus-presentation-old","105","497281","0.0-27.0-1.1","SS1618435650224","trial","","40","500","3912.470000097528","images/stimuli/spore_stims/complex_03_A_a.gif","images/stimuli/spore_stims/complex_18_A_b.gif","forced_long","","9","complex_dissimilar","images/stimuli/spore_stims/complex_18_A_b.gif","","","","",""
"","null","html-keyboard-response","106","498240","0.0-27.0-0.2","SS1618435650224","","","null","","","","","","<p><img src= images/blank.png width =""600"" height = ""600"" style=""position:fixed;top:50%; left:50%; transform: translate(-50%, -50%); border:5px solid black"">","","","","","","","",""
"","2308.024999918416","sequential-stimulus-presentation-old","107","501053","0.0-27.0-1.2","SS1618435650224","trial","","40","500","2808.024999918416","images/stimuli/spore_stims/complex_03_A_a.gif","images/stimuli/spore_stims/complex_18_A_b.gif","forced_long","","9","complex_dissimilar","images/stimuli/spore_stims/complex_18_A_b.gif","","","","",""
"","null","html-keyboard-response","108","502292","0.0-27.0-0.3","SS1618435650224","","","null","","","","","","<p><img src= images/blank.png width =""600"" height = ""600"" style=""position:fixed;top:50%; left:50%; transform: translate(-50%, -50%); border:5px solid black"">","","","","","","","",""
"","2700.2250000368804","sequential-stimulus-presentation-old","109","505500","0.0-27.0-1.3","SS1618435650224","trial","","40","500","3200.2250000368804","images/stimuli/spore_stims/complex_03_A_a.gif","images/stimuli/spore_stims/complex_18_A_b.gif","forced_long","","9","complex_dissimilar","images/stimuli/spore_stims/complex_18_A_b.gif","","","","",""
"","3647.0649999100715","survey-multi-choice","110","509151","0.0-28.0","SS1618435650224","math_question","","","","","","","","","","","","{""Q0"":""8""}","[0]","8","",""
"","null","html-keyboard-response","111","510104","0.0-29.0-0.0","SS1618435650224","","","null","","","","","","<p><img src= images/blank.png width =""600"" height = ""600"" style=""position:fixed;top:50%; left:50%; transform: translate(-50%, -50%); border:5px solid black"">","","","","","","","",""
"","6595.54999996908","sequential-stimulus-presentation-old","112","521707","0.0-29.0-1.0","SS1618435650224","trial","","40","500","7095.54999996908","images/stimuli/spore_stims/simple_10_A_a.gif","images/stimuli/spore_stims/simple_02_A_b.gif","forced_long","","10","simple_dissimilar","images/stimuli/spore_stims/simple_02_A_b.gif","","","","",""
"","null","html-keyboard-response","113","522534","0.0-29.0-0.1","SS1618435650224","","","null","","","","","","<p><img src= images/blank.png width =""600"" height = ""600"" style=""position:fixed;top:50%; left:50%; transform: translate(-50%, -50%); border:5px solid black"">","","","","","","","",""
"","2203.2049999106675","sequential-stimulus-presentation-old","114","525243","0.0-29.0-1.1","SS1618435650224","trial","","40","500","2703.2049999106675","images/stimuli/spore_stims/simple_10_A_a.gif","images/stimuli/spore_stims/simple_02_A_b.gif","forced_long","","10","simple_dissimilar","images/stimuli/spore_stims/simple_02_A_b.gif","","","","",""
"","null","html-keyboard-response","115","526504","0.0-29.0-0.2","SS1618435650224","","","null","","","","","","<p><img src= images/blank.png width =""600"" height = ""600"" style=""position:fixed;top:50%; left:50%; transform: translate(-50%, -50%); border:5px solid black"">","","","","","","","",""
"","3503.3350000157952","sequential-stimulus-presentation-old","116","530513","0.0-29.0-1.2","SS1618435650224","trial","","40","500","4003.3350000157952","images/stimuli/spore_stims/simple_10_A_a.gif","images/stimuli/spore_stims/simple_02_A_b.gif","forced_long","","10","simple_dissimilar","images/stimuli/spore_stims/simple_10_A_a.gif","","","","",""
"","null","html-keyboard-response","117","531821","0.0-29.0-0.3","SS1618435650224","","","null","","","","","","<p><img src= images/blank.png width =""600"" height = ""600"" style=""position:fixed;top:50%; left:50%; transform: translate(-50%, -50%); border:5px solid black"">","","","","","","","",""
"","2740.734999999404","sequential-stimulus-presentation-old","118","535069","0.0-29.0-1.3","SS1618435650224","trial","","40","500","3240.734999999404","images/stimuli/spore_stims/simple_10_A_a.gif","images/stimuli/spore_stims/simple_02_A_b.gif","forced_long","","10","simple_dissimilar","images/stimuli/spore_stims/simple_02_A_b.gif","","","","",""
"","3983.310000039637","survey-multi-choice","119","539056","0.0-30.0","SS1618435650224","math_question","","","","","","","","","","","","{""Q0"":""5""}","[0]","5","",""
"","null","html-keyboard-response","120","540011","0.0-31.0-0.0","SS1618435650224","","","null","","","","","","<p><img src= images/blank.png width =""600"" height = ""600"" style=""position:fixed;top:50%; left:50%; transform: translate(-50%, -50%); border:5px solid black"">","","","","","","","",""
"","8019.9000001885","sequential-stimulus-presentation-old","121","548537","0.0-31.0-1.0","SS1618435650224","trial","","40","500","8519.9000001885","images/stimuli/spore_stims/complex_15_A_b.gif","images/stimuli/spore_stims/complex_20_A_a.gif","self_paced","","11","complex_dissimilar","images/stimuli/spore_stims/complex_20_A_a.gif","","","","",""
"","null","html-keyboard-response","122","549805","0.0-31.0-0.1","SS1618435650224","","","null","","","","","","<p><img src= images/blank.png width =""600"" height = ""600"" style=""position:fixed;top:50%; left:50%; transform: translate(-50%, -50%); border:5px solid black"">","","","","","","","",""
"","5896.874999860302","sequential-stimulus-presentation-old","123","556208","0.0-31.0-1.1","SS1618435650224","trial","","40","500","6396.874999860302","images/stimuli/spore_stims/complex_15_A_b.gif","images/stimuli/spore_stims/complex_20_A_a.gif","self_paced","","11","complex_dissimilar","images/stimuli/spore_stims/complex_20_A_a.gif","","","","",""
"","null","html-keyboard-response","124","557504","0.0-31.0-0.2","SS1618435650224","","","null","","","","","","<p><img src= images/blank.png width =""600"" height = ""600"" style=""position:fixed;top:50%; left:50%; transform: translate(-50%, -50%); border:5px solid black"">","","","","","","","",""
"","5710.655000060797","sequential-stimulus-presentation-old","125","563720","0.0-31.0-1.2","SS1618435650224","trial","","40","500","6210.655000060797","images/stimuli/spore_stims/complex_15_A_b.gif","images/stimuli/spore_stims/complex_20_A_a.gif","self_paced","","11","complex_dissimilar","images/stimuli/spore_stims/complex_20_A_a.gif","","","","",""
"","null","html-keyboard-response","126","564620","0.0-31.0-0.3","SS1618435650224","","","null","","","","","","<p><img src= images/blank.png width =""600"" height = ""600"" style=""position:fixed;top:50%; left:50%; transform: translate(-50%, -50%); border:5px solid black"">","","","","","","","",""
"","4178.894999902695","sequential-stimulus-presentation-old","127","569309","0.0-31.0-1.3","SS1618435650224","trial","","40","500","4678.894999902695","images/stimuli/spore_stims/complex_15_A_b.gif","images/stimuli/spore_stims/complex_20_A_a.gif","self_paced","","11","complex_dissimilar","images/stimuli/spore_stims/complex_20_A_a.gif","","","","",""
"","null","html-keyboard-response","128","570383","0.0-31.0-0.4","SS1618435650224","","","null","","","","","","<p><img src= images/blank.png width =""600"" height = ""600"" style=""position:fixed;top:50%; left:50%; transform: translate(-50%, -50%); border:5px solid black"">","","","","","","","",""
"","5897.344999946654","sequential-stimulus-presentation-old","129","576786","0.0-31.0-1.4","SS1618435650224","trial","","40","500","6397.344999946654","images/stimuli/spore_stims/complex_15_A_b.gif","images/stimuli/spore_stims/complex_20_A_a.gif","self_paced","","11","complex_dissimilar","images/stimuli/spore_stims/complex_20_A_a.gif","","","","",""
"","null","html-keyboard-response","130","577689","0.0-31.0-0.5","SS1618435650224","","","null","","","","","","<p><img src= images/blank.png width =""600"" height = ""600"" style=""position:fixed;top:50%; left:50%; transform: translate(-50%, -50%); border:5px solid black"">","","","","","","","",""
"","2434.1700000222772","sequential-stimulus-presentation-old","131","580636","0.0-31.0-1.5","SS1618435650224","trial","","40","500","2934.1700000222772","images/stimuli/spore_stims/complex_15_A_b.gif","images/stimuli/spore_stims/complex_20_A_a.gif","self_paced","","11","complex_dissimilar","images/stimuli/spore_stims/complex_20_A_a.gif","","","","",""
"[{""page_index"":0,""viewing_time"":6423.454999923706}]","6423.769999993965","instructions","132","587063","0.0-32.0","SS1618435650224","instructions","","","","","","","","","","","","","","","",""
"","14122.879999922588","survey-likert","133","601192","0.0-33.0","SS1618435650224","similarity_question","","","","","","","","","","","","{""Q0"":1}","[0]","","images/stimuli/spore_stims/complex_09_A_a.gif","images/stimuli/spore_stims/complex_05_A_b.gif"
"","5017.330000177026","survey-likert","134","606216","0.0-34.0","SS1618435650224","similarity_question","","","","","","","","","","","","{""Q0"":1}","[0]","","images/stimuli/spore_stims/complex_14_A_a.gif","images/stimuli/spore_stims/complex_01_A_b.gif"
"","5778.439999790862","survey-likert","135","612000","0.0-35.0","SS1618435650224","similarity_question","","","","","","","","","","","","{""Q0"":4}","[0]","","images/stimuli/spore_stims/simple_10_A_b.gif","images/stimuli/spore_stims/simple_09_A_a.gif"
"","3250.5950001068413","survey-likert","136","615256","0.0-36.0","SS1618435650224","similarity_question","","","","","","","","","","","","{""Q0"":5}","[0]","","images/stimuli/spore_stims/simple_10_A_a.gif","images/stimuli/spore_stims/simple_02_A_b.gif"
"","4593.66500005126","survey-likert","137","619856","0.0-37.0","SS1618435650224","similarity_question","","","","","","","","","","","","{""Q0"":4}","[0]","","images/stimuli/spore_stims/complex_15_A_b.gif","images/stimuli/spore_stims/complex_20_A_a.gif"
"","4881.784999975935","survey-likert","138","624744","0.0-38.0","SS1618435650224","similarity_question","","","","","","","","","","","","{""Q0"":1}","[0]","","images/stimuli/spore_stims/simple_18_A_b.gif","images/stimuli/spore_stims/simple_02_A_a.gif"
"","4841.620000079274","survey-likert","139","629592","0.0-39.0","SS1618435650224","similarity_question","","","","","","","","","","","","{""Q0"":4}","[0]","","images/stimuli/spore_stims/simple_04_A_b.gif","images/stimuli/spore_stims/simple_03_A_a.gif"
"","4698.344999924302","survey-likert","140","634296","0.0-40.0","SS1618435650224","similarity_question","","","","","","","","","","","","{""Q0"":4}","[0]","","images/stimuli/spore_stims/simple_20_A_a.gif","images/stimuli/spore_stims/simple_19_A_b.gif"
"","4961.524999933317","survey-likert","141","639264","0.0-41.0","SS1618435650224","similarity_question","","","","","","","","","","","","{""Q0"":3}","[0]","","images/stimuli/spore_stims/simple_03_A_b.gif","images/stimuli/spore_stims/simple_08_A_a.gif"
"","6394.524999894202","survey-likert","142","645664","0.0-42.0","SS1618435650224","similarity_question","","","","","","","","","","","","{""Q0"":4}","[0]","","images/stimuli/spore_stims/complex_12_A_b.gif","images/stimuli/spore_stims/complex_18_A_a.gif"
"","4601.509999949485","survey-likert","143","650271","0.0-43.0","SS1618435650224","similarity_question","","","","","","","","","","","","{""Q0"":2}","[0]","","images/stimuli/spore_stims/complex_03_A_a.gif","images/stimuli/spore_stims/complex_18_A_b.gif"
"","5250.490000005811","survey-likert","144","655527","0.0-44.0","SS1618435650224","similarity_question","","","","","","","","","","","","{""Q0"":5}","[0]","","images/stimuli/spore_stims/complex_04_A_b.gif","images/stimuli/spore_stims/complex_16_A_a.gif"
"[{""page_index"":0,""viewing_time"":4466.980000026524}]","4467.290000058711","instructions","145","659999","0.0-45.0","SS1618435650224","instructions","","","","","","","","","","","","","","","",""
"","4155.284999869764","survey-likert","146","664160","0.0-46.0","SS1618435650224","","","","","","","","","images/stimuli/spore_stims/simple_18_A_b.gif","","","","{""Q0"":1}","[0]","","",""
"","5834.514999995008","survey-likert","147","670000","0.0-47.0","SS1618435650224","","","","","","","","","images/stimuli/spore_stims/complex_20_A_a.gif","","","","{""Q0"":5}","[0]","","",""
"","3425.994999939576","survey-likert","148","673431","0.0-48.0","SS1618435650224","","","","","","","","","images/stimuli/spore_stims/simple_19_A_b.gif","","","","{""Q0"":1}","[0]","","",""
"","3361.714999889955","survey-likert","149","676799","0.0-49.0","SS1618435650224","","","","","","","","","images/stimuli/spore_stims/simple_04_A_b.gif","","","","{""Q0"":1}","[0]","","",""
"","3146.350000053644","survey-likert","150","679951","0.0-50.0","SS1618435650224","","","","","","","","","images/stimuli/spore_stims/simple_09_A_a.gif","","","","{""Q0"":1}","[0]","","",""
"","2786.094999872148","survey-likert","151","682743","0.0-51.0","SS1618435650224","","","","","","","","","images/stimuli/spore_stims/simple_03_A_b.gif","","","","{""Q0"":2}","[0]","","",""
"","3394.564999965951","survey-likert","152","686144","0.0-52.0","SS1618435650224","","","","","","","","","images/stimuli/spore_stims/simple_02_A_b.gif","","","","{""Q0"":0}","[0]","","",""
"","3386.8599999696016","survey-likert","153","689535","0.0-53.0","SS1618435650224","","","","","","","","","images/stimuli/spore_stims/complex_01_A_b.gif","","","","{""Q0"":5}","[0]","","",""
"","4786.130000138655","survey-likert","154","694327","0.0-54.0","SS1618435650224","","","","","","","","","images/stimuli/spore_stims/complex_03_A_a.gif","","","","{""Q0"":5}","[0]","","",""
"","4930.055000120774","survey-likert","155","699264","0.0-55.0","SS1618435650224","","","","","","","","","images/stimuli/spore_stims/complex_12_A_b.gif","","","","{""Q0"":6}","[0]","","",""
"","3089.8150000721216","survey-likert","156","702359","0.0-56.0","SS1618435650224","","","","","","","","","images/stimuli/spore_stims/complex_05_A_b.gif","","","","{""Q0"":5}","[0]","","",""
"","3729.6649999916553","survey-likert","157","706095","0.0-57.0","SS1618435650224","","","","","","","","","images/stimuli/spore_stims/complex_16_A_a.gif","","","","{""Q0"":5}","[0]","","",""
"[{""page_index"":0,""viewing_time"":2361.9499998167157}]","2362.250000005588","instructions","158","708463","0.0-58.0","SS1618435650224","instructions","","","","","","","","","","","","","","","",""
"","3209.905000170693","demog-age","159","711679","0.0-59.0","SS1618435650224","","","","","","","","","","","","","{""age"":""23""}","","","",""
"","3143.6600000597537","demog-ethnic-US","160","714832","0.0-60.0","SS1618435650224","","","","","","","","","","","","","{""ethnicity"":[""White""]}","[0]","","",""
"","6256.969999987632","demog-gender-and-education","161","721096","0.0-61.0","SS1618435650224","","","","","","","","","","","","","{""gender"":""Female"",""education"":""Bachelor's Degree""}","[0,1]","","",""
"","10305.034999968484","survey-text","162","731408","0.0-62.0","SS1618435650224","feedback","","","","","","","","","","","","{""Q0"":""no""}","","","",""
"[{""page_index"":0,""viewing_time"":1930.8200001250952}]","1931.0900000855327","instructions","163","733343","0.0-63.0","SS1618435650224","instructions","","","","","","","","","","","","","","","",""
