"view_history","rt","trial_type","trial_index","time_elapsed","internal_node_id","subject","stimulus_type","trial_stimulus","key_press","minimum_viewing_duration","trial_looking_time","block_deviant","block_background","exposure_type","stimulus","block_number","block_type","stimulus_displayed","responses","question_order","math_correct_answer","stimulus_left","stimulus_right"
"[{""page_index"":0,""viewing_time"":1415}]","1415","instructions","0","1418","0.0-0.0","SS1618435936879","","","","","","","","","","","","","","","","",""
"[{""page_index"":0,""viewing_time"":6283},{""page_index"":1,""viewing_time"":378}]","6661","instructions","1","10081","0.0-1.0","SS1618435936879","instructions","","","","","","","","","","","","","","","",""
"","4642","sequential-stimulus-presentation-old","2","15232","0.0-2.0","SS1618435936879","","","40","500","5142","null","null","self_paced","","","","","","","","",""
"","2576","sequential-stimulus-presentation-old","3","18311","0.0-3.0","SS1618435936879","","","40","500","3076","null","null","self_paced","","","","","","","","",""
"[{""page_index"":0,""viewing_time"":5853}]","5853","instructions","4","24165","0.0-4.0","SS1618435936879","instructions","","","","","","","","","","","","","","","",""
"","3650","sequential-stimulus-presentation-old","5","32820","0.0-5.0","SS1618435936879","","","40","500","4150","null","null","forced_long","","","","","","","","",""
"","4050","sequential-stimulus-presentation-old","6","36921","0.0-6.0","SS1618435936879","","","40","50","4100","null","null","forced_long","","","","","","","","",""
"[{""page_index"":0,""viewing_time"":1686}]","1686","instructions","7","38608","0.0-7.0","SS1618435936879","instructions","","","","","","","","","","","","","","","",""
"[{""page_index"":0,""viewing_time"":1143},{""page_index"":1,""viewing_time"":853},{""page_index"":2,""viewing_time"":386},{""page_index"":3,""viewing_time"":690},{""page_index"":4,""viewing_time"":494}]","3566","instructions","8","42176","0.0-8.0","SS1618435936879","instructions","","","","","","","","","","","","","","","",""
"","null","html-keyboard-response","9","43212","0.0-9.0-0.0","SS1618435936879","","","null","","","","","","<p><img src= images/blank.png width =""600"" height = ""600"" style=""position:fixed;top:50%; left:50%; transform: translate(-50%, -50%); border:5px solid black"">","","","","","","","",""
"","590","sequential-stimulus-presentation-old","10","43854","0.0-9.0-1.0","SS1618435936879","trial","","40","500","1090","images/stimuli/spore_stims/simple_11_A_b.gif","images/stimuli/spore_stims/simple_12_A_a.gif","forced_short","","0","simple_dissimilar","images/stimuli/spore_stims/simple_12_A_a.gif","","","","",""
"","null","html-keyboard-response","11","45046","0.0-9.0-0.1","SS1618435936879","","","null","","","","","","<p><img src= images/blank.png width =""600"" height = ""600"" style=""position:fixed;top:50%; left:50%; transform: translate(-50%, -50%); border:5px solid black"">","","","","","","","",""
"","13410","sequential-stimulus-presentation-old","12","58961","0.0-9.0-1.1","SS1618435936879","trial","","40","500","13910","images/stimuli/spore_stims/simple_11_A_b.gif","images/stimuli/spore_stims/simple_12_A_a.gif","forced_short","","0","simple_dissimilar","images/stimuli/spore_stims/simple_12_A_a.gif","","","","",""
"","null","html-keyboard-response","13","59865","0.0-9.0-0.2","SS1618435936879","","","null","","","","","","<p><img src= images/blank.png width =""600"" height = ""600"" style=""position:fixed;top:50%; left:50%; transform: translate(-50%, -50%); border:5px solid black"">","","","","","","","",""
"","747","sequential-stimulus-presentation-old","14","61116","0.0-9.0-1.2","SS1618435936879","trial","","40","500","1247","images/stimuli/spore_stims/simple_11_A_b.gif","images/stimuli/spore_stims/simple_12_A_a.gif","forced_short","","0","simple_dissimilar","images/stimuli/spore_stims/simple_12_A_a.gif","","","","",""
"","null","html-keyboard-response","15","62020","0.0-9.0-0.3","SS1618435936879","","","null","","","","","","<p><img src= images/blank.png width =""600"" height = ""600"" style=""position:fixed;top:50%; left:50%; transform: translate(-50%, -50%); border:5px solid black"">","","","","","","","",""
"","138","sequential-stimulus-presentation-old","16","62661","0.0-9.0-1.3","SS1618435936879","trial","","40","500","638","images/stimuli/spore_stims/simple_11_A_b.gif","images/stimuli/spore_stims/simple_12_A_a.gif","forced_short","","0","simple_dissimilar","images/stimuli/spore_stims/simple_11_A_b.gif","","","","",""
"","null","html-keyboard-response","17","63683","0.0-9.0-0.4","SS1618435936879","","","null","","","","","","<p><img src= images/blank.png width =""600"" height = ""600"" style=""position:fixed;top:50%; left:50%; transform: translate(-50%, -50%); border:5px solid black"">","","","","","","","",""
"","75","sequential-stimulus-presentation-old","18","64264","0.0-9.0-1.4","SS1618435936879","trial","","40","500","575","images/stimuli/spore_stims/simple_11_A_b.gif","images/stimuli/spore_stims/simple_12_A_a.gif","forced_short","","0","simple_dissimilar","images/stimuli/spore_stims/simple_12_A_a.gif","","","","",""
"","null","html-keyboard-response","19","65408","0.0-9.0-0.5","SS1618435936879","","","null","","","","","","<p><img src= images/blank.png width =""600"" height = ""600"" style=""position:fixed;top:50%; left:50%; transform: translate(-50%, -50%); border:5px solid black"">","","","","","","","",""
"","147","sequential-stimulus-presentation-old","20","66060","0.0-9.0-1.5","SS1618435936879","trial","","40","500","647","images/stimuli/spore_stims/simple_11_A_b.gif","images/stimuli/spore_stims/simple_12_A_a.gif","forced_short","","0","simple_dissimilar","images/stimuli/spore_stims/simple_11_A_b.gif","","","","",""
"","2749","survey-multi-choice","21","68810","0.0-10.0","SS1618435936879","math_question","","","","","","","","","","","","{""Q0"":""11""}","[0]","11","",""
"","null","html-keyboard-response","22","70075","0.0-11.0-0.0","SS1618435936879","","","null","","","","","","<p><img src= images/blank.png width =""600"" height = ""600"" style=""position:fixed;top:50%; left:50%; transform: translate(-50%, -50%); border:5px solid black"">","","","","","","","",""
"","848","sequential-stimulus-presentation-old","23","75925","0.0-11.0-1.0","SS1618435936879","trial","","40","500","1348","images/stimuli/spore_stims/complex_15_A_b.gif","images/stimuli/spore_stims/complex_07_A_a.gif","forced_long","","1","complex_dissimilar","images/stimuli/spore_stims/complex_07_A_a.gif","","","","",""
"","null","html-keyboard-response","24","77151","0.0-11.0-0.1","SS1618435936879","","","null","","","","","","<p><img src= images/blank.png width =""600"" height = ""600"" style=""position:fixed;top:50%; left:50%; transform: translate(-50%, -50%); border:5px solid black"">","","","","","","","",""
"","9288","sequential-stimulus-presentation-old","25","86948","0.0-11.0-1.1","SS1618435936879","trial","","40","500","9788","images/stimuli/spore_stims/complex_15_A_b.gif","images/stimuli/spore_stims/complex_07_A_a.gif","forced_long","","1","complex_dissimilar","images/stimuli/spore_stims/complex_07_A_a.gif","","","","",""
"","null","html-keyboard-response","26","88140","0.0-11.0-0.2","SS1618435936879","","","null","","","","","","<p><img src= images/blank.png width =""600"" height = ""600"" style=""position:fixed;top:50%; left:50%; transform: translate(-50%, -50%); border:5px solid black"">","","","","","","","",""
"","661","sequential-stimulus-presentation-old","27","89304","0.0-11.0-1.2","SS1618435936879","trial","","40","500","1161","images/stimuli/spore_stims/complex_15_A_b.gif","images/stimuli/spore_stims/complex_07_A_a.gif","forced_long","","1","complex_dissimilar","images/stimuli/spore_stims/complex_07_A_a.gif","","","","",""
"","null","html-keyboard-response","28","90520","0.0-11.0-0.3","SS1618435936879","","","null","","","","","","<p><img src= images/blank.png width =""600"" height = ""600"" style=""position:fixed;top:50%; left:50%; transform: translate(-50%, -50%); border:5px solid black"">","","","","","","","",""
"","589","sequential-stimulus-presentation-old","29","91612","0.0-11.0-1.3","SS1618435936879","trial","","40","500","1089","images/stimuli/spore_stims/complex_15_A_b.gif","images/stimuli/spore_stims/complex_07_A_a.gif","forced_long","","1","complex_dissimilar","images/stimuli/spore_stims/complex_07_A_a.gif","","","","",""
"","2523","survey-multi-choice","30","94136","0.0-12.0","SS1618435936879","math_question","","","","","","","","","","","","{""Q0"":""9""}","[0]","9","",""
"","null","html-keyboard-response","31","95252","0.0-13.0-0.0","SS1618435936879","","","null","","","","","","<p><img src= images/blank.png width =""600"" height = ""600"" style=""position:fixed;top:50%; left:50%; transform: translate(-50%, -50%); border:5px solid black"">","","","","","","","",""
"","316","sequential-stimulus-presentation-old","32","100575","0.0-13.0-1.0","SS1618435936879","trial","","40","500","816","images/stimuli/spore_stims/simple_13_A_b.gif","images/stimuli/spore_stims/simple_06_A_a.gif","forced_long","","2","simple_dissimilar","images/stimuli/spore_stims/simple_06_A_a.gif","","","","",""
"","null","html-keyboard-response","33","101776","0.0-13.0-0.1","SS1618435936879","","","null","","","","","","<p><img src= images/blank.png width =""600"" height = ""600"" style=""position:fixed;top:50%; left:50%; transform: translate(-50%, -50%); border:5px solid black"">","","","","","","","",""
"","930","sequential-stimulus-presentation-old","34","103210","0.0-13.0-1.1","SS1618435936879","trial","","40","500","1430","images/stimuli/spore_stims/simple_13_A_b.gif","images/stimuli/spore_stims/simple_06_A_a.gif","forced_long","","2","simple_dissimilar","images/stimuli/spore_stims/simple_13_A_b.gif","","","","",""
"","null","html-keyboard-response","35","104363","0.0-13.0-0.2","SS1618435936879","","","null","","","","","","<p><img src= images/blank.png width =""600"" height = ""600"" style=""position:fixed;top:50%; left:50%; transform: translate(-50%, -50%); border:5px solid black"">","","","","","","","",""
"","1343","sequential-stimulus-presentation-old","36","106209","0.0-13.0-1.2","SS1618435936879","trial","","40","500","1843","images/stimuli/spore_stims/simple_13_A_b.gif","images/stimuli/spore_stims/simple_06_A_a.gif","forced_long","","2","simple_dissimilar","images/stimuli/spore_stims/simple_06_A_a.gif","","","","",""
"","null","html-keyboard-response","37","107379","0.0-13.0-0.3","SS1618435936879","","","null","","","","","","<p><img src= images/blank.png width =""600"" height = ""600"" style=""position:fixed;top:50%; left:50%; transform: translate(-50%, -50%); border:5px solid black"">","","","","","","","",""
"","436","sequential-stimulus-presentation-old","38","108318","0.0-13.0-1.3","SS1618435936879","trial","","40","500","936","images/stimuli/spore_stims/simple_13_A_b.gif","images/stimuli/spore_stims/simple_06_A_a.gif","forced_long","","2","simple_dissimilar","images/stimuli/spore_stims/simple_06_A_a.gif","","","","",""
"","2222","survey-multi-choice","39","110542","0.0-14.0","SS1618435936879","math_question","","","","","","","","","","","","{""Q0"":""10""}","[0]","10","",""
"","null","html-keyboard-response","40","111730","0.0-15.0-0.0","SS1618435936879","","","null","","","","","","<p><img src= images/blank.png width =""600"" height = ""600"" style=""position:fixed;top:50%; left:50%; transform: translate(-50%, -50%); border:5px solid black"">","","","","","","","",""
"","683","sequential-stimulus-presentation-old","41","112464","0.0-15.0-1.0","SS1618435936879","trial","","40","500","1183","images/stimuli/spore_stims/simple_10_A_a.gif","images/stimuli/spore_stims/simple_14_A_b.gif","forced_short","","3","simple_dissimilar","images/stimuli/spore_stims/simple_14_A_b.gif","","","","",""
"","null","html-keyboard-response","42","113494","0.0-15.0-0.1","SS1618435936879","","","null","","","","","","<p><img src= images/blank.png width =""600"" height = ""600"" style=""position:fixed;top:50%; left:50%; transform: translate(-50%, -50%); border:5px solid black"">","","","","","","","",""
"","759","sequential-stimulus-presentation-old","43","114759","0.0-15.0-1.1","SS1618435936879","trial","","40","500","1259","images/stimuli/spore_stims/simple_10_A_a.gif","images/stimuli/spore_stims/simple_14_A_b.gif","forced_short","","3","simple_dissimilar","images/stimuli/spore_stims/simple_14_A_b.gif","","","","",""
"","null","html-keyboard-response","44","115985","0.0-15.0-0.2","SS1618435936879","","","null","","","","","","<p><img src= images/blank.png width =""600"" height = ""600"" style=""position:fixed;top:50%; left:50%; transform: translate(-50%, -50%); border:5px solid black"">","","","","","","","",""
"","28","sequential-stimulus-presentation-old","45","116518","0.0-15.0-1.2","SS1618435936879","trial","","40","500","528","images/stimuli/spore_stims/simple_10_A_a.gif","images/stimuli/spore_stims/simple_14_A_b.gif","forced_short","","3","simple_dissimilar","images/stimuli/spore_stims/simple_14_A_b.gif","","","","",""
"","null","html-keyboard-response","46","117660","0.0-15.0-0.3","SS1618435936879","","","null","","","","","","<p><img src= images/blank.png width =""600"" height = ""600"" style=""position:fixed;top:50%; left:50%; transform: translate(-50%, -50%); border:5px solid black"">","","","","","","","",""
"","12","sequential-stimulus-presentation-old","47","118178","0.0-15.0-1.3","SS1618435936879","trial","","40","500","512","images/stimuli/spore_stims/simple_10_A_a.gif","images/stimuli/spore_stims/simple_14_A_b.gif","forced_short","","3","simple_dissimilar","images/stimuli/spore_stims/simple_10_A_a.gif","","","","",""
"","null","html-keyboard-response","48","119311","0.0-15.0-0.4","SS1618435936879","","","null","","","","","","<p><img src= images/blank.png width =""600"" height = ""600"" style=""position:fixed;top:50%; left:50%; transform: translate(-50%, -50%); border:5px solid black"">","","","","","","","",""
"","3298","sequential-stimulus-presentation-old","49","123114","0.0-15.0-1.4","SS1618435936879","trial","","40","500","3798","images/stimuli/spore_stims/simple_10_A_a.gif","images/stimuli/spore_stims/simple_14_A_b.gif","forced_short","","3","simple_dissimilar","images/stimuli/spore_stims/simple_14_A_b.gif","","","","",""
"","2982","survey-multi-choice","50","126096","0.0-16.0","SS1618435936879","math_question","","","","","","","","","","","","{""Q0"":""17""}","[0]","17","",""
"","null","html-keyboard-response","51","126983","0.0-17.0-0.0","SS1618435936879","","","null","","","","","","<p><img src= images/blank.png width =""600"" height = ""600"" style=""position:fixed;top:50%; left:50%; transform: translate(-50%, -50%); border:5px solid black"">","","","","","","","",""
"","6134","sequential-stimulus-presentation-old","52","138120","0.0-17.0-1.0","SS1618435936879","trial","","40","500","6634","images/stimuli/spore_stims/simple_09_A_b.gif","images/stimuli/spore_stims/simple_17_A_a.gif","forced_long","","4","simple_dissimilar","images/stimuli/spore_stims/simple_17_A_a.gif","","","","",""
"","null","html-keyboard-response","53","138968","0.0-17.0-0.1","SS1618435936879","","","null","","","","","","<p><img src= images/blank.png width =""600"" height = ""600"" style=""position:fixed;top:50%; left:50%; transform: translate(-50%, -50%); border:5px solid black"">","","","","","","","",""
"","105","sequential-stimulus-presentation-old","54","139575","0.0-17.0-1.1","SS1618435936879","trial","","40","500","605","images/stimuli/spore_stims/simple_09_A_b.gif","images/stimuli/spore_stims/simple_17_A_a.gif","forced_long","","4","simple_dissimilar","images/stimuli/spore_stims/simple_17_A_a.gif","","","","",""
"","null","html-keyboard-response","55","140785","0.0-17.0-0.2","SS1618435936879","","","null","","","","","","<p><img src= images/blank.png width =""600"" height = ""600"" style=""position:fixed;top:50%; left:50%; transform: translate(-50%, -50%); border:5px solid black"">","","","","","","","",""
"","2272","sequential-stimulus-presentation-old","56","143561","0.0-17.0-1.2","SS1618435936879","trial","","40","500","2772","images/stimuli/spore_stims/simple_09_A_b.gif","images/stimuli/spore_stims/simple_17_A_a.gif","forced_long","","4","simple_dissimilar","images/stimuli/spore_stims/simple_09_A_b.gif","","","","",""
"","null","html-keyboard-response","57","144558","0.0-17.0-0.3","SS1618435936879","","","null","","","","","","<p><img src= images/blank.png width =""600"" height = ""600"" style=""position:fixed;top:50%; left:50%; transform: translate(-50%, -50%); border:5px solid black"">","","","","","","","",""
"","4101","sequential-stimulus-presentation-old","58","149163","0.0-17.0-1.3","SS1618435936879","trial","","40","500","4601","images/stimuli/spore_stims/simple_09_A_b.gif","images/stimuli/spore_stims/simple_17_A_a.gif","forced_long","","4","simple_dissimilar","images/stimuli/spore_stims/simple_17_A_a.gif","","","","",""
"","null","html-keyboard-response","59","150029","0.0-17.0-0.4","SS1618435936879","","","null","","","","","","<p><img src= images/blank.png width =""600"" height = ""600"" style=""position:fixed;top:50%; left:50%; transform: translate(-50%, -50%); border:5px solid black"">","","","","","","","",""
"","256","sequential-stimulus-presentation-old","60","150788","0.0-17.0-1.4","SS1618435936879","trial","","40","500","756","images/stimuli/spore_stims/simple_09_A_b.gif","images/stimuli/spore_stims/simple_17_A_a.gif","forced_long","","4","simple_dissimilar","images/stimuli/spore_stims/simple_17_A_a.gif","","","","",""
"","null","html-keyboard-response","61","151785","0.0-17.0-0.5","SS1618435936879","","","null","","","","","","<p><img src= images/blank.png width =""600"" height = ""600"" style=""position:fixed;top:50%; left:50%; transform: translate(-50%, -50%); border:5px solid black"">","","","","","","","",""
"","606","sequential-stimulus-presentation-old","62","152894","0.0-17.0-1.5","SS1618435936879","trial","","40","500","1106","images/stimuli/spore_stims/simple_09_A_b.gif","images/stimuli/spore_stims/simple_17_A_a.gif","forced_long","","4","simple_dissimilar","images/stimuli/spore_stims/simple_09_A_b.gif","","","","",""
"","2906","survey-multi-choice","63","155802","0.0-18.0","SS1618435936879","math_question","","","","","","","","","","","","{""Q0"":""11""}","[0]","11","",""
"","null","html-keyboard-response","64","157091","0.0-19.0-0.0","SS1618435936879","","","null","","","","","","<p><img src= images/blank.png width =""600"" height = ""600"" style=""position:fixed;top:50%; left:50%; transform: translate(-50%, -50%); border:5px solid black"">","","","","","","","",""
"","1349","sequential-stimulus-presentation-old","65","158944","0.0-19.0-1.0","SS1618435936879","trial","","40","500","1849","images/stimuli/spore_stims/complex_05_A_b.gif","images/stimuli/spore_stims/complex_20_A_a.gif","self_paced","","5","complex_dissimilar","images/stimuli/spore_stims/complex_20_A_a.gif","","","","",""
"","null","html-keyboard-response","66","160223","0.0-19.0-0.1","SS1618435936879","","","null","","","","","","<p><img src= images/blank.png width =""600"" height = ""600"" style=""position:fixed;top:50%; left:50%; transform: translate(-50%, -50%); border:5px solid black"">","","","","","","","",""
"","107","sequential-stimulus-presentation-old","67","160837","0.0-19.0-1.1","SS1618435936879","trial","","40","500","607","images/stimuli/spore_stims/complex_05_A_b.gif","images/stimuli/spore_stims/complex_20_A_a.gif","self_paced","","5","complex_dissimilar","images/stimuli/spore_stims/complex_05_A_b.gif","","","","",""
"","null","html-keyboard-response","68","161929","0.0-19.0-0.2","SS1618435936879","","","null","","","","","","<p><img src= images/blank.png width =""600"" height = ""600"" style=""position:fixed;top:50%; left:50%; transform: translate(-50%, -50%); border:5px solid black"">","","","","","","","",""
"","60","sequential-stimulus-presentation-old","69","162492","0.0-19.0-1.2","SS1618435936879","trial","","40","500","560","images/stimuli/spore_stims/complex_05_A_b.gif","images/stimuli/spore_stims/complex_20_A_a.gif","self_paced","","5","complex_dissimilar","images/stimuli/spore_stims/complex_20_A_a.gif","","","","",""
"","null","html-keyboard-response","70","163607","0.0-19.0-0.3","SS1618435936879","","","null","","","","","","<p><img src= images/blank.png width =""600"" height = ""600"" style=""position:fixed;top:50%; left:50%; transform: translate(-50%, -50%); border:5px solid black"">","","","","","","","",""
"","508","sequential-stimulus-presentation-old","71","164618","0.0-19.0-1.3","SS1618435936879","trial","","40","500","1008","images/stimuli/spore_stims/complex_05_A_b.gif","images/stimuli/spore_stims/complex_20_A_a.gif","self_paced","","5","complex_dissimilar","images/stimuli/spore_stims/complex_20_A_a.gif","","","","",""
"","null","html-keyboard-response","72","165755","0.0-19.0-0.4","SS1618435936879","","","null","","","","","","<p><img src= images/blank.png width =""600"" height = ""600"" style=""position:fixed;top:50%; left:50%; transform: translate(-50%, -50%); border:5px solid black"">","","","","","","","",""
"","2677","sequential-stimulus-presentation-old","73","168937","0.0-19.0-1.4","SS1618435936879","trial","","40","500","3177","images/stimuli/spore_stims/complex_05_A_b.gif","images/stimuli/spore_stims/complex_20_A_a.gif","self_paced","","5","complex_dissimilar","images/stimuli/spore_stims/complex_20_A_a.gif","","","","",""
"","null","html-keyboard-response","74","170161","0.0-19.0-0.5","SS1618435936879","","","null","","","","","","<p><img src= images/blank.png width =""600"" height = ""600"" style=""position:fixed;top:50%; left:50%; transform: translate(-50%, -50%); border:5px solid black"">","","","","","","","",""
"","422","sequential-stimulus-presentation-old","75","171089","0.0-19.0-1.5","SS1618435936879","trial","","40","500","922","images/stimuli/spore_stims/complex_05_A_b.gif","images/stimuli/spore_stims/complex_20_A_a.gif","self_paced","","5","complex_dissimilar","images/stimuli/spore_stims/complex_05_A_b.gif","","","","",""
"","2294","survey-multi-choice","76","173384","0.0-20.0","SS1618435936879","math_question","","","","","","","","","","","","{""Q0"":""13""}","[0]","13","",""
"","null","html-keyboard-response","77","174480","0.0-21.0-0.0","SS1618435936879","","","null","","","","","","<p><img src= images/blank.png width =""600"" height = ""600"" style=""position:fixed;top:50%; left:50%; transform: translate(-50%, -50%); border:5px solid black"">","","","","","","","",""
"","1537","sequential-stimulus-presentation-old","78","176520","0.0-21.0-1.0","SS1618435936879","trial","","40","500","2037","images/stimuli/spore_stims/complex_14_A_b.gif","images/stimuli/spore_stims/complex_17_A_a.gif","self_paced","","6","complex_dissimilar","images/stimuli/spore_stims/complex_17_A_a.gif","","","","",""
"","null","html-keyboard-response","79","177330","0.0-21.0-0.1","SS1618435936879","","","null","","","","","","<p><img src= images/blank.png width =""600"" height = ""600"" style=""position:fixed;top:50%; left:50%; transform: translate(-50%, -50%); border:5px solid black"">","","","","","","","",""
"","128","sequential-stimulus-presentation-old","80","177961","0.0-21.0-1.1","SS1618435936879","trial","","40","500","628","images/stimuli/spore_stims/complex_14_A_b.gif","images/stimuli/spore_stims/complex_17_A_a.gif","self_paced","","6","complex_dissimilar","images/stimuli/spore_stims/complex_17_A_a.gif","","","","",""
"","null","html-keyboard-response","81","179116","0.0-21.0-0.2","SS1618435936879","","","null","","","","","","<p><img src= images/blank.png width =""600"" height = ""600"" style=""position:fixed;top:50%; left:50%; transform: translate(-50%, -50%); border:5px solid black"">","","","","","","","",""
"","1302","sequential-stimulus-presentation-old","82","180923","0.0-21.0-1.2","SS1618435936879","trial","","40","500","1802","images/stimuli/spore_stims/complex_14_A_b.gif","images/stimuli/spore_stims/complex_17_A_a.gif","self_paced","","6","complex_dissimilar","images/stimuli/spore_stims/complex_14_A_b.gif","","","","",""
"","null","html-keyboard-response","83","181789","0.0-21.0-0.3","SS1618435936879","","","null","","","","","","<p><img src= images/blank.png width =""600"" height = ""600"" style=""position:fixed;top:50%; left:50%; transform: translate(-50%, -50%); border:5px solid black"">","","","","","","","",""
"","988","sequential-stimulus-presentation-old","84","183279","0.0-21.0-1.3","SS1618435936879","trial","","40","500","1488","images/stimuli/spore_stims/complex_14_A_b.gif","images/stimuli/spore_stims/complex_17_A_a.gif","self_paced","","6","complex_dissimilar","images/stimuli/spore_stims/complex_14_A_b.gif","","","","",""
"","null","html-keyboard-response","85","184308","0.0-21.0-0.4","SS1618435936879","","","null","","","","","","<p><img src= images/blank.png width =""600"" height = ""600"" style=""position:fixed;top:50%; left:50%; transform: translate(-50%, -50%); border:5px solid black"">","","","","","","","",""
"","631","sequential-stimulus-presentation-old","86","185443","0.0-21.0-1.4","SS1618435936879","trial","","40","500","1131","images/stimuli/spore_stims/complex_14_A_b.gif","images/stimuli/spore_stims/complex_17_A_a.gif","self_paced","","6","complex_dissimilar","images/stimuli/spore_stims/complex_17_A_a.gif","","","","",""
"","2129","survey-multi-choice","87","187575","0.0-22.0","SS1618435936879","math_question","","","","","","","","","","","","{""Q0"":""6""}","[0]","6","",""
"","null","html-keyboard-response","88","188816","0.0-23.0-0.0","SS1618435936879","","","null","","","","","","<p><img src= images/blank.png width =""600"" height = ""600"" style=""position:fixed;top:50%; left:50%; transform: translate(-50%, -50%); border:5px solid black"">","","","","","","","",""
"","5379","sequential-stimulus-presentation-old","89","194248","0.0-23.0-1.0","SS1618435936879","trial","","40","500","5879","images/stimuli/spore_stims/complex_04_A_b.gif","images/stimuli/spore_stims/complex_08_A_a.gif","forced_short","","7","complex_dissimilar","images/stimuli/spore_stims/complex_08_A_a.gif","","","","",""
"","null","html-keyboard-response","90","195275","0.0-23.0-0.1","SS1618435936879","","","null","","","","","","<p><img src= images/blank.png width =""600"" height = ""600"" style=""position:fixed;top:50%; left:50%; transform: translate(-50%, -50%); border:5px solid black"">","","","","","","","",""
"","1311","sequential-stimulus-presentation-old","91","197088","0.0-23.0-1.1","SS1618435936879","trial","","40","500","1811","images/stimuli/spore_stims/complex_04_A_b.gif","images/stimuli/spore_stims/complex_08_A_a.gif","forced_short","","7","complex_dissimilar","images/stimuli/spore_stims/complex_08_A_a.gif","","","","",""
"","null","html-keyboard-response","92","197919","0.0-23.0-0.2","SS1618435936879","","","null","","","","","","<p><img src= images/blank.png width =""600"" height = ""600"" style=""position:fixed;top:50%; left:50%; transform: translate(-50%, -50%); border:5px solid black"">","","","","","","","",""
"","5095","sequential-stimulus-presentation-old","93","203520","0.0-23.0-1.2","SS1618435936879","trial","","40","500","5595","images/stimuli/spore_stims/complex_04_A_b.gif","images/stimuli/spore_stims/complex_08_A_a.gif","forced_short","","7","complex_dissimilar","images/stimuli/spore_stims/complex_08_A_a.gif","","","","",""
"","null","html-keyboard-response","94","204798","0.0-23.0-0.3","SS1618435936879","","","null","","","","","","<p><img src= images/blank.png width =""600"" height = ""600"" style=""position:fixed;top:50%; left:50%; transform: translate(-50%, -50%); border:5px solid black"">","","","","","","","",""
"","408","sequential-stimulus-presentation-old","95","205712","0.0-23.0-1.3","SS1618435936879","trial","","40","500","908","images/stimuli/spore_stims/complex_04_A_b.gif","images/stimuli/spore_stims/complex_08_A_a.gif","forced_short","","7","complex_dissimilar","images/stimuli/spore_stims/complex_08_A_a.gif","","","","",""
"","null","html-keyboard-response","96","206757","0.0-23.0-0.4","SS1618435936879","","","null","","","","","","<p><img src= images/blank.png width =""600"" height = ""600"" style=""position:fixed;top:50%; left:50%; transform: translate(-50%, -50%); border:5px solid black"">","","","","","","","",""
"","88","sequential-stimulus-presentation-old","97","207350","0.0-23.0-1.4","SS1618435936879","trial","","40","500","588","images/stimuli/spore_stims/complex_04_A_b.gif","images/stimuli/spore_stims/complex_08_A_a.gif","forced_short","","7","complex_dissimilar","images/stimuli/spore_stims/complex_08_A_a.gif","","","","",""
"","null","html-keyboard-response","98","208313","0.0-23.0-0.5","SS1618435936879","","","null","","","","","","<p><img src= images/blank.png width =""600"" height = ""600"" style=""position:fixed;top:50%; left:50%; transform: translate(-50%, -50%); border:5px solid black"">","","","","","","","",""
"","237","sequential-stimulus-presentation-old","99","209052","0.0-23.0-1.5","SS1618435936879","trial","","40","500","737","images/stimuli/spore_stims/complex_04_A_b.gif","images/stimuli/spore_stims/complex_08_A_a.gif","forced_short","","7","complex_dissimilar","images/stimuli/spore_stims/complex_04_A_b.gif","","","","",""
"","2625","survey-multi-choice","100","211680","0.0-24.0","SS1618435936879","math_question","","","","","","","","","","","","{""Q0"":""6""}","[0]","6","",""
"","null","html-keyboard-response","101","212917","0.0-25.0-0.0","SS1618435936879","","","null","","","","","","<p><img src= images/blank.png width =""600"" height = ""600"" style=""position:fixed;top:50%; left:50%; transform: translate(-50%, -50%); border:5px solid black"">","","","","","","","",""
"","145","sequential-stimulus-presentation-old","102","213564","0.0-25.0-1.0","SS1618435936879","trial","","40","500","645","images/stimuli/spore_stims/simple_17_A_b.gif","images/stimuli/spore_stims/simple_03_A_a.gif","self_paced","","8","simple_dissimilar","images/stimuli/spore_stims/simple_03_A_a.gif","","","","",""
"","null","html-keyboard-response","103","214833","0.0-25.0-0.1","SS1618435936879","","","null","","","","","","<p><img src= images/blank.png width =""600"" height = ""600"" style=""position:fixed;top:50%; left:50%; transform: translate(-50%, -50%); border:5px solid black"">","","","","","","","",""
"","2083","sequential-stimulus-presentation-old","104","217425","0.0-25.0-1.1","SS1618435936879","trial","","40","500","2583","images/stimuli/spore_stims/simple_17_A_b.gif","images/stimuli/spore_stims/simple_03_A_a.gif","self_paced","","8","simple_dissimilar","images/stimuli/spore_stims/simple_03_A_a.gif","","","","",""
"","null","html-keyboard-response","105","218394","0.0-25.0-0.2","SS1618435936879","","","null","","","","","","<p><img src= images/blank.png width =""600"" height = ""600"" style=""position:fixed;top:50%; left:50%; transform: translate(-50%, -50%); border:5px solid black"">","","","","","","","",""
"","97","sequential-stimulus-presentation-old","106","218997","0.0-25.0-1.2","SS1618435936879","trial","","40","500","597","images/stimuli/spore_stims/simple_17_A_b.gif","images/stimuli/spore_stims/simple_03_A_a.gif","self_paced","","8","simple_dissimilar","images/stimuli/spore_stims/simple_03_A_a.gif","","","","",""
"","null","html-keyboard-response","107","220147","0.0-25.0-0.3","SS1618435936879","","","null","","","","","","<p><img src= images/blank.png width =""600"" height = ""600"" style=""position:fixed;top:50%; left:50%; transform: translate(-50%, -50%); border:5px solid black"">","","","","","","","",""
"","113","sequential-stimulus-presentation-old","108","220767","0.0-25.0-1.3","SS1618435936879","trial","","40","500","613","images/stimuli/spore_stims/simple_17_A_b.gif","images/stimuli/spore_stims/simple_03_A_a.gif","self_paced","","8","simple_dissimilar","images/stimuli/spore_stims/simple_03_A_a.gif","","","","",""
"","null","html-keyboard-response","109","221879","0.0-25.0-0.4","SS1618435936879","","","null","","","","","","<p><img src= images/blank.png width =""600"" height = ""600"" style=""position:fixed;top:50%; left:50%; transform: translate(-50%, -50%); border:5px solid black"">","","","","","","","",""
"","410","sequential-stimulus-presentation-old","110","222793","0.0-25.0-1.4","SS1618435936879","trial","","40","500","910","images/stimuli/spore_stims/simple_17_A_b.gif","images/stimuli/spore_stims/simple_03_A_a.gif","self_paced","","8","simple_dissimilar","images/stimuli/spore_stims/simple_03_A_a.gif","","","","",""
"","1960","survey-multi-choice","111","224754","0.0-26.0","SS1618435936879","math_question","","","","","","","","","","","","{""Q0"":""13""}","[0]","13","",""
"","null","html-keyboard-response","112","225784","0.0-27.0-0.0","SS1618435936879","","","null","","","","","","<p><img src= images/blank.png width =""600"" height = ""600"" style=""position:fixed;top:50%; left:50%; transform: translate(-50%, -50%); border:5px solid black"">","","","","","","","",""
"","147","sequential-stimulus-presentation-old","113","226438","0.0-27.0-1.0","SS1618435936879","trial","","40","500","647","images/stimuli/spore_stims/simple_12_A_b.gif","images/stimuli/spore_stims/simple_01_A_a.gif","self_paced","","9","simple_dissimilar","images/stimuli/spore_stims/simple_01_A_a.gif","","","","",""
"","null","html-keyboard-response","114","227653","0.0-27.0-0.1","SS1618435936879","","","null","","","","","","<p><img src= images/blank.png width =""600"" height = ""600"" style=""position:fixed;top:50%; left:50%; transform: translate(-50%, -50%); border:5px solid black"">","","","","","","","",""
"","460","sequential-stimulus-presentation-old","115","228622","0.0-27.0-1.1","SS1618435936879","trial","","40","500","960","images/stimuli/spore_stims/simple_12_A_b.gif","images/stimuli/spore_stims/simple_01_A_a.gif","self_paced","","9","simple_dissimilar","images/stimuli/spore_stims/simple_01_A_a.gif","","","","",""
"","null","html-keyboard-response","116","229436","0.0-27.0-0.2","SS1618435936879","","","null","","","","","","<p><img src= images/blank.png width =""600"" height = ""600"" style=""position:fixed;top:50%; left:50%; transform: translate(-50%, -50%); border:5px solid black"">","","","","","","","",""
"","413","sequential-stimulus-presentation-old","117","230356","0.0-27.0-1.2","SS1618435936879","trial","","40","500","913","images/stimuli/spore_stims/simple_12_A_b.gif","images/stimuli/spore_stims/simple_01_A_a.gif","self_paced","","9","simple_dissimilar","images/stimuli/spore_stims/simple_01_A_a.gif","","","","",""
"","null","html-keyboard-response","118","231417","0.0-27.0-0.3","SS1618435936879","","","null","","","","","","<p><img src= images/blank.png width =""600"" height = ""600"" style=""position:fixed;top:50%; left:50%; transform: translate(-50%, -50%); border:5px solid black"">","","","","","","","",""
"","398","sequential-stimulus-presentation-old","119","232320","0.0-27.0-1.3","SS1618435936879","trial","","40","500","898","images/stimuli/spore_stims/simple_12_A_b.gif","images/stimuli/spore_stims/simple_01_A_a.gif","self_paced","","9","simple_dissimilar","images/stimuli/spore_stims/simple_01_A_a.gif","","","","",""
"","null","html-keyboard-response","120","233517","0.0-27.0-0.4","SS1618435936879","","","null","","","","","","<p><img src= images/blank.png width =""600"" height = ""600"" style=""position:fixed;top:50%; left:50%; transform: translate(-50%, -50%); border:5px solid black"">","","","","","","","",""
"","86","sequential-stimulus-presentation-old","121","234106","0.0-27.0-1.4","SS1618435936879","trial","","40","500","586","images/stimuli/spore_stims/simple_12_A_b.gif","images/stimuli/spore_stims/simple_01_A_a.gif","self_paced","","9","simple_dissimilar","images/stimuli/spore_stims/simple_01_A_a.gif","","","","",""
"","2494","survey-multi-choice","122","236603","0.0-28.0","SS1618435936879","math_question","","","","","","","","","","","","{""Q0"":""9""}","[0]","9","",""
"","null","html-keyboard-response","123","237769","0.0-29.0-0.0","SS1618435936879","","","null","","","","","","<p><img src= images/blank.png width =""600"" height = ""600"" style=""position:fixed;top:50%; left:50%; transform: translate(-50%, -50%); border:5px solid black"">","","","","","","","",""
"","606","sequential-stimulus-presentation-old","124","238431","0.0-29.0-1.0","SS1618435936879","trial","","40","500","1106","images/stimuli/spore_stims/complex_15_A_a.gif","images/stimuli/spore_stims/complex_20_A_b.gif","forced_short","","10","complex_dissimilar","images/stimuli/spore_stims/complex_20_A_b.gif","","","","",""
"","null","html-keyboard-response","125","239459","0.0-29.0-0.1","SS1618435936879","","","null","","","","","","<p><img src= images/blank.png width =""600"" height = ""600"" style=""position:fixed;top:50%; left:50%; transform: translate(-50%, -50%); border:5px solid black"">","","","","","","","",""
"","795","sequential-stimulus-presentation-old","126","240757","0.0-29.0-1.1","SS1618435936879","trial","","40","500","1295","images/stimuli/spore_stims/complex_15_A_a.gif","images/stimuli/spore_stims/complex_20_A_b.gif","forced_short","","10","complex_dissimilar","images/stimuli/spore_stims/complex_20_A_b.gif","","","","",""
"","null","html-keyboard-response","127","241861","0.0-29.0-0.2","SS1618435936879","","","null","","","","","","<p><img src= images/blank.png width =""600"" height = ""600"" style=""position:fixed;top:50%; left:50%; transform: translate(-50%, -50%); border:5px solid black"">","","","","","","","",""
"","414","sequential-stimulus-presentation-old","128","242779","0.0-29.0-1.2","SS1618435936879","trial","","40","500","914","images/stimuli/spore_stims/complex_15_A_a.gif","images/stimuli/spore_stims/complex_20_A_b.gif","forced_short","","10","complex_dissimilar","images/stimuli/spore_stims/complex_20_A_b.gif","","","","",""
"","null","html-keyboard-response","129","243794","0.0-29.0-0.3","SS1618435936879","","","null","","","","","","<p><img src= images/blank.png width =""600"" height = ""600"" style=""position:fixed;top:50%; left:50%; transform: translate(-50%, -50%); border:5px solid black"">","","","","","","","",""
"","338","sequential-stimulus-presentation-old","130","244636","0.0-29.0-1.3","SS1618435936879","trial","","40","500","838","images/stimuli/spore_stims/complex_15_A_a.gif","images/stimuli/spore_stims/complex_20_A_b.gif","forced_short","","10","complex_dissimilar","images/stimuli/spore_stims/complex_20_A_b.gif","","","","",""
"","null","html-keyboard-response","131","245611","0.0-29.0-0.4","SS1618435936879","","","null","","","","","","<p><img src= images/blank.png width =""600"" height = ""600"" style=""position:fixed;top:50%; left:50%; transform: translate(-50%, -50%); border:5px solid black"">","","","","","","","",""
"","147","sequential-stimulus-presentation-old","132","246261","0.0-29.0-1.4","SS1618435936879","trial","","40","500","647","images/stimuli/spore_stims/complex_15_A_a.gif","images/stimuli/spore_stims/complex_20_A_b.gif","forced_short","","10","complex_dissimilar","images/stimuli/spore_stims/complex_20_A_b.gif","","","","",""
"","7630","survey-multi-choice","133","253894","0.0-30.0","SS1618435936879","math_question","","","","","","","","","","","","{""Q0"":""15""}","[0]","15","",""
"","null","html-keyboard-response","134","255114","0.0-31.0-0.0","SS1618435936879","","","null","","","","","","<p><img src= images/blank.png width =""600"" height = ""600"" style=""position:fixed;top:50%; left:50%; transform: translate(-50%, -50%); border:5px solid black"">","","","","","","","",""
"","7726","sequential-stimulus-presentation-old","135","267849","0.0-31.0-1.0","SS1618435936879","trial","","40","500","8226","images/stimuli/spore_stims/complex_13_A_a.gif","images/stimuli/spore_stims/complex_09_A_b.gif","forced_long","","11","complex_dissimilar","images/stimuli/spore_stims/complex_09_A_b.gif","","","","",""
"","null","html-keyboard-response","136","269076","0.0-31.0-0.1","SS1618435936879","","","null","","","","","","<p><img src= images/blank.png width =""600"" height = ""600"" style=""position:fixed;top:50%; left:50%; transform: translate(-50%, -50%); border:5px solid black"">","","","","","","","",""
"","1688","sequential-stimulus-presentation-old","137","271270","0.0-31.0-1.1","SS1618435936879","trial","","40","500","2188","images/stimuli/spore_stims/complex_13_A_a.gif","images/stimuli/spore_stims/complex_09_A_b.gif","forced_long","","11","complex_dissimilar","images/stimuli/spore_stims/complex_09_A_b.gif","","","","",""
"","null","html-keyboard-response","138","272567","0.0-31.0-0.2","SS1618435936879","","","null","","","","","","<p><img src= images/blank.png width =""600"" height = ""600"" style=""position:fixed;top:50%; left:50%; transform: translate(-50%, -50%); border:5px solid black"">","","","","","","","",""
"","719","sequential-stimulus-presentation-old","139","273795","0.0-31.0-1.2","SS1618435936879","trial","","40","500","1219","images/stimuli/spore_stims/complex_13_A_a.gif","images/stimuli/spore_stims/complex_09_A_b.gif","forced_long","","11","complex_dissimilar","images/stimuli/spore_stims/complex_09_A_b.gif","","","","",""
"","null","html-keyboard-response","140","274686","0.0-31.0-0.3","SS1618435936879","","","null","","","","","","<p><img src= images/blank.png width =""600"" height = ""600"" style=""position:fixed;top:50%; left:50%; transform: translate(-50%, -50%); border:5px solid black"">","","","","","","","",""
"","10","sequential-stimulus-presentation-old","141","275204","0.0-31.0-1.3","SS1618435936879","trial","","40","500","510","images/stimuli/spore_stims/complex_13_A_a.gif","images/stimuli/spore_stims/complex_09_A_b.gif","forced_long","","11","complex_dissimilar","images/stimuli/spore_stims/complex_09_A_b.gif","","","","",""
"","null","html-keyboard-response","142","276399","0.0-31.0-0.4","SS1618435936879","","","null","","","","","","<p><img src= images/blank.png width =""600"" height = ""600"" style=""position:fixed;top:50%; left:50%; transform: translate(-50%, -50%); border:5px solid black"">","","","","","","","",""
"","218","sequential-stimulus-presentation-old","143","277122","0.0-31.0-1.4","SS1618435936879","trial","","40","500","718","images/stimuli/spore_stims/complex_13_A_a.gif","images/stimuli/spore_stims/complex_09_A_b.gif","forced_long","","11","complex_dissimilar","images/stimuli/spore_stims/complex_13_A_a.gif","","","","",""
"[{""page_index"":0,""viewing_time"":4961}]","4961","instructions","144","282085","0.0-32.0","SS1618435936879","instructions","","","","","","","","","","","","","","","",""
"","6548","survey-likert","145","288637","0.0-33.0","SS1618435936879","similarity_question","","","","","","","","","","","","{""Q0"":2}","[0]","","images/stimuli/spore_stims/simple_12_A_a.gif","images/stimuli/spore_stims/simple_11_A_b.gif"
"","2584","survey-likert","146","291224","0.0-34.0","SS1618435936879","similarity_question","","","","","","","","","","","","{""Q0"":2}","[0]","","images/stimuli/spore_stims/simple_17_A_a.gif","images/stimuli/spore_stims/simple_09_A_b.gif"
"","2614","survey-likert","147","293845","0.0-35.0","SS1618435936879","similarity_question","","","","","","","","","","","","{""Q0"":0}","[0]","","images/stimuli/spore_stims/complex_05_A_b.gif","images/stimuli/spore_stims/complex_20_A_a.gif"
"","4114","survey-likert","148","297968","0.0-36.0","SS1618435936879","similarity_question","","","","","","","","","","","","{""Q0"":1}","[0]","","images/stimuli/spore_stims/simple_03_A_a.gif","images/stimuli/spore_stims/simple_17_A_b.gif"
"","2777","survey-likert","149","300749","0.0-37.0","SS1618435936879","similarity_question","","","","","","","","","","","","{""Q0"":0}","[0]","","images/stimuli/spore_stims/complex_13_A_a.gif","images/stimuli/spore_stims/complex_09_A_b.gif"
"","2340","survey-likert","150","303094","0.0-38.0","SS1618435936879","similarity_question","","","","","","","","","","","","{""Q0"":2}","[0]","","images/stimuli/spore_stims/simple_13_A_b.gif","images/stimuli/spore_stims/simple_06_A_a.gif"
"","2907","survey-likert","151","306006","0.0-39.0","SS1618435936879","similarity_question","","","","","","","","","","","","{""Q0"":0}","[0]","","images/stimuli/spore_stims/complex_17_A_a.gif","images/stimuli/spore_stims/complex_14_A_b.gif"
"","3060","survey-likert","152","309070","0.0-40.0","SS1618435936879","similarity_question","","","","","","","","","","","","{""Q0"":0}","[0]","","images/stimuli/spore_stims/complex_20_A_b.gif","images/stimuli/spore_stims/complex_15_A_a.gif"
"","2485","survey-likert","153","311563","0.0-41.0","SS1618435936879","similarity_question","","","","","","","","","","","","{""Q0"":2}","[0]","","images/stimuli/spore_stims/simple_12_A_b.gif","images/stimuli/spore_stims/simple_01_A_a.gif"
"","3970","survey-likert","154","315541","0.0-42.0","SS1618435936879","similarity_question","","","","","","","","","","","","{""Q0"":0}","[0]","","images/stimuli/spore_stims/complex_04_A_b.gif","images/stimuli/spore_stims/complex_08_A_a.gif"
"","2110","survey-likert","155","317660","0.0-43.0","SS1618435936879","similarity_question","","","","","","","","","","","","{""Q0"":2}","[0]","","images/stimuli/spore_stims/simple_10_A_a.gif","images/stimuli/spore_stims/simple_14_A_b.gif"
"","2024","survey-likert","156","319690","0.0-44.0","SS1618435936879","similarity_question","","","","","","","","","","","","{""Q0"":0}","[0]","","images/stimuli/spore_stims/complex_15_A_b.gif","images/stimuli/spore_stims/complex_07_A_a.gif"
"[{""page_index"":0,""viewing_time"":7039}]","7039","instructions","157","326733","0.0-45.0","SS1618435936879","instructions","","","","","","","","","","","","","","","",""
"","2499","survey-likert","158","329242","0.0-46.0","SS1618435936879","","","","","","","","","images/stimuli/spore_stims/complex_15_A_a.gif","","","","{""Q0"":4}","[0]","","",""
"","1929","survey-likert","159","331182","0.0-47.0","SS1618435936879","","","","","","","","","images/stimuli/spore_stims/complex_20_A_a.gif","","","","{""Q0"":5}","[0]","","",""
"","3586","survey-likert","160","334772","0.0-48.0","SS1618435936879","","","","","","","","","images/stimuli/spore_stims/simple_17_A_a.gif","","","","{""Q0"":1}","[0]","","",""
"","3684","survey-likert","161","338460","0.0-49.0","SS1618435936879","","","","","","","","","images/stimuli/spore_stims/complex_13_A_a.gif","","","","{""Q0"":5}","[0]","","",""
"","1951","survey-likert","162","340417","0.0-50.0","SS1618435936879","","","","","","","","","images/stimuli/spore_stims/simple_06_A_a.gif","","","","{""Q0"":0}","[0]","","",""
"","2210","survey-likert","163","342633","0.0-51.0","SS1618435936879","","","","","","","","","images/stimuli/spore_stims/simple_12_A_b.gif","","","","{""Q0"":0}","[0]","","",""
"","2469","survey-likert","164","345107","0.0-52.0","SS1618435936879","","","","","","","","","images/stimuli/spore_stims/complex_08_A_a.gif","","","","{""Q0"":4}","[0]","","",""
"","2197","survey-likert","165","347308","0.0-53.0","SS1618435936879","","","","","","","","","images/stimuli/spore_stims/complex_14_A_b.gif","","","","{""Q0"":5}","[0]","","",""
"","2318","survey-likert","166","349628","0.0-54.0","SS1618435936879","","","","","","","","","images/stimuli/spore_stims/simple_10_A_a.gif","","","","{""Q0"":2}","[0]","","",""
"","1777","survey-likert","167","351408","0.0-55.0","SS1618435936879","","","","","","","","","images/stimuli/spore_stims/simple_03_A_a.gif","","","","{""Q0"":2}","[0]","","",""
"","1881","survey-likert","168","353294","0.0-56.0","SS1618435936879","","","","","","","","","images/stimuli/spore_stims/complex_15_A_b.gif","","","","{""Q0"":4}","[0]","","",""
"","2676","survey-likert","169","355977","0.0-57.0","SS1618435936879","","","","","","","","","images/stimuli/spore_stims/simple_12_A_a.gif","","","","{""Q0"":0}","[0]","","",""
"[{""page_index"":0,""viewing_time"":2388}]","2388","instructions","170","358370","0.0-58.0","SS1618435936879","instructions","","","","","","","","","","","","","","","",""
"","2330","demog-age","171","360719","0.0-59.0","SS1618435936879","","","","","","","","","","","","","{""age"":""21""}","","","",""
"","3324","demog-ethnic-US","172","364050","0.0-60.0","SS1618435936879","","","","","","","","","","","","","{""ethnicity"":[""White""]}","[0]","","",""
"","9044","demog-gender-and-education","173","373107","0.0-61.0","SS1618435936879","","","","","","","","","","","","","{""gender"":""Male"",""education"":""High school diploma""}","[0,1]","","",""
"","9375","survey-text","174","382489","0.0-62.0","SS1618435936879","feedback","","","","","","","","","","","","{""Q0"":""nothing to point out""}","","","",""
"[{""page_index"":0,""viewing_time"":1652}]","1652","instructions","175","384146","0.0-63.0","SS1618435936879","instructions","","","","","","","","","","","","","","","",""
