"view_history","rt","trial_type","trial_index","time_elapsed","internal_node_id","subject","stimulus_type","trial_stimulus","key_press","minimum_viewing_duration","trial_looking_time","block_deviant","block_background","exposure_type","stimulus","block_number","block_type","stimulus_displayed","responses","question_order","math_correct_answer","stimulus_left","stimulus_right"
"[{""page_index"":0,""viewing_time"":11902.91000000434}]","11905.320000019856","instructions","0","11907","0.0-0.0","SS1618365845292","","","","","","","","","","","","","","","","",""
"[{""page_index"":0,""viewing_time"":11576.549999997951},{""page_index"":1,""viewing_time"":6756.764999998268}]","18333.924999984447","instructions","1","32259","0.0-1.0","SS1618365845292","instructions","","","","","","","","","","","","","","","",""
"","10086.234999995213","sequential-stimulus-presentation-old","2","42856","0.0-2.0","SS1618365845292","","","40","500","10586.234999995213","null","null","self_paced","","","","","","","","",""
"","4227.780000015628","sequential-stimulus-presentation-old","3","47590","0.0-3.0","SS1618365845292","","","40","500","4727.780000015628","null","null","self_paced","","","","","","","","",""
"[{""page_index"":0,""viewing_time"":18830.64000000013}]","18831.345000013243","instructions","4","66423","0.0-4.0","SS1618365845292","instructions","","","","","","","","","","","","","","","",""
"","1484.7999999765307","sequential-stimulus-presentation-old","5","72926","0.0-5.0","SS1618365845292","","","40","500","1984.7999999765307","null","null","forced_long","","","","","","","","",""
"","2928.055000025779","sequential-stimulus-presentation-old","6","75913","0.0-6.0","SS1618365845292","","","40","50","2978.055000025779","null","null","forced_long","","","","","","","","",""
"[{""page_index"":0,""viewing_time"":2770.795000018552}]","2771.375000011176","instructions","7","78689","0.0-7.0","SS1618365845292","instructions","","","","","","","","","","","","","","","",""
"[{""page_index"":0,""viewing_time"":9635.190000000875},{""page_index"":1,""viewing_time"":10325.689999968745},{""page_index"":2,""viewing_time"":8023.490000050515},{""page_index"":3,""viewing_time"":4074.014999961946},{""page_index"":4,""viewing_time"":2025.4450000356883}]","34084.809999971185","instructions","8","112778","0.0-8.0","SS1618365845292","instructions","","","","","","","","","","","","","","","",""
"","null","html-keyboard-response","9","113993","0.0-9.0-0.0","SS1618365845292","","","null","","","","","","<p><img src= images/blank.png width =""600"" height = ""600"" style=""position:fixed;top:50%; left:50%; transform: translate(-50%, -50%); border:5px solid black"">","","","","","","","",""
"","1973.9449999760836","sequential-stimulus-presentation-old","10","116045","0.0-9.0-1.0","SS1618365845292","trial","","40","500","2473.9449999760836","images/stimuli/spore_stims/simple_09_A_a.gif","images/stimuli/spore_stims/simple_08_A_b.gif","forced_short","","0","simple_dissimilar","images/stimuli/spore_stims/simple_08_A_b.gif","","","","",""
"","null","html-keyboard-response","11","117007","0.0-9.0-0.1","SS1618365845292","","","null","","","","","","<p><img src= images/blank.png width =""600"" height = ""600"" style=""position:fixed;top:50%; left:50%; transform: translate(-50%, -50%); border:5px solid black"">","","","","","","","",""
"","4259.525000001304","sequential-stimulus-presentation-old","12","121779","0.0-9.0-1.1","SS1618365845292","trial","","40","500","4759.525000001304","images/stimuli/spore_stims/simple_09_A_a.gif","images/stimuli/spore_stims/simple_08_A_b.gif","forced_short","","0","simple_dissimilar","images/stimuli/spore_stims/simple_08_A_b.gif","","","","",""
"","null","html-keyboard-response","13","122798","0.0-9.0-0.2","SS1618365845292","","","null","","","","","","<p><img src= images/blank.png width =""600"" height = ""600"" style=""position:fixed;top:50%; left:50%; transform: translate(-50%, -50%); border:5px solid black"">","","","","","","","",""
"","1546.3599999784492","sequential-stimulus-presentation-old","14","124857","0.0-9.0-1.2","SS1618365845292","trial","","40","500","2046.3599999784492","images/stimuli/spore_stims/simple_09_A_a.gif","images/stimuli/spore_stims/simple_08_A_b.gif","forced_short","","0","simple_dissimilar","images/stimuli/spore_stims/simple_08_A_b.gif","","","","",""
"","null","html-keyboard-response","15","125905","0.0-9.0-0.3","SS1618365845292","","","null","","","","","","<p><img src= images/blank.png width =""600"" height = ""600"" style=""position:fixed;top:50%; left:50%; transform: translate(-50%, -50%); border:5px solid black"">","","","","","","","",""
"","1664.7700000321493","sequential-stimulus-presentation-old","16","128094","0.0-9.0-1.3","SS1618365845292","trial","","40","500","2164.7700000321493","images/stimuli/spore_stims/simple_09_A_a.gif","images/stimuli/spore_stims/simple_08_A_b.gif","forced_short","","0","simple_dissimilar","images/stimuli/spore_stims/simple_08_A_b.gif","","","","",""
"","null","html-keyboard-response","17","129274","0.0-9.0-0.4","SS1618365845292","","","null","","","","","","<p><img src= images/blank.png width =""600"" height = ""600"" style=""position:fixed;top:50%; left:50%; transform: translate(-50%, -50%); border:5px solid black"">","","","","","","","",""
"","1210.944999998901","sequential-stimulus-presentation-old","18","131015","0.0-9.0-1.4","SS1618365845292","trial","","40","500","1710.944999998901","images/stimuli/spore_stims/simple_09_A_a.gif","images/stimuli/spore_stims/simple_08_A_b.gif","forced_short","","0","simple_dissimilar","images/stimuli/spore_stims/simple_08_A_b.gif","","","","",""
"","3933.1750000128523","survey-multi-choice","19","134967","0.0-10.0","SS1618365845292","math_question","","","","","","","","","","","","{""Q0"":""10""}","[0]","10","",""
"","null","html-keyboard-response","20","136018","0.0-11.0-0.0","SS1618365845292","","","null","","","","","","<p><img src= images/blank.png width =""600"" height = ""600"" style=""position:fixed;top:50%; left:50%; transform: translate(-50%, -50%); border:5px solid black"">","","","","","","","",""
"","1298.3750000130385","sequential-stimulus-presentation-old","21","137834","0.0-11.0-1.0","SS1618365845292","trial","","40","500","1798.3750000130385","images/stimuli/spore_stims/simple_17_A_b.gif","images/stimuli/spore_stims/simple_02_A_a.gif","self_paced","","1","simple_dissimilar","images/stimuli/spore_stims/simple_02_A_a.gif","","","","",""
"","null","html-keyboard-response","22","139049","0.0-11.0-0.1","SS1618365845292","","","null","","","","","","<p><img src= images/blank.png width =""600"" height = ""600"" style=""position:fixed;top:50%; left:50%; transform: translate(-50%, -50%); border:5px solid black"">","","","","","","","",""
"","1124.5550000458024","sequential-stimulus-presentation-old","23","140689","0.0-11.0-1.1","SS1618365845292","trial","","40","500","1624.5550000458024","images/stimuli/spore_stims/simple_17_A_b.gif","images/stimuli/spore_stims/simple_02_A_a.gif","self_paced","","1","simple_dissimilar","images/stimuli/spore_stims/simple_02_A_a.gif","","","","",""
"","null","html-keyboard-response","24","141637","0.0-11.0-0.2","SS1618365845292","","","null","","","","","","<p><img src= images/blank.png width =""600"" height = ""600"" style=""position:fixed;top:50%; left:50%; transform: translate(-50%, -50%); border:5px solid black"">","","","","","","","",""
"","2186.489999992773","sequential-stimulus-presentation-old","25","144345","0.0-11.0-1.2","SS1618365845292","trial","","40","500","2686.489999992773","images/stimuli/spore_stims/simple_17_A_b.gif","images/stimuli/spore_stims/simple_02_A_a.gif","self_paced","","1","simple_dissimilar","images/stimuli/spore_stims/simple_17_A_b.gif","","","","",""
"","null","html-keyboard-response","26","145488","0.0-11.0-0.3","SS1618365845292","","","null","","","","","","<p><img src= images/blank.png width =""600"" height = ""600"" style=""position:fixed;top:50%; left:50%; transform: translate(-50%, -50%); border:5px solid black"">","","","","","","","",""
"","1281.7749999812804","sequential-stimulus-presentation-old","27","147289","0.0-11.0-1.3","SS1618365845292","trial","","40","500","1781.7749999812804","images/stimuli/spore_stims/simple_17_A_b.gif","images/stimuli/spore_stims/simple_02_A_a.gif","self_paced","","1","simple_dissimilar","images/stimuli/spore_stims/simple_17_A_b.gif","","","","",""
"","null","html-keyboard-response","28","148153","0.0-11.0-0.4","SS1618365845292","","","null","","","","","","<p><img src= images/blank.png width =""600"" height = ""600"" style=""position:fixed;top:50%; left:50%; transform: translate(-50%, -50%); border:5px solid black"">","","","","","","","",""
"","732.7200000290759","sequential-stimulus-presentation-old","29","149401","0.0-11.0-1.4","SS1618365845292","trial","","40","500","1232.720000029076","images/stimuli/spore_stims/simple_17_A_b.gif","images/stimuli/spore_stims/simple_02_A_a.gif","self_paced","","1","simple_dissimilar","images/stimuli/spore_stims/simple_02_A_a.gif","","","","",""
"","null","html-keyboard-response","30","150498","0.0-11.0-0.5","SS1618365845292","","","null","","","","","","<p><img src= images/blank.png width =""600"" height = ""600"" style=""position:fixed;top:50%; left:50%; transform: translate(-50%, -50%); border:5px solid black"">","","","","","","","",""
"","416.18000000016764","sequential-stimulus-presentation-old","31","151432","0.0-11.0-1.5","SS1618365845292","trial","","40","500","916.1800000001676","images/stimuli/spore_stims/simple_17_A_b.gif","images/stimuli/spore_stims/simple_02_A_a.gif","self_paced","","1","simple_dissimilar","images/stimuli/spore_stims/simple_02_A_a.gif","","","","",""
"","4004.564999951981","survey-multi-choice","32","155441","0.0-12.0","SS1618365845292","math_question","","","","","","","","","","","","{""Q0"":""7""}","[0]","7","",""
"","null","html-keyboard-response","33","156458","0.0-13.0-0.0","SS1618365845292","","","null","","","","","","<p><img src= images/blank.png width =""600"" height = ""600"" style=""position:fixed;top:50%; left:50%; transform: translate(-50%, -50%); border:5px solid black"">","","","","","","","",""
"","3277.8650000109337","sequential-stimulus-presentation-old","34","159806","0.0-13.0-1.0","SS1618365845292","trial","","40","500","3777.8650000109337","images/stimuli/spore_stims/complex_10_A_b.gif","images/stimuli/spore_stims/complex_02_A_a.gif","forced_short","","2","complex_dissimilar","images/stimuli/spore_stims/complex_02_A_a.gif","","","","",""
"","null","html-keyboard-response","35","160785","0.0-13.0-0.1","SS1618365845292","","","null","","","","","","<p><img src= images/blank.png width =""600"" height = ""600"" style=""position:fixed;top:50%; left:50%; transform: translate(-50%, -50%); border:5px solid black"">","","","","","","","",""
"","4591.249999997672","sequential-stimulus-presentation-old","36","165897","0.0-13.0-1.1","SS1618365845292","trial","","40","500","5091.249999997672","images/stimuli/spore_stims/complex_10_A_b.gif","images/stimuli/spore_stims/complex_02_A_a.gif","forced_short","","2","complex_dissimilar","images/stimuli/spore_stims/complex_02_A_a.gif","","","","",""
"","null","html-keyboard-response","37","166933","0.0-13.0-0.2","SS1618365845292","","","null","","","","","","<p><img src= images/blank.png width =""600"" height = ""600"" style=""position:fixed;top:50%; left:50%; transform: translate(-50%, -50%); border:5px solid black"">","","","","","","","",""
"","3441.4299999480136","sequential-stimulus-presentation-old","38","170885","0.0-13.0-1.2","SS1618365845292","trial","","40","500","3941.4299999480136","images/stimuli/spore_stims/complex_10_A_b.gif","images/stimuli/spore_stims/complex_02_A_a.gif","forced_short","","2","complex_dissimilar","images/stimuli/spore_stims/complex_10_A_b.gif","","","","",""
"","null","html-keyboard-response","39","171804","0.0-13.0-0.3","SS1618365845292","","","null","","","","","","<p><img src= images/blank.png width =""600"" height = ""600"" style=""position:fixed;top:50%; left:50%; transform: translate(-50%, -50%); border:5px solid black"">","","","","","","","",""
"","2509.174999955576","sequential-stimulus-presentation-old","40","174838","0.0-13.0-1.3","SS1618365845292","trial","","40","500","3009.174999955576","images/stimuli/spore_stims/complex_10_A_b.gif","images/stimuli/spore_stims/complex_02_A_a.gif","forced_short","","2","complex_dissimilar","images/stimuli/spore_stims/complex_02_A_a.gif","","","","",""
"","null","html-keyboard-response","41","176045","0.0-13.0-0.4","SS1618365845292","","","null","","","","","","<p><img src= images/blank.png width =""600"" height = ""600"" style=""position:fixed;top:50%; left:50%; transform: translate(-50%, -50%); border:5px solid black"">","","","","","","","",""
"","1788.1650000344962","sequential-stimulus-presentation-old","42","178354","0.0-13.0-1.4","SS1618365845292","trial","","40","500","2288.165000034496","images/stimuli/spore_stims/complex_10_A_b.gif","images/stimuli/spore_stims/complex_02_A_a.gif","forced_short","","2","complex_dissimilar","images/stimuli/spore_stims/complex_02_A_a.gif","","","","",""
"","null","html-keyboard-response","43","179210","0.0-13.0-0.5","SS1618365845292","","","null","","","","","","<p><img src= images/blank.png width =""600"" height = ""600"" style=""position:fixed;top:50%; left:50%; transform: translate(-50%, -50%); border:5px solid black"">","","","","","","","",""
"","3336.905000032857","sequential-stimulus-presentation-old","44","183070","0.0-13.0-1.5","SS1618365845292","trial","","40","500","3836.905000032857","images/stimuli/spore_stims/complex_10_A_b.gif","images/stimuli/spore_stims/complex_02_A_a.gif","forced_short","","2","complex_dissimilar","images/stimuli/spore_stims/complex_10_A_b.gif","","","","",""
"","4055.8750000200234","survey-multi-choice","45","187142","0.0-14.0","SS1618365845292","math_question","","","","","","","","","","","","{""Q0"":""6""}","[0]","6","",""
"","null","html-keyboard-response","46","187970","0.0-15.0-0.0","SS1618365845292","","","null","","","","","","<p><img src= images/blank.png width =""600"" height = ""600"" style=""position:fixed;top:50%; left:50%; transform: translate(-50%, -50%); border:5px solid black"">","","","","","","","",""
"","2716.7750000371598","sequential-stimulus-presentation-old","47","191196","0.0-15.0-1.0","SS1618365845292","trial","","40","500","3216.7750000371598","images/stimuli/spore_stims/simple_09_A_b.gif","images/stimuli/spore_stims/simple_05_A_a.gif","self_paced","","3","simple_dissimilar","images/stimuli/spore_stims/simple_05_A_a.gif","","","","",""
"","null","html-keyboard-response","48","192447","0.0-15.0-0.1","SS1618365845292","","","null","","","","","","<p><img src= images/blank.png width =""600"" height = ""600"" style=""position:fixed;top:50%; left:50%; transform: translate(-50%, -50%); border:5px solid black"">","","","","","","","",""
"","1002.840000030119","sequential-stimulus-presentation-old","49","193972","0.0-15.0-1.1","SS1618365845292","trial","","40","500","1502.840000030119","images/stimuli/spore_stims/simple_09_A_b.gif","images/stimuli/spore_stims/simple_05_A_a.gif","self_paced","","3","simple_dissimilar","images/stimuli/spore_stims/simple_05_A_a.gif","","","","",""
"","null","html-keyboard-response","50","194890","0.0-15.0-0.2","SS1618365845292","","","null","","","","","","<p><img src= images/blank.png width =""600"" height = ""600"" style=""position:fixed;top:50%; left:50%; transform: translate(-50%, -50%); border:5px solid black"">","","","","","","","",""
"","882.3800000245683","sequential-stimulus-presentation-old","51","196295","0.0-15.0-1.2","SS1618365845292","trial","","40","500","1382.3800000245683","images/stimuli/spore_stims/simple_09_A_b.gif","images/stimuli/spore_stims/simple_05_A_a.gif","self_paced","","3","simple_dissimilar","images/stimuli/spore_stims/simple_05_A_a.gif","","","","",""
"","null","html-keyboard-response","52","197459","0.0-15.0-0.3","SS1618365845292","","","null","","","","","","<p><img src= images/blank.png width =""600"" height = ""600"" style=""position:fixed;top:50%; left:50%; transform: translate(-50%, -50%); border:5px solid black"">","","","","","","","",""
"","857.4899999657646","sequential-stimulus-presentation-old","53","198840","0.0-15.0-1.3","SS1618365845292","trial","","40","500","1357.4899999657646","images/stimuli/spore_stims/simple_09_A_b.gif","images/stimuli/spore_stims/simple_05_A_a.gif","self_paced","","3","simple_dissimilar","images/stimuli/spore_stims/simple_05_A_a.gif","","","","",""
"","null","html-keyboard-response","54","200024","0.0-15.0-0.4","SS1618365845292","","","null","","","","","","<p><img src= images/blank.png width =""600"" height = ""600"" style=""position:fixed;top:50%; left:50%; transform: translate(-50%, -50%); border:5px solid black"">","","","","","","","",""
"","1840.059999958612","sequential-stimulus-presentation-old","55","202403","0.0-15.0-1.4","SS1618365845292","trial","","40","500","2340.059999958612","images/stimuli/spore_stims/simple_09_A_b.gif","images/stimuli/spore_stims/simple_05_A_a.gif","self_paced","","3","simple_dissimilar","images/stimuli/spore_stims/simple_09_A_b.gif","","","","",""
"","null","html-keyboard-response","56","203610","0.0-15.0-0.5","SS1618365845292","","","null","","","","","","<p><img src= images/blank.png width =""600"" height = ""600"" style=""position:fixed;top:50%; left:50%; transform: translate(-50%, -50%); border:5px solid black"">","","","","","","","",""
"","1304.749999952037","sequential-stimulus-presentation-old","57","205441","0.0-15.0-1.5","SS1618365845292","trial","","40","500","1804.749999952037","images/stimuli/spore_stims/simple_09_A_b.gif","images/stimuli/spore_stims/simple_05_A_a.gif","self_paced","","3","simple_dissimilar","images/stimuli/spore_stims/simple_09_A_b.gif","","","","",""
"","3076.95000001695","survey-multi-choice","58","208535","0.0-16.0","SS1618365845292","math_question","","","","","","","","","","","","{""Q0"":""9""}","[0]","9","",""
"","null","html-keyboard-response","59","209829","0.0-17.0-0.0","SS1618365845292","","","null","","","","","","<p><img src= images/blank.png width =""600"" height = ""600"" style=""position:fixed;top:50%; left:50%; transform: translate(-50%, -50%); border:5px solid black"">","","","","","","","",""
"","4284.225000010338","sequential-stimulus-presentation-old","60","214641","0.0-17.0-1.0","SS1618365845292","trial","","40","500","4784.225000010338","images/stimuli/spore_stims/complex_04_A_a.gif","images/stimuli/spore_stims/complex_01_A_b.gif","self_paced","","4","complex_dissimilar","images/stimuli/spore_stims/complex_01_A_b.gif","","","","",""
"","null","html-keyboard-response","61","215598","0.0-17.0-0.1","SS1618365845292","","","null","","","","","","<p><img src= images/blank.png width =""600"" height = ""600"" style=""position:fixed;top:50%; left:50%; transform: translate(-50%, -50%); border:5px solid black"">","","","","","","","",""
"","2430.2900000475347","sequential-stimulus-presentation-old","62","218559","0.0-17.0-1.1","SS1618365845292","trial","","40","500","2930.2900000475347","images/stimuli/spore_stims/complex_04_A_a.gif","images/stimuli/spore_stims/complex_01_A_b.gif","self_paced","","4","complex_dissimilar","images/stimuli/spore_stims/complex_01_A_b.gif","","","","",""
"","null","html-keyboard-response","63","219670","0.0-17.0-0.2","SS1618365845292","","","null","","","","","","<p><img src= images/blank.png width =""600"" height = ""600"" style=""position:fixed;top:50%; left:50%; transform: translate(-50%, -50%); border:5px solid black"">","","","","","","","",""
"","1802.7250000159256","sequential-stimulus-presentation-old","64","222001","0.0-17.0-1.2","SS1618365845292","trial","","40","500","2302.7250000159256","images/stimuli/spore_stims/complex_04_A_a.gif","images/stimuli/spore_stims/complex_01_A_b.gif","self_paced","","4","complex_dissimilar","images/stimuli/spore_stims/complex_01_A_b.gif","","","","",""
"","null","html-keyboard-response","65","223328","0.0-17.0-0.3","SS1618365845292","","","null","","","","","","<p><img src= images/blank.png width =""600"" height = ""600"" style=""position:fixed;top:50%; left:50%; transform: translate(-50%, -50%); border:5px solid black"">","","","","","","","",""
"","1356.6800000262447","sequential-stimulus-presentation-old","66","225224","0.0-17.0-1.3","SS1618365845292","trial","","40","500","1856.6800000262447","images/stimuli/spore_stims/complex_04_A_a.gif","images/stimuli/spore_stims/complex_01_A_b.gif","self_paced","","4","complex_dissimilar","images/stimuli/spore_stims/complex_01_A_b.gif","","","","",""
"","null","html-keyboard-response","67","226452","0.0-17.0-0.4","SS1618365845292","","","null","","","","","","<p><img src= images/blank.png width =""600"" height = ""600"" style=""position:fixed;top:50%; left:50%; transform: translate(-50%, -50%); border:5px solid black"">","","","","","","","",""
"","1815.8849999890663","sequential-stimulus-presentation-old","68","228779","0.0-17.0-1.4","SS1618365845292","trial","","40","500","2315.8849999890663","images/stimuli/spore_stims/complex_04_A_a.gif","images/stimuli/spore_stims/complex_01_A_b.gif","self_paced","","4","complex_dissimilar","images/stimuli/spore_stims/complex_01_A_b.gif","","","","",""
"","4282.22499997355","survey-multi-choice","69","233084","0.0-18.0","SS1618365845292","math_question","","","","","","","","","","","","{""Q0"":""6""}","[0]","6","",""
"","null","html-keyboard-response","70","234143","0.0-19.0-0.0","SS1618365845292","","","null","","","","","","<p><img src= images/blank.png width =""600"" height = ""600"" style=""position:fixed;top:50%; left:50%; transform: translate(-50%, -50%); border:5px solid black"">","","","","","","","",""
"","4332.649999996647","sequential-stimulus-presentation-old","71","243502","0.0-19.0-1.0","SS1618365845292","trial","","40","500","4832.649999996647","images/stimuli/spore_stims/complex_17_A_a.gif","images/stimuli/spore_stims/complex_11_A_b.gif","forced_long","","5","complex_dissimilar","images/stimuli/spore_stims/complex_11_A_b.gif","","","","",""
"","null","html-keyboard-response","72","244370","0.0-19.0-0.1","SS1618365845292","","","null","","","","","","<p><img src= images/blank.png width =""600"" height = ""600"" style=""position:fixed;top:50%; left:50%; transform: translate(-50%, -50%); border:5px solid black"">","","","","","","","",""
"","3634.620000026189","sequential-stimulus-presentation-old","73","248534","0.0-19.0-1.1","SS1618365845292","trial","","40","500","4134.620000026189","images/stimuli/spore_stims/complex_17_A_a.gif","images/stimuli/spore_stims/complex_11_A_b.gif","forced_long","","5","complex_dissimilar","images/stimuli/spore_stims/complex_17_A_a.gif","","","","",""
"","null","html-keyboard-response","74","249448","0.0-19.0-0.2","SS1618365845292","","","null","","","","","","<p><img src= images/blank.png width =""600"" height = ""600"" style=""position:fixed;top:50%; left:50%; transform: translate(-50%, -50%); border:5px solid black"">","","","","","","","",""
"","3311.7199999978766","sequential-stimulus-presentation-old","75","253290","0.0-19.0-1.2","SS1618365845292","trial","","40","500","3811.7199999978766","images/stimuli/spore_stims/complex_17_A_a.gif","images/stimuli/spore_stims/complex_11_A_b.gif","forced_long","","5","complex_dissimilar","images/stimuli/spore_stims/complex_11_A_b.gif","","","","",""
"","null","html-keyboard-response","76","254564","0.0-19.0-0.3","SS1618365845292","","","null","","","","","","<p><img src= images/blank.png width =""600"" height = ""600"" style=""position:fixed;top:50%; left:50%; transform: translate(-50%, -50%); border:5px solid black"">","","","","","","","",""
"","2964.6000000066124","sequential-stimulus-presentation-old","77","258061","0.0-19.0-1.3","SS1618365845292","trial","","40","500","3464.6000000066124","images/stimuli/spore_stims/complex_17_A_a.gif","images/stimuli/spore_stims/complex_11_A_b.gif","forced_long","","5","complex_dissimilar","images/stimuli/spore_stims/complex_11_A_b.gif","","","","",""
"","null","html-keyboard-response","78","259326","0.0-19.0-0.4","SS1618365845292","","","null","","","","","","<p><img src= images/blank.png width =""600"" height = ""600"" style=""position:fixed;top:50%; left:50%; transform: translate(-50%, -50%); border:5px solid black"">","","","","","","","",""
"","1253.519999969285","sequential-stimulus-presentation-old","79","261090","0.0-19.0-1.4","SS1618365845292","trial","","40","500","1753.519999969285","images/stimuli/spore_stims/complex_17_A_a.gif","images/stimuli/spore_stims/complex_11_A_b.gif","forced_long","","5","complex_dissimilar","images/stimuli/spore_stims/complex_11_A_b.gif","","","","",""
"","null","html-keyboard-response","80","262007","0.0-19.0-0.5","SS1618365845292","","","null","","","","","","<p><img src= images/blank.png width =""600"" height = ""600"" style=""position:fixed;top:50%; left:50%; transform: translate(-50%, -50%); border:5px solid black"">","","","","","","","",""
"","2810.7050000107847","sequential-stimulus-presentation-old","81","265359","0.0-19.0-1.5","SS1618365845292","trial","","40","500","3310.7050000107847","images/stimuli/spore_stims/complex_17_A_a.gif","images/stimuli/spore_stims/complex_11_A_b.gif","forced_long","","5","complex_dissimilar","images/stimuli/spore_stims/complex_17_A_a.gif","","","","",""
"","4063.289999961853","survey-multi-choice","82","269437","0.0-20.0","SS1618365845292","math_question","","","","","","","","","","","","{""Q0"":""6""}","[0]","6","",""
"","null","html-keyboard-response","83","270613","0.0-21.0-0.0","SS1618365845292","","","null","","","","","","<p><img src= images/blank.png width =""600"" height = ""600"" style=""position:fixed;top:50%; left:50%; transform: translate(-50%, -50%); border:5px solid black"">","","","","","","","",""
"","1675.8450000197627","sequential-stimulus-presentation-old","84","272383","0.0-21.0-1.0","SS1618365845292","trial","","40","500","2175.8450000197627","images/stimuli/spore_stims/simple_19_A_a.gif","images/stimuli/spore_stims/simple_16_A_b.gif","forced_short","","6","simple_dissimilar","images/stimuli/spore_stims/simple_16_A_b.gif","","","","",""
"","null","html-keyboard-response","85","273443","0.0-21.0-0.1","SS1618365845292","","","null","","","","","","<p><img src= images/blank.png width =""600"" height = ""600"" style=""position:fixed;top:50%; left:50%; transform: translate(-50%, -50%); border:5px solid black"">","","","","","","","",""
"","421.33499996270984","sequential-stimulus-presentation-old","86","274391","0.0-21.0-1.1","SS1618365845292","trial","","40","500","921.3349999627098","images/stimuli/spore_stims/simple_19_A_a.gif","images/stimuli/spore_stims/simple_16_A_b.gif","forced_short","","6","simple_dissimilar","images/stimuli/spore_stims/simple_16_A_b.gif","","","","",""
"","null","html-keyboard-response","87","275471","0.0-21.0-0.2","SS1618365845292","","","null","","","","","","<p><img src= images/blank.png width =""600"" height = ""600"" style=""position:fixed;top:50%; left:50%; transform: translate(-50%, -50%); border:5px solid black"">","","","","","","","",""
"","583.9750000159256","sequential-stimulus-presentation-old","88","276602","0.0-21.0-1.2","SS1618365845292","trial","","40","500","1083.9750000159256","images/stimuli/spore_stims/simple_19_A_a.gif","images/stimuli/spore_stims/simple_16_A_b.gif","forced_short","","6","simple_dissimilar","images/stimuli/spore_stims/simple_16_A_b.gif","","","","",""
"","null","html-keyboard-response","89","277663","0.0-21.0-0.3","SS1618365845292","","","null","","","","","","<p><img src= images/blank.png width =""600"" height = ""600"" style=""position:fixed;top:50%; left:50%; transform: translate(-50%, -50%); border:5px solid black"">","","","","","","","",""
"","759.5699999947101","sequential-stimulus-presentation-old","90","278951","0.0-21.0-1.3","SS1618365845292","trial","","40","500","1259.56999999471","images/stimuli/spore_stims/simple_19_A_a.gif","images/stimuli/spore_stims/simple_16_A_b.gif","forced_short","","6","simple_dissimilar","images/stimuli/spore_stims/simple_16_A_b.gif","","","","",""
"","3230.2500000223517","survey-multi-choice","91","282208","0.0-22.0","SS1618365845292","math_question","","","","","","","","","","","","{""Q0"":""12""}","[0]","12","",""
"","null","html-keyboard-response","92","283247","0.0-23.0-0.0","SS1618365845292","","","null","","","","","","<p><img src= images/blank.png width =""600"" height = ""600"" style=""position:fixed;top:50%; left:50%; transform: translate(-50%, -50%); border:5px solid black"">","","","","","","","",""
"","1247.2450000350364","sequential-stimulus-presentation-old","93","284557","0.0-23.0-1.0","SS1618365845292","trial","","40","500","1747.2450000350364","images/stimuli/spore_stims/complex_03_A_a.gif","images/stimuli/spore_stims/complex_02_A_b.gif","forced_short","","7","complex_dissimilar","images/stimuli/spore_stims/complex_02_A_b.gif","","","","",""
"","null","html-keyboard-response","94","285519","0.0-23.0-0.1","SS1618365845292","","","null","","","","","","<p><img src= images/blank.png width =""600"" height = ""600"" style=""position:fixed;top:50%; left:50%; transform: translate(-50%, -50%); border:5px solid black"">","","","","","","","",""
"","3547.7750000427477","sequential-stimulus-presentation-old","95","289602","0.0-23.0-1.1","SS1618365845292","trial","","40","500","4047.7750000427477","images/stimuli/spore_stims/complex_03_A_a.gif","images/stimuli/spore_stims/complex_02_A_b.gif","forced_short","","7","complex_dissimilar","images/stimuli/spore_stims/complex_02_A_b.gif","","","","",""
"","null","html-keyboard-response","96","290541","0.0-23.0-0.2","SS1618365845292","","","null","","","","","","<p><img src= images/blank.png width =""600"" height = ""600"" style=""position:fixed;top:50%; left:50%; transform: translate(-50%, -50%); border:5px solid black"">","","","","","","","",""
"","1238.2499999948777","sequential-stimulus-presentation-old","97","292315","0.0-23.0-1.2","SS1618365845292","trial","","40","500","1738.2499999948777","images/stimuli/spore_stims/complex_03_A_a.gif","images/stimuli/spore_stims/complex_02_A_b.gif","forced_short","","7","complex_dissimilar","images/stimuli/spore_stims/complex_02_A_b.gif","","","","",""
"","null","html-keyboard-response","98","293306","0.0-23.0-0.3","SS1618365845292","","","null","","","","","","<p><img src= images/blank.png width =""600"" height = ""600"" style=""position:fixed;top:50%; left:50%; transform: translate(-50%, -50%); border:5px solid black"">","","","","","","","",""
"","731.2449999735691","sequential-stimulus-presentation-old","99","294549","0.0-23.0-1.3","SS1618365845292","trial","","40","500","1231.244999973569","images/stimuli/spore_stims/complex_03_A_a.gif","images/stimuli/spore_stims/complex_02_A_b.gif","forced_short","","7","complex_dissimilar","images/stimuli/spore_stims/complex_02_A_b.gif","","","","",""
"","null","html-keyboard-response","100","295653","0.0-23.0-0.4","SS1618365845292","","","null","","","","","","<p><img src= images/blank.png width =""600"" height = ""600"" style=""position:fixed;top:50%; left:50%; transform: translate(-50%, -50%); border:5px solid black"">","","","","","","","",""
"","4005.490000010468","sequential-stimulus-presentation-old","101","300195","0.0-23.0-1.4","SS1618365845292","trial","","40","500","4505.490000010468","images/stimuli/spore_stims/complex_03_A_a.gif","images/stimuli/spore_stims/complex_02_A_b.gif","forced_short","","7","complex_dissimilar","images/stimuli/spore_stims/complex_03_A_a.gif","","","","",""
"","2752.169999992475","survey-multi-choice","102","302976","0.0-24.0","SS1618365845292","math_question","","","","","","","","","","","","{""Q0"":""7""}","[0]","7","",""
"","null","html-keyboard-response","103","304185","0.0-25.0-0.0","SS1618365845292","","","null","","","","","","<p><img src= images/blank.png width =""600"" height = ""600"" style=""position:fixed;top:50%; left:50%; transform: translate(-50%, -50%); border:5px solid black"">","","","","","","","",""
"","6832.055000006221","sequential-stimulus-presentation-old","104","311555","0.0-25.0-1.0","SS1618365845292","trial","","40","500","7332.055000006221","images/stimuli/spore_stims/complex_01_A_a.gif","images/stimuli/spore_stims/complex_19_A_b.gif","self_paced","","8","complex_dissimilar","images/stimuli/spore_stims/complex_19_A_b.gif","","","","",""
"","null","html-keyboard-response","105","312647","0.0-25.0-0.1","SS1618365845292","","","null","","","","","","<p><img src= images/blank.png width =""600"" height = ""600"" style=""position:fixed;top:50%; left:50%; transform: translate(-50%, -50%); border:5px solid black"">","","","","","","","",""
"","1752.7700000209734","sequential-stimulus-presentation-old","106","314933","0.0-25.0-1.1","SS1618365845292","trial","","40","500","2252.7700000209734","images/stimuli/spore_stims/complex_01_A_a.gif","images/stimuli/spore_stims/complex_19_A_b.gif","self_paced","","8","complex_dissimilar","images/stimuli/spore_stims/complex_19_A_b.gif","","","","",""
"","null","html-keyboard-response","107","315933","0.0-25.0-0.2","SS1618365845292","","","null","","","","","","<p><img src= images/blank.png width =""600"" height = ""600"" style=""position:fixed;top:50%; left:50%; transform: translate(-50%, -50%); border:5px solid black"">","","","","","","","",""
"","1746.0849999915808","sequential-stimulus-presentation-old","108","318215","0.0-25.0-1.2","SS1618365845292","trial","","40","500","2246.084999991581","images/stimuli/spore_stims/complex_01_A_a.gif","images/stimuli/spore_stims/complex_19_A_b.gif","self_paced","","8","complex_dissimilar","images/stimuli/spore_stims/complex_19_A_b.gif","","","","",""
"","null","html-keyboard-response","109","319340","0.0-25.0-0.3","SS1618365845292","","","null","","","","","","<p><img src= images/blank.png width =""600"" height = ""600"" style=""position:fixed;top:50%; left:50%; transform: translate(-50%, -50%); border:5px solid black"">","","","","","","","",""
"","3087.614999967627","sequential-stimulus-presentation-old","110","322959","0.0-25.0-1.3","SS1618365845292","trial","","40","500","3587.614999967627","images/stimuli/spore_stims/complex_01_A_a.gif","images/stimuli/spore_stims/complex_19_A_b.gif","self_paced","","8","complex_dissimilar","images/stimuli/spore_stims/complex_01_A_a.gif","","","","",""
"","null","html-keyboard-response","111","324215","0.0-25.0-0.4","SS1618365845292","","","null","","","","","","<p><img src= images/blank.png width =""600"" height = ""600"" style=""position:fixed;top:50%; left:50%; transform: translate(-50%, -50%); border:5px solid black"">","","","","","","","",""
"","2267.5799999851733","sequential-stimulus-presentation-old","112","327006","0.0-25.0-1.4","SS1618365845292","trial","","40","500","2767.5799999851733","images/stimuli/spore_stims/complex_01_A_a.gif","images/stimuli/spore_stims/complex_19_A_b.gif","self_paced","","8","complex_dissimilar","images/stimuli/spore_stims/complex_01_A_a.gif","","","","",""
"","3203.0300000333227","survey-multi-choice","113","330244","0.0-26.0","SS1618365845292","math_question","","","","","","","","","","","","{""Q0"":""9""}","[0]","9","",""
"","null","html-keyboard-response","114","331330","0.0-27.0-0.0","SS1618365845292","","","null","","","","","","<p><img src= images/blank.png width =""600"" height = ""600"" style=""position:fixed;top:50%; left:50%; transform: translate(-50%, -50%); border:5px solid black"">","","","","","","","",""
"","81.10999997006729","sequential-stimulus-presentation-old","115","336450","0.0-27.0-1.0","SS1618365845292","trial","","40","500","581.1099999700673","images/stimuli/spore_stims/simple_06_A_b.gif","images/stimuli/spore_stims/simple_01_A_a.gif","forced_long","","9","simple_dissimilar","images/stimuli/spore_stims/simple_01_A_a.gif","","","","",""
"","null","html-keyboard-response","116","337543","0.0-27.0-0.1","SS1618365845292","","","null","","","","","","<p><img src= images/blank.png width =""600"" height = ""600"" style=""position:fixed;top:50%; left:50%; transform: translate(-50%, -50%); border:5px solid black"">","","","","","","","",""
"","896.2049999972805","sequential-stimulus-presentation-old","117","338976","0.0-27.0-1.1","SS1618365845292","trial","","40","500","1396.2049999972805","images/stimuli/spore_stims/simple_06_A_b.gif","images/stimuli/spore_stims/simple_01_A_a.gif","forced_long","","9","simple_dissimilar","images/stimuli/spore_stims/simple_06_A_b.gif","","","","",""
"","null","html-keyboard-response","118","339877","0.0-27.0-0.2","SS1618365845292","","","null","","","","","","<p><img src= images/blank.png width =""600"" height = ""600"" style=""position:fixed;top:50%; left:50%; transform: translate(-50%, -50%); border:5px solid black"">","","","","","","","",""
"","483.42499998398125","sequential-stimulus-presentation-old","119","340900","0.0-27.0-1.2","SS1618365845292","trial","","40","500","983.4249999839813","images/stimuli/spore_stims/simple_06_A_b.gif","images/stimuli/spore_stims/simple_01_A_a.gif","forced_long","","9","simple_dissimilar","images/stimuli/spore_stims/simple_01_A_a.gif","","","","",""
"","null","html-keyboard-response","120","342048","0.0-27.0-0.3","SS1618365845292","","","null","","","","","","<p><img src= images/blank.png width =""600"" height = ""600"" style=""position:fixed;top:50%; left:50%; transform: translate(-50%, -50%); border:5px solid black"">","","","","","","","",""
"","1024.6299999998882","sequential-stimulus-presentation-old","121","343607","0.0-27.0-1.3","SS1618365845292","trial","","40","500","1524.6299999998882","images/stimuli/spore_stims/simple_06_A_b.gif","images/stimuli/spore_stims/simple_01_A_a.gif","forced_long","","9","simple_dissimilar","images/stimuli/spore_stims/simple_01_A_a.gif","","","","",""
"","null","html-keyboard-response","122","344473","0.0-27.0-0.4","SS1618365845292","","","null","","","","","","<p><img src= images/blank.png width =""600"" height = ""600"" style=""position:fixed;top:50%; left:50%; transform: translate(-50%, -50%); border:5px solid black"">","","","","","","","",""
"","533.3000000100583","sequential-stimulus-presentation-old","123","345547","0.0-27.0-1.4","SS1618365845292","trial","","40","500","1033.3000000100583","images/stimuli/spore_stims/simple_06_A_b.gif","images/stimuli/spore_stims/simple_01_A_a.gif","forced_long","","9","simple_dissimilar","images/stimuli/spore_stims/simple_01_A_a.gif","","","","",""
"","null","html-keyboard-response","124","346590","0.0-27.0-0.5","SS1618365845292","","","null","","","","","","<p><img src= images/blank.png width =""600"" height = ""600"" style=""position:fixed;top:50%; left:50%; transform: translate(-50%, -50%); border:5px solid black"">","","","","","","","",""
"","147.9549999930896","sequential-stimulus-presentation-old","125","347279","0.0-27.0-1.5","SS1618365845292","trial","","40","500","647.9549999930896","images/stimuli/spore_stims/simple_06_A_b.gif","images/stimuli/spore_stims/simple_01_A_a.gif","forced_long","","9","simple_dissimilar","images/stimuli/spore_stims/simple_01_A_a.gif","","","","",""
"","3380.3700000280514","survey-multi-choice","126","350683","0.0-28.0","SS1618365845292","math_question","","","","","","","","","","","","{""Q0"":""9""}","[0]","9","",""
"","null","html-keyboard-response","127","351797","0.0-29.0-0.0","SS1618365845292","","","null","","","","","","<p><img src= images/blank.png width =""600"" height = ""600"" style=""position:fixed;top:50%; left:50%; transform: translate(-50%, -50%); border:5px solid black"">","","","","","","","",""
"","5079.759999993257","sequential-stimulus-presentation-old","128","361912","0.0-29.0-1.0","SS1618365845292","trial","","40","500","5579.759999993257","images/stimuli/spore_stims/simple_01_A_b.gif","images/stimuli/spore_stims/simple_16_A_a.gif","forced_long","","10","simple_dissimilar","images/stimuli/spore_stims/simple_16_A_a.gif","","","","",""
"","null","html-keyboard-response","129","363208","0.0-29.0-0.1","SS1618365845292","","","null","","","","","","<p><img src= images/blank.png width =""600"" height = ""600"" style=""position:fixed;top:50%; left:50%; transform: translate(-50%, -50%); border:5px solid black"">","","","","","","","",""
"","1395.31499997247","sequential-stimulus-presentation-old","130","365132","0.0-29.0-1.1","SS1618365845292","trial","","40","500","1895.31499997247","images/stimuli/spore_stims/simple_01_A_b.gif","images/stimuli/spore_stims/simple_16_A_a.gif","forced_long","","10","simple_dissimilar","images/stimuli/spore_stims/simple_16_A_a.gif","","","","",""
"","null","html-keyboard-response","131","366173","0.0-29.0-0.2","SS1618365845292","","","null","","","","","","<p><img src= images/blank.png width =""600"" height = ""600"" style=""position:fixed;top:50%; left:50%; transform: translate(-50%, -50%); border:5px solid black"">","","","","","","","",""
"","1285.8249999699183","sequential-stimulus-presentation-old","132","367996","0.0-29.0-1.2","SS1618365845292","trial","","40","500","1785.8249999699183","images/stimuli/spore_stims/simple_01_A_b.gif","images/stimuli/spore_stims/simple_16_A_a.gif","forced_long","","10","simple_dissimilar","images/stimuli/spore_stims/simple_01_A_b.gif","","","","",""
"","null","html-keyboard-response","133","368937","0.0-29.0-0.3","SS1618365845292","","","null","","","","","","<p><img src= images/blank.png width =""600"" height = ""600"" style=""position:fixed;top:50%; left:50%; transform: translate(-50%, -50%); border:5px solid black"">","","","","","","","",""
"","2451.3849999639206","sequential-stimulus-presentation-old","134","371917","0.0-29.0-1.3","SS1618365845292","trial","","40","500","2951.3849999639206","images/stimuli/spore_stims/simple_01_A_b.gif","images/stimuli/spore_stims/simple_16_A_a.gif","forced_long","","10","simple_dissimilar","images/stimuli/spore_stims/simple_16_A_a.gif","","","","",""
"","4373.874999990221","survey-multi-choice","135","376311","0.0-30.0","SS1618365845292","math_question","","","","","","","","","","","","{""Q0"":""11""}","[0]","11","",""
"","null","html-keyboard-response","136","377181","0.0-31.0-0.0","SS1618365845292","","","null","","","","","","<p><img src= images/blank.png width =""600"" height = ""600"" style=""position:fixed;top:50%; left:50%; transform: translate(-50%, -50%); border:5px solid black"">","","","","","","","",""
"","11530.33499995945","sequential-stimulus-presentation-old","137","393757","0.0-31.0-1.0","SS1618365845292","trial","","40","500","12030.33499995945","images/stimuli/spore_stims/complex_07_A_a.gif","images/stimuli/spore_stims/complex_16_A_b.gif","forced_long","","11","complex_dissimilar","images/stimuli/spore_stims/complex_16_A_b.gif","","","","",""
"","null","html-keyboard-response","138","394950","0.0-31.0-0.1","SS1618365845292","","","null","","","","","","<p><img src= images/blank.png width =""600"" height = ""600"" style=""position:fixed;top:50%; left:50%; transform: translate(-50%, -50%); border:5px solid black"">","","","","","","","",""
"","5164.749999996275","sequential-stimulus-presentation-old","139","400642","0.0-31.0-1.1","SS1618365845292","trial","","40","500","5664.749999996275","images/stimuli/spore_stims/complex_07_A_a.gif","images/stimuli/spore_stims/complex_16_A_b.gif","forced_long","","11","complex_dissimilar","images/stimuli/spore_stims/complex_16_A_b.gif","","","","",""
"","null","html-keyboard-response","140","401651","0.0-31.0-0.2","SS1618365845292","","","null","","","","","","<p><img src= images/blank.png width =""600"" height = ""600"" style=""position:fixed;top:50%; left:50%; transform: translate(-50%, -50%); border:5px solid black"">","","","","","","","",""
"","2035.5749999871477","sequential-stimulus-presentation-old","141","404227","0.0-31.0-1.2","SS1618365845292","trial","","40","500","2535.5749999871477","images/stimuli/spore_stims/complex_07_A_a.gif","images/stimuli/spore_stims/complex_16_A_b.gif","forced_long","","11","complex_dissimilar","images/stimuli/spore_stims/complex_16_A_b.gif","","","","",""
"","null","html-keyboard-response","142","405492","0.0-31.0-0.3","SS1618365845292","","","null","","","","","","<p><img src= images/blank.png width =""600"" height = ""600"" style=""position:fixed;top:50%; left:50%; transform: translate(-50%, -50%); border:5px solid black"">","","","","","","","",""
"","3263.8799999840558","sequential-stimulus-presentation-old","143","409309","0.0-31.0-1.3","SS1618365845292","trial","","40","500","3763.8799999840558","images/stimuli/spore_stims/complex_07_A_a.gif","images/stimuli/spore_stims/complex_16_A_b.gif","forced_long","","11","complex_dissimilar","images/stimuli/spore_stims/complex_07_A_a.gif","","","","",""
"","null","html-keyboard-response","144","410365","0.0-31.0-0.4","SS1618365845292","","","null","","","","","","<p><img src= images/blank.png width =""600"" height = ""600"" style=""position:fixed;top:50%; left:50%; transform: translate(-50%, -50%); border:5px solid black"">","","","","","","","",""
"","1662.1049999957904","sequential-stimulus-presentation-old","145","412574","0.0-31.0-1.4","SS1618365845292","trial","","40","500","2162.1049999957904","images/stimuli/spore_stims/complex_07_A_a.gif","images/stimuli/spore_stims/complex_16_A_b.gif","forced_long","","11","complex_dissimilar","images/stimuli/spore_stims/complex_07_A_a.gif","","","","",""
"[{""page_index"":0,""viewing_time"":5851.350000011735}]","5851.959999999963","instructions","146","418462","0.0-32.0","SS1618365845292","instructions","","","","","","","","","","","","","","","",""
"","9690.37499994738","survey-likert","147","428183","0.0-33.0","SS1618365845292","similarity_question","","","","","","","","","","","","{""Q0"":3}","[0]","","images/stimuli/spore_stims/complex_07_A_a.gif","images/stimuli/spore_stims/complex_16_A_b.gif"
"","4136.759999964852","survey-likert","148","432351","0.0-34.0","SS1618365845292","similarity_question","","","","","","","","","","","","{""Q0"":4}","[0]","","images/stimuli/spore_stims/simple_16_A_a.gif","images/stimuli/spore_stims/simple_01_A_b.gif"
"","5263.784999959171","survey-likert","149","437648","0.0-35.0","SS1618365845292","similarity_question","","","","","","","","","","","","{""Q0"":4}","[0]","","images/stimuli/spore_stims/complex_02_A_b.gif","images/stimuli/spore_stims/complex_03_A_a.gif"
"","8947.054999996908","survey-likert","150","446634","0.0-36.0","SS1618365845292","similarity_question","","","","","","","","","","","","{""Q0"":3}","[0]","","images/stimuli/spore_stims/complex_17_A_a.gif","images/stimuli/spore_stims/complex_11_A_b.gif"
"","7816.195000021253","survey-likert","151","454480","0.0-37.0","SS1618365845292","similarity_question","","","","","","","","","","","","{""Q0"":4}","[0]","","images/stimuli/spore_stims/complex_04_A_a.gif","images/stimuli/spore_stims/complex_01_A_b.gif"
"","4994.93500002427","survey-likert","152","459513","0.0-38.0","SS1618365845292","similarity_question","","","","","","","","","","","","{""Q0"":5}","[0]","","images/stimuli/spore_stims/simple_09_A_b.gif","images/stimuli/spore_stims/simple_05_A_a.gif"
"","4398.840000038035","survey-likert","153","463937","0.0-39.0","SS1618365845292","similarity_question","","","","","","","","","","","","{""Q0"":4}","[0]","","images/stimuli/spore_stims/simple_02_A_a.gif","images/stimuli/spore_stims/simple_17_A_b.gif"
"","9062.480000022333","survey-likert","154","473036","0.0-40.0","SS1618365845292","similarity_question","","","","","","","","","","","","{""Q0"":4}","[0]","","images/stimuli/spore_stims/complex_19_A_b.gif","images/stimuli/spore_stims/complex_01_A_a.gif"
"","6635.705000022426","survey-likert","155","479701","0.0-41.0","SS1618365845292","similarity_question","","","","","","","","","","","","{""Q0"":3}","[0]","","images/stimuli/spore_stims/simple_16_A_b.gif","images/stimuli/spore_stims/simple_19_A_a.gif"
"","4370.080000022426","survey-likert","156","484105","0.0-42.0","SS1618365845292","similarity_question","","","","","","","","","","","","{""Q0"":3}","[0]","","images/stimuli/spore_stims/simple_08_A_b.gif","images/stimuli/spore_stims/simple_09_A_a.gif"
"","4219.8349999962375","survey-likert","157","488342","0.0-43.0","SS1618365845292","similarity_question","","","","","","","","","","","","{""Q0"":5}","[0]","","images/stimuli/spore_stims/simple_01_A_a.gif","images/stimuli/spore_stims/simple_06_A_b.gif"
"","8135.030000004917","survey-likert","158","496494","0.0-44.0","SS1618365845292","similarity_question","","","","","","","","","","","","{""Q0"":4}","[0]","","images/stimuli/spore_stims/complex_02_A_a.gif","images/stimuli/spore_stims/complex_10_A_b.gif"
"[{""page_index"":0,""viewing_time"":4683.33500000881}]","4683.98500001058","instructions","159","501207","0.0-45.0","SS1618365845292","instructions","","","","","","","","","","","","","","","",""
"","8533.014999993611","survey-likert","160","509768","0.0-46.0","SS1618365845292","","","","","","","","","images/stimuli/spore_stims/complex_17_A_a.gif","","","","{""Q0"":4}","[0]","","",""
"","4074.239999987185","survey-likert","161","513880","0.0-47.0","SS1618365845292","","","","","","","","","images/stimuli/spore_stims/simple_19_A_a.gif","","","","{""Q0"":1}","[0]","","",""
"","3295.0549999950454","survey-likert","162","517213","0.0-48.0","SS1618365845292","","","","","","","","","images/stimuli/spore_stims/simple_06_A_b.gif","","","","{""Q0"":1}","[0]","","",""
"","3537.110000033863","survey-likert","163","520771","0.0-49.0","SS1618365845292","","","","","","","","","images/stimuli/spore_stims/simple_02_A_a.gif","","","","{""Q0"":0}","[0]","","",""
"","5396.340000035707","survey-likert","164","526205","0.0-50.0","SS1618365845292","","","","","","","","","images/stimuli/spore_stims/complex_01_A_b.gif","","","","{""Q0"":5}","[0]","","",""
"","4900.625000009313","survey-likert","165","531130","0.0-51.0","SS1618365845292","","","","","","","","","images/stimuli/spore_stims/complex_01_A_a.gif","","","","{""Q0"":5}","[0]","","",""
"","5736.694999970496","survey-likert","166","536906","0.0-52.0","SS1618365845292","","","","","","","","","images/stimuli/spore_stims/complex_02_A_a.gif","","","","{""Q0"":3}","[0]","","",""
"","4609.114999999292","survey-likert","167","541545","0.0-53.0","SS1618365845292","","","","","","","","","images/stimuli/spore_stims/complex_02_A_b.gif","","","","{""Q0"":3}","[0]","","",""
"","7692.11499998346","survey-likert","168","549273","0.0-54.0","SS1618365845292","","","","","","","","","images/stimuli/spore_stims/complex_07_A_a.gif","","","","{""Q0"":4}","[0]","","",""
"","3972.7200000197627","survey-likert","169","553264","0.0-55.0","SS1618365845292","","","","","","","","","images/stimuli/spore_stims/simple_09_A_a.gif","","","","{""Q0"":1}","[0]","","",""
"","3384.9499999778345","survey-likert","170","556674","0.0-56.0","SS1618365845292","","","","","","","","","images/stimuli/spore_stims/simple_16_A_a.gif","","","","{""Q0"":1}","[0]","","",""
"","3371.564999979455","survey-likert","171","560076","0.0-57.0","SS1618365845292","","","","","","","","","images/stimuli/spore_stims/simple_05_A_a.gif","","","","{""Q0"":0}","[0]","","",""
"[{""page_index"":0,""viewing_time"":2254.6500000171363}]","2255.189999996219","instructions","172","562370","0.0-58.0","SS1618365845292","instructions","","","","","","","","","","","","","","","",""
"","4040.515000000596","demog-age","173","566446","0.0-59.0","SS1618365845292","","","","","","","","","","","","","{""age"":""46""}","","","",""
"","4456.8100000033155","demog-ethnic-US","174","570943","0.0-60.0","SS1618365845292","","","","","","","","","","","","","{""ethnicity"":[""White""]}","[0]","","",""
"","7460.460000031162","demog-gender-and-education","175","578423","0.0-61.0","SS1618365845292","","","","","","","","","","","","","{""gender"":""Female"",""education"":""Master's Degree""}","[0,1]","","",""
"","10749.20000002021","survey-text","176","589206","0.0-62.0","SS1618365845292","feedback","","","","","","","","","","","","{""Q0"":""no issues""}","","","",""
"[{""page_index"":0,""viewing_time"":2581.1349999858066}]","2581.7349999560975","instructions","177","591826","0.0-63.0","SS1618365845292","instructions","","","","","","","","","","","","","","","",""
