"view_history","rt","trial_type","trial_index","time_elapsed","internal_node_id","subject","stimulus_type","trial_stimulus","key_press","minimum_viewing_duration","trial_looking_time","block_deviant","block_background","exposure_type","stimulus","block_number","block_type","stimulus_displayed","responses","question_order","math_correct_answer","stimulus_left","stimulus_right"
"[{""page_index"":0,""viewing_time"":15296.035000006668}]","15297.050000051968","instructions","0","15299","0.0-0.0","SS1618366039066","","","","","","","","","","","","","","","","",""
"[{""page_index"":0,""viewing_time"":12696.759999962524},{""page_index"":1,""viewing_time"":6725.320000026841}]","19422.46500001056","instructions","1","36728","0.0-1.0","SS1618366039066","instructions","","","","","","","","","","","","","","","",""
"","6947.634999989532","sequential-stimulus-presentation-old","2","44180","0.0-2.0","SS1618366039066","","","40","500","7447.634999989532","null","null","self_paced","","","","","","","","",""
"","14123.289999959525","sequential-stimulus-presentation-old","3","58805","0.0-3.0","SS1618366039066","","","40","500","14623.289999959525","null","null","self_paced","","","","","","","","",""
"[{""page_index"":0,""viewing_time"":25635.33499999903}]","25635.575000022072","instructions","4","84441","0.0-4.0","SS1618366039066","instructions","","","","","","","","","","","","","","","",""
"","654.7799999825656","sequential-stimulus-presentation-old","5","90099","0.0-5.0","SS1618366039066","","","40","500","1154.7799999825656","null","null","forced_long","","","","","","","","",""
"","2866.2100000074133","sequential-stimulus-presentation-old","6","93017","0.0-6.0","SS1618366039066","","","40","50","2916.2100000074133","null","null","forced_long","","","","","","","","",""
"[{""page_index"":0,""viewing_time"":4922.565000015311}]","4922.880000027362","instructions","7","97940","0.0-7.0","SS1618366039066","instructions","","","","","","","","","","","","","","","",""
"[{""page_index"":0,""viewing_time"":16650.955000019167},{""page_index"":1,""viewing_time"":40316.434999986086},{""page_index"":2,""viewing_time"":3673.980000021402},{""page_index"":3,""viewing_time"":1559.3999999691732},{""page_index"":4,""viewing_time"":1211.7050000233576}]","63412.9800000228","instructions","8","161355","0.0-8.0","SS1618366039066","instructions","","","","","","","","","","","","","","","",""
"","null","html-keyboard-response","9","162660","0.0-9.0-0.0","SS1618366039066","","","null","","","","","","<p><img src= images/blank.png width =""600"" height = ""600"" style=""position:fixed;top:50%; left:50%; transform: translate(-50%, -50%); border:5px solid black"">","","","","","","","",""
"","372.1800000057556","sequential-stimulus-presentation-old","10","163096","0.0-9.0-1.0","SS1618366039066","trial","","40","500","872.1800000057556","images/stimuli/spore_stims/simple_17_A_b.gif","images/stimuli/spore_stims/simple_10_A_a.gif","forced_short","","0","simple_dissimilar","images/stimuli/spore_stims/simple_10_A_a.gif","","","","",""
"","null","html-keyboard-response","11","164156","0.0-9.0-0.1","SS1618366039066","","","null","","","","","","<p><img src= images/blank.png width =""600"" height = ""600"" style=""position:fixed;top:50%; left:50%; transform: translate(-50%, -50%); border:5px solid black"">","","","","","","","",""
"","36862.04999999609","sequential-stimulus-presentation-old","12","201521","0.0-9.0-1.1","SS1618366039066","trial","","40","500","37362.04999999609","images/stimuli/spore_stims/simple_17_A_b.gif","images/stimuli/spore_stims/simple_10_A_a.gif","forced_short","","0","simple_dissimilar","images/stimuli/spore_stims/simple_17_A_b.gif","","","","",""
"","null","html-keyboard-response","13","202746","0.0-9.0-0.2","SS1618366039066","","","null","","","","","","<p><img src= images/blank.png width =""600"" height = ""600"" style=""position:fixed;top:50%; left:50%; transform: translate(-50%, -50%); border:5px solid black"">","","","","","","","",""
"","21308.66999999853","sequential-stimulus-presentation-old","14","224559","0.0-9.0-1.2","SS1618366039066","trial","","40","500","21808.66999999853","images/stimuli/spore_stims/simple_17_A_b.gif","images/stimuli/spore_stims/simple_10_A_a.gif","forced_short","","0","simple_dissimilar","images/stimuli/spore_stims/simple_10_A_a.gif","","","","",""
"","null","html-keyboard-response","15","225505","0.0-9.0-0.3","SS1618366039066","","","null","","","","","","<p><img src= images/blank.png width =""600"" height = ""600"" style=""position:fixed;top:50%; left:50%; transform: translate(-50%, -50%); border:5px solid black"">","","","","","","","",""
"","10046.664999972563","sequential-stimulus-presentation-old","16","236055","0.0-9.0-1.3","SS1618366039066","trial","","40","500","10546.664999972563","images/stimuli/spore_stims/simple_17_A_b.gif","images/stimuli/spore_stims/simple_10_A_a.gif","forced_short","","0","simple_dissimilar","images/stimuli/spore_stims/simple_10_A_a.gif","","","","",""
"","null","html-keyboard-response","17","236905","0.0-9.0-0.4","SS1618366039066","","","null","","","","","","<p><img src= images/blank.png width =""600"" height = ""600"" style=""position:fixed;top:50%; left:50%; transform: translate(-50%, -50%); border:5px solid black"">","","","","","","","",""
"","33104.20499998145","sequential-stimulus-presentation-old","18","270523","0.0-9.0-1.4","SS1618366039066","trial","","40","500","33604.20499998145","images/stimuli/spore_stims/simple_17_A_b.gif","images/stimuli/spore_stims/simple_10_A_a.gif","forced_short","","0","simple_dissimilar","images/stimuli/spore_stims/simple_17_A_b.gif","","","","",""
"","3443.3999999891967","survey-multi-choice","19","273973","0.0-10.0","SS1618366039066","math_question","","","","","","","","","","","","{""Q0"":""10""}","[0]","10","",""
"","null","html-keyboard-response","20","274990","0.0-11.0-0.0","SS1618366039066","","","null","","","","","","<p><img src= images/blank.png width =""600"" height = ""600"" style=""position:fixed;top:50%; left:50%; transform: translate(-50%, -50%); border:5px solid black"">","","","","","","","",""
"","744.9050000286661","sequential-stimulus-presentation-old","21","275790","0.0-11.0-1.0","SS1618366039066","trial","","40","500","1244.905000028666","images/stimuli/spore_stims/simple_15_A_a.gif","images/stimuli/spore_stims/simple_14_A_b.gif","forced_short","","1","simple_dissimilar","images/stimuli/spore_stims/simple_14_A_b.gif","","","","",""
"","null","html-keyboard-response","22","276922","0.0-11.0-0.1","SS1618366039066","","","null","","","","","","<p><img src= images/blank.png width =""600"" height = ""600"" style=""position:fixed;top:50%; left:50%; transform: translate(-50%, -50%); border:5px solid black"">","","","","","","","",""
"","13938.12499998603","sequential-stimulus-presentation-old","23","291377","0.0-11.0-1.1","SS1618366039066","trial","","40","500","14438.12499998603","images/stimuli/spore_stims/simple_15_A_a.gif","images/stimuli/spore_stims/simple_14_A_b.gif","forced_short","","1","simple_dissimilar","images/stimuli/spore_stims/simple_14_A_b.gif","","","","",""
"","null","html-keyboard-response","24","292334","0.0-11.0-0.2","SS1618366039066","","","null","","","","","","<p><img src= images/blank.png width =""600"" height = ""600"" style=""position:fixed;top:50%; left:50%; transform: translate(-50%, -50%); border:5px solid black"">","","","","","","","",""
"","11339.69499997329","sequential-stimulus-presentation-old","25","304178","0.0-11.0-1.2","SS1618366039066","trial","","40","500","11839.69499997329","images/stimuli/spore_stims/simple_15_A_a.gif","images/stimuli/spore_stims/simple_14_A_b.gif","forced_short","","1","simple_dissimilar","images/stimuli/spore_stims/simple_14_A_b.gif","","","","",""
"","null","html-keyboard-response","26","305272","0.0-11.0-0.3","SS1618366039066","","","null","","","","","","<p><img src= images/blank.png width =""600"" height = ""600"" style=""position:fixed;top:50%; left:50%; transform: translate(-50%, -50%); border:5px solid black"">","","","","","","","",""
"","11975.365000020247","sequential-stimulus-presentation-old","27","317753","0.0-11.0-1.3","SS1618366039066","trial","","40","500","12475.365000020247","images/stimuli/spore_stims/simple_15_A_a.gif","images/stimuli/spore_stims/simple_14_A_b.gif","forced_short","","1","simple_dissimilar","images/stimuli/spore_stims/simple_14_A_b.gif","","","","",""
"","null","html-keyboard-response","28","318860","0.0-11.0-0.4","SS1618366039066","","","null","","","","","","<p><img src= images/blank.png width =""600"" height = ""600"" style=""position:fixed;top:50%; left:50%; transform: translate(-50%, -50%); border:5px solid black"">","","","","","","","",""
"","12678.000000014435","sequential-stimulus-presentation-old","29","332043","0.0-11.0-1.4","SS1618366039066","trial","","40","500","13178.000000014435","images/stimuli/spore_stims/simple_15_A_a.gif","images/stimuli/spore_stims/simple_14_A_b.gif","forced_short","","1","simple_dissimilar","images/stimuli/spore_stims/simple_15_A_a.gif","","","","",""
"","3052.269999985583","survey-multi-choice","30","335099","0.0-12.0","SS1618366039066","math_question","","","","","","","","","","","","{""Q0"":""9""}","[0]","9","",""
"","null","html-keyboard-response","31","336096","0.0-13.0-0.0","SS1618366039066","","","null","","","","","","<p><img src= images/blank.png width =""600"" height = ""600"" style=""position:fixed;top:50%; left:50%; transform: translate(-50%, -50%); border:5px solid black"">","","","","","","","",""
"","1143.1300000404008","sequential-stimulus-presentation-old","32","342244","0.0-13.0-1.0","SS1618366039066","trial","","40","500","1643.1300000404008","images/stimuli/spore_stims/simple_05_A_a.gif","images/stimuli/spore_stims/simple_11_A_b.gif","forced_long","","2","simple_dissimilar","images/stimuli/spore_stims/simple_11_A_b.gif","","","","",""
"","null","html-keyboard-response","33","343116","0.0-13.0-0.1","SS1618366039066","","","null","","","","","","<p><img src= images/blank.png width =""600"" height = ""600"" style=""position:fixed;top:50%; left:50%; transform: translate(-50%, -50%); border:5px solid black"">","","","","","","","",""
"","26419.355000020005","sequential-stimulus-presentation-old","34","370050","0.0-13.0-1.1","SS1618366039066","trial","","40","500","26919.355000020005","images/stimuli/spore_stims/simple_05_A_a.gif","images/stimuli/spore_stims/simple_11_A_b.gif","forced_long","","2","simple_dissimilar","images/stimuli/spore_stims/simple_11_A_b.gif","","","","",""
"","null","html-keyboard-response","35","370955","0.0-13.0-0.2","SS1618366039066","","","null","","","","","","<p><img src= images/blank.png width =""600"" height = ""600"" style=""position:fixed;top:50%; left:50%; transform: translate(-50%, -50%); border:5px solid black"">","","","","","","","",""
"","31798.269999970216","sequential-stimulus-presentation-old","36","403261","0.0-13.0-1.2","SS1618366039066","trial","","40","500","32298.269999970216","images/stimuli/spore_stims/simple_05_A_a.gif","images/stimuli/spore_stims/simple_11_A_b.gif","forced_long","","2","simple_dissimilar","images/stimuli/spore_stims/simple_05_A_a.gif","","","","",""
"","null","html-keyboard-response","37","404545","0.0-13.0-0.3","SS1618366039066","","","null","","","","","","<p><img src= images/blank.png width =""600"" height = ""600"" style=""position:fixed;top:50%; left:50%; transform: translate(-50%, -50%); border:5px solid black"">","","","","","","","",""
"","27976.675000041723","sequential-stimulus-presentation-old","38","433025","0.0-13.0-1.3","SS1618366039066","trial","","40","500","28476.675000041723","images/stimuli/spore_stims/simple_05_A_a.gif","images/stimuli/spore_stims/simple_11_A_b.gif","forced_long","","2","simple_dissimilar","images/stimuli/spore_stims/simple_11_A_b.gif","","","","",""
"","null","html-keyboard-response","39","434001","0.0-13.0-0.4","SS1618366039066","","","null","","","","","","<p><img src= images/blank.png width =""600"" height = ""600"" style=""position:fixed;top:50%; left:50%; transform: translate(-50%, -50%); border:5px solid black"">","","","","","","","",""
"","16712.449999991804","sequential-stimulus-presentation-old","40","451219","0.0-13.0-1.4","SS1618366039066","trial","","40","500","17212.449999991804","images/stimuli/spore_stims/simple_05_A_a.gif","images/stimuli/spore_stims/simple_11_A_b.gif","forced_long","","2","simple_dissimilar","images/stimuli/spore_stims/simple_11_A_b.gif","","","","",""
"","null","html-keyboard-response","41","452258","0.0-13.0-0.5","SS1618366039066","","","null","","","","","","<p><img src= images/blank.png width =""600"" height = ""600"" style=""position:fixed;top:50%; left:50%; transform: translate(-50%, -50%); border:5px solid black"">","","","","","","","",""
"","41290.584999951534","sequential-stimulus-presentation-old","42","494065","0.0-13.0-1.5","SS1618366039066","trial","","40","500","41790.584999951534","images/stimuli/spore_stims/simple_05_A_a.gif","images/stimuli/spore_stims/simple_11_A_b.gif","forced_long","","2","simple_dissimilar","images/stimuli/spore_stims/simple_11_A_b.gif","","","","",""
"","3109.7549999831244","survey-multi-choice","43","497177","0.0-14.0","SS1618366039066","math_question","","","","","","","","","","","","{""Q0"":""11""}","[0]","11","",""
"","null","html-keyboard-response","44","498335","0.0-15.0-0.0","SS1618366039066","","","null","","","","","","<p><img src= images/blank.png width =""600"" height = ""600"" style=""position:fixed;top:50%; left:50%; transform: translate(-50%, -50%); border:5px solid black"">","","","","","","","",""
"","29055.37000001641","sequential-stimulus-presentation-old","45","527898","0.0-15.0-1.0","SS1618366039066","trial","","40","500","29555.37000001641","images/stimuli/spore_stims/simple_12_A_a.gif","images/stimuli/spore_stims/simple_15_A_b.gif","self_paced","","3","simple_dissimilar","images/stimuli/spore_stims/simple_15_A_b.gif","","","","",""
"","null","html-keyboard-response","46","528849","0.0-15.0-0.1","SS1618366039066","","","null","","","","","","<p><img src= images/blank.png width =""600"" height = ""600"" style=""position:fixed;top:50%; left:50%; transform: translate(-50%, -50%); border:5px solid black"">","","","","","","","",""
"","23296.00999999093","sequential-stimulus-presentation-old","47","552649","0.0-15.0-1.1","SS1618366039066","trial","","40","500","23796.00999999093","images/stimuli/spore_stims/simple_12_A_a.gif","images/stimuli/spore_stims/simple_15_A_b.gif","self_paced","","3","simple_dissimilar","images/stimuli/spore_stims/simple_15_A_b.gif","","","","",""
"","null","html-keyboard-response","48","553503","0.0-15.0-0.2","SS1618366039066","","","null","","","","","","<p><img src= images/blank.png width =""600"" height = ""600"" style=""position:fixed;top:50%; left:50%; transform: translate(-50%, -50%); border:5px solid black"">","","","","","","","",""
"","34627.78000003891","sequential-stimulus-presentation-old","49","588636","0.0-15.0-1.2","SS1618366039066","trial","","40","500","35127.78000003891","images/stimuli/spore_stims/simple_12_A_a.gif","images/stimuli/spore_stims/simple_15_A_b.gif","self_paced","","3","simple_dissimilar","images/stimuli/spore_stims/simple_15_A_b.gif","","","","",""
"","null","html-keyboard-response","50","589680","0.0-15.0-0.3","SS1618366039066","","","null","","","","","","<p><img src= images/blank.png width =""600"" height = ""600"" style=""position:fixed;top:50%; left:50%; transform: translate(-50%, -50%); border:5px solid black"">","","","","","","","",""
"","21414.19500001939","sequential-stimulus-presentation-old","51","611606","0.0-15.0-1.3","SS1618366039066","trial","","40","500","21914.19500001939","images/stimuli/spore_stims/simple_12_A_a.gif","images/stimuli/spore_stims/simple_15_A_b.gif","self_paced","","3","simple_dissimilar","images/stimuli/spore_stims/simple_12_A_a.gif","","","","",""
"","null","html-keyboard-response","52","612838","0.0-15.0-0.4","SS1618366039066","","","null","","","","","","<p><img src= images/blank.png width =""600"" height = ""600"" style=""position:fixed;top:50%; left:50%; transform: translate(-50%, -50%); border:5px solid black"">","","","","","","","",""
"","21567.310000013094","sequential-stimulus-presentation-old","53","634911","0.0-15.0-1.4","SS1618366039066","trial","","40","500","22067.310000013094","images/stimuli/spore_stims/simple_12_A_a.gif","images/stimuli/spore_stims/simple_15_A_b.gif","self_paced","","3","simple_dissimilar","images/stimuli/spore_stims/simple_12_A_a.gif","","","","",""
"","3728.4899999503978","survey-multi-choice","54","638642","0.0-16.0","SS1618366039066","math_question","","","","","","","","","","","","{""Q0"":""14""}","[0]","14","",""
"","null","html-keyboard-response","55","639671","0.0-17.0-0.0","SS1618366039066","","","null","","","","","","<p><img src= images/blank.png width =""600"" height = ""600"" style=""position:fixed;top:50%; left:50%; transform: translate(-50%, -50%); border:5px solid black"">","","","","","","","",""
"","709.949999989476","sequential-stimulus-presentation-old","56","640444","0.0-17.0-1.0","SS1618366039066","trial","","40","500","1209.949999989476","images/stimuli/spore_stims/complex_11_A_b.gif","images/stimuli/spore_stims/complex_10_A_a.gif","forced_short","","4","complex_dissimilar","images/stimuli/spore_stims/complex_10_A_a.gif","","","","",""
"","null","html-keyboard-response","57","641629","0.0-17.0-0.1","SS1618366039066","","","null","","","","","","<p><img src= images/blank.png width =""600"" height = ""600"" style=""position:fixed;top:50%; left:50%; transform: translate(-50%, -50%); border:5px solid black"">","","","","","","","",""
"","9259.629999985918","sequential-stimulus-presentation-old","58","651392","0.0-17.0-1.1","SS1618366039066","trial","","40","500","9759.629999985918","images/stimuli/spore_stims/complex_11_A_b.gif","images/stimuli/spore_stims/complex_10_A_a.gif","forced_short","","4","complex_dissimilar","images/stimuli/spore_stims/complex_11_A_b.gif","","","","",""
"","null","html-keyboard-response","59","652316","0.0-17.0-0.2","SS1618366039066","","","null","","","","","","<p><img src= images/blank.png width =""600"" height = ""600"" style=""position:fixed;top:50%; left:50%; transform: translate(-50%, -50%); border:5px solid black"">","","","","","","","",""
"","11396.60500001628","sequential-stimulus-presentation-old","60","664219","0.0-17.0-1.2","SS1618366039066","trial","","40","500","11896.60500001628","images/stimuli/spore_stims/complex_11_A_b.gif","images/stimuli/spore_stims/complex_10_A_a.gif","forced_short","","4","complex_dissimilar","images/stimuli/spore_stims/complex_10_A_a.gif","","","","",""
"","null","html-keyboard-response","61","665349","0.0-17.0-0.3","SS1618366039066","","","null","","","","","","<p><img src= images/blank.png width =""600"" height = ""600"" style=""position:fixed;top:50%; left:50%; transform: translate(-50%, -50%); border:5px solid black"">","","","","","","","",""
"","10905.465000018012","sequential-stimulus-presentation-old","62","676761","0.0-17.0-1.3","SS1618366039066","trial","","40","500","11405.465000018012","images/stimuli/spore_stims/complex_11_A_b.gif","images/stimuli/spore_stims/complex_10_A_a.gif","forced_short","","4","complex_dissimilar","images/stimuli/spore_stims/complex_10_A_a.gif","","","","",""
"","null","html-keyboard-response","63","677994","0.0-17.0-0.4","SS1618366039066","","","null","","","","","","<p><img src= images/blank.png width =""600"" height = ""600"" style=""position:fixed;top:50%; left:50%; transform: translate(-50%, -50%); border:5px solid black"">","","","","","","","",""
"","11422.465000010561","sequential-stimulus-presentation-old","64","689920","0.0-17.0-1.4","SS1618366039066","trial","","40","500","11922.465000010561","images/stimuli/spore_stims/complex_11_A_b.gif","images/stimuli/spore_stims/complex_10_A_a.gif","forced_short","","4","complex_dissimilar","images/stimuli/spore_stims/complex_11_A_b.gif","","","","",""
"","3397.1700000111014","survey-multi-choice","65","693320","0.0-18.0","SS1618366039066","math_question","","","","","","","","","","","","{""Q0"":""13""}","[0]","13","",""
"","null","html-keyboard-response","66","694478","0.0-19.0-0.0","SS1618366039066","","","null","","","","","","<p><img src= images/blank.png width =""600"" height = ""600"" style=""position:fixed;top:50%; left:50%; transform: translate(-50%, -50%); border:5px solid black"">","","","","","","","",""
"","7514.144999964628","sequential-stimulus-presentation-old","67","702498","0.0-19.0-1.0","SS1618366039066","trial","","40","500","8014.144999964628","images/stimuli/spore_stims/simple_16_A_a.gif","images/stimuli/spore_stims/simple_09_A_b.gif","self_paced","","5","simple_dissimilar","images/stimuli/spore_stims/simple_09_A_b.gif","","","","",""
"","null","html-keyboard-response","68","703368","0.0-19.0-0.1","SS1618366039066","","","null","","","","","","<p><img src= images/blank.png width =""600"" height = ""600"" style=""position:fixed;top:50%; left:50%; transform: translate(-50%, -50%); border:5px solid black"">","","","","","","","",""
"","8201.969999994617","sequential-stimulus-presentation-old","69","712078","0.0-19.0-1.1","SS1618366039066","trial","","40","500","8701.969999994617","images/stimuli/spore_stims/simple_16_A_a.gif","images/stimuli/spore_stims/simple_09_A_b.gif","self_paced","","5","simple_dissimilar","images/stimuli/spore_stims/simple_09_A_b.gif","","","","",""
"","null","html-keyboard-response","70","713216","0.0-19.0-0.2","SS1618366039066","","","null","","","","","","<p><img src= images/blank.png width =""600"" height = ""600"" style=""position:fixed;top:50%; left:50%; transform: translate(-50%, -50%); border:5px solid black"">","","","","","","","",""
"","13996.640000026673","sequential-stimulus-presentation-old","71","727719","0.0-19.0-1.2","SS1618366039066","trial","","40","500","14496.640000026673","images/stimuli/spore_stims/simple_16_A_a.gif","images/stimuli/spore_stims/simple_09_A_b.gif","self_paced","","5","simple_dissimilar","images/stimuli/spore_stims/simple_16_A_a.gif","","","","",""
"","null","html-keyboard-response","72","728854","0.0-19.0-0.3","SS1618366039066","","","null","","","","","","<p><img src= images/blank.png width =""600"" height = ""600"" style=""position:fixed;top:50%; left:50%; transform: translate(-50%, -50%); border:5px solid black"">","","","","","","","",""
"","17673.829999985173","sequential-stimulus-presentation-old","73","747035","0.0-19.0-1.3","SS1618366039066","trial","","40","500","18173.829999985173","images/stimuli/spore_stims/simple_16_A_a.gif","images/stimuli/spore_stims/simple_09_A_b.gif","self_paced","","5","simple_dissimilar","images/stimuli/spore_stims/simple_09_A_b.gif","","","","",""
"","null","html-keyboard-response","74","748318","0.0-19.0-0.4","SS1618366039066","","","null","","","","","","<p><img src= images/blank.png width =""600"" height = ""600"" style=""position:fixed;top:50%; left:50%; transform: translate(-50%, -50%); border:5px solid black"">","","","","","","","",""
"","12957.585000025574","sequential-stimulus-presentation-old","75","761781","0.0-19.0-1.4","SS1618366039066","trial","","40","500","13457.585000025574","images/stimuli/spore_stims/simple_16_A_a.gif","images/stimuli/spore_stims/simple_09_A_b.gif","self_paced","","5","simple_dissimilar","images/stimuli/spore_stims/simple_09_A_b.gif","","","","",""
"","2849.8100000433624","survey-multi-choice","76","764633","0.0-20.0","SS1618366039066","math_question","","","","","","","","","","","","{""Q0"":""5""}","[0]","5","",""
"","null","html-keyboard-response","77","765874","0.0-21.0-0.0","SS1618366039066","","","null","","","","","","<p><img src= images/blank.png width =""600"" height = ""600"" style=""position:fixed;top:50%; left:50%; transform: translate(-50%, -50%); border:5px solid black"">","","","","","","","",""
"","6862.434999959078","sequential-stimulus-presentation-old","78","773244","0.0-21.0-1.0","SS1618366039066","trial","","40","500","7362.434999959078","images/stimuli/spore_stims/complex_10_A_b.gif","images/stimuli/spore_stims/complex_15_A_a.gif","self_paced","","6","complex_dissimilar","images/stimuli/spore_stims/complex_15_A_a.gif","","","","",""
"","null","html-keyboard-response","79","774506","0.0-21.0-0.1","SS1618366039066","","","null","","","","","","<p><img src= images/blank.png width =""600"" height = ""600"" style=""position:fixed;top:50%; left:50%; transform: translate(-50%, -50%); border:5px solid black"">","","","","","","","",""
"","7757.219999970403","sequential-stimulus-presentation-old","80","782779","0.0-21.0-1.1","SS1618366039066","trial","","40","500","8257.219999970403","images/stimuli/spore_stims/complex_10_A_b.gif","images/stimuli/spore_stims/complex_15_A_a.gif","self_paced","","6","complex_dissimilar","images/stimuli/spore_stims/complex_15_A_a.gif","","","","",""
"","null","html-keyboard-response","81","783865","0.0-21.0-0.2","SS1618366039066","","","null","","","","","","<p><img src= images/blank.png width =""600"" height = ""600"" style=""position:fixed;top:50%; left:50%; transform: translate(-50%, -50%); border:5px solid black"">","","","","","","","",""
"","8176.7499999841675","sequential-stimulus-presentation-old","82","792548","0.0-21.0-1.2","SS1618366039066","trial","","40","500","8676.749999984168","images/stimuli/spore_stims/complex_10_A_b.gif","images/stimuli/spore_stims/complex_15_A_a.gif","self_paced","","6","complex_dissimilar","images/stimuli/spore_stims/complex_15_A_a.gif","","","","",""
"","null","html-keyboard-response","83","793527","0.0-21.0-0.3","SS1618366039066","","","null","","","","","","<p><img src= images/blank.png width =""600"" height = ""600"" style=""position:fixed;top:50%; left:50%; transform: translate(-50%, -50%); border:5px solid black"">","","","","","","","",""
"","7818.2249999954365","sequential-stimulus-presentation-old","84","801849","0.0-21.0-1.3","SS1618366039066","trial","","40","500","8318.224999995437","images/stimuli/spore_stims/complex_10_A_b.gif","images/stimuli/spore_stims/complex_15_A_a.gif","self_paced","","6","complex_dissimilar","images/stimuli/spore_stims/complex_15_A_a.gif","","","","",""
"","3198.470000002999","survey-multi-choice","85","805051","0.0-22.0","SS1618366039066","math_question","","","","","","","","","","","","{""Q0"":""7""}","[0]","7","",""
"","null","html-keyboard-response","86","805937","0.0-23.0-0.0","SS1618366039066","","","null","","","","","","<p><img src= images/blank.png width =""600"" height = ""600"" style=""position:fixed;top:50%; left:50%; transform: translate(-50%, -50%); border:5px solid black"">","","","","","","","",""
"","12813.904999988154","sequential-stimulus-presentation-old","87","819256","0.0-23.0-1.0","SS1618366039066","trial","","40","500","13313.904999988154","images/stimuli/spore_stims/complex_14_A_a.gif","images/stimuli/spore_stims/complex_08_A_b.gif","self_paced","","7","complex_dissimilar","images/stimuli/spore_stims/complex_08_A_b.gif","","","","",""
"","null","html-keyboard-response","88","820378","0.0-23.0-0.1","SS1618366039066","","","null","","","","","","<p><img src= images/blank.png width =""600"" height = ""600"" style=""position:fixed;top:50%; left:50%; transform: translate(-50%, -50%); border:5px solid black"">","","","","","","","",""
"","11841.829999990296","sequential-stimulus-presentation-old","89","832727","0.0-23.0-1.1","SS1618366039066","trial","","40","500","12341.829999990296","images/stimuli/spore_stims/complex_14_A_a.gif","images/stimuli/spore_stims/complex_08_A_b.gif","self_paced","","7","complex_dissimilar","images/stimuli/spore_stims/complex_08_A_b.gif","","","","",""
"","null","html-keyboard-response","90","833921","0.0-23.0-0.2","SS1618366039066","","","null","","","","","","<p><img src= images/blank.png width =""600"" height = ""600"" style=""position:fixed;top:50%; left:50%; transform: translate(-50%, -50%); border:5px solid black"">","","","","","","","",""
"","7633.625000016764","sequential-stimulus-presentation-old","91","842061","0.0-23.0-1.2","SS1618366039066","trial","","40","500","8133.625000016764","images/stimuli/spore_stims/complex_14_A_a.gif","images/stimuli/spore_stims/complex_08_A_b.gif","self_paced","","7","complex_dissimilar","images/stimuli/spore_stims/complex_08_A_b.gif","","","","",""
"","null","html-keyboard-response","92","843300","0.0-23.0-0.3","SS1618366039066","","","null","","","","","","<p><img src= images/blank.png width =""600"" height = ""600"" style=""position:fixed;top:50%; left:50%; transform: translate(-50%, -50%); border:5px solid black"">","","","","","","","",""
"","6446.614999964368","sequential-stimulus-presentation-old","93","850250","0.0-23.0-1.3","SS1618366039066","trial","","40","500","6946.614999964368","images/stimuli/spore_stims/complex_14_A_a.gif","images/stimuli/spore_stims/complex_08_A_b.gif","self_paced","","7","complex_dissimilar","images/stimuli/spore_stims/complex_08_A_b.gif","","","","",""
"","null","html-keyboard-response","94","851103","0.0-23.0-0.4","SS1618366039066","","","null","","","","","","<p><img src= images/blank.png width =""600"" height = ""600"" style=""position:fixed;top:50%; left:50%; transform: translate(-50%, -50%); border:5px solid black"">","","","","","","","",""
"","10834.845000004862","sequential-stimulus-presentation-old","95","862442","0.0-23.0-1.4","SS1618366039066","trial","","40","500","11334.845000004862","images/stimuli/spore_stims/complex_14_A_a.gif","images/stimuli/spore_stims/complex_08_A_b.gif","self_paced","","7","complex_dissimilar","images/stimuli/spore_stims/complex_08_A_b.gif","","","","",""
"","null","html-keyboard-response","96","863290","0.0-23.0-0.5","SS1618366039066","","","null","","","","","","<p><img src= images/blank.png width =""600"" height = ""600"" style=""position:fixed;top:50%; left:50%; transform: translate(-50%, -50%); border:5px solid black"">","","","","","","","",""
"","8093.070000002626","sequential-stimulus-presentation-old","97","871887","0.0-23.0-1.5","SS1618366039066","trial","","40","500","8593.070000002626","images/stimuli/spore_stims/complex_14_A_a.gif","images/stimuli/spore_stims/complex_08_A_b.gif","self_paced","","7","complex_dissimilar","images/stimuli/spore_stims/complex_14_A_a.gif","","","","",""
"","2696.6400000383146","survey-multi-choice","98","874587","0.0-24.0","SS1618366039066","math_question","","","","","","","","","","","","{""Q0"":""9""}","[0]","9","",""
"","null","html-keyboard-response","99","875527","0.0-25.0-0.0","SS1618366039066","","","null","","","","","","<p><img src= images/blank.png width =""600"" height = ""600"" style=""position:fixed;top:50%; left:50%; transform: translate(-50%, -50%); border:5px solid black"">","","","","","","","",""
"","895.9150000009686","sequential-stimulus-presentation-old","100","881429","0.0-25.0-1.0","SS1618366039066","trial","","40","500","1395.9150000009686","images/stimuli/spore_stims/complex_02_A_a.gif","images/stimuli/spore_stims/complex_12_A_b.gif","forced_long","","8","complex_dissimilar","images/stimuli/spore_stims/complex_12_A_b.gif","","","","",""
"","null","html-keyboard-response","101","882557","0.0-25.0-0.1","SS1618366039066","","","null","","","","","","<p><img src= images/blank.png width =""600"" height = ""600"" style=""position:fixed;top:50%; left:50%; transform: translate(-50%, -50%); border:5px solid black"">","","","","","","","",""
"","14206.285000022035","sequential-stimulus-presentation-old","102","897272","0.0-25.0-1.1","SS1618366039066","trial","","40","500","14706.285000022035","images/stimuli/spore_stims/complex_02_A_a.gif","images/stimuli/spore_stims/complex_12_A_b.gif","forced_long","","8","complex_dissimilar","images/stimuli/spore_stims/complex_12_A_b.gif","","","","",""
"","null","html-keyboard-response","103","898123","0.0-25.0-0.2","SS1618366039066","","","null","","","","","","<p><img src= images/blank.png width =""600"" height = ""600"" style=""position:fixed;top:50%; left:50%; transform: translate(-50%, -50%); border:5px solid black"">","","","","","","","",""
"","6544.129999994766","sequential-stimulus-presentation-old","104","905173","0.0-25.0-1.2","SS1618366039066","trial","","40","500","7044.129999994766","images/stimuli/spore_stims/complex_02_A_a.gif","images/stimuli/spore_stims/complex_12_A_b.gif","forced_long","","8","complex_dissimilar","images/stimuli/spore_stims/complex_12_A_b.gif","","","","",""
"","null","html-keyboard-response","105","906353","0.0-25.0-0.3","SS1618366039066","","","null","","","","","","<p><img src= images/blank.png width =""600"" height = ""600"" style=""position:fixed;top:50%; left:50%; transform: translate(-50%, -50%); border:5px solid black"">","","","","","","","",""
"","16279.045000032056","sequential-stimulus-presentation-old","106","923137","0.0-25.0-1.3","SS1618366039066","trial","","40","500","16779.045000032056","images/stimuli/spore_stims/complex_02_A_a.gif","images/stimuli/spore_stims/complex_12_A_b.gif","forced_long","","8","complex_dissimilar","images/stimuli/spore_stims/complex_02_A_a.gif","","","","",""
"","null","html-keyboard-response","107","923952","0.0-25.0-0.4","SS1618366039066","","","null","","","","","","<p><img src= images/blank.png width =""600"" height = ""600"" style=""position:fixed;top:50%; left:50%; transform: translate(-50%, -50%); border:5px solid black"">","","","","","","","",""
"","9862.674999982119","sequential-stimulus-presentation-old","108","934332","0.0-25.0-1.4","SS1618366039066","trial","","40","500","10362.674999982119","images/stimuli/spore_stims/complex_02_A_a.gif","images/stimuli/spore_stims/complex_12_A_b.gif","forced_long","","8","complex_dissimilar","images/stimuli/spore_stims/complex_12_A_b.gif","","","","",""
"","null","html-keyboard-response","109","935277","0.0-25.0-0.5","SS1618366039066","","","null","","","","","","<p><img src= images/blank.png width =""600"" height = ""600"" style=""position:fixed;top:50%; left:50%; transform: translate(-50%, -50%); border:5px solid black"">","","","","","","","",""
"","9936.619999993127","sequential-stimulus-presentation-old","110","945719","0.0-25.0-1.5","SS1618366039066","trial","","40","500","10436.619999993127","images/stimuli/spore_stims/complex_02_A_a.gif","images/stimuli/spore_stims/complex_12_A_b.gif","forced_long","","8","complex_dissimilar","images/stimuli/spore_stims/complex_12_A_b.gif","","","","",""
"","3121.579999977257","survey-multi-choice","111","948845","0.0-26.0","SS1618366039066","math_question","","","","","","","","","","","","{""Q0"":""6""}","[0]","6","",""
"","null","html-keyboard-response","112","949929","0.0-27.0-0.0","SS1618366039066","","","null","","","","","","<p><img src= images/blank.png width =""600"" height = ""600"" style=""position:fixed;top:50%; left:50%; transform: translate(-50%, -50%); border:5px solid black"">","","","","","","","",""
"","1243.9850000082515","sequential-stimulus-presentation-old","113","956179","0.0-27.0-1.0","SS1618366039066","trial","","40","500","1743.9850000082515","images/stimuli/spore_stims/simple_09_A_a.gif","images/stimuli/spore_stims/simple_08_A_b.gif","forced_long","","9","simple_dissimilar","images/stimuli/spore_stims/simple_08_A_b.gif","","","","",""
"","null","html-keyboard-response","114","957287","0.0-27.0-0.1","SS1618366039066","","","null","","","","","","<p><img src= images/blank.png width =""600"" height = ""600"" style=""position:fixed;top:50%; left:50%; transform: translate(-50%, -50%); border:5px solid black"">","","","","","","","",""
"","11998.320000013337","sequential-stimulus-presentation-old","115","969798","0.0-27.0-1.1","SS1618366039066","trial","","40","500","12498.320000013337","images/stimuli/spore_stims/simple_09_A_a.gif","images/stimuli/spore_stims/simple_08_A_b.gif","forced_long","","9","simple_dissimilar","images/stimuli/spore_stims/simple_08_A_b.gif","","","","",""
"","null","html-keyboard-response","116","970673","0.0-27.0-0.2","SS1618366039066","","","null","","","","","","<p><img src= images/blank.png width =""600"" height = ""600"" style=""position:fixed;top:50%; left:50%; transform: translate(-50%, -50%); border:5px solid black"">","","","","","","","",""
"","6645.6100000068545","sequential-stimulus-presentation-old","117","977826","0.0-27.0-1.2","SS1618366039066","trial","","40","500","7145.6100000068545","images/stimuli/spore_stims/simple_09_A_a.gif","images/stimuli/spore_stims/simple_08_A_b.gif","forced_long","","9","simple_dissimilar","images/stimuli/spore_stims/simple_09_A_a.gif","","","","",""
"","null","html-keyboard-response","118","978874","0.0-27.0-0.3","SS1618366039066","","","null","","","","","","<p><img src= images/blank.png width =""600"" height = ""600"" style=""position:fixed;top:50%; left:50%; transform: translate(-50%, -50%); border:5px solid black"">","","","","","","","",""
"","8449.884999950882","sequential-stimulus-presentation-old","119","987831","0.0-27.0-1.3","SS1618366039066","trial","","40","500","8949.884999950882","images/stimuli/spore_stims/simple_09_A_a.gif","images/stimuli/spore_stims/simple_08_A_b.gif","forced_long","","9","simple_dissimilar","images/stimuli/spore_stims/simple_08_A_b.gif","","","","",""
"","null","html-keyboard-response","120","988868","0.0-27.0-0.4","SS1618366039066","","","null","","","","","","<p><img src= images/blank.png width =""600"" height = ""600"" style=""position:fixed;top:50%; left:50%; transform: translate(-50%, -50%); border:5px solid black"">","","","","","","","",""
"","6928.82999998983","sequential-stimulus-presentation-old","121","996305","0.0-27.0-1.4","SS1618366039066","trial","","40","500","7428.82999998983","images/stimuli/spore_stims/simple_09_A_a.gif","images/stimuli/spore_stims/simple_08_A_b.gif","forced_long","","9","simple_dissimilar","images/stimuli/spore_stims/simple_09_A_a.gif","","","","",""
"","2604.125000012573","survey-multi-choice","122","998913","0.0-28.0","SS1618366039066","math_question","","","","","","","","","","","","{""Q0"":""4""}","[0]","4","",""
"","null","html-keyboard-response","123","1000044","0.0-29.0-0.0","SS1618366039066","","","null","","","","","","<p><img src= images/blank.png width =""600"" height = ""600"" style=""position:fixed;top:50%; left:50%; transform: translate(-50%, -50%); border:5px solid black"">","","","","","","","",""
"","579.1900000185706","sequential-stimulus-presentation-old","124","1005634","0.0-29.0-1.0","SS1618366039066","trial","","40","500","1079.1900000185706","images/stimuli/spore_stims/complex_20_A_a.gif","images/stimuli/spore_stims/complex_06_A_b.gif","forced_long","","10","complex_dissimilar","images/stimuli/spore_stims/complex_06_A_b.gif","","","","",""
"","null","html-keyboard-response","125","1006581","0.0-29.0-0.1","SS1618366039066","","","null","","","","","","<p><img src= images/blank.png width =""600"" height = ""600"" style=""position:fixed;top:50%; left:50%; transform: translate(-50%, -50%); border:5px solid black"">","","","","","","","",""
"","13354.19499996351","sequential-stimulus-presentation-old","126","1020441","0.0-29.0-1.1","SS1618366039066","trial","","40","500","13854.19499996351","images/stimuli/spore_stims/complex_20_A_a.gif","images/stimuli/spore_stims/complex_06_A_b.gif","forced_long","","10","complex_dissimilar","images/stimuli/spore_stims/complex_20_A_a.gif","","","","",""
"","null","html-keyboard-response","127","1021410","0.0-29.0-0.2","SS1618366039066","","","null","","","","","","<p><img src= images/blank.png width =""600"" height = ""600"" style=""position:fixed;top:50%; left:50%; transform: translate(-50%, -50%); border:5px solid black"">","","","","","","","",""
"","8772.649999998976","sequential-stimulus-presentation-old","128","1030688","0.0-29.0-1.2","SS1618366039066","trial","","40","500","9272.649999998976","images/stimuli/spore_stims/complex_20_A_a.gif","images/stimuli/spore_stims/complex_06_A_b.gif","forced_long","","10","complex_dissimilar","images/stimuli/spore_stims/complex_06_A_b.gif","","","","",""
"","null","html-keyboard-response","129","1031639","0.0-29.0-0.3","SS1618366039066","","","null","","","","","","<p><img src= images/blank.png width =""600"" height = ""600"" style=""position:fixed;top:50%; left:50%; transform: translate(-50%, -50%); border:5px solid black"">","","","","","","","",""
"","7730.574999994133","sequential-stimulus-presentation-old","130","1039875","0.0-29.0-1.3","SS1618366039066","trial","","40","500","8230.574999994133","images/stimuli/spore_stims/complex_20_A_a.gif","images/stimuli/spore_stims/complex_06_A_b.gif","forced_long","","10","complex_dissimilar","images/stimuli/spore_stims/complex_06_A_b.gif","","","","",""
"","null","html-keyboard-response","131","1040972","0.0-29.0-0.4","SS1618366039066","","","null","","","","","","<p><img src= images/blank.png width =""600"" height = ""600"" style=""position:fixed;top:50%; left:50%; transform: translate(-50%, -50%); border:5px solid black"">","","","","","","","",""
"","13163.919999962673","sequential-stimulus-presentation-old","132","1054642","0.0-29.0-1.4","SS1618366039066","trial","","40","500","13663.919999962673","images/stimuli/spore_stims/complex_20_A_a.gif","images/stimuli/spore_stims/complex_06_A_b.gif","forced_long","","10","complex_dissimilar","images/stimuli/spore_stims/complex_06_A_b.gif","","","","",""
"","null","html-keyboard-response","133","1055622","0.0-29.0-0.5","SS1618366039066","","","null","","","","","","<p><img src= images/blank.png width =""600"" height = ""600"" style=""position:fixed;top:50%; left:50%; transform: translate(-50%, -50%); border:5px solid black"">","","","","","","","",""
"","8030.97500000149","sequential-stimulus-presentation-old","134","1064159","0.0-29.0-1.5","SS1618366039066","trial","","40","500","8530.97500000149","images/stimuli/spore_stims/complex_20_A_a.gif","images/stimuli/spore_stims/complex_06_A_b.gif","forced_long","","10","complex_dissimilar","images/stimuli/spore_stims/complex_06_A_b.gif","","","","",""
"","3501.894999993965","survey-multi-choice","135","1067664","0.0-30.0","SS1618366039066","math_question","","","","","","","","","","","","{""Q0"":""13""}","[0]","13","",""
"","null","html-keyboard-response","136","1068845","0.0-31.0-0.0","SS1618366039066","","","null","","","","","","<p><img src= images/blank.png width =""600"" height = ""600"" style=""position:fixed;top:50%; left:50%; transform: translate(-50%, -50%); border:5px solid black"">","","","","","","","",""
"","837.4900000053458","sequential-stimulus-presentation-old","137","1069739","0.0-31.0-1.0","SS1618366039066","trial","","40","500","1337.4900000053458","images/stimuli/spore_stims/complex_17_A_b.gif","images/stimuli/spore_stims/complex_13_A_a.gif","forced_short","","11","complex_dissimilar","images/stimuli/spore_stims/complex_13_A_a.gif","","","","",""
"","null","html-keyboard-response","138","1070950","0.0-31.0-0.1","SS1618366039066","","","null","","","","","","<p><img src= images/blank.png width =""600"" height = ""600"" style=""position:fixed;top:50%; left:50%; transform: translate(-50%, -50%); border:5px solid black"">","","","","","","","",""
"","8893.184999993537","sequential-stimulus-presentation-old","139","1080348","0.0-31.0-1.1","SS1618366039066","trial","","40","500","9393.184999993537","images/stimuli/spore_stims/complex_17_A_b.gif","images/stimuli/spore_stims/complex_13_A_a.gif","forced_short","","11","complex_dissimilar","images/stimuli/spore_stims/complex_13_A_a.gif","","","","",""
"","null","html-keyboard-response","140","1081647","0.0-31.0-0.2","SS1618366039066","","","null","","","","","","<p><img src= images/blank.png width =""600"" height = ""600"" style=""position:fixed;top:50%; left:50%; transform: translate(-50%, -50%); border:5px solid black"">","","","","","","","",""
"","11535.154999990482","sequential-stimulus-presentation-old","141","1093689","0.0-31.0-1.2","SS1618366039066","trial","","40","500","12035.154999990482","images/stimuli/spore_stims/complex_17_A_b.gif","images/stimuli/spore_stims/complex_13_A_a.gif","forced_short","","11","complex_dissimilar","images/stimuli/spore_stims/complex_13_A_a.gif","","","","",""
"","null","html-keyboard-response","142","1094535","0.0-31.0-0.3","SS1618366039066","","","null","","","","","","<p><img src= images/blank.png width =""600"" height = ""600"" style=""position:fixed;top:50%; left:50%; transform: translate(-50%, -50%); border:5px solid black"">","","","","","","","",""
"","11363.565000006929","sequential-stimulus-presentation-old","143","1106405","0.0-31.0-1.3","SS1618366039066","trial","","40","500","11863.565000006929","images/stimuli/spore_stims/complex_17_A_b.gif","images/stimuli/spore_stims/complex_13_A_a.gif","forced_short","","11","complex_dissimilar","images/stimuli/spore_stims/complex_13_A_a.gif","","","","",""
"","null","html-keyboard-response","144","1107307","0.0-31.0-0.4","SS1618366039066","","","null","","","","","","<p><img src= images/blank.png width =""600"" height = ""600"" style=""position:fixed;top:50%; left:50%; transform: translate(-50%, -50%); border:5px solid black"">","","","","","","","",""
"","10944.690000033006","sequential-stimulus-presentation-old","145","1118759","0.0-31.0-1.4","SS1618366039066","trial","","40","500","11444.690000033006","images/stimuli/spore_stims/complex_17_A_b.gif","images/stimuli/spore_stims/complex_13_A_a.gif","forced_short","","11","complex_dissimilar","images/stimuli/spore_stims/complex_13_A_a.gif","","","","",""
"","null","html-keyboard-response","146","1119875","0.0-31.0-0.5","SS1618366039066","","","null","","","","","","<p><img src= images/blank.png width =""600"" height = ""600"" style=""position:fixed;top:50%; left:50%; transform: translate(-50%, -50%); border:5px solid black"">","","","","","","","",""
"","6726.669999945443","sequential-stimulus-presentation-old","147","1127108","0.0-31.0-1.5","SS1618366039066","trial","","40","500","7226.669999945443","images/stimuli/spore_stims/complex_17_A_b.gif","images/stimuli/spore_stims/complex_13_A_a.gif","forced_short","","11","complex_dissimilar","images/stimuli/spore_stims/complex_13_A_a.gif","","","","",""
"[{""page_index"":0,""viewing_time"":5315.234999987297}]","5315.4450000147335","instructions","148","1132425","0.0-32.0","SS1618366039066","instructions","","","","","","","","","","","","","","","",""
"","13802.565000019968","survey-likert","149","1146231","0.0-33.0","SS1618366039066","similarity_question","","","","","","","","","","","","{""Q0"":0}","[0]","","images/stimuli/spore_stims/complex_11_A_b.gif","images/stimuli/spore_stims/complex_10_A_a.gif"
"","7698.61000002129","survey-likert","150","1153934","0.0-34.0","SS1618366039066","similarity_question","","","","","","","","","","","","{""Q0"":4}","[0]","","images/stimuli/spore_stims/simple_14_A_b.gif","images/stimuli/spore_stims/simple_15_A_a.gif"
"","5598.370000021532","survey-likert","151","1159537","0.0-35.0","SS1618366039066","similarity_question","","","","","","","","","","","","{""Q0"":2}","[0]","","images/stimuli/spore_stims/simple_09_A_b.gif","images/stimuli/spore_stims/simple_16_A_a.gif"
"","9654.25000002142","survey-likert","152","1169195","0.0-36.0","SS1618366039066","similarity_question","","","","","","","","","","","","{""Q0"":2}","[0]","","images/stimuli/spore_stims/simple_11_A_b.gif","images/stimuli/spore_stims/simple_05_A_a.gif"
"","3754.480000003241","survey-likert","153","1172954","0.0-37.0","SS1618366039066","similarity_question","","","","","","","","","","","","{""Q0"":0}","[0]","","images/stimuli/spore_stims/simple_17_A_b.gif","images/stimuli/spore_stims/simple_10_A_a.gif"
"","11435.760000022128","survey-likert","154","1184394","0.0-38.0","SS1618366039066","similarity_question","","","","","","","","","","","","{""Q0"":4}","[0]","","images/stimuli/spore_stims/complex_12_A_b.gif","images/stimuli/spore_stims/complex_02_A_a.gif"
"","10307.425000006333","survey-likert","155","1194707","0.0-39.0","SS1618366039066","similarity_question","","","","","","","","","","","","{""Q0"":2}","[0]","","images/stimuli/spore_stims/complex_20_A_a.gif","images/stimuli/spore_stims/complex_06_A_b.gif"
"","12920.265000022482","survey-likert","156","1207634","0.0-40.0","SS1618366039066","similarity_question","","","","","","","","","","","","{""Q0"":0}","[0]","","images/stimuli/spore_stims/simple_09_A_a.gif","images/stimuli/spore_stims/simple_08_A_b.gif"
"","6656.959999992978","survey-likert","157","1214295","0.0-41.0","SS1618366039066","similarity_question","","","","","","","","","","","","{""Q0"":4}","[0]","","images/stimuli/spore_stims/simple_15_A_b.gif","images/stimuli/spore_stims/simple_12_A_a.gif"
"","8298.52499999106","survey-likert","158","1222599","0.0-42.0","SS1618366039066","similarity_question","","","","","","","","","","","","{""Q0"":5}","[0]","","images/stimuli/spore_stims/complex_14_A_a.gif","images/stimuli/spore_stims/complex_08_A_b.gif"
"","11025.254999985918","survey-likert","159","1233629","0.0-43.0","SS1618366039066","similarity_question","","","","","","","","","","","","{""Q0"":5}","[0]","","images/stimuli/spore_stims/complex_15_A_a.gif","images/stimuli/spore_stims/complex_10_A_b.gif"
"","8196.560000011232","survey-likert","160","1241829","0.0-44.0","SS1618366039066","similarity_question","","","","","","","","","","","","{""Q0"":5}","[0]","","images/stimuli/spore_stims/complex_13_A_a.gif","images/stimuli/spore_stims/complex_17_A_b.gif"
"[{""page_index"":0,""viewing_time"":4485.699999961071}]","4486.095000000205","instructions","161","1246319","0.0-45.0","SS1618366039066","instructions","","","","","","","","","","","","","","","",""
"","6902.4549999739975","survey-likert","162","1253226","0.0-46.0","SS1618366039066","","","","","","","","","images/stimuli/spore_stims/complex_08_A_b.gif","","","","{""Q0"":5}","[0]","","",""
"","4110.904999950435","survey-likert","163","1257342","0.0-47.0","SS1618366039066","","","","","","","","","images/stimuli/spore_stims/simple_16_A_a.gif","","","","{""Q0"":1}","[0]","","",""
"","3121.340000012424","survey-likert","164","1260467","0.0-48.0","SS1618366039066","","","","","","","","","images/stimuli/spore_stims/simple_08_A_b.gif","","","","{""Q0"":1}","[0]","","",""
"","2460.785000002943","survey-likert","165","1262933","0.0-49.0","SS1618366039066","","","","","","","","","images/stimuli/spore_stims/simple_10_A_a.gif","","","","{""Q0"":0}","[0]","","",""
"","3357.9199999803677","survey-likert","166","1266297","0.0-50.0","SS1618366039066","","","","","","","","","images/stimuli/spore_stims/complex_02_A_a.gif","","","","{""Q0"":6}","[0]","","",""
"","3497.529999993276","survey-likert","167","1269800","0.0-51.0","SS1618366039066","","","","","","","","","images/stimuli/spore_stims/complex_15_A_a.gif","","","","{""Q0"":4}","[0]","","",""
"","4540.6399999628775","survey-likert","168","1274345","0.0-52.0","SS1618366039066","","","","","","","","","images/stimuli/spore_stims/complex_10_A_a.gif","","","","{""Q0"":5}","[0]","","",""
"","2708.180000016","survey-likert","169","1277059","0.0-53.0","SS1618366039066","","","","","","","","","images/stimuli/spore_stims/simple_05_A_a.gif","","","","{""Q0"":1}","[0]","","",""
"","4569.809999957215","survey-likert","170","1281632","0.0-54.0","SS1618366039066","","","","","","","","","images/stimuli/spore_stims/complex_20_A_a.gif","","","","{""Q0"":5}","[0]","","",""
"","3587.7249999903142","survey-likert","171","1285223","0.0-55.0","SS1618366039066","","","","","","","","","images/stimuli/spore_stims/complex_17_A_b.gif","","","","{""Q0"":4}","[0]","","",""
"","2218.0950000183657","survey-likert","172","1287445","0.0-56.0","SS1618366039066","","","","","","","","","images/stimuli/spore_stims/simple_15_A_a.gif","","","","{""Q0"":1}","[0]","","",""
"","2778.27500004787","survey-likert","173","1290227","0.0-57.0","SS1618366039066","","","","","","","","","images/stimuli/spore_stims/simple_15_A_b.gif","","","","{""Q0"":1}","[0]","","",""
"[{""page_index"":0,""viewing_time"":1657.9800000181422}]","1658.255000016652","instructions","174","1291888","0.0-58.0","SS1618366039066","instructions","","","","","","","","","","","","","","","",""
"","4962.950000015553","demog-age","175","1296857","0.0-59.0","SS1618366039066","","","","","","","","","","","","","{""age"":""28""}","","","",""
"","4162.0700000203215","demog-ethnic-US","176","1301026","0.0-60.0","SS1618366039066","","","","","","","","","","","","","{""ethnicity"":[""Asian""]}","[0]","","",""
"","7468.894999998156","demog-gender-and-education","177","1308500","0.0-61.0","SS1618366039066","","","","","","","","","","","","","{""gender"":""Female"",""education"":""Master's Degree""}","[0,1]","","",""
"","33434.339999977965","survey-text","178","1341938","0.0-62.0","SS1618366039066","feedback","","","","","","","","","","","","{""Q0"":""No technical/ lagging issue. Sometimes, I was not sure how long I was supposed to stare at the creature. Thank you!""}","","","",""
"[{""page_index"":0,""viewing_time"":2450.394999992568}]","2450.7299999822862","instructions","179","1344391","0.0-63.0","SS1618366039066","instructions","","","","","","","","","","","","","","","",""
