"view_history","rt","trial_type","trial_index","time_elapsed","internal_node_id","subject","stimulus_type","trial_stimulus","key_press","minimum_viewing_duration","trial_looking_time","block_deviant","block_background","exposure_type","stimulus","block_number","block_type","stimulus_displayed","responses","question_order","math_correct_answer","stimulus_left","stimulus_right"
"[{""page_index"":0,""viewing_time"":137267.88000005763}]","137268.07500002906","instructions","0","137270","0.0-0.0","SS1618435648423","","","","","","","","","","","","","","","","",""
"[{""page_index"":0,""viewing_time"":13128.51499998942},{""page_index"":1,""viewing_time"":4803.865000023507}]","17932.514999993145","instructions","1","157205","0.0-1.0","SS1618435648423","instructions","","","","","","","","","","","","","","","",""
"","6998.2200000667945","sequential-stimulus-presentation-old","2","164706","0.0-2.0","SS1618435648423","","","40","500","7498.2200000667945","null","null","self_paced","","","","","","","","",""
"","6888.315000105649","sequential-stimulus-presentation-old","3","172096","0.0-3.0","SS1618435648423","","","40","500","7388.315000105649","null","null","self_paced","","","","","","","","",""
"[{""page_index"":0,""viewing_time"":13211.844999925233}]","13211.994999903254","instructions","4","185308","0.0-4.0","SS1618435648423","instructions","","","","","","","","","","","","","","","",""
"","7198.175000026822","sequential-stimulus-presentation-old","5","197508","0.0-5.0","SS1618435648423","","","40","500","7698.175000026822","null","null","forced_long","","","","","","","","",""
"","4570.589999901131","sequential-stimulus-presentation-old","6","202130","0.0-6.0","SS1618435648423","","","40","50","4620.589999901131","null","null","forced_long","","","","","","","","",""
"[{""page_index"":0,""viewing_time"":3827.4949999758974}]","3827.6450000703335","instructions","7","205958","0.0-7.0","SS1618435648423","instructions","","","","","","","","","","","","","","","",""
"[{""page_index"":0,""viewing_time"":7317.369999946095},{""page_index"":1,""viewing_time"":13893.400000059046},{""page_index"":2,""viewing_time"":4742.269999929704},{""page_index"":3,""viewing_time"":1340.6400000676513},{""page_index"":4,""viewing_time"":1403.4199999878183}]","28697.374999988824","instructions","8","234657","0.0-8.0","SS1618435648423","instructions","","","","","","","","","","","","","","","",""
"","null","html-keyboard-response","9","235903","0.0-9.0-0.0","SS1618435648423","","","null","","","","","","<p><img src= images/blank.png width =""600"" height = ""600"" style=""position:fixed;top:50%; left:50%; transform: translate(-50%, -50%); border:5px solid black"">","","","","","","","",""
"","1544.385000015609","sequential-stimulus-presentation-old","10","237502","0.0-9.0-1.0","SS1618435648423","trial","","40","500","2044.385000015609","images/stimuli/spore_stims/complex_11_A_b.gif","images/stimuli/spore_stims/complex_03_A_a.gif","forced_short","","0","complex_dissimilar","images/stimuli/spore_stims/complex_03_A_a.gif","","","","",""
"","null","html-keyboard-response","11","238498","0.0-9.0-0.1","SS1618435648423","","","null","","","","","","<p><img src= images/blank.png width =""600"" height = ""600"" style=""position:fixed;top:50%; left:50%; transform: translate(-50%, -50%); border:5px solid black"">","","","","","","","",""
"","11257.380000082776","sequential-stimulus-presentation-old","12","250257","0.0-9.0-1.1","SS1618435648423","trial","","40","500","11757.380000082776","images/stimuli/spore_stims/complex_11_A_b.gif","images/stimuli/spore_stims/complex_03_A_a.gif","forced_short","","0","complex_dissimilar","images/stimuli/spore_stims/complex_03_A_a.gif","","","","",""
"","null","html-keyboard-response","13","251311","0.0-9.0-0.2","SS1618435648423","","","null","","","","","","<p><img src= images/blank.png width =""600"" height = ""600"" style=""position:fixed;top:50%; left:50%; transform: translate(-50%, -50%); border:5px solid black"">","","","","","","","",""
"","4940.644999966025","sequential-stimulus-presentation-old","14","256753","0.0-9.0-1.2","SS1618435648423","trial","","40","500","5440.644999966025","images/stimuli/spore_stims/complex_11_A_b.gif","images/stimuli/spore_stims/complex_03_A_a.gif","forced_short","","0","complex_dissimilar","images/stimuli/spore_stims/complex_03_A_a.gif","","","","",""
"","null","html-keyboard-response","15","257796","0.0-9.0-0.3","SS1618435648423","","","null","","","","","","<p><img src= images/blank.png width =""600"" height = ""600"" style=""position:fixed;top:50%; left:50%; transform: translate(-50%, -50%); border:5px solid black"">","","","","","","","",""
"","3480.364999966696","sequential-stimulus-presentation-old","16","261778","0.0-9.0-1.3","SS1618435648423","trial","","40","500","3980.364999966696","images/stimuli/spore_stims/complex_11_A_b.gif","images/stimuli/spore_stims/complex_03_A_a.gif","forced_short","","0","complex_dissimilar","images/stimuli/spore_stims/complex_03_A_a.gif","","","","",""
"","4162.19999990426","survey-multi-choice","17","265942","0.0-10.0","SS1618435648423","math_question","","","","","","","","","","","","{""Q0"":""16""}","[0]","16","",""
"","null","html-keyboard-response","18","266930","0.0-11.0-0.0","SS1618435648423","","","null","","","","","","<p><img src= images/blank.png width =""600"" height = ""600"" style=""position:fixed;top:50%; left:50%; transform: translate(-50%, -50%); border:5px solid black"">","","","","","","","",""
"","3214.1149999806657","sequential-stimulus-presentation-old","19","270646","0.0-11.0-1.0","SS1618435648423","trial","","40","500","3714.1149999806657","images/stimuli/spore_stims/complex_02_A_a.gif","images/stimuli/spore_stims/complex_19_A_b.gif","self_paced","","1","complex_dissimilar","images/stimuli/spore_stims/complex_19_A_b.gif","","","","",""
"","null","html-keyboard-response","20","271753","0.0-11.0-0.1","SS1618435648423","","","null","","","","","","<p><img src= images/blank.png width =""600"" height = ""600"" style=""position:fixed;top:50%; left:50%; transform: translate(-50%, -50%); border:5px solid black"">","","","","","","","",""
"","2629.7050000866875","sequential-stimulus-presentation-old","21","274885","0.0-11.0-1.1","SS1618435648423","trial","","40","500","3129.7050000866875","images/stimuli/spore_stims/complex_02_A_a.gif","images/stimuli/spore_stims/complex_19_A_b.gif","self_paced","","1","complex_dissimilar","images/stimuli/spore_stims/complex_19_A_b.gif","","","","",""
"","null","html-keyboard-response","22","275774","0.0-11.0-0.2","SS1618435648423","","","null","","","","","","<p><img src= images/blank.png width =""600"" height = ""600"" style=""position:fixed;top:50%; left:50%; transform: translate(-50%, -50%); border:5px solid black"">","","","","","","","",""
"","3362.184999976307","sequential-stimulus-presentation-old","23","279638","0.0-11.0-1.2","SS1618435648423","trial","","40","500","3862.184999976307","images/stimuli/spore_stims/complex_02_A_a.gif","images/stimuli/spore_stims/complex_19_A_b.gif","self_paced","","1","complex_dissimilar","images/stimuli/spore_stims/complex_19_A_b.gif","","","","",""
"","null","html-keyboard-response","24","280546","0.0-11.0-0.3","SS1618435648423","","","null","","","","","","<p><img src= images/blank.png width =""600"" height = ""600"" style=""position:fixed;top:50%; left:50%; transform: translate(-50%, -50%); border:5px solid black"">","","","","","","","",""
"","3147.3750000586733","sequential-stimulus-presentation-old","25","284195","0.0-11.0-1.3","SS1618435648423","trial","","40","500","3647.3750000586733","images/stimuli/spore_stims/complex_02_A_a.gif","images/stimuli/spore_stims/complex_19_A_b.gif","self_paced","","1","complex_dissimilar","images/stimuli/spore_stims/complex_19_A_b.gif","","","","",""
"","5627.670000074431","survey-multi-choice","26","289824","0.0-12.0","SS1618435648423","math_question","","","","","","","","","","","","{""Q0"":""9""}","[0]","9","",""
"","null","html-keyboard-response","27","291015","0.0-13.0-0.0","SS1618435648423","","","null","","","","","","<p><img src= images/blank.png width =""600"" height = ""600"" style=""position:fixed;top:50%; left:50%; transform: translate(-50%, -50%); border:5px solid black"">","","","","","","","",""
"","1013.8250000309199","sequential-stimulus-presentation-old","28","297032","0.0-13.0-1.0","SS1618435648423","trial","","40","500","1513.82500003092","images/stimuli/spore_stims/complex_14_A_b.gif","images/stimuli/spore_stims/complex_18_A_a.gif","forced_long","","2","complex_dissimilar","images/stimuli/spore_stims/complex_18_A_a.gif","","","","",""
"","null","html-keyboard-response","29","297848","0.0-13.0-0.1","SS1618435648423","","","null","","","","","","<p><img src= images/blank.png width =""600"" height = ""600"" style=""position:fixed;top:50%; left:50%; transform: translate(-50%, -50%); border:5px solid black"">","","","","","","","",""
"","5262.6199999358505","sequential-stimulus-presentation-old","30","303613","0.0-13.0-1.1","SS1618435648423","trial","","40","500","5762.6199999358505","images/stimuli/spore_stims/complex_14_A_b.gif","images/stimuli/spore_stims/complex_18_A_a.gif","forced_long","","2","complex_dissimilar","images/stimuli/spore_stims/complex_18_A_a.gif","","","","",""
"","null","html-keyboard-response","31","304491","0.0-13.0-0.2","SS1618435648423","","","null","","","","","","<p><img src= images/blank.png width =""600"" height = ""600"" style=""position:fixed;top:50%; left:50%; transform: translate(-50%, -50%); border:5px solid black"">","","","","","","","",""
"","4479.255000012927","sequential-stimulus-presentation-old","32","309473","0.0-13.0-1.2","SS1618435648423","trial","","40","500","4979.255000012927","images/stimuli/spore_stims/complex_14_A_b.gif","images/stimuli/spore_stims/complex_18_A_a.gif","forced_long","","2","complex_dissimilar","images/stimuli/spore_stims/complex_18_A_a.gif","","","","",""
"","null","html-keyboard-response","33","310369","0.0-13.0-0.3","SS1618435648423","","","null","","","","","","<p><img src= images/blank.png width =""600"" height = ""600"" style=""position:fixed;top:50%; left:50%; transform: translate(-50%, -50%); border:5px solid black"">","","","","","","","",""
"","2736.105000018142","sequential-stimulus-presentation-old","34","313609","0.0-13.0-1.3","SS1618435648423","trial","","40","500","3236.105000018142","images/stimuli/spore_stims/complex_14_A_b.gif","images/stimuli/spore_stims/complex_18_A_a.gif","forced_long","","2","complex_dissimilar","images/stimuli/spore_stims/complex_18_A_a.gif","","","","",""
"","4580.844999989495","survey-multi-choice","35","318191","0.0-14.0","SS1618435648423","math_question","","","","","","","","","","","","{""Q0"":""11""}","[0]","11","",""
"","null","html-keyboard-response","36","319322","0.0-15.0-0.0","SS1618435648423","","","null","","","","","","<p><img src= images/blank.png width =""600"" height = ""600"" style=""position:fixed;top:50%; left:50%; transform: translate(-50%, -50%); border:5px solid black"">","","","","","","","",""
"","6420.275000040419","sequential-stimulus-presentation-old","37","326245","0.0-15.0-1.0","SS1618435648423","trial","","40","500","6920.275000040419","images/stimuli/spore_stims/complex_06_A_b.gif","images/stimuli/spore_stims/complex_08_A_a.gif","self_paced","","3","complex_dissimilar","images/stimuli/spore_stims/complex_08_A_a.gif","","","","",""
"","null","html-keyboard-response","38","327385","0.0-15.0-0.1","SS1618435648423","","","null","","","","","","<p><img src= images/blank.png width =""600"" height = ""600"" style=""position:fixed;top:50%; left:50%; transform: translate(-50%, -50%); border:5px solid black"">","","","","","","","",""
"","1428.1050000572577","sequential-stimulus-presentation-old","39","329316","0.0-15.0-1.1","SS1618435648423","trial","","40","500","1928.1050000572577","images/stimuli/spore_stims/complex_06_A_b.gif","images/stimuli/spore_stims/complex_08_A_a.gif","self_paced","","3","complex_dissimilar","images/stimuli/spore_stims/complex_08_A_a.gif","","","","",""
"","null","html-keyboard-response","40","330570","0.0-15.0-0.2","SS1618435648423","","","null","","","","","","<p><img src= images/blank.png width =""600"" height = ""600"" style=""position:fixed;top:50%; left:50%; transform: translate(-50%, -50%); border:5px solid black"">","","","","","","","",""
"","1029.5899999327958","sequential-stimulus-presentation-old","41","332102","0.0-15.0-1.2","SS1618435648423","trial","","40","500","1529.5899999327958","images/stimuli/spore_stims/complex_06_A_b.gif","images/stimuli/spore_stims/complex_08_A_a.gif","self_paced","","3","complex_dissimilar","images/stimuli/spore_stims/complex_08_A_a.gif","","","","",""
"","null","html-keyboard-response","42","333294","0.0-15.0-0.3","SS1618435648423","","","null","","","","","","<p><img src= images/blank.png width =""600"" height = ""600"" style=""position:fixed;top:50%; left:50%; transform: translate(-50%, -50%); border:5px solid black"">","","","","","","","",""
"","956.620000069961","sequential-stimulus-presentation-old","43","334753","0.0-15.0-1.3","SS1618435648423","trial","","40","500","1456.620000069961","images/stimuli/spore_stims/complex_06_A_b.gif","images/stimuli/spore_stims/complex_08_A_a.gif","self_paced","","3","complex_dissimilar","images/stimuli/spore_stims/complex_08_A_a.gif","","","","",""
"","null","html-keyboard-response","44","335613","0.0-15.0-0.4","SS1618435648423","","","null","","","","","","<p><img src= images/blank.png width =""600"" height = ""600"" style=""position:fixed;top:50%; left:50%; transform: translate(-50%, -50%); border:5px solid black"">","","","","","","","",""
"","1007.4199999216944","sequential-stimulus-presentation-old","45","337122","0.0-15.0-1.4","SS1618435648423","trial","","40","500","1507.4199999216944","images/stimuli/spore_stims/complex_06_A_b.gif","images/stimuli/spore_stims/complex_08_A_a.gif","self_paced","","3","complex_dissimilar","images/stimuli/spore_stims/complex_08_A_a.gif","","","","",""
"","null","html-keyboard-response","46","338402","0.0-15.0-0.5","SS1618435648423","","","null","","","","","","<p><img src= images/blank.png width =""600"" height = ""600"" style=""position:fixed;top:50%; left:50%; transform: translate(-50%, -50%); border:5px solid black"">","","","","","","","",""
"","3285.079999943264","sequential-stimulus-presentation-old","47","342189","0.0-15.0-1.5","SS1618435648423","trial","","40","500","3785.079999943264","images/stimuli/spore_stims/complex_06_A_b.gif","images/stimuli/spore_stims/complex_08_A_a.gif","self_paced","","3","complex_dissimilar","images/stimuli/spore_stims/complex_06_A_b.gif","","","","",""
"","4368.419999955222","survey-multi-choice","48","346559","0.0-16.0","SS1618435648423","math_question","","","","","","","","","","","","{""Q0"":""9""}","[0]","9","",""
"","null","html-keyboard-response","49","347639","0.0-17.0-0.0","SS1618435648423","","","null","","","","","","<p><img src= images/blank.png width =""600"" height = ""600"" style=""position:fixed;top:50%; left:50%; transform: translate(-50%, -50%); border:5px solid black"">","","","","","","","",""
"","118.845000048168","sequential-stimulus-presentation-old","50","352760","0.0-17.0-1.0","SS1618435648423","trial","","40","500","618.845000048168","images/stimuli/spore_stims/simple_08_A_a.gif","images/stimuli/spore_stims/simple_06_A_b.gif","forced_long","","4","simple_dissimilar","images/stimuli/spore_stims/simple_06_A_b.gif","","","","",""
"","null","html-keyboard-response","51","353632","0.0-17.0-0.1","SS1618435648423","","","null","","","","","","<p><img src= images/blank.png width =""600"" height = ""600"" style=""position:fixed;top:50%; left:50%; transform: translate(-50%, -50%); border:5px solid black"">","","","","","","","",""
"","3866.275000036694","sequential-stimulus-presentation-old","52","358000","0.0-17.0-1.1","SS1618435648423","trial","","40","500","4366.275000036694","images/stimuli/spore_stims/simple_08_A_a.gif","images/stimuli/spore_stims/simple_06_A_b.gif","forced_long","","4","simple_dissimilar","images/stimuli/spore_stims/simple_06_A_b.gif","","","","",""
"","null","html-keyboard-response","53","358882","0.0-17.0-0.2","SS1618435648423","","","null","","","","","","<p><img src= images/blank.png width =""600"" height = ""600"" style=""position:fixed;top:50%; left:50%; transform: translate(-50%, -50%); border:5px solid black"">","","","","","","","",""
"","2695.350000052713","sequential-stimulus-presentation-old","54","362080","0.0-17.0-1.2","SS1618435648423","trial","","40","500","3195.350000052713","images/stimuli/spore_stims/simple_08_A_a.gif","images/stimuli/spore_stims/simple_06_A_b.gif","forced_long","","4","simple_dissimilar","images/stimuli/spore_stims/simple_06_A_b.gif","","","","",""
"","null","html-keyboard-response","55","363221","0.0-17.0-0.3","SS1618435648423","","","null","","","","","","<p><img src= images/blank.png width =""600"" height = ""600"" style=""position:fixed;top:50%; left:50%; transform: translate(-50%, -50%); border:5px solid black"">","","","","","","","",""
"","2769.9850000208244","sequential-stimulus-presentation-old","56","366493","0.0-17.0-1.3","SS1618435648423","trial","","40","500","3269.9850000208244","images/stimuli/spore_stims/simple_08_A_a.gif","images/stimuli/spore_stims/simple_06_A_b.gif","forced_long","","4","simple_dissimilar","images/stimuli/spore_stims/simple_06_A_b.gif","","","","",""
"","null","html-keyboard-response","57","367351","0.0-17.0-0.4","SS1618435648423","","","null","","","","","","<p><img src= images/blank.png width =""600"" height = ""600"" style=""position:fixed;top:50%; left:50%; transform: translate(-50%, -50%); border:5px solid black"">","","","","","","","",""
"","2197.1749999793246","sequential-stimulus-presentation-old","58","370051","0.0-17.0-1.4","SS1618435648423","trial","","40","500","2697.1749999793246","images/stimuli/spore_stims/simple_08_A_a.gif","images/stimuli/spore_stims/simple_06_A_b.gif","forced_long","","4","simple_dissimilar","images/stimuli/spore_stims/simple_06_A_b.gif","","","","",""
"","2601.894999970682","survey-multi-choice","59","372654","0.0-18.0","SS1618435648423","math_question","","","","","","","","","","","","{""Q0"":""11""}","[0]","11","",""
"","null","html-keyboard-response","60","373516","0.0-19.0-0.0","SS1618435648423","","","null","","","","","","<p><img src= images/blank.png width =""600"" height = ""600"" style=""position:fixed;top:50%; left:50%; transform: translate(-50%, -50%); border:5px solid black"">","","","","","","","",""
"","1866.7650000425056","sequential-stimulus-presentation-old","61","375434","0.0-19.0-1.0","SS1618435648423","trial","","40","500","2366.7650000425056","images/stimuli/spore_stims/complex_18_A_b.gif","images/stimuli/spore_stims/complex_05_A_a.gif","forced_short","","5","complex_dissimilar","images/stimuli/spore_stims/complex_05_A_a.gif","","","","",""
"","null","html-keyboard-response","62","376485","0.0-19.0-0.1","SS1618435648423","","","null","","","","","","<p><img src= images/blank.png width =""600"" height = ""600"" style=""position:fixed;top:50%; left:50%; transform: translate(-50%, -50%); border:5px solid black"">","","","","","","","",""
"","1526.979999965988","sequential-stimulus-presentation-old","63","378514","0.0-19.0-1.1","SS1618435648423","trial","","40","500","2026.979999965988","images/stimuli/spore_stims/complex_18_A_b.gif","images/stimuli/spore_stims/complex_05_A_a.gif","forced_short","","5","complex_dissimilar","images/stimuli/spore_stims/complex_05_A_a.gif","","","","",""
"","null","html-keyboard-response","64","379535","0.0-19.0-0.2","SS1618435648423","","","null","","","","","","<p><img src= images/blank.png width =""600"" height = ""600"" style=""position:fixed;top:50%; left:50%; transform: translate(-50%, -50%); border:5px solid black"">","","","","","","","",""
"","2829.4849999947473","sequential-stimulus-presentation-old","65","382867","0.0-19.0-1.2","SS1618435648423","trial","","40","500","3329.4849999947473","images/stimuli/spore_stims/complex_18_A_b.gif","images/stimuli/spore_stims/complex_05_A_a.gif","forced_short","","5","complex_dissimilar","images/stimuli/spore_stims/complex_05_A_a.gif","","","","",""
"","null","html-keyboard-response","66","383693","0.0-19.0-0.3","SS1618435648423","","","null","","","","","","<p><img src= images/blank.png width =""600"" height = ""600"" style=""position:fixed;top:50%; left:50%; transform: translate(-50%, -50%); border:5px solid black"">","","","","","","","",""
"","1504.0149999549612","sequential-stimulus-presentation-old","67","385698","0.0-19.0-1.3","SS1618435648423","trial","","40","500","2004.0149999549612","images/stimuli/spore_stims/complex_18_A_b.gif","images/stimuli/spore_stims/complex_05_A_a.gif","forced_short","","5","complex_dissimilar","images/stimuli/spore_stims/complex_05_A_a.gif","","","","",""
"","null","html-keyboard-response","68","386729","0.0-19.0-0.4","SS1618435648423","","","null","","","","","","<p><img src= images/blank.png width =""600"" height = ""600"" style=""position:fixed;top:50%; left:50%; transform: translate(-50%, -50%); border:5px solid black"">","","","","","","","",""
"","1761.4449999528006","sequential-stimulus-presentation-old","69","388994","0.0-19.0-1.4","SS1618435648423","trial","","40","500","2261.4449999528006","images/stimuli/spore_stims/complex_18_A_b.gif","images/stimuli/spore_stims/complex_05_A_a.gif","forced_short","","5","complex_dissimilar","images/stimuli/spore_stims/complex_05_A_a.gif","","","","",""
"","null","html-keyboard-response","70","389985","0.0-19.0-0.5","SS1618435648423","","","null","","","","","","<p><img src= images/blank.png width =""600"" height = ""600"" style=""position:fixed;top:50%; left:50%; transform: translate(-50%, -50%); border:5px solid black"">","","","","","","","",""
"","2213.705000001937","sequential-stimulus-presentation-old","71","392701","0.0-19.0-1.5","SS1618435648423","trial","","40","500","2713.705000001937","images/stimuli/spore_stims/complex_18_A_b.gif","images/stimuli/spore_stims/complex_05_A_a.gif","forced_short","","5","complex_dissimilar","images/stimuli/spore_stims/complex_05_A_a.gif","","","","",""
"","3105.085000046529","survey-multi-choice","72","395808","0.0-20.0","SS1618435648423","math_question","","","","","","","","","","","","{""Q0"":""15""}","[0]","15","",""
"","null","html-keyboard-response","73","397115","0.0-21.0-0.0","SS1618435648423","","","null","","","","","","<p><img src= images/blank.png width =""600"" height = ""600"" style=""position:fixed;top:50%; left:50%; transform: translate(-50%, -50%); border:5px solid black"">","","","","","","","",""
"","1085.5750000337139","sequential-stimulus-presentation-old","74","398704","0.0-21.0-1.0","SS1618435648423","trial","","40","500","1585.5750000337139","images/stimuli/spore_stims/simple_16_A_a.gif","images/stimuli/spore_stims/simple_10_A_b.gif","self_paced","","6","simple_dissimilar","images/stimuli/spore_stims/simple_10_A_b.gif","","","","",""
"","null","html-keyboard-response","75","399701","0.0-21.0-0.1","SS1618435648423","","","null","","","","","","<p><img src= images/blank.png width =""600"" height = ""600"" style=""position:fixed;top:50%; left:50%; transform: translate(-50%, -50%); border:5px solid black"">","","","","","","","",""
"","265.84000000730157","sequential-stimulus-presentation-old","76","400470","0.0-21.0-1.1","SS1618435648423","trial","","40","500","765.8400000073016","images/stimuli/spore_stims/simple_16_A_a.gif","images/stimuli/spore_stims/simple_10_A_b.gif","self_paced","","6","simple_dissimilar","images/stimuli/spore_stims/simple_10_A_b.gif","","","","",""
"","null","html-keyboard-response","77","401455","0.0-21.0-0.2","SS1618435648423","","","null","","","","","","<p><img src= images/blank.png width =""600"" height = ""600"" style=""position:fixed;top:50%; left:50%; transform: translate(-50%, -50%); border:5px solid black"">","","","","","","","",""
"","725.6199999246746","sequential-stimulus-presentation-old","78","402684","0.0-21.0-1.2","SS1618435648423","trial","","40","500","1225.6199999246746","images/stimuli/spore_stims/simple_16_A_a.gif","images/stimuli/spore_stims/simple_10_A_b.gif","self_paced","","6","simple_dissimilar","images/stimuli/spore_stims/simple_10_A_b.gif","","","","",""
"","null","html-keyboard-response","79","403835","0.0-21.0-0.3","SS1618435648423","","","null","","","","","","<p><img src= images/blank.png width =""600"" height = ""600"" style=""position:fixed;top:50%; left:50%; transform: translate(-50%, -50%); border:5px solid black"">","","","","","","","",""
"","939.3150000832975","sequential-stimulus-presentation-old","80","405277","0.0-21.0-1.3","SS1618435648423","trial","","40","500","1439.3150000832975","images/stimuli/spore_stims/simple_16_A_a.gif","images/stimuli/spore_stims/simple_10_A_b.gif","self_paced","","6","simple_dissimilar","images/stimuli/spore_stims/simple_10_A_b.gif","","","","",""
"","null","html-keyboard-response","81","406318","0.0-21.0-0.4","SS1618435648423","","","null","","","","","","<p><img src= images/blank.png width =""600"" height = ""600"" style=""position:fixed;top:50%; left:50%; transform: translate(-50%, -50%); border:5px solid black"">","","","","","","","",""
"","766.1549999611452","sequential-stimulus-presentation-old","82","407586","0.0-21.0-1.4","SS1618435648423","trial","","40","500","1266.1549999611452","images/stimuli/spore_stims/simple_16_A_a.gif","images/stimuli/spore_stims/simple_10_A_b.gif","self_paced","","6","simple_dissimilar","images/stimuli/spore_stims/simple_16_A_a.gif","","","","",""
"","2877.680000034161","survey-multi-choice","83","410465","0.0-22.0","SS1618435648423","math_question","","","","","","","","","","","","{""Q0"":""4""}","[0]","4","",""
"","null","html-keyboard-response","84","411574","0.0-23.0-0.0","SS1618435648423","","","null","","","","","","<p><img src= images/blank.png width =""600"" height = ""600"" style=""position:fixed;top:50%; left:50%; transform: translate(-50%, -50%); border:5px solid black"">","","","","","","","",""
"","739.7449999116361","sequential-stimulus-presentation-old","85","412366","0.0-23.0-1.0","SS1618435648423","trial","","40","500","1239.7449999116361","images/stimuli/spore_stims/simple_15_A_b.gif","images/stimuli/spore_stims/simple_13_A_a.gif","forced_short","","7","simple_dissimilar","images/stimuli/spore_stims/simple_13_A_a.gif","","","","",""
"","null","html-keyboard-response","86","413399","0.0-23.0-0.1","SS1618435648423","","","null","","","","","","<p><img src= images/blank.png width =""600"" height = ""600"" style=""position:fixed;top:50%; left:50%; transform: translate(-50%, -50%); border:5px solid black"">","","","","","","","",""
"","2255.349999992177","sequential-stimulus-presentation-old","87","416156","0.0-23.0-1.1","SS1618435648423","trial","","40","500","2755.349999992177","images/stimuli/spore_stims/simple_15_A_b.gif","images/stimuli/spore_stims/simple_13_A_a.gif","forced_short","","7","simple_dissimilar","images/stimuli/spore_stims/simple_13_A_a.gif","","","","",""
"","null","html-keyboard-response","88","417406","0.0-23.0-0.2","SS1618435648423","","","null","","","","","","<p><img src= images/blank.png width =""600"" height = ""600"" style=""position:fixed;top:50%; left:50%; transform: translate(-50%, -50%); border:5px solid black"">","","","","","","","",""
"","1829.5149999903515","sequential-stimulus-presentation-old","89","419738","0.0-23.0-1.2","SS1618435648423","trial","","40","500","2329.5149999903515","images/stimuli/spore_stims/simple_15_A_b.gif","images/stimuli/spore_stims/simple_13_A_a.gif","forced_short","","7","simple_dissimilar","images/stimuli/spore_stims/simple_13_A_a.gif","","","","",""
"","null","html-keyboard-response","90","420875","0.0-23.0-0.3","SS1618435648423","","","null","","","","","","<p><img src= images/blank.png width =""600"" height = ""600"" style=""position:fixed;top:50%; left:50%; transform: translate(-50%, -50%); border:5px solid black"">","","","","","","","",""
"","1737.955000018701","sequential-stimulus-presentation-old","91","423115","0.0-23.0-1.3","SS1618435648423","trial","","40","500","2237.955000018701","images/stimuli/spore_stims/simple_15_A_b.gif","images/stimuli/spore_stims/simple_13_A_a.gif","forced_short","","7","simple_dissimilar","images/stimuli/spore_stims/simple_13_A_a.gif","","","","",""
"","null","html-keyboard-response","92","424018","0.0-23.0-0.4","SS1618435648423","","","null","","","","","","<p><img src= images/blank.png width =""600"" height = ""600"" style=""position:fixed;top:50%; left:50%; transform: translate(-50%, -50%); border:5px solid black"">","","","","","","","",""
"","1837.3999999603257","sequential-stimulus-presentation-old","93","426359","0.0-23.0-1.4","SS1618435648423","trial","","40","500","2337.3999999603257","images/stimuli/spore_stims/simple_15_A_b.gif","images/stimuli/spore_stims/simple_13_A_a.gif","forced_short","","7","simple_dissimilar","images/stimuli/spore_stims/simple_13_A_a.gif","","","","",""
"","null","html-keyboard-response","94","427346","0.0-23.0-0.5","SS1618435648423","","","null","","","","","","<p><img src= images/blank.png width =""600"" height = ""600"" style=""position:fixed;top:50%; left:50%; transform: translate(-50%, -50%); border:5px solid black"">","","","","","","","",""
"","1124.1450000088662","sequential-stimulus-presentation-old","95","428973","0.0-23.0-1.5","SS1618435648423","trial","","40","500","1624.1450000088662","images/stimuli/spore_stims/simple_15_A_b.gif","images/stimuli/spore_stims/simple_13_A_a.gif","forced_short","","7","simple_dissimilar","images/stimuli/spore_stims/simple_13_A_a.gif","","","","",""
"","3290.1050000218675","survey-multi-choice","96","432265","0.0-24.0","SS1618435648423","math_question","","","","","","","","","","","","{""Q0"":""15""}","[0]","15","",""
"","null","html-keyboard-response","97","433563","0.0-25.0-0.0","SS1618435648423","","","null","","","","","","<p><img src= images/blank.png width =""600"" height = ""600"" style=""position:fixed;top:50%; left:50%; transform: translate(-50%, -50%); border:5px solid black"">","","","","","","","",""
"","545.6899999408051","sequential-stimulus-presentation-old","98","439111","0.0-25.0-1.0","SS1618435648423","trial","","40","500","1045.6899999408051","images/stimuli/spore_stims/simple_10_A_a.gif","images/stimuli/spore_stims/simple_11_A_b.gif","forced_long","","8","simple_dissimilar","images/stimuli/spore_stims/simple_11_A_b.gif","","","","",""
"","null","html-keyboard-response","99","440277","0.0-25.0-0.1","SS1618435648423","","","null","","","","","","<p><img src= images/blank.png width =""600"" height = ""600"" style=""position:fixed;top:50%; left:50%; transform: translate(-50%, -50%); border:5px solid black"">","","","","","","","",""
"","2100.990000064485","sequential-stimulus-presentation-old","100","442881","0.0-25.0-1.1","SS1618435648423","trial","","40","500","2600.990000064485","images/stimuli/spore_stims/simple_10_A_a.gif","images/stimuli/spore_stims/simple_11_A_b.gif","forced_long","","8","simple_dissimilar","images/stimuli/spore_stims/simple_11_A_b.gif","","","","",""
"","null","html-keyboard-response","101","443914","0.0-25.0-0.2","SS1618435648423","","","null","","","","","","<p><img src= images/blank.png width =""600"" height = ""600"" style=""position:fixed;top:50%; left:50%; transform: translate(-50%, -50%); border:5px solid black"">","","","","","","","",""
"","1040.6700000166893","sequential-stimulus-presentation-old","102","445457","0.0-25.0-1.2","SS1618435648423","trial","","40","500","1540.6700000166893","images/stimuli/spore_stims/simple_10_A_a.gif","images/stimuli/spore_stims/simple_11_A_b.gif","forced_long","","8","simple_dissimilar","images/stimuli/spore_stims/simple_10_A_a.gif","","","","",""
"","null","html-keyboard-response","103","446726","0.0-25.0-0.3","SS1618435648423","","","null","","","","","","<p><img src= images/blank.png width =""600"" height = ""600"" style=""position:fixed;top:50%; left:50%; transform: translate(-50%, -50%); border:5px solid black"">","","","","","","","",""
"","904.6400000806898","sequential-stimulus-presentation-old","104","448134","0.0-25.0-1.3","SS1618435648423","trial","","40","500","1404.6400000806898","images/stimuli/spore_stims/simple_10_A_a.gif","images/stimuli/spore_stims/simple_11_A_b.gif","forced_long","","8","simple_dissimilar","images/stimuli/spore_stims/simple_10_A_a.gif","","","","",""
"","2945.380000048317","survey-multi-choice","105","451081","0.0-26.0","SS1618435648423","math_question","","","","","","","","","","","","{""Q0"":""9""}","[0]","9","",""
"","null","html-keyboard-response","106","452268","0.0-27.0-0.0","SS1618435648423","","","null","","","","","","<p><img src= images/blank.png width =""600"" height = ""600"" style=""position:fixed;top:50%; left:50%; transform: translate(-50%, -50%); border:5px solid black"">","","","","","","","",""
"","894.4199999095872","sequential-stimulus-presentation-old","107","453215","0.0-27.0-1.0","SS1618435648423","trial","","40","500","1394.4199999095872","images/stimuli/spore_stims/simple_03_A_b.gif","images/stimuli/spore_stims/simple_07_A_a.gif","forced_short","","9","simple_dissimilar","images/stimuli/spore_stims/simple_07_A_a.gif","","","","",""
"","null","html-keyboard-response","108","454138","0.0-27.0-0.1","SS1618435648423","","","null","","","","","","<p><img src= images/blank.png width =""600"" height = ""600"" style=""position:fixed;top:50%; left:50%; transform: translate(-50%, -50%); border:5px solid black"">","","","","","","","",""
"","1480.8049999410287","sequential-stimulus-presentation-old","109","456122","0.0-27.0-1.1","SS1618435648423","trial","","40","500","1980.8049999410287","images/stimuli/spore_stims/simple_03_A_b.gif","images/stimuli/spore_stims/simple_07_A_a.gif","forced_short","","9","simple_dissimilar","images/stimuli/spore_stims/simple_07_A_a.gif","","","","",""
"","null","html-keyboard-response","110","457159","0.0-27.0-0.2","SS1618435648423","","","null","","","","","","<p><img src= images/blank.png width =""600"" height = ""600"" style=""position:fixed;top:50%; left:50%; transform: translate(-50%, -50%); border:5px solid black"">","","","","","","","",""
"","1906.7700000014156","sequential-stimulus-presentation-old","111","459568","0.0-27.0-1.2","SS1618435648423","trial","","40","500","2406.7700000014156","images/stimuli/spore_stims/simple_03_A_b.gif","images/stimuli/spore_stims/simple_07_A_a.gif","forced_short","","9","simple_dissimilar","images/stimuli/spore_stims/simple_03_A_b.gif","","","","",""
"","null","html-keyboard-response","112","460402","0.0-27.0-0.3","SS1618435648423","","","null","","","","","","<p><img src= images/blank.png width =""600"" height = ""600"" style=""position:fixed;top:50%; left:50%; transform: translate(-50%, -50%); border:5px solid black"">","","","","","","","",""
"","3887.3550000134856","sequential-stimulus-presentation-old","113","464791","0.0-27.0-1.3","SS1618435648423","trial","","40","500","4387.355000013486","images/stimuli/spore_stims/simple_03_A_b.gif","images/stimuli/spore_stims/simple_07_A_a.gif","forced_short","","9","simple_dissimilar","images/stimuli/spore_stims/simple_07_A_a.gif","","","","",""
"","3234.030000050552","survey-multi-choice","114","468027","0.0-28.0","SS1618435648423","math_question","","","","","","","","","","","","{""Q0"":""10""}","[0]","10","",""
"","null","html-keyboard-response","115","469209","0.0-29.0-0.0","SS1618435648423","","","null","","","","","","<p><img src= images/blank.png width =""600"" height = ""600"" style=""position:fixed;top:50%; left:50%; transform: translate(-50%, -50%); border:5px solid black"">","","","","","","","",""
"","632.795000099577","sequential-stimulus-presentation-old","116","474845","0.0-29.0-1.0","SS1618435648423","trial","","40","500","1132.795000099577","images/stimuli/spore_stims/complex_12_A_a.gif","images/stimuli/spore_stims/complex_20_A_b.gif","forced_long","","10","complex_dissimilar","images/stimuli/spore_stims/complex_20_A_b.gif","","","","",""
"","null","html-keyboard-response","117","475768","0.0-29.0-0.1","SS1618435648423","","","null","","","","","","<p><img src= images/blank.png width =""600"" height = ""600"" style=""position:fixed;top:50%; left:50%; transform: translate(-50%, -50%); border:5px solid black"">","","","","","","","",""
"","2393.5850000707433","sequential-stimulus-presentation-old","118","478664","0.0-29.0-1.1","SS1618435648423","trial","","40","500","2893.5850000707433","images/stimuli/spore_stims/complex_12_A_a.gif","images/stimuli/spore_stims/complex_20_A_b.gif","forced_long","","10","complex_dissimilar","images/stimuli/spore_stims/complex_20_A_b.gif","","","","",""
"","null","html-keyboard-response","119","479501","0.0-29.0-0.2","SS1618435648423","","","null","","","","","","<p><img src= images/blank.png width =""600"" height = ""600"" style=""position:fixed;top:50%; left:50%; transform: translate(-50%, -50%); border:5px solid black"">","","","","","","","",""
"","1106.6400000127032","sequential-stimulus-presentation-old","120","481111","0.0-29.0-1.2","SS1618435648423","trial","","40","500","1606.6400000127032","images/stimuli/spore_stims/complex_12_A_a.gif","images/stimuli/spore_stims/complex_20_A_b.gif","forced_long","","10","complex_dissimilar","images/stimuli/spore_stims/complex_20_A_b.gif","","","","",""
"","null","html-keyboard-response","121","481931","0.0-29.0-0.3","SS1618435648423","","","null","","","","","","<p><img src= images/blank.png width =""600"" height = ""600"" style=""position:fixed;top:50%; left:50%; transform: translate(-50%, -50%); border:5px solid black"">","","","","","","","",""
"","450.745000038296","sequential-stimulus-presentation-old","122","482885","0.0-29.0-1.3","SS1618435648423","trial","","40","500","950.745000038296","images/stimuli/spore_stims/complex_12_A_a.gif","images/stimuli/spore_stims/complex_20_A_b.gif","forced_long","","10","complex_dissimilar","images/stimuli/spore_stims/complex_20_A_b.gif","","","","",""
"","4012.4599999981","survey-multi-choice","123","486899","0.0-30.0","SS1618435648423","math_question","","","","","","","","","","","","{""Q0"":""15""}","[0]","15","",""
"","null","html-keyboard-response","124","488061","0.0-31.0-0.0","SS1618435648423","","","null","","","","","","<p><img src= images/blank.png width =""600"" height = ""600"" style=""position:fixed;top:50%; left:50%; transform: translate(-50%, -50%); border:5px solid black"">","","","","","","","",""
"","2373.2549999840558","sequential-stimulus-presentation-old","125","490936","0.0-31.0-1.0","SS1618435648423","trial","","40","500","2873.2549999840558","images/stimuli/spore_stims/simple_09_A_a.gif","images/stimuli/spore_stims/simple_14_A_b.gif","self_paced","","11","simple_dissimilar","images/stimuli/spore_stims/simple_14_A_b.gif","","","","",""
"","null","html-keyboard-response","126","491807","0.0-31.0-0.1","SS1618435648423","","","null","","","","","","<p><img src= images/blank.png width =""600"" height = ""600"" style=""position:fixed;top:50%; left:50%; transform: translate(-50%, -50%); border:5px solid black"">","","","","","","","",""
"","1383.2050000783056","sequential-stimulus-presentation-old","127","493694","0.0-31.0-1.1","SS1618435648423","trial","","40","500","1883.2050000783056","images/stimuli/spore_stims/simple_09_A_a.gif","images/stimuli/spore_stims/simple_14_A_b.gif","self_paced","","11","simple_dissimilar","images/stimuli/spore_stims/simple_14_A_b.gif","","","","",""
"","null","html-keyboard-response","128","494515","0.0-31.0-0.2","SS1618435648423","","","null","","","","","","<p><img src= images/blank.png width =""600"" height = ""600"" style=""position:fixed;top:50%; left:50%; transform: translate(-50%, -50%); border:5px solid black"">","","","","","","","",""
"","3150.114999967627","sequential-stimulus-presentation-old","129","498167","0.0-31.0-1.2","SS1618435648423","trial","","40","500","3650.114999967627","images/stimuli/spore_stims/simple_09_A_a.gif","images/stimuli/spore_stims/simple_14_A_b.gif","self_paced","","11","simple_dissimilar","images/stimuli/spore_stims/simple_09_A_a.gif","","","","",""
"","null","html-keyboard-response","130","499404","0.0-31.0-0.3","SS1618435648423","","","null","","","","","","<p><img src= images/blank.png width =""600"" height = ""600"" style=""position:fixed;top:50%; left:50%; transform: translate(-50%, -50%); border:5px solid black"">","","","","","","","",""
"","2760.0450000027195","sequential-stimulus-presentation-old","131","502667","0.0-31.0-1.3","SS1618435648423","trial","","40","500","3260.0450000027195","images/stimuli/spore_stims/simple_09_A_a.gif","images/stimuli/spore_stims/simple_14_A_b.gif","self_paced","","11","simple_dissimilar","images/stimuli/spore_stims/simple_14_A_b.gif","","","","",""
"","null","html-keyboard-response","132","503611","0.0-31.0-0.4","SS1618435648423","","","null","","","","","","<p><img src= images/blank.png width =""600"" height = ""600"" style=""position:fixed;top:50%; left:50%; transform: translate(-50%, -50%); border:5px solid black"">","","","","","","","",""
"","7357.229999965057","sequential-stimulus-presentation-old","133","511472","0.0-31.0-1.4","SS1618435648423","trial","","40","500","7857.229999965057","images/stimuli/spore_stims/simple_09_A_a.gif","images/stimuli/spore_stims/simple_14_A_b.gif","self_paced","","11","simple_dissimilar","images/stimuli/spore_stims/simple_14_A_b.gif","","","","",""
"[{""page_index"":0,""viewing_time"":6725.925000035204}]","6726.065000053495","instructions","134","518199","0.0-32.0","SS1618435648423","instructions","","","","","","","","","","","","","","","",""
"","10265.959999989718","survey-likert","135","528468","0.0-33.0","SS1618435648423","similarity_question","","","","","","","","","","","","{""Q0"":1}","[0]","","images/stimuli/spore_stims/complex_08_A_a.gif","images/stimuli/spore_stims/complex_06_A_b.gif"
"","6533.754999982193","survey-likert","136","535010","0.0-34.0","SS1618435648423","similarity_question","","","","","","","","","","","","{""Q0"":1}","[0]","","images/stimuli/spore_stims/complex_05_A_a.gif","images/stimuli/spore_stims/complex_18_A_b.gif"
"","9673.330000019632","survey-likert","137","544692","0.0-35.0","SS1618435648423","similarity_question","","","","","","","","","","","","{""Q0"":2}","[0]","","images/stimuli/spore_stims/simple_10_A_a.gif","images/stimuli/spore_stims/simple_11_A_b.gif"
"","4469.135000021197","survey-likert","138","549170","0.0-36.0","SS1618435648423","similarity_question","","","","","","","","","","","","{""Q0"":4}","[0]","","images/stimuli/spore_stims/simple_13_A_a.gif","images/stimuli/spore_stims/simple_15_A_b.gif"
"","5104.155000066385","survey-likert","139","554283","0.0-37.0","SS1618435648423","similarity_question","","","","","","","","","","","","{""Q0"":1}","[0]","","images/stimuli/spore_stims/complex_11_A_b.gif","images/stimuli/spore_stims/complex_03_A_a.gif"
"","7238.979999907315","survey-likert","140","561530","0.0-38.0","SS1618435648423","similarity_question","","","","","","","","","","","","{""Q0"":1}","[0]","","images/stimuli/spore_stims/complex_20_A_b.gif","images/stimuli/spore_stims/complex_12_A_a.gif"
"","5201.170000014827","survey-likert","141","566741","0.0-39.0","SS1618435648423","similarity_question","","","","","","","","","","","","{""Q0"":5}","[0]","","images/stimuli/spore_stims/simple_08_A_a.gif","images/stimuli/spore_stims/simple_06_A_b.gif"
"","3011.2600000575185","survey-likert","142","569761","0.0-40.0","SS1618435648423","similarity_question","","","","","","","","","","","","{""Q0"":4}","[0]","","images/stimuli/spore_stims/simple_10_A_b.gif","images/stimuli/spore_stims/simple_16_A_a.gif"
"","8593.929999973625","survey-likert","143","578365","0.0-41.0","SS1618435648423","similarity_question","","","","","","","","","","","","{""Q0"":1}","[0]","","images/stimuli/spore_stims/complex_14_A_b.gif","images/stimuli/spore_stims/complex_18_A_a.gif"
"","5338.12999993097","survey-likert","144","583712","0.0-42.0","SS1618435648423","similarity_question","","","","","","","","","","","","{""Q0"":0}","[0]","","images/stimuli/spore_stims/complex_19_A_b.gif","images/stimuli/spore_stims/complex_02_A_a.gif"
"","3236.6349999792874","survey-likert","145","586958","0.0-43.0","SS1618435648423","similarity_question","","","","","","","","","","","","{""Q0"":4}","[0]","","images/stimuli/spore_stims/simple_09_A_a.gif","images/stimuli/spore_stims/simple_14_A_b.gif"
"","6222.489999956451","survey-likert","146","593189","0.0-44.0","SS1618435648423","similarity_question","","","","","","","","","","","","{""Q0"":4}","[0]","","images/stimuli/spore_stims/simple_07_A_a.gif","images/stimuli/spore_stims/simple_03_A_b.gif"
"[{""page_index"":0,""viewing_time"":3509.7949999617413}]","3509.9450000561774","instructions","147","596707","0.0-45.0","SS1618435648423","instructions","","","","","","","","","","","","","","","",""
"","4217.219999991357","survey-likert","148","600926","0.0-46.0","SS1618435648423","","","","","","","","","images/stimuli/spore_stims/complex_18_A_b.gif","","","","{""Q0"":5}","[0]","","",""
"","4394.429999985732","survey-likert","149","605330","0.0-47.0","SS1618435648423","","","","","","","","","images/stimuli/spore_stims/simple_15_A_b.gif","","","","{""Q0"":1}","[0]","","",""
"","4964.904999942519","survey-likert","150","610304","0.0-48.0","SS1618435648423","","","","","","","","","images/stimuli/spore_stims/simple_10_A_a.gif","","","","{""Q0"":1}","[0]","","",""
"","3073.164999950677","survey-likert","151","613386","0.0-49.0","SS1618435648423","","","","","","","","","images/stimuli/spore_stims/complex_03_A_a.gif","","","","{""Q0"":4}","[0]","","",""
"","2618.5050000203773","survey-likert","152","616013","0.0-50.0","SS1618435648423","","","","","","","","","images/stimuli/spore_stims/complex_19_A_b.gif","","","","{""Q0"":4}","[0]","","",""
"","2378.9700000779703","survey-likert","153","618402","0.0-51.0","SS1618435648423","","","","","","","","","images/stimuli/spore_stims/complex_12_A_a.gif","","","","{""Q0"":5}","[0]","","",""
"","5140.46500006225","survey-likert","154","623551","0.0-52.0","SS1618435648423","","","","","","","","","images/stimuli/spore_stims/complex_18_A_a.gif","","","","{""Q0"":6}","[0]","","",""
"","3918.0750000523403","survey-likert","155","627478","0.0-53.0","SS1618435648423","","","","","","","","","images/stimuli/spore_stims/simple_08_A_a.gif","","","","{""Q0"":0}","[0]","","",""
"","1765.5500000109896","survey-likert","156","629252","0.0-54.0","SS1618435648423","","","","","","","","","images/stimuli/spore_stims/simple_03_A_b.gif","","","","{""Q0"":1}","[0]","","",""
"","4362.8399999579415","survey-likert","157","633623","0.0-55.0","SS1618435648423","","","","","","","","","images/stimuli/spore_stims/simple_16_A_a.gif","","","","{""Q0"":2}","[0]","","",""
"","3039.115000050515","survey-likert","158","636670","0.0-56.0","SS1618435648423","","","","","","","","","images/stimuli/spore_stims/complex_06_A_b.gif","","","","{""Q0"":4}","[0]","","",""
"","2191.8850000947714","survey-likert","159","638871","0.0-57.0","SS1618435648423","","","","","","","","","images/stimuli/spore_stims/simple_09_A_a.gif","","","","{""Q0"":1}","[0]","","",""
"[{""page_index"":0,""viewing_time"":1893.7399999704212}]","1893.9399999799207","instructions","160","640773","0.0-58.0","SS1618435648423","instructions","","","","","","","","","","","","","","","",""
"","3569.3650000030175","demog-age","161","644347","0.0-59.0","SS1618435648423","","","","","","","","","","","","","{""age"":""28""}","","","",""
"","3051.979999989271","demog-ethnic-US","162","647403","0.0-60.0","SS1618435648423","","","","","","","","","","","","","{""ethnicity"":[""White""]}","[0]","","",""
"","4241.455000010319","demog-gender-and-education","163","651653","0.0-61.0","SS1618435648423","","","","","","","","","","","","","{""gender"":""Male"",""education"":""Bachelor's Degree""}","[0,1]","","",""
"","78979.2099999031","survey-text","164","730642","0.0-62.0","SS1618435648423","feedback","","","","","","","","","","","","{""Q0"":""I think I am going to have nightmares for the next couple of nights. I don't think these monsters (the more detailed ones, at least) should be shown to babies. Sorry. No other issues""}","","","",""
"[{""page_index"":0,""viewing_time"":2051.56499997247}]","2051.7199999885634","instructions","165","732697","0.0-63.0","SS1618435648423","instructions","","","","","","","","","","","","","","","",""
