"view_history","rt","trial_type","trial_index","time_elapsed","internal_node_id","subject","stimulus_type","trial_stimulus","key_press","minimum_viewing_duration","trial_looking_time","block_deviant","block_background","exposure_type","stimulus","block_number","block_type","stimulus_displayed","responses","question_order","math_correct_answer","stimulus_left","stimulus_right"
"[{""page_index"":0,""viewing_time"":16624.485000036657}]","16625.235000043176","instructions","0","16626","0.0-0.0","SS1618006425636","","","","","","","","","","","","","","","","",""
"[{""page_index"":0,""viewing_time"":10740.560000063851},{""page_index"":1,""viewing_time"":10239.14999992121}]","20979.975000023842","instructions","1","39610","0.0-1.0","SS1618006425636","instructions","","","","","","","","","","","","","","","",""
"","9989.750000066124","sequential-stimulus-presentation-old","2","50103","0.0-2.0","SS1618006425636","","","40","500","10489.750000066124","null","null","self_paced","","","","","","","","",""
"","11904.320000088774","sequential-stimulus-presentation-old","3","62509","0.0-3.0","SS1618006425636","","","40","500","12404.320000088774","null","null","self_paced","","","","","","","","",""
"[{""page_index"":0,""viewing_time"":18085.719999973662}]","18085.994999972172","instructions","4","80596","0.0-4.0","SS1618006425636","instructions","","","","","","","","","","","","","","","",""
"","5219.754999969155","sequential-stimulus-presentation-old","5","90819","0.0-5.0","SS1618006425636","","","40","500","5719.754999969155","null","null","forced_long","","","","","","","","",""
"","5902.46000001207","sequential-stimulus-presentation-old","6","96774","0.0-6.0","SS1618006425636","","","40","50","5952.46000001207","null","null","forced_long","","","","","","","","",""
"[{""page_index"":0,""viewing_time"":3233.4500000579283}]","3233.669999986887","instructions","7","100009","0.0-7.0","SS1618006425636","instructions","","","","","","","","","","","","","","","",""
"[{""page_index"":0,""viewing_time"":8312.115000095218},{""page_index"":1,""viewing_time"":10455.094999982975},{""page_index"":2,""viewing_time"":6324.464999954216},{""page_index"":3,""viewing_time"":1563.0150000797585},{""page_index"":4,""viewing_time"":998.0649999342859}]","27653.01000000909","instructions","8","127663","0.0-8.0","SS1618006425636","instructions","","","","","","","","","","","","","","","",""
"","null","html-keyboard-response","9","128873","0.0-9.0-0.0","SS1618006425636","","","null","","","","","","<p><img src= images/blank.png width =""600"" height = ""600"" style=""position:fixed;top:50%; left:50%; transform: translate(-50%, -50%); border:5px solid black"">","","","","","","","",""
"","23208.379999967292","sequential-stimulus-presentation-old","10","152585","0.0-9.0-1.0","SS1618006425636","trial","","40","500","23708.379999967292","images/stimuli/spore_stims/complex_10_A_b.gif","images/stimuli/spore_stims/complex_11_A_a.gif","self_paced","","0","complex_dissimilar","images/stimuli/spore_stims/complex_11_A_a.gif","","","","",""
"","null","html-keyboard-response","11","153590","0.0-9.0-0.1","SS1618006425636","","","null","","","","","","<p><img src= images/blank.png width =""600"" height = ""600"" style=""position:fixed;top:50%; left:50%; transform: translate(-50%, -50%); border:5px solid black"">","","","","","","","",""
"","6623.394999885932","sequential-stimulus-presentation-old","12","160717","0.0-9.0-1.1","SS1618006425636","trial","","40","500","7123.394999885932","images/stimuli/spore_stims/complex_10_A_b.gif","images/stimuli/spore_stims/complex_11_A_a.gif","self_paced","","0","complex_dissimilar","images/stimuli/spore_stims/complex_11_A_a.gif","","","","",""
"","null","html-keyboard-response","13","161910","0.0-9.0-0.2","SS1618006425636","","","null","","","","","","<p><img src= images/blank.png width =""600"" height = ""600"" style=""position:fixed;top:50%; left:50%; transform: translate(-50%, -50%); border:5px solid black"">","","","","","","","",""
"","2052.849999978207","sequential-stimulus-presentation-old","14","164467","0.0-9.0-1.2","SS1618006425636","trial","","40","500","2552.849999978207","images/stimuli/spore_stims/complex_10_A_b.gif","images/stimuli/spore_stims/complex_11_A_a.gif","self_paced","","0","complex_dissimilar","images/stimuli/spore_stims/complex_11_A_a.gif","","","","",""
"","null","html-keyboard-response","15","165648","0.0-9.0-0.3","SS1618006425636","","","null","","","","","","<p><img src= images/blank.png width =""600"" height = ""600"" style=""position:fixed;top:50%; left:50%; transform: translate(-50%, -50%); border:5px solid black"">","","","","","","","",""
"","5890.0350000476465","sequential-stimulus-presentation-old","16","172044","0.0-9.0-1.3","SS1618006425636","trial","","40","500","6390.0350000476465","images/stimuli/spore_stims/complex_10_A_b.gif","images/stimuli/spore_stims/complex_11_A_a.gif","self_paced","","0","complex_dissimilar","images/stimuli/spore_stims/complex_11_A_a.gif","","","","",""
"","4213.454999960959","survey-multi-choice","17","176261","0.0-10.0","SS1618006425636","math_question","","","","","","","","","","","","{""Q0"":""10""}","[0]","10","",""
"","null","html-keyboard-response","18","177192","0.0-11.0-0.0","SS1618006425636","","","null","","","","","","<p><img src= images/blank.png width =""600"" height = ""600"" style=""position:fixed;top:50%; left:50%; transform: translate(-50%, -50%); border:5px solid black"">","","","","","","","",""
"","689.2649999354035","sequential-stimulus-presentation-old","19","182887","0.0-11.0-1.0","SS1618006425636","trial","","40","500","1189.2649999354035","images/stimuli/spore_stims/simple_17_A_b.gif","images/stimuli/spore_stims/simple_15_A_a.gif","forced_long","","1","simple_dissimilar","images/stimuli/spore_stims/simple_15_A_a.gif","","","","",""
"","null","html-keyboard-response","20","183908","0.0-11.0-0.1","SS1618006425636","","","null","","","","","","<p><img src= images/blank.png width =""600"" height = ""600"" style=""position:fixed;top:50%; left:50%; transform: translate(-50%, -50%); border:5px solid black"">","","","","","","","",""
"","11181.800000020303","sequential-stimulus-presentation-old","21","195594","0.0-11.0-1.1","SS1618006425636","trial","","40","500","11681.800000020303","images/stimuli/spore_stims/simple_17_A_b.gif","images/stimuli/spore_stims/simple_15_A_a.gif","forced_long","","1","simple_dissimilar","images/stimuli/spore_stims/simple_15_A_a.gif","","","","",""
"","null","html-keyboard-response","22","196723","0.0-11.0-0.2","SS1618006425636","","","null","","","","","","<p><img src= images/blank.png width =""600"" height = ""600"" style=""position:fixed;top:50%; left:50%; transform: translate(-50%, -50%); border:5px solid black"">","","","","","","","",""
"","829.3399999383837","sequential-stimulus-presentation-old","23","198056","0.0-11.0-1.2","SS1618006425636","trial","","40","500","1329.3399999383837","images/stimuli/spore_stims/simple_17_A_b.gif","images/stimuli/spore_stims/simple_15_A_a.gif","forced_long","","1","simple_dissimilar","images/stimuli/spore_stims/simple_15_A_a.gif","","","","",""
"","null","html-keyboard-response","24","199117","0.0-11.0-0.3","SS1618006425636","","","null","","","","","","<p><img src= images/blank.png width =""600"" height = ""600"" style=""position:fixed;top:50%; left:50%; transform: translate(-50%, -50%); border:5px solid black"">","","","","","","","",""
"","10917.74499998428","sequential-stimulus-presentation-old","25","210539","0.0-11.0-1.3","SS1618006425636","trial","","40","500","11417.74499998428","images/stimuli/spore_stims/simple_17_A_b.gif","images/stimuli/spore_stims/simple_15_A_a.gif","forced_long","","1","simple_dissimilar","images/stimuli/spore_stims/simple_17_A_b.gif","","","","",""
"","null","html-keyboard-response","26","211565","0.0-11.0-0.4","SS1618006425636","","","null","","","","","","<p><img src= images/blank.png width =""600"" height = ""600"" style=""position:fixed;top:50%; left:50%; transform: translate(-50%, -50%); border:5px solid black"">","","","","","","","",""
"","5962.954999995418","sequential-stimulus-presentation-old","27","218032","0.0-11.0-1.4","SS1618006425636","trial","","40","500","6462.954999995418","images/stimuli/spore_stims/simple_17_A_b.gif","images/stimuli/spore_stims/simple_15_A_a.gif","forced_long","","1","simple_dissimilar","images/stimuli/spore_stims/simple_15_A_a.gif","","","","",""
"","null","html-keyboard-response","28","219212","0.0-11.0-0.5","SS1618006425636","","","null","","","","","","<p><img src= images/blank.png width =""600"" height = ""600"" style=""position:fixed;top:50%; left:50%; transform: translate(-50%, -50%); border:5px solid black"">","","","","","","","",""
"","452.95499998610467","sequential-stimulus-presentation-old","29","220170","0.0-11.0-1.5","SS1618006425636","trial","","40","500","952.9549999861047","images/stimuli/spore_stims/simple_17_A_b.gif","images/stimuli/spore_stims/simple_15_A_a.gif","forced_long","","1","simple_dissimilar","images/stimuli/spore_stims/simple_17_A_b.gif","","","","",""
"","3407.895000069402","survey-multi-choice","30","223581","0.0-12.0","SS1618006425636","math_question","","","","","","","","","","","","{""Q0"":""15""}","[0]","15","",""
"","null","html-keyboard-response","31","224805","0.0-13.0-0.0","SS1618006425636","","","null","","","","","","<p><img src= images/blank.png width =""600"" height = ""600"" style=""position:fixed;top:50%; left:50%; transform: translate(-50%, -50%); border:5px solid black"">","","","","","","","",""
"","947.7900000056252","sequential-stimulus-presentation-old","32","230758","0.0-13.0-1.0","SS1618006425636","trial","","40","500","1447.7900000056252","images/stimuli/spore_stims/complex_17_A_b.gif","images/stimuli/spore_stims/complex_05_A_a.gif","forced_long","","2","complex_dissimilar","images/stimuli/spore_stims/complex_05_A_a.gif","","","","",""
"","null","html-keyboard-response","33","231708","0.0-13.0-0.1","SS1618006425636","","","null","","","","","","<p><img src= images/blank.png width =""600"" height = ""600"" style=""position:fixed;top:50%; left:50%; transform: translate(-50%, -50%); border:5px solid black"">","","","","","","","",""
"","6572.954999981448","sequential-stimulus-presentation-old","34","238786","0.0-13.0-1.1","SS1618006425636","trial","","40","500","7072.954999981448","images/stimuli/spore_stims/complex_17_A_b.gif","images/stimuli/spore_stims/complex_05_A_a.gif","forced_long","","2","complex_dissimilar","images/stimuli/spore_stims/complex_05_A_a.gif","","","","",""
"","null","html-keyboard-response","35","239676","0.0-13.0-0.2","SS1618006425636","","","null","","","","","","<p><img src= images/blank.png width =""600"" height = ""600"" style=""position:fixed;top:50%; left:50%; transform: translate(-50%, -50%); border:5px solid black"">","","","","","","","",""
"","975.6150000030175","sequential-stimulus-presentation-old","36","241158","0.0-13.0-1.2","SS1618006425636","trial","","40","500","1475.6150000030175","images/stimuli/spore_stims/complex_17_A_b.gif","images/stimuli/spore_stims/complex_05_A_a.gif","forced_long","","2","complex_dissimilar","images/stimuli/spore_stims/complex_05_A_a.gif","","","","",""
"","null","html-keyboard-response","37","242049","0.0-13.0-0.3","SS1618006425636","","","null","","","","","","<p><img src= images/blank.png width =""600"" height = ""600"" style=""position:fixed;top:50%; left:50%; transform: translate(-50%, -50%); border:5px solid black"">","","","","","","","",""
"","7027.739999932237","sequential-stimulus-presentation-old","38","249582","0.0-13.0-1.3","SS1618006425636","trial","","40","500","7527.739999932237","images/stimuli/spore_stims/complex_17_A_b.gif","images/stimuli/spore_stims/complex_05_A_a.gif","forced_long","","2","complex_dissimilar","images/stimuli/spore_stims/complex_05_A_a.gif","","","","",""
"","null","html-keyboard-response","39","250746","0.0-13.0-0.4","SS1618006425636","","","null","","","","","","<p><img src= images/blank.png width =""600"" height = ""600"" style=""position:fixed;top:50%; left:50%; transform: translate(-50%, -50%); border:5px solid black"">","","","","","","","",""
"","976.035000057891","sequential-stimulus-presentation-old","40","252228","0.0-13.0-1.4","SS1618006425636","trial","","40","500","1476.035000057891","images/stimuli/spore_stims/complex_17_A_b.gif","images/stimuli/spore_stims/complex_05_A_a.gif","forced_long","","2","complex_dissimilar","images/stimuli/spore_stims/complex_05_A_a.gif","","","","",""
"","3134.624999947846","survey-multi-choice","41","255366","0.0-14.0","SS1618006425636","math_question","","","","","","","","","","","","{""Q0"":""11""}","[0]","11","",""
"","null","html-keyboard-response","42","256420","0.0-15.0-0.0","SS1618006425636","","","null","","","","","","<p><img src= images/blank.png width =""600"" height = ""600"" style=""position:fixed;top:50%; left:50%; transform: translate(-50%, -50%); border:5px solid black"">","","","","","","","",""
"","11907.059999997728","sequential-stimulus-presentation-old","43","268834","0.0-15.0-1.0","SS1618006425636","trial","","40","500","12407.059999997728","images/stimuli/spore_stims/simple_14_A_a.gif","images/stimuli/spore_stims/simple_19_A_b.gif","self_paced","","3","simple_dissimilar","images/stimuli/spore_stims/simple_19_A_b.gif","","","","",""
"","null","html-keyboard-response","44","270023","0.0-15.0-0.1","SS1618006425636","","","null","","","","","","<p><img src= images/blank.png width =""600"" height = ""600"" style=""position:fixed;top:50%; left:50%; transform: translate(-50%, -50%); border:5px solid black"">","","","","","","","",""
"","527.3250000318512","sequential-stimulus-presentation-old","45","271056","0.0-15.0-1.1","SS1618006425636","trial","","40","500","1027.3250000318512","images/stimuli/spore_stims/simple_14_A_a.gif","images/stimuli/spore_stims/simple_19_A_b.gif","self_paced","","3","simple_dissimilar","images/stimuli/spore_stims/simple_19_A_b.gif","","","","",""
"","null","html-keyboard-response","46","272161","0.0-15.0-0.2","SS1618006425636","","","null","","","","","","<p><img src= images/blank.png width =""600"" height = ""600"" style=""position:fixed;top:50%; left:50%; transform: translate(-50%, -50%); border:5px solid black"">","","","","","","","",""
"","129.50000003911555","sequential-stimulus-presentation-old","47","272796","0.0-15.0-1.2","SS1618006425636","trial","","40","500","629.5000000391155","images/stimuli/spore_stims/simple_14_A_a.gif","images/stimuli/spore_stims/simple_19_A_b.gif","self_paced","","3","simple_dissimilar","images/stimuli/spore_stims/simple_19_A_b.gif","","","","",""
"","null","html-keyboard-response","48","274021","0.0-15.0-0.3","SS1618006425636","","","null","","","","","","<p><img src= images/blank.png width =""600"" height = ""600"" style=""position:fixed;top:50%; left:50%; transform: translate(-50%, -50%); border:5px solid black"">","","","","","","","",""
"","2017.42499996908","sequential-stimulus-presentation-old","49","276544","0.0-15.0-1.3","SS1618006425636","trial","","40","500","2517.42499996908","images/stimuli/spore_stims/simple_14_A_a.gif","images/stimuli/spore_stims/simple_19_A_b.gif","self_paced","","3","simple_dissimilar","images/stimuli/spore_stims/simple_19_A_b.gif","","","","",""
"","null","html-keyboard-response","50","277807","0.0-15.0-0.4","SS1618006425636","","","null","","","","","","<p><img src= images/blank.png width =""600"" height = ""600"" style=""position:fixed;top:50%; left:50%; transform: translate(-50%, -50%); border:5px solid black"">","","","","","","","",""
"","1464.695000089705","sequential-stimulus-presentation-old","51","279778","0.0-15.0-1.4","SS1618006425636","trial","","40","500","1964.695000089705","images/stimuli/spore_stims/simple_14_A_a.gif","images/stimuli/spore_stims/simple_19_A_b.gif","self_paced","","3","simple_dissimilar","images/stimuli/spore_stims/simple_19_A_b.gif","","","","",""
"","null","html-keyboard-response","52","281046","0.0-15.0-0.5","SS1618006425636","","","null","","","","","","<p><img src= images/blank.png width =""600"" height = ""600"" style=""position:fixed;top:50%; left:50%; transform: translate(-50%, -50%); border:5px solid black"">","","","","","","","",""
"","9739.104999927804","sequential-stimulus-presentation-old","53","291292","0.0-15.0-1.5","SS1618006425636","trial","","40","500","10239.104999927804","images/stimuli/spore_stims/simple_14_A_a.gif","images/stimuli/spore_stims/simple_19_A_b.gif","self_paced","","3","simple_dissimilar","images/stimuli/spore_stims/simple_14_A_a.gif","","","","",""
"","5829.7099999617785","survey-multi-choice","54","297125","0.0-16.0","SS1618006425636","math_question","","","","","","","","","","","","{""Q0"":""15""}","[0]","15","",""
"","null","html-keyboard-response","55","298367","0.0-17.0-0.0","SS1618006425636","","","null","","","","","","<p><img src= images/blank.png width =""600"" height = ""600"" style=""position:fixed;top:50%; left:50%; transform: translate(-50%, -50%); border:5px solid black"">","","","","","","","",""
"","1972.7399999974295","sequential-stimulus-presentation-old","56","300396","0.0-17.0-1.0","SS1618006425636","trial","","40","500","2472.7399999974295","images/stimuli/spore_stims/simple_01_A_b.gif","images/stimuli/spore_stims/simple_06_A_a.gif","forced_short","","4","simple_dissimilar","images/stimuli/spore_stims/simple_06_A_a.gif","","","","",""
"","null","html-keyboard-response","57","301508","0.0-17.0-0.1","SS1618006425636","","","null","","","","","","<p><img src= images/blank.png width =""600"" height = ""600"" style=""position:fixed;top:50%; left:50%; transform: translate(-50%, -50%); border:5px solid black"">","","","","","","","",""
"","3578.014999977313","sequential-stimulus-presentation-old","58","305591","0.0-17.0-1.1","SS1618006425636","trial","","40","500","4078.014999977313","images/stimuli/spore_stims/simple_01_A_b.gif","images/stimuli/spore_stims/simple_06_A_a.gif","forced_short","","4","simple_dissimilar","images/stimuli/spore_stims/simple_06_A_a.gif","","","","",""
"","null","html-keyboard-response","59","306574","0.0-17.0-0.2","SS1618006425636","","","null","","","","","","<p><img src= images/blank.png width =""600"" height = ""600"" style=""position:fixed;top:50%; left:50%; transform: translate(-50%, -50%); border:5px solid black"">","","","","","","","",""
"","6681.844999897294","sequential-stimulus-presentation-old","60","313764","0.0-17.0-1.2","SS1618006425636","trial","","40","500","7181.844999897294","images/stimuli/spore_stims/simple_01_A_b.gif","images/stimuli/spore_stims/simple_06_A_a.gif","forced_short","","4","simple_dissimilar","images/stimuli/spore_stims/simple_06_A_a.gif","","","","",""
"","null","html-keyboard-response","61","314728","0.0-17.0-0.3","SS1618006425636","","","null","","","","","","<p><img src= images/blank.png width =""600"" height = ""600"" style=""position:fixed;top:50%; left:50%; transform: translate(-50%, -50%); border:5px solid black"">","","","","","","","",""
"","1070.0349999824539","sequential-stimulus-presentation-old","62","316305","0.0-17.0-1.3","SS1618006425636","trial","","40","500","1570.0349999824539","images/stimuli/spore_stims/simple_01_A_b.gif","images/stimuli/spore_stims/simple_06_A_a.gif","forced_short","","4","simple_dissimilar","images/stimuli/spore_stims/simple_06_A_a.gif","","","","",""
"","3386.7600000230595","survey-multi-choice","63","319696","0.0-18.0","SS1618006425636","math_question","","","","","","","","","","","","{""Q0"":""8""}","[0]","8","",""
"","null","html-keyboard-response","64","320714","0.0-19.0-0.0","SS1618006425636","","","null","","","","","","<p><img src= images/blank.png width =""600"" height = ""600"" style=""position:fixed;top:50%; left:50%; transform: translate(-50%, -50%); border:5px solid black"">","","","","","","","",""
"","1722.109999973327","sequential-stimulus-presentation-old","65","322492","0.0-19.0-1.0","SS1618006425636","trial","","40","500","2222.109999973327","images/stimuli/spore_stims/complex_02_A_a.gif","images/stimuli/spore_stims/complex_16_A_b.gif","forced_short","","5","complex_dissimilar","images/stimuli/spore_stims/complex_16_A_b.gif","","","","",""
"","null","html-keyboard-response","66","323716","0.0-19.0-0.1","SS1618006425636","","","null","","","","","","<p><img src= images/blank.png width =""600"" height = ""600"" style=""position:fixed;top:50%; left:50%; transform: translate(-50%, -50%); border:5px solid black"">","","","","","","","",""
"","9851.859999937005","sequential-stimulus-presentation-old","67","334075","0.0-19.0-1.1","SS1618006425636","trial","","40","500","10351.859999937005","images/stimuli/spore_stims/complex_02_A_a.gif","images/stimuli/spore_stims/complex_16_A_b.gif","forced_short","","5","complex_dissimilar","images/stimuli/spore_stims/complex_16_A_b.gif","","","","",""
"","null","html-keyboard-response","68","334988","0.0-19.0-0.2","SS1618006425636","","","null","","","","","","<p><img src= images/blank.png width =""600"" height = ""600"" style=""position:fixed;top:50%; left:50%; transform: translate(-50%, -50%); border:5px solid black"">","","","","","","","",""
"","1425.3399999579415","sequential-stimulus-presentation-old","69","336920","0.0-19.0-1.2","SS1618006425636","trial","","40","500","1925.3399999579415","images/stimuli/spore_stims/complex_02_A_a.gif","images/stimuli/spore_stims/complex_16_A_b.gif","forced_short","","5","complex_dissimilar","images/stimuli/spore_stims/complex_16_A_b.gif","","","","",""
"","null","html-keyboard-response","70","337809","0.0-19.0-0.3","SS1618006425636","","","null","","","","","","<p><img src= images/blank.png width =""600"" height = ""600"" style=""position:fixed;top:50%; left:50%; transform: translate(-50%, -50%); border:5px solid black"">","","","","","","","",""
"","648.4400000190362","sequential-stimulus-presentation-old","71","338964","0.0-19.0-1.3","SS1618006425636","trial","","40","500","1148.4400000190362","images/stimuli/spore_stims/complex_02_A_a.gif","images/stimuli/spore_stims/complex_16_A_b.gif","forced_short","","5","complex_dissimilar","images/stimuli/spore_stims/complex_16_A_b.gif","","","","",""
"","null","html-keyboard-response","72","339777","0.0-19.0-0.4","SS1618006425636","","","null","","","","","","<p><img src= images/blank.png width =""600"" height = ""600"" style=""position:fixed;top:50%; left:50%; transform: translate(-50%, -50%); border:5px solid black"">","","","","","","","",""
"","6568.474999978207","sequential-stimulus-presentation-old","73","346851","0.0-19.0-1.4","SS1618006425636","trial","","40","500","7068.474999978207","images/stimuli/spore_stims/complex_02_A_a.gif","images/stimuli/spore_stims/complex_16_A_b.gif","forced_short","","5","complex_dissimilar","images/stimuli/spore_stims/complex_02_A_a.gif","","","","",""
"","null","html-keyboard-response","74","348094","0.0-19.0-0.5","SS1618006425636","","","null","","","","","","<p><img src= images/blank.png width =""600"" height = ""600"" style=""position:fixed;top:50%; left:50%; transform: translate(-50%, -50%); border:5px solid black"">","","","","","","","",""
"","1013.2899999152869","sequential-stimulus-presentation-old","75","349615","0.0-19.0-1.5","SS1618006425636","trial","","40","500","1513.289999915287","images/stimuli/spore_stims/complex_02_A_a.gif","images/stimuli/spore_stims/complex_16_A_b.gif","forced_short","","5","complex_dissimilar","images/stimuli/spore_stims/complex_16_A_b.gif","","","","",""
"","3509.8249999573454","survey-multi-choice","76","353130","0.0-20.0","SS1618006425636","math_question","","","","","","","","","","","","{""Q0"":""6""}","[0]","6","",""
"","null","html-keyboard-response","77","354100","0.0-21.0-0.0","SS1618006425636","","","null","","","","","","<p><img src= images/blank.png width =""600"" height = ""600"" style=""position:fixed;top:50%; left:50%; transform: translate(-50%, -50%); border:5px solid black"">","","","","","","","",""
"","2188.105000066571","sequential-stimulus-presentation-old","78","356345","0.0-21.0-1.0","SS1618006425636","trial","","40","500","2688.105000066571","images/stimuli/spore_stims/complex_01_A_a.gif","images/stimuli/spore_stims/complex_13_A_b.gif","forced_short","","6","complex_dissimilar","images/stimuli/spore_stims/complex_13_A_b.gif","","","","",""
"","null","html-keyboard-response","79","357399","0.0-21.0-0.1","SS1618006425636","","","null","","","","","","<p><img src= images/blank.png width =""600"" height = ""600"" style=""position:fixed;top:50%; left:50%; transform: translate(-50%, -50%); border:5px solid black"">","","","","","","","",""
"","5062.825000029989","sequential-stimulus-presentation-old","80","362970","0.0-21.0-1.1","SS1618006425636","trial","","40","500","5562.825000029989","images/stimuli/spore_stims/complex_01_A_a.gif","images/stimuli/spore_stims/complex_13_A_b.gif","forced_short","","6","complex_dissimilar","images/stimuli/spore_stims/complex_13_A_b.gif","","","","",""
"","null","html-keyboard-response","81","363870","0.0-21.0-0.2","SS1618006425636","","","null","","","","","","<p><img src= images/blank.png width =""600"" height = ""600"" style=""position:fixed;top:50%; left:50%; transform: translate(-50%, -50%); border:5px solid black"">","","","","","","","",""
"","820.9600000409409","sequential-stimulus-presentation-old","82","365199","0.0-21.0-1.2","SS1618006425636","trial","","40","500","1320.960000040941","images/stimuli/spore_stims/complex_01_A_a.gif","images/stimuli/spore_stims/complex_13_A_b.gif","forced_short","","6","complex_dissimilar","images/stimuli/spore_stims/complex_01_A_a.gif","","","","",""
"","null","html-keyboard-response","83","366367","0.0-21.0-0.3","SS1618006425636","","","null","","","","","","<p><img src= images/blank.png width =""600"" height = ""600"" style=""position:fixed;top:50%; left:50%; transform: translate(-50%, -50%); border:5px solid black"">","","","","","","","",""
"","439.200000022538","sequential-stimulus-presentation-old","84","367315","0.0-21.0-1.3","SS1618006425636","trial","","40","500","939.200000022538","images/stimuli/spore_stims/complex_01_A_a.gif","images/stimuli/spore_stims/complex_13_A_b.gif","forced_short","","6","complex_dissimilar","images/stimuli/spore_stims/complex_13_A_b.gif","","","","",""
"","null","html-keyboard-response","85","368461","0.0-21.0-0.4","SS1618006425636","","","null","","","","","","<p><img src= images/blank.png width =""600"" height = ""600"" style=""position:fixed;top:50%; left:50%; transform: translate(-50%, -50%); border:5px solid black"">","","","","","","","",""
"","294.4300000090152","sequential-stimulus-presentation-old","86","369262","0.0-21.0-1.4","SS1618006425636","trial","","40","500","794.4300000090152","images/stimuli/spore_stims/complex_01_A_a.gif","images/stimuli/spore_stims/complex_13_A_b.gif","forced_short","","6","complex_dissimilar","images/stimuli/spore_stims/complex_13_A_b.gif","","","","",""
"","null","html-keyboard-response","87","370238","0.0-21.0-0.5","SS1618006425636","","","null","","","","","","<p><img src= images/blank.png width =""600"" height = ""600"" style=""position:fixed;top:50%; left:50%; transform: translate(-50%, -50%); border:5px solid black"">","","","","","","","",""
"","815.8099999418482","sequential-stimulus-presentation-old","88","371561","0.0-21.0-1.5","SS1618006425636","trial","","40","500","1315.8099999418482","images/stimuli/spore_stims/complex_01_A_a.gif","images/stimuli/spore_stims/complex_13_A_b.gif","forced_short","","6","complex_dissimilar","images/stimuli/spore_stims/complex_13_A_b.gif","","","","",""
"","4351.454999996349","survey-multi-choice","89","375918","0.0-22.0","SS1618006425636","math_question","","","","","","","","","","","","{""Q0"":""11""}","[0]","11","",""
"","null","html-keyboard-response","90","377018","0.0-23.0-0.0","SS1618006425636","","","null","","","","","","<p><img src= images/blank.png width =""600"" height = ""600"" style=""position:fixed;top:50%; left:50%; transform: translate(-50%, -50%); border:5px solid black"">","","","","","","","",""
"","4748.030000017025","sequential-stimulus-presentation-old","91","386774","0.0-23.0-1.0","SS1618006425636","trial","","40","500","5248.030000017025","images/stimuli/spore_stims/complex_19_A_b.gif","images/stimuli/spore_stims/complex_07_A_a.gif","forced_long","","7","complex_dissimilar","images/stimuli/spore_stims/complex_07_A_a.gif","","","","",""
"","null","html-keyboard-response","92","388046","0.0-23.0-0.1","SS1618006425636","","","null","","","","","","<p><img src= images/blank.png width =""600"" height = ""600"" style=""position:fixed;top:50%; left:50%; transform: translate(-50%, -50%); border:5px solid black"">","","","","","","","",""
"","511.9000000413507","sequential-stimulus-presentation-old","93","389066","0.0-23.0-1.1","SS1618006425636","trial","","40","500","1011.9000000413507","images/stimuli/spore_stims/complex_19_A_b.gif","images/stimuli/spore_stims/complex_07_A_a.gif","forced_long","","7","complex_dissimilar","images/stimuli/spore_stims/complex_07_A_a.gif","","","","",""
"","null","html-keyboard-response","94","390285","0.0-23.0-0.2","SS1618006425636","","","null","","","","","","<p><img src= images/blank.png width =""600"" height = ""600"" style=""position:fixed;top:50%; left:50%; transform: translate(-50%, -50%); border:5px solid black"">","","","","","","","",""
"","445.94499992672354","sequential-stimulus-presentation-old","95","391239","0.0-23.0-1.2","SS1618006425636","trial","","40","500","945.9449999267235","images/stimuli/spore_stims/complex_19_A_b.gif","images/stimuli/spore_stims/complex_07_A_a.gif","forced_long","","7","complex_dissimilar","images/stimuli/spore_stims/complex_07_A_a.gif","","","","",""
"","null","html-keyboard-response","96","392203","0.0-23.0-0.3","SS1618006425636","","","null","","","","","","<p><img src= images/blank.png width =""600"" height = ""600"" style=""position:fixed;top:50%; left:50%; transform: translate(-50%, -50%); border:5px solid black"">","","","","","","","",""
"","831.5850000362843","sequential-stimulus-presentation-old","97","393543","0.0-23.0-1.3","SS1618006425636","trial","","40","500","1331.5850000362843","images/stimuli/spore_stims/complex_19_A_b.gif","images/stimuli/spore_stims/complex_07_A_a.gif","forced_long","","7","complex_dissimilar","images/stimuli/spore_stims/complex_07_A_a.gif","","","","",""
"","null","html-keyboard-response","98","394435","0.0-23.0-0.4","SS1618006425636","","","null","","","","","","<p><img src= images/blank.png width =""600"" height = ""600"" style=""position:fixed;top:50%; left:50%; transform: translate(-50%, -50%); border:5px solid black"">","","","","","","","",""
"","3446.3400000240654","sequential-stimulus-presentation-old","99","398389","0.0-23.0-1.4","SS1618006425636","trial","","40","500","3946.3400000240654","images/stimuli/spore_stims/complex_19_A_b.gif","images/stimuli/spore_stims/complex_07_A_a.gif","forced_long","","7","complex_dissimilar","images/stimuli/spore_stims/complex_19_A_b.gif","","","","",""
"","3558.6650000186637","survey-multi-choice","100","401954","0.0-24.0","SS1618006425636","math_question","","","","","","","","","","","","{""Q0"":""5""}","[0]","5","",""
"","null","html-keyboard-response","101","403197","0.0-25.0-0.0","SS1618006425636","","","null","","","","","","<p><img src= images/blank.png width =""600"" height = ""600"" style=""position:fixed;top:50%; left:50%; transform: translate(-50%, -50%); border:5px solid black"">","","","","","","","",""
"","824.8150000581518","sequential-stimulus-presentation-old","102","404531","0.0-25.0-1.0","SS1618006425636","trial","","40","500","1324.8150000581518","images/stimuli/spore_stims/simple_04_A_b.gif","images/stimuli/spore_stims/simple_01_A_a.gif","self_paced","","8","simple_dissimilar","images/stimuli/spore_stims/simple_01_A_a.gif","","","","",""
"","null","html-keyboard-response","103","405743","0.0-25.0-0.1","SS1618006425636","","","null","","","","","","<p><img src= images/blank.png width =""600"" height = ""600"" style=""position:fixed;top:50%; left:50%; transform: translate(-50%, -50%); border:5px solid black"">","","","","","","","",""
"","73.93000007141382","sequential-stimulus-presentation-old","104","406325","0.0-25.0-1.1","SS1618006425636","trial","","40","500","573.9300000714138","images/stimuli/spore_stims/simple_04_A_b.gif","images/stimuli/spore_stims/simple_01_A_a.gif","self_paced","","8","simple_dissimilar","images/stimuli/spore_stims/simple_01_A_a.gif","","","","",""
"","null","html-keyboard-response","105","407233","0.0-25.0-0.2","SS1618006425636","","","null","","","","","","<p><img src= images/blank.png width =""600"" height = ""600"" style=""position:fixed;top:50%; left:50%; transform: translate(-50%, -50%); border:5px solid black"">","","","","","","","",""
"","1029.0250000543892","sequential-stimulus-presentation-old","106","408770","0.0-25.0-1.2","SS1618006425636","trial","","40","500","1529.0250000543892","images/stimuli/spore_stims/simple_04_A_b.gif","images/stimuli/spore_stims/simple_01_A_a.gif","self_paced","","8","simple_dissimilar","images/stimuli/spore_stims/simple_01_A_a.gif","","","","",""
"","null","html-keyboard-response","107","409694","0.0-25.0-0.3","SS1618006425636","","","null","","","","","","<p><img src= images/blank.png width =""600"" height = ""600"" style=""position:fixed;top:50%; left:50%; transform: translate(-50%, -50%); border:5px solid black"">","","","","","","","",""
"","254.20999992638826","sequential-stimulus-presentation-old","108","410456","0.0-25.0-1.3","SS1618006425636","trial","","40","500","754.2099999263883","images/stimuli/spore_stims/simple_04_A_b.gif","images/stimuli/spore_stims/simple_01_A_a.gif","self_paced","","8","simple_dissimilar","images/stimuli/spore_stims/simple_01_A_a.gif","","","","",""
"","null","html-keyboard-response","109","411416","0.0-25.0-0.4","SS1618006425636","","","null","","","","","","<p><img src= images/blank.png width =""600"" height = ""600"" style=""position:fixed;top:50%; left:50%; transform: translate(-50%, -50%); border:5px solid black"">","","","","","","","",""
"","574.7350000310689","sequential-stimulus-presentation-old","110","412499","0.0-25.0-1.4","SS1618006425636","trial","","40","500","1074.735000031069","images/stimuli/spore_stims/simple_04_A_b.gif","images/stimuli/spore_stims/simple_01_A_a.gif","self_paced","","8","simple_dissimilar","images/stimuli/spore_stims/simple_01_A_a.gif","","","","",""
"","null","html-keyboard-response","111","413437","0.0-25.0-0.5","SS1618006425636","","","null","","","","","","<p><img src= images/blank.png width =""600"" height = ""600"" style=""position:fixed;top:50%; left:50%; transform: translate(-50%, -50%); border:5px solid black"">","","","","","","","",""
"","7.24499998614192","sequential-stimulus-presentation-old","112","413953","0.0-25.0-1.5","SS1618006425636","trial","","40","500","507.2449999861419","images/stimuli/spore_stims/simple_04_A_b.gif","images/stimuli/spore_stims/simple_01_A_a.gif","self_paced","","8","simple_dissimilar","images/stimuli/spore_stims/simple_01_A_a.gif","","","","",""
"","3860.4749999940395","survey-multi-choice","113","417820","0.0-26.0","SS1618006425636","math_question","","","","","","","","","","","","{""Q0"":""13""}","[0]","13","",""
"","null","html-keyboard-response","114","418646","0.0-27.0-0.0","SS1618006425636","","","null","","","","","","<p><img src= images/blank.png width =""600"" height = ""600"" style=""position:fixed;top:50%; left:50%; transform: translate(-50%, -50%); border:5px solid black"">","","","","","","","",""
"","7851.724999956787","sequential-stimulus-presentation-old","115","431507","0.0-27.0-1.0","SS1618006425636","trial","","40","500","8351.724999956787","images/stimuli/spore_stims/simple_05_A_a.gif","images/stimuli/spore_stims/simple_18_A_b.gif","forced_long","","9","simple_dissimilar","images/stimuli/spore_stims/simple_18_A_b.gif","","","","",""
"","null","html-keyboard-response","116","432737","0.0-27.0-0.1","SS1618006425636","","","null","","","","","","<p><img src= images/blank.png width =""600"" height = ""600"" style=""position:fixed;top:50%; left:50%; transform: translate(-50%, -50%); border:5px solid black"">","","","","","","","",""
"","824.7299999929965","sequential-stimulus-presentation-old","117","434070","0.0-27.0-1.1","SS1618006425636","trial","","40","500","1324.7299999929965","images/stimuli/spore_stims/simple_05_A_a.gif","images/stimuli/spore_stims/simple_18_A_b.gif","forced_long","","9","simple_dissimilar","images/stimuli/spore_stims/simple_18_A_b.gif","","","","",""
"","null","html-keyboard-response","118","435307","0.0-27.0-0.2","SS1618006425636","","","null","","","","","","<p><img src= images/blank.png width =""600"" height = ""600"" style=""position:fixed;top:50%; left:50%; transform: translate(-50%, -50%); border:5px solid black"">","","","","","","","",""
"","512.3049999820068","sequential-stimulus-presentation-old","119","436329","0.0-27.0-1.2","SS1618006425636","trial","","40","500","1012.3049999820068","images/stimuli/spore_stims/simple_05_A_a.gif","images/stimuli/spore_stims/simple_18_A_b.gif","forced_long","","9","simple_dissimilar","images/stimuli/spore_stims/simple_18_A_b.gif","","","","",""
"","null","html-keyboard-response","120","437253","0.0-27.0-0.3","SS1618006425636","","","null","","","","","","<p><img src= images/blank.png width =""600"" height = ""600"" style=""position:fixed;top:50%; left:50%; transform: translate(-50%, -50%); border:5px solid black"">","","","","","","","",""
"","1038.3500000461936","sequential-stimulus-presentation-old","121","438801","0.0-27.0-1.3","SS1618006425636","trial","","40","500","1538.3500000461936","images/stimuli/spore_stims/simple_05_A_a.gif","images/stimuli/spore_stims/simple_18_A_b.gif","forced_long","","9","simple_dissimilar","images/stimuli/spore_stims/simple_18_A_b.gif","","","","",""
"","null","html-keyboard-response","122","439844","0.0-27.0-0.4","SS1618006425636","","","null","","","","","","<p><img src= images/blank.png width =""600"" height = ""600"" style=""position:fixed;top:50%; left:50%; transform: translate(-50%, -50%); border:5px solid black"">","","","","","","","",""
"","1088.5349999880418","sequential-stimulus-presentation-old","123","441442","0.0-27.0-1.4","SS1618006425636","trial","","40","500","1588.5349999880418","images/stimuli/spore_stims/simple_05_A_a.gif","images/stimuli/spore_stims/simple_18_A_b.gif","forced_long","","9","simple_dissimilar","images/stimuli/spore_stims/simple_05_A_a.gif","","","","",""
"","3952.8949999948964","survey-multi-choice","124","445402","0.0-28.0","SS1618006425636","math_question","","","","","","","","","","","","{""Q0"":""10""}","[0]","10","",""
"","null","html-keyboard-response","125","446317","0.0-29.0-0.0","SS1618006425636","","","null","","","","","","<p><img src= images/blank.png width =""600"" height = ""600"" style=""position:fixed;top:50%; left:50%; transform: translate(-50%, -50%); border:5px solid black"">","","","","","","","",""
"","3658.754999982193","sequential-stimulus-presentation-old","126","450485","0.0-29.0-1.0","SS1618006425636","trial","","40","500","4158.754999982193","images/stimuli/spore_stims/complex_19_A_a.gif","images/stimuli/spore_stims/complex_03_A_b.gif","self_paced","","10","complex_dissimilar","images/stimuli/spore_stims/complex_03_A_b.gif","","","","",""
"","null","html-keyboard-response","127","451512","0.0-29.0-0.1","SS1618006425636","","","null","","","","","","<p><img src= images/blank.png width =""600"" height = ""600"" style=""position:fixed;top:50%; left:50%; transform: translate(-50%, -50%); border:5px solid black"">","","","","","","","",""
"","3182.2200000751764","sequential-stimulus-presentation-old","128","455203","0.0-29.0-1.1","SS1618006425636","trial","","40","500","3682.2200000751764","images/stimuli/spore_stims/complex_19_A_a.gif","images/stimuli/spore_stims/complex_03_A_b.gif","self_paced","","10","complex_dissimilar","images/stimuli/spore_stims/complex_03_A_b.gif","","","","",""
"","null","html-keyboard-response","129","456052","0.0-29.0-0.2","SS1618006425636","","","null","","","","","","<p><img src= images/blank.png width =""600"" height = ""600"" style=""position:fixed;top:50%; left:50%; transform: translate(-50%, -50%); border:5px solid black"">","","","","","","","",""
"","5747.499999939464","sequential-stimulus-presentation-old","130","462308","0.0-29.0-1.2","SS1618006425636","trial","","40","500","6247.499999939464","images/stimuli/spore_stims/complex_19_A_a.gif","images/stimuli/spore_stims/complex_03_A_b.gif","self_paced","","10","complex_dissimilar","images/stimuli/spore_stims/complex_19_A_a.gif","","","","",""
"","null","html-keyboard-response","131","463559","0.0-29.0-0.3","SS1618006425636","","","null","","","","","","<p><img src= images/blank.png width =""600"" height = ""600"" style=""position:fixed;top:50%; left:50%; transform: translate(-50%, -50%); border:5px solid black"">","","","","","","","",""
"","589.185000048019","sequential-stimulus-presentation-old","132","464659","0.0-29.0-1.3","SS1618006425636","trial","","40","500","1089.185000048019","images/stimuli/spore_stims/complex_19_A_a.gif","images/stimuli/spore_stims/complex_03_A_b.gif","self_paced","","10","complex_dissimilar","images/stimuli/spore_stims/complex_03_A_b.gif","","","","",""
"","4025.0850000884384","survey-multi-choice","133","468691","0.0-30.0","SS1618006425636","math_question","","","","","","","","","","","","{""Q0"":""8""}","[0]","8","",""
"","null","html-keyboard-response","134","469995","0.0-31.0-0.0","SS1618006425636","","","null","","","","","","<p><img src= images/blank.png width =""600"" height = ""600"" style=""position:fixed;top:50%; left:50%; transform: translate(-50%, -50%); border:5px solid black"">","","","","","","","",""
"","4073.229999979958","sequential-stimulus-presentation-old","135","474127","0.0-31.0-1.0","SS1618006425636","trial","","40","500","4573.229999979958","images/stimuli/spore_stims/simple_06_A_b.gif","images/stimuli/spore_stims/simple_11_A_a.gif","forced_short","","11","simple_dissimilar","images/stimuli/spore_stims/simple_11_A_a.gif","","","","",""
"","null","html-keyboard-response","136","475259","0.0-31.0-0.1","SS1618006425636","","","null","","","","","","<p><img src= images/blank.png width =""600"" height = ""600"" style=""position:fixed;top:50%; left:50%; transform: translate(-50%, -50%); border:5px solid black"">","","","","","","","",""
"","266.59999997355044","sequential-stimulus-presentation-old","137","476035","0.0-31.0-1.1","SS1618006425636","trial","","40","500","766.5999999735504","images/stimuli/spore_stims/simple_06_A_b.gif","images/stimuli/spore_stims/simple_11_A_a.gif","forced_short","","11","simple_dissimilar","images/stimuli/spore_stims/simple_11_A_a.gif","","","","",""
"","null","html-keyboard-response","138","477179","0.0-31.0-0.2","SS1618006425636","","","null","","","","","","<p><img src= images/blank.png width =""600"" height = ""600"" style=""position:fixed;top:50%; left:50%; transform: translate(-50%, -50%); border:5px solid black"">","","","","","","","",""
"","269.9700000230223","sequential-stimulus-presentation-old","139","477958","0.0-31.0-1.2","SS1618006425636","trial","","40","500","769.9700000230223","images/stimuli/spore_stims/simple_06_A_b.gif","images/stimuli/spore_stims/simple_11_A_a.gif","forced_short","","11","simple_dissimilar","images/stimuli/spore_stims/simple_06_A_b.gif","","","","",""
"","null","html-keyboard-response","140","479016","0.0-31.0-0.3","SS1618006425636","","","null","","","","","","<p><img src= images/blank.png width =""600"" height = ""600"" style=""position:fixed;top:50%; left:50%; transform: translate(-50%, -50%); border:5px solid black"">","","","","","","","",""
"","1236.3899999763817","sequential-stimulus-presentation-old","141","480761","0.0-31.0-1.3","SS1618006425636","trial","","40","500","1736.3899999763817","images/stimuli/spore_stims/simple_06_A_b.gif","images/stimuli/spore_stims/simple_11_A_a.gif","forced_short","","11","simple_dissimilar","images/stimuli/spore_stims/simple_11_A_a.gif","","","","",""
"","null","html-keyboard-response","142","481843","0.0-31.0-0.4","SS1618006425636","","","null","","","","","","<p><img src= images/blank.png width =""600"" height = ""600"" style=""position:fixed;top:50%; left:50%; transform: translate(-50%, -50%); border:5px solid black"">","","","","","","","",""
"","91.26500005368143","sequential-stimulus-presentation-old","143","482444","0.0-31.0-1.4","SS1618006425636","trial","","40","500","591.2650000536814","images/stimuli/spore_stims/simple_06_A_b.gif","images/stimuli/spore_stims/simple_11_A_a.gif","forced_short","","11","simple_dissimilar","images/stimuli/spore_stims/simple_11_A_a.gif","","","","",""
"","null","html-keyboard-response","144","483714","0.0-31.0-0.5","SS1618006425636","","","null","","","","","","<p><img src= images/blank.png width =""600"" height = ""600"" style=""position:fixed;top:50%; left:50%; transform: translate(-50%, -50%); border:5px solid black"">","","","","","","","",""
"","877.8300000121817","sequential-stimulus-presentation-old","145","485101","0.0-31.0-1.5","SS1618006425636","trial","","40","500","1377.8300000121817","images/stimuli/spore_stims/simple_06_A_b.gif","images/stimuli/spore_stims/simple_11_A_a.gif","forced_short","","11","simple_dissimilar","images/stimuli/spore_stims/simple_11_A_a.gif","","","","",""
"[{""page_index"":0,""viewing_time"":5644.7949999710545}]","5645.045000012033","instructions","146","490754","0.0-32.0","SS1618006425636","instructions","","","","","","","","","","","","","","","",""
"","8299.49000000488","survey-likert","147","499063","0.0-33.0","SS1618006425636","similarity_question","","","","","","","","","","","","{""Q0"":4}","[0]","","images/stimuli/spore_stims/simple_19_A_b.gif","images/stimuli/spore_stims/simple_14_A_a.gif"
"","7792.759999982081","survey-likert","148","506867","0.0-34.0","SS1618006425636","similarity_question","","","","","","","","","","","","{""Q0"":2}","[0]","","images/stimuli/spore_stims/complex_07_A_a.gif","images/stimuli/spore_stims/complex_19_A_b.gif"
"","3673.2799999881536","survey-likert","149","510551","0.0-35.0","SS1618006425636","similarity_question","","","","","","","","","","","","{""Q0"":5}","[0]","","images/stimuli/spore_stims/simple_06_A_a.gif","images/stimuli/spore_stims/simple_01_A_b.gif"
"","3258.724999963306","survey-likert","150","513821","0.0-36.0","SS1618006425636","similarity_question","","","","","","","","","","","","{""Q0"":3}","[0]","","images/stimuli/spore_stims/simple_18_A_b.gif","images/stimuli/spore_stims/simple_05_A_a.gif"
"","5598.205000045709","survey-likert","151","519431","0.0-37.0","SS1618006425636","similarity_question","","","","","","","","","","","","{""Q0"":2}","[0]","","images/stimuli/spore_stims/simple_04_A_b.gif","images/stimuli/spore_stims/simple_01_A_a.gif"
"","8463.805000064895","survey-likert","152","527908","0.0-38.0","SS1618006425636","similarity_question","","","","","","","","","","","","{""Q0"":1}","[0]","","images/stimuli/spore_stims/complex_16_A_b.gif","images/stimuli/spore_stims/complex_02_A_a.gif"
"","5314.75500005763","survey-likert","153","533235","0.0-39.0","SS1618006425636","similarity_question","","","","","","","","","","","","{""Q0"":5}","[0]","","images/stimuli/spore_stims/complex_19_A_a.gif","images/stimuli/spore_stims/complex_03_A_b.gif"
"","2982.4749999679625","survey-likert","154","536229","0.0-40.0","SS1618006425636","similarity_question","","","","","","","","","","","","{""Q0"":6}","[0]","","images/stimuli/spore_stims/simple_15_A_a.gif","images/stimuli/spore_stims/simple_17_A_b.gif"
"","6204.355000052601","survey-likert","155","542445","0.0-41.0","SS1618006425636","similarity_question","","","","","","","","","","","","{""Q0"":3}","[0]","","images/stimuli/spore_stims/complex_01_A_a.gif","images/stimuli/spore_stims/complex_13_A_b.gif"
"","3974.724999978207","survey-likert","156","546431","0.0-42.0","SS1618006425636","similarity_question","","","","","","","","","","","","{""Q0"":4}","[0]","","images/stimuli/spore_stims/complex_17_A_b.gif","images/stimuli/spore_stims/complex_05_A_a.gif"
"","2788.429999956861","survey-likert","157","549232","0.0-43.0","SS1618006425636","similarity_question","","","","","","","","","","","","{""Q0"":5}","[0]","","images/stimuli/spore_stims/simple_06_A_b.gif","images/stimuli/spore_stims/simple_11_A_a.gif"
"","7472.925000009127","survey-likert","158","556717","0.0-44.0","SS1618006425636","similarity_question","","","","","","","","","","","","{""Q0"":2}","[0]","","images/stimuli/spore_stims/complex_11_A_a.gif","images/stimuli/spore_stims/complex_10_A_b.gif"
"[{""page_index"":0,""viewing_time"":4388.960000011139}]","4389.364999951795","instructions","159","561118","0.0-45.0","SS1618006425636","instructions","","","","","","","","","","","","","","","",""
"","7066.3799999747425","survey-likert","160","568193","0.0-46.0","SS1618006425636","","","","","","","","","images/stimuli/spore_stims/complex_17_A_b.gif","","","","{""Q0"":4}","[0]","","",""
"","4130.5649999994785","survey-likert","161","572336","0.0-47.0","SS1618006425636","","","","","","","","","images/stimuli/spore_stims/simple_11_A_a.gif","","","","{""Q0"":1}","[0]","","",""
"","6246.000000042841","survey-likert","162","578594","0.0-48.0","SS1618006425636","","","","","","","","","images/stimuli/spore_stims/complex_13_A_b.gif","","","","{""Q0"":6}","[0]","","",""
"","4888.554999954067","survey-likert","163","583494","0.0-49.0","SS1618006425636","","","","","","","","","images/stimuli/spore_stims/complex_19_A_a.gif","","","","{""Q0"":4}","[0]","","",""
"","2163.9849999919534","survey-likert","164","585670","0.0-50.0","SS1618006425636","","","","","","","","","images/stimuli/spore_stims/simple_06_A_a.gif","","","","{""Q0"":1}","[0]","","",""
"","2338.7100000400096","survey-likert","165","588021","0.0-51.0","SS1618006425636","","","","","","","","","images/stimuli/spore_stims/complex_16_A_b.gif","","","","{""Q0"":4}","[0]","","",""
"","2164.085000054911","survey-likert","166","590197","0.0-52.0","SS1618006425636","","","","","","","","","images/stimuli/spore_stims/simple_01_A_a.gif","","","","{""Q0"":0}","[0]","","",""
"","4965.989999938756","survey-likert","167","595175","0.0-53.0","SS1618006425636","","","","","","","","","images/stimuli/spore_stims/complex_10_A_b.gif","","","","{""Q0"":5}","[0]","","",""
"","2374.070000019856","survey-likert","168","597562","0.0-54.0","SS1618006425636","","","","","","","","","images/stimuli/spore_stims/simple_05_A_a.gif","","","","{""Q0"":1}","[0]","","",""
"","4009.3699999852106","survey-likert","169","601584","0.0-55.0","SS1618006425636","","","","","","","","","images/stimuli/spore_stims/complex_19_A_b.gif","","","","{""Q0"":5}","[0]","","",""
"","2644.4500000216067","survey-likert","170","604241","0.0-56.0","SS1618006425636","","","","","","","","","images/stimuli/spore_stims/simple_19_A_b.gif","","","","{""Q0"":2}","[0]","","",""
"","2891.760000027716","survey-likert","171","607145","0.0-57.0","SS1618006425636","","","","","","","","","images/stimuli/spore_stims/simple_15_A_a.gif","","","","{""Q0"":1}","[0]","","",""
"[{""page_index"":0,""viewing_time"":2137.8950000507757}]","2138.1700000492856","instructions","172","609297","0.0-58.0","SS1618006425636","instructions","","","","","","","","","","","","","","","",""
"","4132.259999983944","demog-age","173","613440","0.0-59.0","SS1618006425636","","","","","","","","","","","","","{""age"":""21""}","","","",""
"","6361.35500005912","demog-ethnic-US","174","619813","0.0-60.0","SS1618006425636","","","","","","","","","","","","","{""ethnicity"":[""White""]}","[0]","","",""
"","12678.255000035278","demog-gender-and-education","175","632504","0.0-61.0","SS1618006425636","","","","","","","","","","","","","{""gender"":""Male"",""education"":""Associate Degree/Technical certification""}","[0,1]","","",""
"","8968.110000016168","survey-text","176","641486","0.0-62.0","SS1618006425636","feedback","","","","","","","","","","","","{""Q0"":""it was all good""}","","","",""
"[{""page_index"":0,""viewing_time"":1342.4749999539927}]","1342.714999918826","instructions","177","642837","0.0-63.0","SS1618006425636","instructions","","","","","","","","","","","","","","","",""
