"view_history","rt","trial_type","trial_index","time_elapsed","internal_node_id","subject","stimulus_type","trial_stimulus","key_press","minimum_viewing_duration","trial_looking_time","block_deviant","block_background","exposure_type","stimulus","block_number","block_type","stimulus_displayed","responses","question_order","math_correct_answer","stimulus_left","stimulus_right"
"[{""page_index"":0,""viewing_time"":14769.15500004543}]","14769.775000051595","instructions","0","14771","0.0-0.0","SS1618365374653","","","","","","","","","","","","","","","","",""
"[{""page_index"":0,""viewing_time"":8897.734999947716},{""page_index"":1,""viewing_time"":4368.130000017118}]","13266.04999997653","instructions","1","30046","0.0-1.0","SS1618365374653","instructions","","","","","","","","","","","","","","","",""
"","6318.5900000389665","sequential-stimulus-presentation-old","2","36867","0.0-2.0","SS1618365374653","","","40","500","6818.5900000389665","null","null","self_paced","","","","","","","","",""
"","5662.769999995362","sequential-stimulus-presentation-old","3","43038","0.0-3.0","SS1618365374653","","","40","500","6162.769999995362","null","null","self_paced","","","","","","","","",""
"[{""page_index"":0,""viewing_time"":15664.134999969974}]","15664.319999981672","instructions","4","58703","0.0-4.0","SS1618365374653","instructions","","","","","","","","","","","","","","","",""
"","1691.1000000545755","sequential-stimulus-presentation-old","5","65396","0.0-5.0","SS1618365374653","","","40","500","2191.1000000545755","null","null","forced_long","","","","","","","","",""
"","3045.044999977108","sequential-stimulus-presentation-old","6","68493","0.0-6.0","SS1618365374653","","","40","50","3095.044999977108","null","null","forced_long","","","","","","","","",""
"[{""page_index"":0,""viewing_time"":3204.9849999602884}]","3205.164999992121","instructions","7","71699","0.0-7.0","SS1618365374653","instructions","","","","","","","","","","","","","","","",""
"[{""page_index"":0,""viewing_time"":9272.95499999309},{""page_index"":1,""viewing_time"":10105.184999993071},{""page_index"":2,""viewing_time"":4655.930000008084},{""page_index"":3,""viewing_time"":1974.210000014864},{""page_index"":4,""viewing_time"":1236.9849999668077}]","27245.504999998957","instructions","8","98945","0.0-8.0","SS1618365374653","instructions","","","","","","","","","","","","","","","",""
"","null","html-keyboard-response","9","99820","0.0-9.0-0.0","SS1618365374653","","","null","","","","","","<p><img src= images/blank.png width =""600"" height = ""600"" style=""position:fixed;top:50%; left:50%; transform: translate(-50%, -50%); border:5px solid black"">","","","","","","","",""
"","647.629999963101","sequential-stimulus-presentation-old","10","105477","0.0-9.0-1.0","SS1618365374653","trial","","40","500","1147.629999963101","images/stimuli/spore_stims/complex_20_A_a.gif","images/stimuli/spore_stims/complex_04_A_b.gif","forced_long","","0","complex_dissimilar","images/stimuli/spore_stims/complex_04_A_b.gif","","","","",""
"","null","html-keyboard-response","11","106316","0.0-9.0-0.1","SS1618365374653","","","null","","","","","","<p><img src= images/blank.png width =""600"" height = ""600"" style=""position:fixed;top:50%; left:50%; transform: translate(-50%, -50%); border:5px solid black"">","","","","","","","",""
"","8284.75500002969","sequential-stimulus-presentation-old","12","115104","0.0-9.0-1.1","SS1618365374653","trial","","40","500","8784.75500002969","images/stimuli/spore_stims/complex_20_A_a.gif","images/stimuli/spore_stims/complex_04_A_b.gif","forced_long","","0","complex_dissimilar","images/stimuli/spore_stims/complex_04_A_b.gif","","","","",""
"","null","html-keyboard-response","13","116254","0.0-9.0-0.2","SS1618365374653","","","null","","","","","","<p><img src= images/blank.png width =""600"" height = ""600"" style=""position:fixed;top:50%; left:50%; transform: translate(-50%, -50%); border:5px solid black"">","","","","","","","",""
"","1529.4700000085868","sequential-stimulus-presentation-old","14","118295","0.0-9.0-1.2","SS1618365374653","trial","","40","500","2029.4700000085868","images/stimuli/spore_stims/complex_20_A_a.gif","images/stimuli/spore_stims/complex_04_A_b.gif","forced_long","","0","complex_dissimilar","images/stimuli/spore_stims/complex_04_A_b.gif","","","","",""
"","null","html-keyboard-response","15","119101","0.0-9.0-0.3","SS1618365374653","","","null","","","","","","<p><img src= images/blank.png width =""600"" height = ""600"" style=""position:fixed;top:50%; left:50%; transform: translate(-50%, -50%); border:5px solid black"">","","","","","","","",""
"","9047.064999991562","sequential-stimulus-presentation-old","16","128659","0.0-9.0-1.3","SS1618365374653","trial","","40","500","9547.064999991562","images/stimuli/spore_stims/complex_20_A_a.gif","images/stimuli/spore_stims/complex_04_A_b.gif","forced_long","","0","complex_dissimilar","images/stimuli/spore_stims/complex_04_A_b.gif","","","","",""
"","null","html-keyboard-response","17","129911","0.0-9.0-0.4","SS1618365374653","","","null","","","","","","<p><img src= images/blank.png width =""600"" height = ""600"" style=""position:fixed;top:50%; left:50%; transform: translate(-50%, -50%); border:5px solid black"">","","","","","","","",""
"","1512.914999970235","sequential-stimulus-presentation-old","18","131926","0.0-9.0-1.4","SS1618365374653","trial","","40","500","2012.914999970235","images/stimuli/spore_stims/complex_20_A_a.gif","images/stimuli/spore_stims/complex_04_A_b.gif","forced_long","","0","complex_dissimilar","images/stimuli/spore_stims/complex_04_A_b.gif","","","","",""
"","3843.865000002552","survey-multi-choice","19","135772","0.0-10.0","SS1618365374653","math_question","","","","","","","","","","","","{""Q0"":""7""}","[0]","7","",""
"","null","html-keyboard-response","20","136585","0.0-11.0-0.0","SS1618365374653","","","null","","","","","","<p><img src= images/blank.png width =""600"" height = ""600"" style=""position:fixed;top:50%; left:50%; transform: translate(-50%, -50%); border:5px solid black"">","","","","","","","",""
"","1893.9449999597855","sequential-stimulus-presentation-old","21","138541","0.0-11.0-1.0","SS1618365374653","trial","","40","500","2393.9449999597855","images/stimuli/spore_stims/simple_16_A_b.gif","images/stimuli/spore_stims/simple_03_A_a.gif","forced_short","","1","simple_dissimilar","images/stimuli/spore_stims/simple_03_A_a.gif","","","","",""
"","null","html-keyboard-response","22","139557","0.0-11.0-0.1","SS1618365374653","","","null","","","","","","<p><img src= images/blank.png width =""600"" height = ""600"" style=""position:fixed;top:50%; left:50%; transform: translate(-50%, -50%); border:5px solid black"">","","","","","","","",""
"","4561.054999998305","sequential-stimulus-presentation-old","23","144620","0.0-11.0-1.1","SS1618365374653","trial","","40","500","5061.054999998305","images/stimuli/spore_stims/simple_16_A_b.gif","images/stimuli/spore_stims/simple_03_A_a.gif","forced_short","","1","simple_dissimilar","images/stimuli/spore_stims/simple_16_A_b.gif","","","","",""
"","null","html-keyboard-response","24","145693","0.0-11.0-0.2","SS1618365374653","","","null","","","","","","<p><img src= images/blank.png width =""600"" height = ""600"" style=""position:fixed;top:50%; left:50%; transform: translate(-50%, -50%); border:5px solid black"">","","","","","","","",""
"","5660.174999968149","sequential-stimulus-presentation-old","25","151857","0.0-11.0-1.2","SS1618365374653","trial","","40","500","6160.174999968149","images/stimuli/spore_stims/simple_16_A_b.gif","images/stimuli/spore_stims/simple_03_A_a.gif","forced_short","","1","simple_dissimilar","images/stimuli/spore_stims/simple_03_A_a.gif","","","","",""
"","null","html-keyboard-response","26","153062","0.0-11.0-0.3","SS1618365374653","","","null","","","","","","<p><img src= images/blank.png width =""600"" height = ""600"" style=""position:fixed;top:50%; left:50%; transform: translate(-50%, -50%); border:5px solid black"">","","","","","","","",""
"","4571.954999992158","sequential-stimulus-presentation-old","27","158136","0.0-11.0-1.3","SS1618365374653","trial","","40","500","5071.954999992158","images/stimuli/spore_stims/simple_16_A_b.gif","images/stimuli/spore_stims/simple_03_A_a.gif","forced_short","","1","simple_dissimilar","images/stimuli/spore_stims/simple_03_A_a.gif","","","","",""
"","null","html-keyboard-response","28","159280","0.0-11.0-0.4","SS1618365374653","","","null","","","","","","<p><img src= images/blank.png width =""600"" height = ""600"" style=""position:fixed;top:50%; left:50%; transform: translate(-50%, -50%); border:5px solid black"">","","","","","","","",""
"","6099.854999978561","sequential-stimulus-presentation-old","29","165882","0.0-11.0-1.4","SS1618365374653","trial","","40","500","6599.854999978561","images/stimuli/spore_stims/simple_16_A_b.gif","images/stimuli/spore_stims/simple_03_A_a.gif","forced_short","","1","simple_dissimilar","images/stimuli/spore_stims/simple_03_A_a.gif","","","","",""
"","null","html-keyboard-response","30","166917","0.0-11.0-0.5","SS1618365374653","","","null","","","","","","<p><img src= images/blank.png width =""600"" height = ""600"" style=""position:fixed;top:50%; left:50%; transform: translate(-50%, -50%); border:5px solid black"">","","","","","","","",""
"","8498.93499998143","sequential-stimulus-presentation-old","31","175918","0.0-11.0-1.5","SS1618365374653","trial","","40","500","8998.93499998143","images/stimuli/spore_stims/simple_16_A_b.gif","images/stimuli/spore_stims/simple_03_A_a.gif","forced_short","","1","simple_dissimilar","images/stimuli/spore_stims/simple_03_A_a.gif","","","","",""
"","3884.764999966137","survey-multi-choice","32","179804","0.0-12.0","SS1618365374653","math_question","","","","","","","","","","","","{""Q0"":""10""}","[0]","10","",""
"","null","html-keyboard-response","33","180893","0.0-13.0-0.0","SS1618365374653","","","null","","","","","","<p><img src= images/blank.png width =""600"" height = ""600"" style=""position:fixed;top:50%; left:50%; transform: translate(-50%, -50%); border:5px solid black"">","","","","","","","",""
"","1682.1950000012293","sequential-stimulus-presentation-old","34","187578","0.0-13.0-1.0","SS1618365374653","trial","","40","500","2182.1950000012293","images/stimuli/spore_stims/complex_01_A_a.gif","images/stimuli/spore_stims/complex_08_A_b.gif","forced_long","","2","complex_dissimilar","images/stimuli/spore_stims/complex_08_A_b.gif","","","","",""
"","null","html-keyboard-response","35","188411","0.0-13.0-0.1","SS1618365374653","","","null","","","","","","<p><img src= images/blank.png width =""600"" height = ""600"" style=""position:fixed;top:50%; left:50%; transform: translate(-50%, -50%); border:5px solid black"">","","","","","","","",""
"","4300.455000018701","sequential-stimulus-presentation-old","36","193214","0.0-13.0-1.1","SS1618365374653","trial","","40","500","4800.455000018701","images/stimuli/spore_stims/complex_01_A_a.gif","images/stimuli/spore_stims/complex_08_A_b.gif","forced_long","","2","complex_dissimilar","images/stimuli/spore_stims/complex_08_A_b.gif","","","","",""
"","null","html-keyboard-response","37","194425","0.0-13.0-0.2","SS1618365374653","","","null","","","","","","<p><img src= images/blank.png width =""600"" height = ""600"" style=""position:fixed;top:50%; left:50%; transform: translate(-50%, -50%); border:5px solid black"">","","","","","","","",""
"","4181.5199999837205","sequential-stimulus-presentation-old","38","199109","0.0-13.0-1.2","SS1618365374653","trial","","40","500","4681.5199999837205","images/stimuli/spore_stims/complex_01_A_a.gif","images/stimuli/spore_stims/complex_08_A_b.gif","forced_long","","2","complex_dissimilar","images/stimuli/spore_stims/complex_08_A_b.gif","","","","",""
"","null","html-keyboard-response","39","200404","0.0-13.0-0.3","SS1618365374653","","","null","","","","","","<p><img src= images/blank.png width =""600"" height = ""600"" style=""position:fixed;top:50%; left:50%; transform: translate(-50%, -50%); border:5px solid black"">","","","","","","","",""
"","6260.255000030156","sequential-stimulus-presentation-old","40","207176","0.0-13.0-1.3","SS1618365374653","trial","","40","500","6760.255000030156","images/stimuli/spore_stims/complex_01_A_a.gif","images/stimuli/spore_stims/complex_08_A_b.gif","forced_long","","2","complex_dissimilar","images/stimuli/spore_stims/complex_08_A_b.gif","","","","",""
"","null","html-keyboard-response","41","208161","0.0-13.0-0.4","SS1618365374653","","","null","","","","","","<p><img src= images/blank.png width =""600"" height = ""600"" style=""position:fixed;top:50%; left:50%; transform: translate(-50%, -50%); border:5px solid black"">","","","","","","","",""
"","8405.319999961648","sequential-stimulus-presentation-old","42","217070","0.0-13.0-1.4","SS1618365374653","trial","","40","500","8905.319999961648","images/stimuli/spore_stims/complex_01_A_a.gif","images/stimuli/spore_stims/complex_08_A_b.gif","forced_long","","2","complex_dissimilar","images/stimuli/spore_stims/complex_01_A_a.gif","","","","",""
"","6318.010000046343","survey-multi-choice","43","223389","0.0-14.0","SS1618365374653","math_question","","","","","","","","","","","","{""Q0"":""15""}","[0]","15","",""
"","null","html-keyboard-response","44","224632","0.0-15.0-0.0","SS1618365374653","","","null","","","","","","<p><img src= images/blank.png width =""600"" height = ""600"" style=""position:fixed;top:50%; left:50%; transform: translate(-50%, -50%); border:5px solid black"">","","","","","","","",""
"","2000.5850000306964","sequential-stimulus-presentation-old","45","227135","0.0-15.0-1.0","SS1618365374653","trial","","40","500","2500.5850000306964","images/stimuli/spore_stims/simple_11_A_b.gif","images/stimuli/spore_stims/simple_19_A_a.gif","self_paced","","3","simple_dissimilar","images/stimuli/spore_stims/simple_19_A_a.gif","","","","",""
"","null","html-keyboard-response","46","228046","0.0-15.0-0.1","SS1618365374653","","","null","","","","","","<p><img src= images/blank.png width =""600"" height = ""600"" style=""position:fixed;top:50%; left:50%; transform: translate(-50%, -50%); border:5px solid black"">","","","","","","","",""
"","3119.5750000188127","sequential-stimulus-presentation-old","47","231667","0.0-15.0-1.1","SS1618365374653","trial","","40","500","3619.5750000188127","images/stimuli/spore_stims/simple_11_A_b.gif","images/stimuli/spore_stims/simple_19_A_a.gif","self_paced","","3","simple_dissimilar","images/stimuli/spore_stims/simple_11_A_b.gif","","","","",""
"","null","html-keyboard-response","48","232826","0.0-15.0-0.2","SS1618365374653","","","null","","","","","","<p><img src= images/blank.png width =""600"" height = ""600"" style=""position:fixed;top:50%; left:50%; transform: translate(-50%, -50%); border:5px solid black"">","","","","","","","",""
"","3865.6299999565817","sequential-stimulus-presentation-old","49","237194","0.0-15.0-1.2","SS1618365374653","trial","","40","500","4365.629999956582","images/stimuli/spore_stims/simple_11_A_b.gif","images/stimuli/spore_stims/simple_19_A_a.gif","self_paced","","3","simple_dissimilar","images/stimuli/spore_stims/simple_19_A_a.gif","","","","",""
"","null","html-keyboard-response","50","238222","0.0-15.0-0.3","SS1618365374653","","","null","","","","","","<p><img src= images/blank.png width =""600"" height = ""600"" style=""position:fixed;top:50%; left:50%; transform: translate(-50%, -50%); border:5px solid black"">","","","","","","","",""
"","2851.9499999820255","sequential-stimulus-presentation-old","51","241584","0.0-15.0-1.3","SS1618365374653","trial","","40","500","3351.9499999820255","images/stimuli/spore_stims/simple_11_A_b.gif","images/stimuli/spore_stims/simple_19_A_a.gif","self_paced","","3","simple_dissimilar","images/stimuli/spore_stims/simple_19_A_a.gif","","","","",""
"","null","html-keyboard-response","52","242593","0.0-15.0-0.4","SS1618365374653","","","null","","","","","","<p><img src= images/blank.png width =""600"" height = ""600"" style=""position:fixed;top:50%; left:50%; transform: translate(-50%, -50%); border:5px solid black"">","","","","","","","",""
"","3528.214999998454","sequential-stimulus-presentation-old","53","246623","0.0-15.0-1.4","SS1618365374653","trial","","40","500","4028.214999998454","images/stimuli/spore_stims/simple_11_A_b.gif","images/stimuli/spore_stims/simple_19_A_a.gif","self_paced","","3","simple_dissimilar","images/stimuli/spore_stims/simple_11_A_b.gif","","","","",""
"","null","html-keyboard-response","54","247789","0.0-15.0-0.5","SS1618365374653","","","null","","","","","","<p><img src= images/blank.png width =""600"" height = ""600"" style=""position:fixed;top:50%; left:50%; transform: translate(-50%, -50%); border:5px solid black"">","","","","","","","",""
"","4783.364999981131","sequential-stimulus-presentation-old","55","253076","0.0-15.0-1.5","SS1618365374653","trial","","40","500","5283.364999981131","images/stimuli/spore_stims/simple_11_A_b.gif","images/stimuli/spore_stims/simple_19_A_a.gif","self_paced","","3","simple_dissimilar","images/stimuli/spore_stims/simple_19_A_a.gif","","","","",""
"","3052.8850000118837","survey-multi-choice","56","256130","0.0-16.0","SS1618365374653","math_question","","","","","","","","","","","","{""Q0"":""12""}","[0]","12","",""
"","null","html-keyboard-response","57","257275","0.0-17.0-0.0","SS1618365374653","","","null","","","","","","<p><img src= images/blank.png width =""600"" height = ""600"" style=""position:fixed;top:50%; left:50%; transform: translate(-50%, -50%); border:5px solid black"">","","","","","","","",""
"","7895.235000003595","sequential-stimulus-presentation-old","58","265673","0.0-17.0-1.0","SS1618365374653","trial","","40","500","8395.235000003595","images/stimuli/spore_stims/complex_19_A_b.gif","images/stimuli/spore_stims/complex_16_A_a.gif","self_paced","","4","complex_dissimilar","images/stimuli/spore_stims/complex_16_A_a.gif","","","","",""
"","null","html-keyboard-response","59","266672","0.0-17.0-0.1","SS1618365374653","","","null","","","","","","<p><img src= images/blank.png width =""600"" height = ""600"" style=""position:fixed;top:50%; left:50%; transform: translate(-50%, -50%); border:5px solid black"">","","","","","","","",""
"","12277.470000030007","sequential-stimulus-presentation-old","60","279451","0.0-17.0-1.1","SS1618365374653","trial","","40","500","12777.470000030007","images/stimuli/spore_stims/complex_19_A_b.gif","images/stimuli/spore_stims/complex_16_A_a.gif","self_paced","","4","complex_dissimilar","images/stimuli/spore_stims/complex_16_A_a.gif","","","","",""
"","null","html-keyboard-response","61","280643","0.0-17.0-0.2","SS1618365374653","","","null","","","","","","<p><img src= images/blank.png width =""600"" height = ""600"" style=""position:fixed;top:50%; left:50%; transform: translate(-50%, -50%); border:5px solid black"">","","","","","","","",""
"","7982.409999996889","sequential-stimulus-presentation-old","62","289128","0.0-17.0-1.2","SS1618365374653","trial","","40","500","8482.40999999689","images/stimuli/spore_stims/complex_19_A_b.gif","images/stimuli/spore_stims/complex_16_A_a.gif","self_paced","","4","complex_dissimilar","images/stimuli/spore_stims/complex_19_A_b.gif","","","","",""
"","null","html-keyboard-response","63","290031","0.0-17.0-0.3","SS1618365374653","","","null","","","","","","<p><img src= images/blank.png width =""600"" height = ""600"" style=""position:fixed;top:50%; left:50%; transform: translate(-50%, -50%); border:5px solid black"">","","","","","","","",""
"","7826.630000025034","sequential-stimulus-presentation-old","64","298368","0.0-17.0-1.3","SS1618365374653","trial","","40","500","8326.630000025034","images/stimuli/spore_stims/complex_19_A_b.gif","images/stimuli/spore_stims/complex_16_A_a.gif","self_paced","","4","complex_dissimilar","images/stimuli/spore_stims/complex_16_A_a.gif","","","","",""
"","2711.70499996515","survey-multi-choice","65","301082","0.0-18.0","SS1618365374653","math_question","","","","","","","","","","","","{""Q0"":""12""}","[0]","12","",""
"","null","html-keyboard-response","66","302391","0.0-19.0-0.0","SS1618365374653","","","null","","","","","","<p><img src= images/blank.png width =""600"" height = ""600"" style=""position:fixed;top:50%; left:50%; transform: translate(-50%, -50%); border:5px solid black"">","","","","","","","",""
"","3921.990000002552","sequential-stimulus-presentation-old","67","306815","0.0-19.0-1.0","SS1618365374653","trial","","40","500","4421.990000002552","images/stimuli/spore_stims/simple_04_A_a.gif","images/stimuli/spore_stims/simple_09_A_b.gif","self_paced","","5","simple_dissimilar","images/stimuli/spore_stims/simple_09_A_b.gif","","","","",""
"","null","html-keyboard-response","68","307759","0.0-19.0-0.1","SS1618365374653","","","null","","","","","","<p><img src= images/blank.png width =""600"" height = ""600"" style=""position:fixed;top:50%; left:50%; transform: translate(-50%, -50%); border:5px solid black"">","","","","","","","",""
"","2947.4349999800324","sequential-stimulus-presentation-old","69","311213","0.0-19.0-1.1","SS1618365374653","trial","","40","500","3447.4349999800324","images/stimuli/spore_stims/simple_04_A_a.gif","images/stimuli/spore_stims/simple_09_A_b.gif","self_paced","","5","simple_dissimilar","images/stimuli/spore_stims/simple_09_A_b.gif","","","","",""
"","null","html-keyboard-response","70","312349","0.0-19.0-0.2","SS1618365374653","","","null","","","","","","<p><img src= images/blank.png width =""600"" height = ""600"" style=""position:fixed;top:50%; left:50%; transform: translate(-50%, -50%); border:5px solid black"">","","","","","","","",""
"","3952.065000019502","sequential-stimulus-presentation-old","71","316803","0.0-19.0-1.2","SS1618365374653","trial","","40","500","4452.065000019502","images/stimuli/spore_stims/simple_04_A_a.gif","images/stimuli/spore_stims/simple_09_A_b.gif","self_paced","","5","simple_dissimilar","images/stimuli/spore_stims/simple_04_A_a.gif","","","","",""
"","null","html-keyboard-response","72","317798","0.0-19.0-0.3","SS1618365374653","","","null","","","","","","<p><img src= images/blank.png width =""600"" height = ""600"" style=""position:fixed;top:50%; left:50%; transform: translate(-50%, -50%); border:5px solid black"">","","","","","","","",""
"","2636.754999984987","sequential-stimulus-presentation-old","73","320937","0.0-19.0-1.3","SS1618365374653","trial","","40","500","3136.754999984987","images/stimuli/spore_stims/simple_04_A_a.gif","images/stimuli/spore_stims/simple_09_A_b.gif","self_paced","","5","simple_dissimilar","images/stimuli/spore_stims/simple_09_A_b.gif","","","","",""
"","3336.7699999944307","survey-multi-choice","74","324275","0.0-20.0","SS1618365374653","math_question","","","","","","","","","","","","{""Q0"":""3""}","[0]","3","",""
"","null","html-keyboard-response","75","325331","0.0-21.0-0.0","SS1618365374653","","","null","","","","","","<p><img src= images/blank.png width =""600"" height = ""600"" style=""position:fixed;top:50%; left:50%; transform: translate(-50%, -50%); border:5px solid black"">","","","","","","","",""
"","9526.769999996759","sequential-stimulus-presentation-old","76","335365","0.0-21.0-1.0","SS1618365374653","trial","","40","500","10026.769999996759","images/stimuli/spore_stims/complex_06_A_a.gif","images/stimuli/spore_stims/complex_18_A_b.gif","self_paced","","6","complex_dissimilar","images/stimuli/spore_stims/complex_18_A_b.gif","","","","",""
"","null","html-keyboard-response","77","336438","0.0-21.0-0.1","SS1618365374653","","","null","","","","","","<p><img src= images/blank.png width =""600"" height = ""600"" style=""position:fixed;top:50%; left:50%; transform: translate(-50%, -50%); border:5px solid black"">","","","","","","","",""
"","1695.1650000410154","sequential-stimulus-presentation-old","78","338642","0.0-21.0-1.1","SS1618365374653","trial","","40","500","2195.1650000410154","images/stimuli/spore_stims/complex_06_A_a.gif","images/stimuli/spore_stims/complex_18_A_b.gif","self_paced","","6","complex_dissimilar","images/stimuli/spore_stims/complex_18_A_b.gif","","","","",""
"","null","html-keyboard-response","79","339560","0.0-21.0-0.2","SS1618365374653","","","null","","","","","","<p><img src= images/blank.png width =""600"" height = ""600"" style=""position:fixed;top:50%; left:50%; transform: translate(-50%, -50%); border:5px solid black"">","","","","","","","",""
"","6116.649999981746","sequential-stimulus-presentation-old","80","346179","0.0-21.0-1.2","SS1618365374653","trial","","40","500","6616.649999981746","images/stimuli/spore_stims/complex_06_A_a.gif","images/stimuli/spore_stims/complex_18_A_b.gif","self_paced","","6","complex_dissimilar","images/stimuli/spore_stims/complex_06_A_a.gif","","","","",""
"","null","html-keyboard-response","81","347031","0.0-21.0-0.3","SS1618365374653","","","null","","","","","","<p><img src= images/blank.png width =""600"" height = ""600"" style=""position:fixed;top:50%; left:50%; transform: translate(-50%, -50%); border:5px solid black"">","","","","","","","",""
"","6799.705000012182","sequential-stimulus-presentation-old","82","354333","0.0-21.0-1.3","SS1618365374653","trial","","40","500","7299.705000012182","images/stimuli/spore_stims/complex_06_A_a.gif","images/stimuli/spore_stims/complex_18_A_b.gif","self_paced","","6","complex_dissimilar","images/stimuli/spore_stims/complex_06_A_a.gif","","","","",""
"","null","html-keyboard-response","83","355292","0.0-21.0-0.4","SS1618365374653","","","null","","","","","","<p><img src= images/blank.png width =""600"" height = ""600"" style=""position:fixed;top:50%; left:50%; transform: translate(-50%, -50%); border:5px solid black"">","","","","","","","",""
"","1019.6400000131689","sequential-stimulus-presentation-old","84","356814","0.0-21.0-1.4","SS1618365374653","trial","","40","500","1519.640000013169","images/stimuli/spore_stims/complex_06_A_a.gif","images/stimuli/spore_stims/complex_18_A_b.gif","self_paced","","6","complex_dissimilar","images/stimuli/spore_stims/complex_18_A_b.gif","","","","",""
"","2771.2749999482185","survey-multi-choice","85","359587","0.0-22.0","SS1618365374653","math_question","","","","","","","","","","","","{""Q0"":""7""}","[0]","7","",""
"","null","html-keyboard-response","86","360565","0.0-23.0-0.0","SS1618365374653","","","null","","","","","","<p><img src= images/blank.png width =""600"" height = ""600"" style=""position:fixed;top:50%; left:50%; transform: translate(-50%, -50%); border:5px solid black"">","","","","","","","",""
"","1340.5400000046939","sequential-stimulus-presentation-old","87","361969","0.0-23.0-1.0","SS1618365374653","trial","","40","500","1840.5400000046939","images/stimuli/spore_stims/complex_01_A_b.gif","images/stimuli/spore_stims/complex_15_A_a.gif","forced_short","","7","complex_dissimilar","images/stimuli/spore_stims/complex_15_A_a.gif","","","","",""
"","null","html-keyboard-response","88","363228","0.0-23.0-0.1","SS1618365374653","","","null","","","","","","<p><img src= images/blank.png width =""600"" height = ""600"" style=""position:fixed;top:50%; left:50%; transform: translate(-50%, -50%); border:5px solid black"">","","","","","","","",""
"","10707.649999996647","sequential-stimulus-presentation-old","89","374438","0.0-23.0-1.1","SS1618365374653","trial","","40","500","11207.649999996647","images/stimuli/spore_stims/complex_01_A_b.gif","images/stimuli/spore_stims/complex_15_A_a.gif","forced_short","","7","complex_dissimilar","images/stimuli/spore_stims/complex_01_A_b.gif","","","","",""
"","null","html-keyboard-response","90","375262","0.0-23.0-0.2","SS1618365374653","","","null","","","","","","<p><img src= images/blank.png width =""600"" height = ""600"" style=""position:fixed;top:50%; left:50%; transform: translate(-50%, -50%); border:5px solid black"">","","","","","","","",""
"","10865.590000001248","sequential-stimulus-presentation-old","91","386631","0.0-23.0-1.2","SS1618365374653","trial","","40","500","11365.590000001248","images/stimuli/spore_stims/complex_01_A_b.gif","images/stimuli/spore_stims/complex_15_A_a.gif","forced_short","","7","complex_dissimilar","images/stimuli/spore_stims/complex_15_A_a.gif","","","","",""
"","null","html-keyboard-response","92","387476","0.0-23.0-0.3","SS1618365374653","","","null","","","","","","<p><img src= images/blank.png width =""600"" height = ""600"" style=""position:fixed;top:50%; left:50%; transform: translate(-50%, -50%); border:5px solid black"">","","","","","","","",""
"","8356.395000009798","sequential-stimulus-presentation-old","93","396342","0.0-23.0-1.3","SS1618365374653","trial","","40","500","8856.395000009798","images/stimuli/spore_stims/complex_01_A_b.gif","images/stimuli/spore_stims/complex_15_A_a.gif","forced_short","","7","complex_dissimilar","images/stimuli/spore_stims/complex_01_A_b.gif","","","","",""
"","2856.6399999544956","survey-multi-choice","94","399200","0.0-24.0","SS1618365374653","math_question","","","","","","","","","","","","{""Q0"":""10""}","[0]","10","",""
"","null","html-keyboard-response","95","400034","0.0-25.0-0.0","SS1618365374653","","","null","","","","","","<p><img src= images/blank.png width =""600"" height = ""600"" style=""position:fixed;top:50%; left:50%; transform: translate(-50%, -50%); border:5px solid black"">","","","","","","","",""
"","172.01000003842637","sequential-stimulus-presentation-old","96","405209","0.0-25.0-1.0","SS1618365374653","trial","","40","500","672.0100000384264","images/stimuli/spore_stims/simple_15_A_a.gif","images/stimuli/spore_stims/simple_01_A_b.gif","forced_long","","8","simple_dissimilar","images/stimuli/spore_stims/simple_01_A_b.gif","","","","",""
"","null","html-keyboard-response","97","406328","0.0-25.0-0.1","SS1618365374653","","","null","","","","","","<p><img src= images/blank.png width =""600"" height = ""600"" style=""position:fixed;top:50%; left:50%; transform: translate(-50%, -50%); border:5px solid black"">","","","","","","","",""
"","651.0950000374578","sequential-stimulus-presentation-old","98","407482","0.0-25.0-1.1","SS1618365374653","trial","","40","500","1151.0950000374578","images/stimuli/spore_stims/simple_15_A_a.gif","images/stimuli/spore_stims/simple_01_A_b.gif","forced_long","","8","simple_dissimilar","images/stimuli/spore_stims/simple_01_A_b.gif","","","","",""
"","null","html-keyboard-response","99","408302","0.0-25.0-0.2","SS1618365374653","","","null","","","","","","<p><img src= images/blank.png width =""600"" height = ""600"" style=""position:fixed;top:50%; left:50%; transform: translate(-50%, -50%); border:5px solid black"">","","","","","","","",""
"","1467.2150000114925","sequential-stimulus-presentation-old","100","410272","0.0-25.0-1.2","SS1618365374653","trial","","40","500","1967.2150000114925","images/stimuli/spore_stims/simple_15_A_a.gif","images/stimuli/spore_stims/simple_01_A_b.gif","forced_long","","8","simple_dissimilar","images/stimuli/spore_stims/simple_01_A_b.gif","","","","",""
"","null","html-keyboard-response","101","411105","0.0-25.0-0.3","SS1618365374653","","","null","","","","","","<p><img src= images/blank.png width =""600"" height = ""600"" style=""position:fixed;top:50%; left:50%; transform: translate(-50%, -50%); border:5px solid black"">","","","","","","","",""
"","1680.850000004284","sequential-stimulus-presentation-old","102","413289","0.0-25.0-1.3","SS1618365374653","trial","","40","500","2180.850000004284","images/stimuli/spore_stims/simple_15_A_a.gif","images/stimuli/spore_stims/simple_01_A_b.gif","forced_long","","8","simple_dissimilar","images/stimuli/spore_stims/simple_01_A_b.gif","","","","",""
"","4552.154999983031","survey-multi-choice","103","417843","0.0-26.0","SS1618365374653","math_question","","","","","","","","","","","","{""Q0"":""12""}","[0]","12","",""
"","null","html-keyboard-response","104","418786","0.0-27.0-0.0","SS1618365374653","","","null","","","","","","<p><img src= images/blank.png width =""600"" height = ""600"" style=""position:fixed;top:50%; left:50%; transform: translate(-50%, -50%); border:5px solid black"">","","","","","","","",""
"","930.6450000149198","sequential-stimulus-presentation-old","105","424720","0.0-27.0-1.0","SS1618365374653","trial","","40","500","1430.6450000149198","images/stimuli/spore_stims/simple_19_A_b.gif","images/stimuli/spore_stims/simple_20_A_a.gif","forced_long","","9","simple_dissimilar","images/stimuli/spore_stims/simple_20_A_a.gif","","","","",""
"","null","html-keyboard-response","106","425539","0.0-27.0-0.1","SS1618365374653","","","null","","","","","","<p><img src= images/blank.png width =""600"" height = ""600"" style=""position:fixed;top:50%; left:50%; transform: translate(-50%, -50%); border:5px solid black"">","","","","","","","",""
"","1874.6449999744073","sequential-stimulus-presentation-old","107","427916","0.0-27.0-1.1","SS1618365374653","trial","","40","500","2374.6449999744073","images/stimuli/spore_stims/simple_19_A_b.gif","images/stimuli/spore_stims/simple_20_A_a.gif","forced_long","","9","simple_dissimilar","images/stimuli/spore_stims/simple_20_A_a.gif","","","","",""
"","null","html-keyboard-response","108","428791","0.0-27.0-0.2","SS1618365374653","","","null","","","","","","<p><img src= images/blank.png width =""600"" height = ""600"" style=""position:fixed;top:50%; left:50%; transform: translate(-50%, -50%); border:5px solid black"">","","","","","","","",""
"","1482.5300000375137","sequential-stimulus-presentation-old","109","430783","0.0-27.0-1.2","SS1618365374653","trial","","40","500","1982.5300000375137","images/stimuli/spore_stims/simple_19_A_b.gif","images/stimuli/spore_stims/simple_20_A_a.gif","forced_long","","9","simple_dissimilar","images/stimuli/spore_stims/simple_20_A_a.gif","","","","",""
"","null","html-keyboard-response","110","431773","0.0-27.0-0.3","SS1618365374653","","","null","","","","","","<p><img src= images/blank.png width =""600"" height = ""600"" style=""position:fixed;top:50%; left:50%; transform: translate(-50%, -50%); border:5px solid black"">","","","","","","","",""
"","4927.354999992531","sequential-stimulus-presentation-old","111","437203","0.0-27.0-1.3","SS1618365374653","trial","","40","500","5427.354999992531","images/stimuli/spore_stims/simple_19_A_b.gif","images/stimuli/spore_stims/simple_20_A_a.gif","forced_long","","9","simple_dissimilar","images/stimuli/spore_stims/simple_19_A_b.gif","","","","",""
"","null","html-keyboard-response","112","438485","0.0-27.0-0.4","SS1618365374653","","","null","","","","","","<p><img src= images/blank.png width =""600"" height = ""600"" style=""position:fixed;top:50%; left:50%; transform: translate(-50%, -50%); border:5px solid black"">","","","","","","","",""
"","3199.755000008736","sequential-stimulus-presentation-old","113","442187","0.0-27.0-1.4","SS1618365374653","trial","","40","500","3699.755000008736","images/stimuli/spore_stims/simple_19_A_b.gif","images/stimuli/spore_stims/simple_20_A_a.gif","forced_long","","9","simple_dissimilar","images/stimuli/spore_stims/simple_20_A_a.gif","","","","",""
"","3760.5399999883957","survey-multi-choice","114","445949","0.0-28.0","SS1618365374653","math_question","","","","","","","","","","","","{""Q0"":""13""}","[0]","13","",""
"","null","html-keyboard-response","115","446837","0.0-29.0-0.0","SS1618365374653","","","null","","","","","","<p><img src= images/blank.png width =""600"" height = ""600"" style=""position:fixed;top:50%; left:50%; transform: translate(-50%, -50%); border:5px solid black"">","","","","","","","",""
"","1875.2999999560416","sequential-stimulus-presentation-old","116","448774","0.0-29.0-1.0","SS1618365374653","trial","","40","500","2375.2999999560416","images/stimuli/spore_stims/simple_14_A_b.gif","images/stimuli/spore_stims/simple_02_A_a.gif","forced_short","","10","simple_dissimilar","images/stimuli/spore_stims/simple_02_A_a.gif","","","","",""
"","null","html-keyboard-response","117","449819","0.0-29.0-0.1","SS1618365374653","","","null","","","","","","<p><img src= images/blank.png width =""600"" height = ""600"" style=""position:fixed;top:50%; left:50%; transform: translate(-50%, -50%); border:5px solid black"">","","","","","","","",""
"","1537.47999999905","sequential-stimulus-presentation-old","118","451858","0.0-29.0-1.1","SS1618365374653","trial","","40","500","2037.47999999905","images/stimuli/spore_stims/simple_14_A_b.gif","images/stimuli/spore_stims/simple_02_A_a.gif","forced_short","","10","simple_dissimilar","images/stimuli/spore_stims/simple_14_A_b.gif","","","","",""
"","null","html-keyboard-response","119","452734","0.0-29.0-0.2","SS1618365374653","","","null","","","","","","<p><img src= images/blank.png width =""600"" height = ""600"" style=""position:fixed;top:50%; left:50%; transform: translate(-50%, -50%); border:5px solid black"">","","","","","","","",""
"","2684.0850000153296","sequential-stimulus-presentation-old","120","455920","0.0-29.0-1.2","SS1618365374653","trial","","40","500","3184.0850000153296","images/stimuli/spore_stims/simple_14_A_b.gif","images/stimuli/spore_stims/simple_02_A_a.gif","forced_short","","10","simple_dissimilar","images/stimuli/spore_stims/simple_02_A_a.gif","","","","",""
"","null","html-keyboard-response","121","456785","0.0-29.0-0.3","SS1618365374653","","","null","","","","","","<p><img src= images/blank.png width =""600"" height = ""600"" style=""position:fixed;top:50%; left:50%; transform: translate(-50%, -50%); border:5px solid black"">","","","","","","","",""
"","1786.7199999745935","sequential-stimulus-presentation-old","122","459073","0.0-29.0-1.3","SS1618365374653","trial","","40","500","2286.7199999745935","images/stimuli/spore_stims/simple_14_A_b.gif","images/stimuli/spore_stims/simple_02_A_a.gif","forced_short","","10","simple_dissimilar","images/stimuli/spore_stims/simple_02_A_a.gif","","","","",""
"","null","html-keyboard-response","123","459890","0.0-29.0-0.4","SS1618365374653","","","null","","","","","","<p><img src= images/blank.png width =""600"" height = ""600"" style=""position:fixed;top:50%; left:50%; transform: translate(-50%, -50%); border:5px solid black"">","","","","","","","",""
"","1672.8949999669567","sequential-stimulus-presentation-old","124","462065","0.0-29.0-1.4","SS1618365374653","trial","","40","500","2172.8949999669567","images/stimuli/spore_stims/simple_14_A_b.gif","images/stimuli/spore_stims/simple_02_A_a.gif","forced_short","","10","simple_dissimilar","images/stimuli/spore_stims/simple_02_A_a.gif","","","","",""
"","null","html-keyboard-response","125","463188","0.0-29.0-0.5","SS1618365374653","","","null","","","","","","<p><img src= images/blank.png width =""600"" height = ""600"" style=""position:fixed;top:50%; left:50%; transform: translate(-50%, -50%); border:5px solid black"">","","","","","","","",""
"","3161.789999983739","sequential-stimulus-presentation-old","126","466852","0.0-29.0-1.5","SS1618365374653","trial","","40","500","3661.789999983739","images/stimuli/spore_stims/simple_14_A_b.gif","images/stimuli/spore_stims/simple_02_A_a.gif","forced_short","","10","simple_dissimilar","images/stimuli/spore_stims/simple_14_A_b.gif","","","","",""
"","3643.0249999975786","survey-multi-choice","127","470497","0.0-30.0","SS1618365374653","math_question","","","","","","","","","","","","{""Q0"":""6""}","[0]","6","",""
"","null","html-keyboard-response","128","471677","0.0-31.0-0.0","SS1618365374653","","","null","","","","","","<p><img src= images/blank.png width =""600"" height = ""600"" style=""position:fixed;top:50%; left:50%; transform: translate(-50%, -50%); border:5px solid black"">","","","","","","","",""
"","1127.0349999540485","sequential-stimulus-presentation-old","129","472857","0.0-31.0-1.0","SS1618365374653","trial","","40","500","1627.0349999540485","images/stimuli/spore_stims/complex_11_A_a.gif","images/stimuli/spore_stims/complex_17_A_b.gif","forced_short","","11","complex_dissimilar","images/stimuli/spore_stims/complex_17_A_b.gif","","","","",""
"","null","html-keyboard-response","130","473915","0.0-31.0-0.1","SS1618365374653","","","null","","","","","","<p><img src= images/blank.png width =""600"" height = ""600"" style=""position:fixed;top:50%; left:50%; transform: translate(-50%, -50%); border:5px solid black"">","","","","","","","",""
"","8069.350000005215","sequential-stimulus-presentation-old","131","482487","0.0-31.0-1.1","SS1618365374653","trial","","40","500","8569.350000005215","images/stimuli/spore_stims/complex_11_A_a.gif","images/stimuli/spore_stims/complex_17_A_b.gif","forced_short","","11","complex_dissimilar","images/stimuli/spore_stims/complex_17_A_b.gif","","","","",""
"","null","html-keyboard-response","132","483345","0.0-31.0-0.2","SS1618365374653","","","null","","","","","","<p><img src= images/blank.png width =""600"" height = ""600"" style=""position:fixed;top:50%; left:50%; transform: translate(-50%, -50%); border:5px solid black"">","","","","","","","",""
"","1418.8200000207871","sequential-stimulus-presentation-old","133","485267","0.0-31.0-1.2","SS1618365374653","trial","","40","500","1918.8200000207871","images/stimuli/spore_stims/complex_11_A_a.gif","images/stimuli/spore_stims/complex_17_A_b.gif","forced_short","","11","complex_dissimilar","images/stimuli/spore_stims/complex_17_A_b.gif","","","","",""
"","null","html-keyboard-response","134","486097","0.0-31.0-0.3","SS1618365374653","","","null","","","","","","<p><img src= images/blank.png width =""600"" height = ""600"" style=""position:fixed;top:50%; left:50%; transform: translate(-50%, -50%); border:5px solid black"">","","","","","","","",""
"","3673.3300000196323","sequential-stimulus-presentation-old","135","490273","0.0-31.0-1.3","SS1618365374653","trial","","40","500","4173.330000019632","images/stimuli/spore_stims/complex_11_A_a.gif","images/stimuli/spore_stims/complex_17_A_b.gif","forced_short","","11","complex_dissimilar","images/stimuli/spore_stims/complex_17_A_b.gif","","","","",""
"","null","html-keyboard-response","136","491154","0.0-31.0-0.4","SS1618365374653","","","null","","","","","","<p><img src= images/blank.png width =""600"" height = ""600"" style=""position:fixed;top:50%; left:50%; transform: translate(-50%, -50%); border:5px solid black"">","","","","","","","",""
"","7182.43500002427","sequential-stimulus-presentation-old","137","498846","0.0-31.0-1.4","SS1618365374653","trial","","40","500","7682.43500002427","images/stimuli/spore_stims/complex_11_A_a.gif","images/stimuli/spore_stims/complex_17_A_b.gif","forced_short","","11","complex_dissimilar","images/stimuli/spore_stims/complex_17_A_b.gif","","","","",""
"[{""page_index"":0,""viewing_time"":4539.549999986775}]","4539.784999971744","instructions","138","503387","0.0-32.0","SS1618365374653","instructions","","","","","","","","","","","","","","","",""
"","10652.31000003405","survey-likert","139","514042","0.0-33.0","SS1618365374653","similarity_question","","","","","","","","","","","","{""Q0"":5}","[0]","","images/stimuli/spore_stims/simple_01_A_b.gif","images/stimuli/spore_stims/simple_15_A_a.gif"
"","22231.26999998931","survey-likert","140","536275","0.0-34.0","SS1618365374653","similarity_question","","","","","","","","","","","","{""Q0"":2}","[0]","","images/stimuli/spore_stims/simple_16_A_b.gif","images/stimuli/spore_stims/simple_03_A_a.gif"
"","9602.264999994077","survey-likert","141","545880","0.0-35.0","SS1618365374653","similarity_question","","","","","","","","","","","","{""Q0"":4}","[0]","","images/stimuli/spore_stims/complex_08_A_b.gif","images/stimuli/spore_stims/complex_01_A_a.gif"
"","8487.354999990202","survey-likert","142","554370","0.0-36.0","SS1618365374653","similarity_question","","","","","","","","","","","","{""Q0"":2}","[0]","","images/stimuli/spore_stims/complex_19_A_b.gif","images/stimuli/spore_stims/complex_16_A_a.gif"
"","6369.820000021718","survey-likert","143","560742","0.0-37.0","SS1618365374653","similarity_question","","","","","","","","","","","","{""Q0"":1}","[0]","","images/stimuli/spore_stims/complex_17_A_b.gif","images/stimuli/spore_stims/complex_11_A_a.gif"
"","4320.449999999255","survey-likert","144","565065","0.0-38.0","SS1618365374653","similarity_question","","","","","","","","","","","","{""Q0"":5}","[0]","","images/stimuli/spore_stims/simple_20_A_a.gif","images/stimuli/spore_stims/simple_19_A_b.gif"
"","4473.699999973178","survey-likert","145","569541","0.0-39.0","SS1618365374653","similarity_question","","","","","","","","","","","","{""Q0"":6}","[0]","","images/stimuli/spore_stims/simple_14_A_b.gif","images/stimuli/spore_stims/simple_02_A_a.gif"
"","5206.45500003593","survey-likert","146","574751","0.0-40.0","SS1618365374653","similarity_question","","","","","","","","","","","","{""Q0"":4}","[0]","","images/stimuli/spore_stims/simple_11_A_b.gif","images/stimuli/spore_stims/simple_19_A_a.gif"
"","11115.555000025779","survey-likert","147","585869","0.0-41.0","SS1618365374653","similarity_question","","","","","","","","","","","","{""Q0"":4}","[0]","","images/stimuli/spore_stims/complex_15_A_a.gif","images/stimuli/spore_stims/complex_01_A_b.gif"
"","10498.645000043325","survey-likert","148","596370","0.0-42.0","SS1618365374653","similarity_question","","","","","","","","","","","","{""Q0"":4}","[0]","","images/stimuli/spore_stims/complex_20_A_a.gif","images/stimuli/spore_stims/complex_04_A_b.gif"
"","6730.6899999966845","survey-likert","149","603103","0.0-43.0","SS1618365374653","similarity_question","","","","","","","","","","","","{""Q0"":2}","[0]","","images/stimuli/spore_stims/complex_06_A_a.gif","images/stimuli/spore_stims/complex_18_A_b.gif"
"","6976.375000027474","survey-likert","150","610082","0.0-44.0","SS1618365374653","similarity_question","","","","","","","","","","","","{""Q0"":5}","[0]","","images/stimuli/spore_stims/simple_09_A_b.gif","images/stimuli/spore_stims/simple_04_A_a.gif"
"[{""page_index"":0,""viewing_time"":3873.3399999910034}]","3873.5499999602325","instructions","151","613957","0.0-45.0","SS1618365374653","instructions","","","","","","","","","","","","","","","",""
"","6522.724999987986","survey-likert","152","620482","0.0-46.0","SS1618365374653","","","","","","","","","images/stimuli/spore_stims/complex_17_A_b.gif","","","","{""Q0"":6}","[0]","","",""
"","3601.4049999648705","survey-likert","153","624086","0.0-47.0","SS1618365374653","","","","","","","","","images/stimuli/spore_stims/complex_08_A_b.gif","","","","{""Q0"":6}","[0]","","",""
"","3675.6050000549294","survey-likert","154","627764","0.0-48.0","SS1618365374653","","","","","","","","","images/stimuli/spore_stims/simple_19_A_b.gif","","","","{""Q0"":1}","[0]","","",""
"","2165.504999982659","survey-likert","155","629932","0.0-49.0","SS1618365374653","","","","","","","","","images/stimuli/spore_stims/simple_01_A_b.gif","","","","{""Q0"":0}","[0]","","",""
"","3992.484999995213","survey-likert","156","633927","0.0-50.0","SS1618365374653","","","","","","","","","images/stimuli/spore_stims/complex_19_A_b.gif","","","","{""Q0"":6}","[0]","","",""
"","4263.760000001639","survey-likert","157","638193","0.0-51.0","SS1618365374653","","","","","","","","","images/stimuli/spore_stims/complex_15_A_a.gif","","","","{""Q0"":6}","[0]","","",""
"","2944.4650000077672","survey-likert","158","641140","0.0-52.0","SS1618365374653","","","","","","","","","images/stimuli/spore_stims/simple_11_A_b.gif","","","","{""Q0"":0}","[0]","","",""
"","2108.5699999821372","survey-likert","159","643251","0.0-53.0","SS1618365374653","","","","","","","","","images/stimuli/spore_stims/simple_02_A_a.gif","","","","{""Q0"":0}","[0]","","",""
"","2891.6750000207685","survey-likert","160","646145","0.0-54.0","SS1618365374653","","","","","","","","","images/stimuli/spore_stims/simple_16_A_b.gif","","","","{""Q0"":0}","[0]","","",""
"","4648.500000010245","survey-likert","161","650796","0.0-55.0","SS1618365374653","","","","","","","","","images/stimuli/spore_stims/complex_06_A_a.gif","","","","{""Q0"":5}","[0]","","",""
"","3326.7549999873154","survey-likert","162","654125","0.0-56.0","SS1618365374653","","","","","","","","","images/stimuli/spore_stims/simple_09_A_b.gif","","","","{""Q0"":0}","[0]","","",""
"","3807.420000026468","survey-likert","163","657935","0.0-57.0","SS1618365374653","","","","","","","","","images/stimuli/spore_stims/complex_04_A_b.gif","","","","{""Q0"":5}","[0]","","",""
"[{""page_index"":0,""viewing_time"":2115.749999997206}]","2115.9549999865703","instructions","164","660053","0.0-58.0","SS1618365374653","instructions","","","","","","","","","","","","","","","",""
"","1903.684999968391","demog-age","165","661960","0.0-59.0","SS1618365374653","","","","","","","","","","","","","{""age"":""29""}","","","",""
"","7845.7000000053085","demog-ethnic-US","166","669809","0.0-60.0","SS1618365374653","","","","","","","","","","","","","{""ethnicity"":[""Hispanic or Latino"",""White""]}","[0]","","",""
"","20526.259999955073","demog-gender-and-education","167","690338","0.0-61.0","SS1618365374653","","","","","","","","","","","","","{""gender"":""Female"",""education"":""Doctorate/Professional degree""}","[0,1]","","",""
"","86712.95000001555","survey-text","168","777054","0.0-62.0","SS1618365374653","feedback","","","","","","","","","","","","{""Q0"":""no issues with the animations""}","","","",""
"[{""page_index"":0,""viewing_time"":2524.0950000006706}]","2524.3050000281073","instructions","169","779587","0.0-63.0","SS1618365374653","instructions","","","","","","","","","","","","","","","",""
