"view_history","rt","trial_type","trial_index","time_elapsed","internal_node_id","subject","stimulus_type","trial_stimulus","key_press","minimum_viewing_duration","trial_looking_time","block_deviant","block_background","exposure_type","stimulus","block_number","block_type","stimulus_displayed","responses","question_order","math_correct_answer","stimulus_left","stimulus_right"
"[{""page_index"":0,""viewing_time"":15201.830000150949}]","15202.8050001245","instructions","0","15206","0.0-0.0","SS1618435646381","","","","","","","","","","","","","","","","",""
"[{""page_index"":0,""viewing_time"":18334.844999946654},{""page_index"":1,""viewing_time"":6923.609999939799}]","25258.78999987617","instructions","1","42471","0.0-1.0","SS1618435646381","instructions","","","","","","","","","","","","","","","",""
"","13068.359999917448","sequential-stimulus-presentation-old","2","56043","0.0-2.0","SS1618435646381","","","40","500","13568.359999917448","null","null","self_paced","","","","","","","","",""
"","6449.520000023767","sequential-stimulus-presentation-old","3","62995","0.0-3.0","SS1618435646381","","","40","500","6949.520000023767","null","null","self_paced","","","","","","","","",""
"[{""page_index"":0,""viewing_time"":24954.589999979362}]","24954.940000083297","instructions","4","87951","0.0-4.0","SS1618435646381","instructions","","","","","","","","","","","","","","","",""
"","3723.8300000317395","sequential-stimulus-presentation-old","5","96680","0.0-5.0","SS1618435646381","","","40","500","4223.8300000317395","null","null","forced_long","","","","","","","","",""
"","3492.324999999255","sequential-stimulus-presentation-old","6","100226","0.0-6.0","SS1618435646381","","","40","50","3542.324999999255","null","null","forced_long","","","","","","","","",""
"[{""page_index"":0,""viewing_time"":5053.569999989122}]","5053.889999864623","instructions","7","105282","0.0-7.0","SS1618435646381","instructions","","","","","","","","","","","","","","","",""
"[{""page_index"":0,""viewing_time"":10756.434999871999},{""page_index"":1,""viewing_time"":12410.245000151917},{""page_index"":2,""viewing_time"":10645.759999984875},{""page_index"":3,""viewing_time"":2664.534999988973},{""page_index"":4,""viewing_time"":1463.8300000224262}]","37941.14500004798","instructions","8","143225","0.0-8.0","SS1618435646381","instructions","","","","","","","","","","","","","","","",""
"","null","html-keyboard-response","9","144061","0.0-9.0-0.0","SS1618435646381","","","null","","","","","","<p><img src= images/blank.png width =""600"" height = ""600"" style=""position:fixed;top:50%; left:50%; transform: translate(-50%, -50%); border:5px solid black"">","","","","","","","",""
"","1458.5199998691678","sequential-stimulus-presentation-old","10","150525","0.0-9.0-1.0","SS1618435646381","trial","","40","500","1958.5199998691678","images/stimuli/spore_stims/simple_02_A_a.gif","images/stimuli/spore_stims/simple_04_A_b.gif","forced_long","","0","simple_dissimilar","images/stimuli/spore_stims/simple_04_A_b.gif","","","","",""
"","null","html-keyboard-response","11","151747","0.0-9.0-0.1","SS1618435646381","","","null","","","","","","<p><img src= images/blank.png width =""600"" height = ""600"" style=""position:fixed;top:50%; left:50%; transform: translate(-50%, -50%); border:5px solid black"">","","","","","","","",""
"","1267.5150001887232","sequential-stimulus-presentation-old","12","153522","0.0-9.0-1.1","SS1618435646381","trial","","40","500","1767.5150001887232","images/stimuli/spore_stims/simple_02_A_a.gif","images/stimuli/spore_stims/simple_04_A_b.gif","forced_long","","0","simple_dissimilar","images/stimuli/spore_stims/simple_04_A_b.gif","","","","",""
"","null","html-keyboard-response","13","154828","0.0-9.0-0.2","SS1618435646381","","","null","","","","","","<p><img src= images/blank.png width =""600"" height = ""600"" style=""position:fixed;top:50%; left:50%; transform: translate(-50%, -50%); border:5px solid black"">","","","","","","","",""
"","2622.959999833256","sequential-stimulus-presentation-old","14","157956","0.0-9.0-1.2","SS1618435646381","trial","","40","500","3122.959999833256","images/stimuli/spore_stims/simple_02_A_a.gif","images/stimuli/spore_stims/simple_04_A_b.gif","forced_long","","0","simple_dissimilar","images/stimuli/spore_stims/simple_02_A_a.gif","","","","",""
"","null","html-keyboard-response","15","159259","0.0-9.0-0.3","SS1618435646381","","","null","","","","","","<p><img src= images/blank.png width =""600"" height = ""600"" style=""position:fixed;top:50%; left:50%; transform: translate(-50%, -50%); border:5px solid black"">","","","","","","","",""
"","2657.589999958873","sequential-stimulus-presentation-old","16","162421","0.0-9.0-1.3","SS1618435646381","trial","","40","500","3157.589999958873","images/stimuli/spore_stims/simple_02_A_a.gif","images/stimuli/spore_stims/simple_04_A_b.gif","forced_long","","0","simple_dissimilar","images/stimuli/spore_stims/simple_04_A_b.gif","","","","",""
"","null","html-keyboard-response","17","163339","0.0-9.0-0.4","SS1618435646381","","","null","","","","","","<p><img src= images/blank.png width =""600"" height = ""600"" style=""position:fixed;top:50%; left:50%; transform: translate(-50%, -50%); border:5px solid black"">","","","","","","","",""
"","4309.61999995634","sequential-stimulus-presentation-old","18","168153","0.0-9.0-1.4","SS1618435646381","trial","","40","500","4809.61999995634","images/stimuli/spore_stims/simple_02_A_a.gif","images/stimuli/spore_stims/simple_04_A_b.gif","forced_long","","0","simple_dissimilar","images/stimuli/spore_stims/simple_02_A_a.gif","","","","",""
"","null","html-keyboard-response","19","169186","0.0-9.0-0.5","SS1618435646381","","","null","","","","","","<p><img src= images/blank.png width =""600"" height = ""600"" style=""position:fixed;top:50%; left:50%; transform: translate(-50%, -50%); border:5px solid black"">","","","","","","","",""
"","1570.8999999333173","sequential-stimulus-presentation-old","20","171265","0.0-9.0-1.5","SS1618435646381","trial","","40","500","2070.8999999333173","images/stimuli/spore_stims/simple_02_A_a.gif","images/stimuli/spore_stims/simple_04_A_b.gif","forced_long","","0","simple_dissimilar","images/stimuli/spore_stims/simple_04_A_b.gif","","","","",""
"","4340.139999985695","survey-multi-choice","21","175608","0.0-10.0","SS1618435646381","math_question","","","","","","","","","","","","{""Q0"":""9""}","[0]","9","",""
"","null","html-keyboard-response","22","176674","0.0-11.0-0.0","SS1618435646381","","","null","","","","","","<p><img src= images/blank.png width =""600"" height = ""600"" style=""position:fixed;top:50%; left:50%; transform: translate(-50%, -50%); border:5px solid black"">","","","","","","","",""
"","6806.269999826327","sequential-stimulus-presentation-old","23","188487","0.0-11.0-1.0","SS1618435646381","trial","","40","500","7306.269999826327","images/stimuli/spore_stims/simple_01_A_b.gif","images/stimuli/spore_stims/simple_16_A_a.gif","forced_long","","1","simple_dissimilar","images/stimuli/spore_stims/simple_16_A_a.gif","","","","",""
"","null","html-keyboard-response","24","189764","0.0-11.0-0.1","SS1618435646381","","","null","","","","","","<p><img src= images/blank.png width =""600"" height = ""600"" style=""position:fixed;top:50%; left:50%; transform: translate(-50%, -50%); border:5px solid black"">","","","","","","","",""
"","3310.204999987036","sequential-stimulus-presentation-old","25","193580","0.0-11.0-1.1","SS1618435646381","trial","","40","500","3810.204999987036","images/stimuli/spore_stims/simple_01_A_b.gif","images/stimuli/spore_stims/simple_16_A_a.gif","forced_long","","1","simple_dissimilar","images/stimuli/spore_stims/simple_16_A_a.gif","","","","",""
"","null","html-keyboard-response","26","194682","0.0-11.0-0.2","SS1618435646381","","","null","","","","","","<p><img src= images/blank.png width =""600"" height = ""600"" style=""position:fixed;top:50%; left:50%; transform: translate(-50%, -50%); border:5px solid black"">","","","","","","","",""
"","4150.989999994636","sequential-stimulus-presentation-old","27","199337","0.0-11.0-1.2","SS1618435646381","trial","","40","500","4650.989999994636","images/stimuli/spore_stims/simple_01_A_b.gif","images/stimuli/spore_stims/simple_16_A_a.gif","forced_long","","1","simple_dissimilar","images/stimuli/spore_stims/simple_01_A_b.gif","","","","",""
"","null","html-keyboard-response","28","200316","0.0-11.0-0.3","SS1618435646381","","","null","","","","","","<p><img src= images/blank.png width =""600"" height = ""600"" style=""position:fixed;top:50%; left:50%; transform: translate(-50%, -50%); border:5px solid black"">","","","","","","","",""
"","3272.319999989122","sequential-stimulus-presentation-old","29","204094","0.0-11.0-1.3","SS1618435646381","trial","","40","500","3772.319999989122","images/stimuli/spore_stims/simple_01_A_b.gif","images/stimuli/spore_stims/simple_16_A_a.gif","forced_long","","1","simple_dissimilar","images/stimuli/spore_stims/simple_16_A_a.gif","","","","",""
"","null","html-keyboard-response","30","205009","0.0-11.0-0.4","SS1618435646381","","","null","","","","","","<p><img src= images/blank.png width =""600"" height = ""600"" style=""position:fixed;top:50%; left:50%; transform: translate(-50%, -50%); border:5px solid black"">","","","","","","","",""
"","3351.825000019744","sequential-stimulus-presentation-old","31","208866","0.0-11.0-1.4","SS1618435646381","trial","","40","500","3851.825000019744","images/stimuli/spore_stims/simple_01_A_b.gif","images/stimuli/spore_stims/simple_16_A_a.gif","forced_long","","1","simple_dissimilar","images/stimuli/spore_stims/simple_16_A_a.gif","","","","",""
"","null","html-keyboard-response","32","210127","0.0-11.0-0.5","SS1618435646381","","","null","","","","","","<p><img src= images/blank.png width =""600"" height = ""600"" style=""position:fixed;top:50%; left:50%; transform: translate(-50%, -50%); border:5px solid black"">","","","","","","","",""
"","4838.294999906793","sequential-stimulus-presentation-old","33","215468","0.0-11.0-1.5","SS1618435646381","trial","","40","500","5338.294999906793","images/stimuli/spore_stims/simple_01_A_b.gif","images/stimuli/spore_stims/simple_16_A_a.gif","forced_long","","1","simple_dissimilar","images/stimuli/spore_stims/simple_16_A_a.gif","","","","",""
"","3955.6249999441206","survey-multi-choice","34","219429","0.0-12.0","SS1618435646381","math_question","","","","","","","","","","","","{""Q0"":""5""}","[0]","5","",""
"","null","html-keyboard-response","35","220281","0.0-13.0-0.0","SS1618435646381","","","null","","","","","","<p><img src= images/blank.png width =""600"" height = ""600"" style=""position:fixed;top:50%; left:50%; transform: translate(-50%, -50%); border:5px solid black"">","","","","","","","",""
"","7656.510000117123","sequential-stimulus-presentation-old","36","228445","0.0-13.0-1.0","SS1618435646381","trial","","40","500","8156.510000117123","images/stimuli/spore_stims/complex_16_A_b.gif","images/stimuli/spore_stims/complex_19_A_a.gif","self_paced","","2","complex_dissimilar","images/stimuli/spore_stims/complex_19_A_a.gif","","","","",""
"","null","html-keyboard-response","37","229319","0.0-13.0-0.1","SS1618435646381","","","null","","","","","","<p><img src= images/blank.png width =""600"" height = ""600"" style=""position:fixed;top:50%; left:50%; transform: translate(-50%, -50%); border:5px solid black"">","","","","","","","",""
"","3598.8449999131262","sequential-stimulus-presentation-old","38","233425","0.0-13.0-1.1","SS1618435646381","trial","","40","500","4098.844999913126","images/stimuli/spore_stims/complex_16_A_b.gif","images/stimuli/spore_stims/complex_19_A_a.gif","self_paced","","2","complex_dissimilar","images/stimuli/spore_stims/complex_19_A_a.gif","","","","",""
"","null","html-keyboard-response","39","234252","0.0-13.0-0.2","SS1618435646381","","","null","","","","","","<p><img src= images/blank.png width =""600"" height = ""600"" style=""position:fixed;top:50%; left:50%; transform: translate(-50%, -50%); border:5px solid black"">","","","","","","","",""
"","4155.280000064522","sequential-stimulus-presentation-old","40","238911","0.0-13.0-1.2","SS1618435646381","trial","","40","500","4655.280000064522","images/stimuli/spore_stims/complex_16_A_b.gif","images/stimuli/spore_stims/complex_19_A_a.gif","self_paced","","2","complex_dissimilar","images/stimuli/spore_stims/complex_16_A_b.gif","","","","",""
"","null","html-keyboard-response","41","239751","0.0-13.0-0.3","SS1618435646381","","","null","","","","","","<p><img src= images/blank.png width =""600"" height = ""600"" style=""position:fixed;top:50%; left:50%; transform: translate(-50%, -50%); border:5px solid black"">","","","","","","","",""
"","2186.7249999195337","sequential-stimulus-presentation-old","42","242444","0.0-13.0-1.3","SS1618435646381","trial","","40","500","2686.7249999195337","images/stimuli/spore_stims/complex_16_A_b.gif","images/stimuli/spore_stims/complex_19_A_a.gif","self_paced","","2","complex_dissimilar","images/stimuli/spore_stims/complex_19_A_a.gif","","","","",""
"","null","html-keyboard-response","43","243734","0.0-13.0-0.4","SS1618435646381","","","null","","","","","","<p><img src= images/blank.png width =""600"" height = ""600"" style=""position:fixed;top:50%; left:50%; transform: translate(-50%, -50%); border:5px solid black"">","","","","","","","",""
"","2535.0249998737127","sequential-stimulus-presentation-old","44","246773","0.0-13.0-1.4","SS1618435646381","trial","","40","500","3035.0249998737127","images/stimuli/spore_stims/complex_16_A_b.gif","images/stimuli/spore_stims/complex_19_A_a.gif","self_paced","","2","complex_dissimilar","images/stimuli/spore_stims/complex_19_A_a.gif","","","","",""
"","3156.41999989748","survey-multi-choice","45","249932","0.0-14.0","SS1618435646381","math_question","","","","","","","","","","","","{""Q0"":""8""}","[0]","8","",""
"","null","html-keyboard-response","46","250764","0.0-15.0-0.0","SS1618435646381","","","null","","","","","","<p><img src= images/blank.png width =""600"" height = ""600"" style=""position:fixed;top:50%; left:50%; transform: translate(-50%, -50%); border:5px solid black"">","","","","","","","",""
"","6624.609999824315","sequential-stimulus-presentation-old","47","257442","0.0-15.0-1.0","SS1618435646381","trial","","40","500","7124.609999824315","images/stimuli/spore_stims/complex_07_A_a.gif","images/stimuli/spore_stims/complex_02_A_b.gif","forced_short","","3","complex_dissimilar","images/stimuli/spore_stims/complex_02_A_b.gif","","","","",""
"","null","html-keyboard-response","48","258377","0.0-15.0-0.1","SS1618435646381","","","null","","","","","","<p><img src= images/blank.png width =""600"" height = ""600"" style=""position:fixed;top:50%; left:50%; transform: translate(-50%, -50%); border:5px solid black"">","","","","","","","",""
"","7358.1299998331815","sequential-stimulus-presentation-old","49","266240","0.0-15.0-1.1","SS1618435646381","trial","","40","500","7858.1299998331815","images/stimuli/spore_stims/complex_07_A_a.gif","images/stimuli/spore_stims/complex_02_A_b.gif","forced_short","","3","complex_dissimilar","images/stimuli/spore_stims/complex_02_A_b.gif","","","","",""
"","null","html-keyboard-response","50","267512","0.0-15.0-0.2","SS1618435646381","","","null","","","","","","<p><img src= images/blank.png width =""600"" height = ""600"" style=""position:fixed;top:50%; left:50%; transform: translate(-50%, -50%); border:5px solid black"">","","","","","","","",""
"","3015.9650000277907","sequential-stimulus-presentation-old","51","271035","0.0-15.0-1.2","SS1618435646381","trial","","40","500","3515.9650000277907","images/stimuli/spore_stims/complex_07_A_a.gif","images/stimuli/spore_stims/complex_02_A_b.gif","forced_short","","3","complex_dissimilar","images/stimuli/spore_stims/complex_02_A_b.gif","","","","",""
"","null","html-keyboard-response","52","272019","0.0-15.0-0.3","SS1618435646381","","","null","","","","","","<p><img src= images/blank.png width =""600"" height = ""600"" style=""position:fixed;top:50%; left:50%; transform: translate(-50%, -50%); border:5px solid black"">","","","","","","","",""
"","5454.639999894425","sequential-stimulus-presentation-old","53","277979","0.0-15.0-1.3","SS1618435646381","trial","","40","500","5954.639999894425","images/stimuli/spore_stims/complex_07_A_a.gif","images/stimuli/spore_stims/complex_02_A_b.gif","forced_short","","3","complex_dissimilar","images/stimuli/spore_stims/complex_07_A_a.gif","","","","",""
"","3665.495000081137","survey-multi-choice","54","281649","0.0-16.0","SS1618435646381","math_question","","","","","","","","","","","","{""Q0"":""13""}","[0]","13","",""
"","null","html-keyboard-response","55","282801","0.0-17.0-0.0","SS1618435646381","","","null","","","","","","<p><img src= images/blank.png width =""600"" height = ""600"" style=""position:fixed;top:50%; left:50%; transform: translate(-50%, -50%); border:5px solid black"">","","","","","","","",""
"","3240.0350000243634","sequential-stimulus-presentation-old","56","286545","0.0-17.0-1.0","SS1618435646381","trial","","40","500","3740.0350000243634","images/stimuli/spore_stims/simple_07_A_b.gif","images/stimuli/spore_stims/simple_08_A_a.gif","self_paced","","4","simple_dissimilar","images/stimuli/spore_stims/simple_08_A_a.gif","","","","",""
"","null","html-keyboard-response","57","287562","0.0-17.0-0.1","SS1618435646381","","","null","","","","","","<p><img src= images/blank.png width =""600"" height = ""600"" style=""position:fixed;top:50%; left:50%; transform: translate(-50%, -50%); border:5px solid black"">","","","","","","","",""
"","3204.429999925196","sequential-stimulus-presentation-old","58","291272","0.0-17.0-1.1","SS1618435646381","trial","","40","500","3704.429999925196","images/stimuli/spore_stims/simple_07_A_b.gif","images/stimuli/spore_stims/simple_08_A_a.gif","self_paced","","4","simple_dissimilar","images/stimuli/spore_stims/simple_08_A_a.gif","","","","",""
"","null","html-keyboard-response","59","292275","0.0-17.0-0.2","SS1618435646381","","","null","","","","","","<p><img src= images/blank.png width =""600"" height = ""600"" style=""position:fixed;top:50%; left:50%; transform: translate(-50%, -50%); border:5px solid black"">","","","","","","","",""
"","2106.309999944642","sequential-stimulus-presentation-old","60","294888","0.0-17.0-1.2","SS1618435646381","trial","","40","500","2606.309999944642","images/stimuli/spore_stims/simple_07_A_b.gif","images/stimuli/spore_stims/simple_08_A_a.gif","self_paced","","4","simple_dissimilar","images/stimuli/spore_stims/simple_08_A_a.gif","","","","",""
"","null","html-keyboard-response","61","296185","0.0-17.0-0.3","SS1618435646381","","","null","","","","","","<p><img src= images/blank.png width =""600"" height = ""600"" style=""position:fixed;top:50%; left:50%; transform: translate(-50%, -50%); border:5px solid black"">","","","","","","","",""
"","4300.689999945462","sequential-stimulus-presentation-old","62","300991","0.0-17.0-1.3","SS1618435646381","trial","","40","500","4800.689999945462","images/stimuli/spore_stims/simple_07_A_b.gif","images/stimuli/spore_stims/simple_08_A_a.gif","self_paced","","4","simple_dissimilar","images/stimuli/spore_stims/simple_07_A_b.gif","","","","",""
"","4088.960000080988","survey-multi-choice","63","305082","0.0-18.0","SS1618435646381","math_question","","","","","","","","","","","","{""Q0"":""10""}","[0]","10","",""
"","null","html-keyboard-response","64","305914","0.0-19.0-0.0","SS1618435646381","","","null","","","","","","<p><img src= images/blank.png width =""600"" height = ""600"" style=""position:fixed;top:50%; left:50%; transform: translate(-50%, -50%); border:5px solid black"">","","","","","","","",""
"","5716.885000001639","sequential-stimulus-presentation-old","65","312135","0.0-19.0-1.0","SS1618435646381","trial","","40","500","6216.885000001639","images/stimuli/spore_stims/simple_19_A_a.gif","images/stimuli/spore_stims/simple_18_A_b.gif","self_paced","","5","simple_dissimilar","images/stimuli/spore_stims/simple_18_A_b.gif","","","","",""
"","null","html-keyboard-response","66","313424","0.0-19.0-0.1","SS1618435646381","","","null","","","","","","<p><img src= images/blank.png width =""600"" height = ""600"" style=""position:fixed;top:50%; left:50%; transform: translate(-50%, -50%); border:5px solid black"">","","","","","","","",""
"","3148.490000050515","sequential-stimulus-presentation-old","67","317076","0.0-19.0-1.1","SS1618435646381","trial","","40","500","3648.490000050515","images/stimuli/spore_stims/simple_19_A_a.gif","images/stimuli/spore_stims/simple_18_A_b.gif","self_paced","","5","simple_dissimilar","images/stimuli/spore_stims/simple_18_A_b.gif","","","","",""
"","null","html-keyboard-response","68","318244","0.0-19.0-0.2","SS1618435646381","","","null","","","","","","<p><img src= images/blank.png width =""600"" height = ""600"" style=""position:fixed;top:50%; left:50%; transform: translate(-50%, -50%); border:5px solid black"">","","","","","","","",""
"","3472.139999968931","sequential-stimulus-presentation-old","69","322226","0.0-19.0-1.2","SS1618435646381","trial","","40","500","3972.139999968931","images/stimuli/spore_stims/simple_19_A_a.gif","images/stimuli/spore_stims/simple_18_A_b.gif","self_paced","","5","simple_dissimilar","images/stimuli/spore_stims/simple_18_A_b.gif","","","","",""
"","null","html-keyboard-response","70","323064","0.0-19.0-0.3","SS1618435646381","","","null","","","","","","<p><img src= images/blank.png width =""600"" height = ""600"" style=""position:fixed;top:50%; left:50%; transform: translate(-50%, -50%); border:5px solid black"">","","","","","","","",""
"","4146.794999949634","sequential-stimulus-presentation-old","71","327717","0.0-19.0-1.3","SS1618435646381","trial","","40","500","4646.794999949634","images/stimuli/spore_stims/simple_19_A_a.gif","images/stimuli/spore_stims/simple_18_A_b.gif","self_paced","","5","simple_dissimilar","images/stimuli/spore_stims/simple_19_A_a.gif","","","","",""
"","null","html-keyboard-response","72","328997","0.0-19.0-0.4","SS1618435646381","","","null","","","","","","<p><img src= images/blank.png width =""600"" height = ""600"" style=""position:fixed;top:50%; left:50%; transform: translate(-50%, -50%); border:5px solid black"">","","","","","","","",""
"","5094.3750001024455","sequential-stimulus-presentation-old","73","334596","0.0-19.0-1.4","SS1618435646381","trial","","40","500","5594.3750001024455","images/stimuli/spore_stims/simple_19_A_a.gif","images/stimuli/spore_stims/simple_18_A_b.gif","self_paced","","5","simple_dissimilar","images/stimuli/spore_stims/simple_18_A_b.gif","","","","",""
"","null","html-keyboard-response","74","335829","0.0-19.0-0.5","SS1618435646381","","","null","","","","","","<p><img src= images/blank.png width =""600"" height = ""600"" style=""position:fixed;top:50%; left:50%; transform: translate(-50%, -50%); border:5px solid black"">","","","","","","","",""
"","4087.8250000532717","sequential-stimulus-presentation-old","75","340423","0.0-19.0-1.5","SS1618435646381","trial","","40","500","4587.825000053272","images/stimuli/spore_stims/simple_19_A_a.gif","images/stimuli/spore_stims/simple_18_A_b.gif","self_paced","","5","simple_dissimilar","images/stimuli/spore_stims/simple_18_A_b.gif","","","","",""
"","2965.990000171587","survey-multi-choice","76","343391","0.0-20.0","SS1618435646381","math_question","","","","","","","","","","","","{""Q0"":""8""}","[0]","8","",""
"","null","html-keyboard-response","77","344476","0.0-21.0-0.0","SS1618435646381","","","null","","","","","","<p><img src= images/blank.png width =""600"" height = ""600"" style=""position:fixed;top:50%; left:50%; transform: translate(-50%, -50%); border:5px solid black"">","","","","","","","",""
"","4541.604999918491","sequential-stimulus-presentation-old","78","354025","0.0-21.0-1.0","SS1618435646381","trial","","40","500","5041.604999918491","images/stimuli/spore_stims/complex_04_A_a.gif","images/stimuli/spore_stims/complex_03_A_b.gif","forced_long","","6","complex_dissimilar","images/stimuli/spore_stims/complex_03_A_b.gif","","","","",""
"","null","html-keyboard-response","79","355028","0.0-21.0-0.1","SS1618435646381","","","null","","","","","","<p><img src= images/blank.png width =""600"" height = ""600"" style=""position:fixed;top:50%; left:50%; transform: translate(-50%, -50%); border:5px solid black"">","","","","","","","",""
"","5174.619999947026","sequential-stimulus-presentation-old","80","360709","0.0-21.0-1.1","SS1618435646381","trial","","40","500","5674.619999947026","images/stimuli/spore_stims/complex_04_A_a.gif","images/stimuli/spore_stims/complex_03_A_b.gif","forced_long","","6","complex_dissimilar","images/stimuli/spore_stims/complex_04_A_a.gif","","","","",""
"","null","html-keyboard-response","81","361941","0.0-21.0-0.2","SS1618435646381","","","null","","","","","","<p><img src= images/blank.png width =""600"" height = ""600"" style=""position:fixed;top:50%; left:50%; transform: translate(-50%, -50%); border:5px solid black"">","","","","","","","",""
"","3344.9349999427795","sequential-stimulus-presentation-old","82","365790","0.0-21.0-1.2","SS1618435646381","trial","","40","500","3844.9349999427795","images/stimuli/spore_stims/complex_04_A_a.gif","images/stimuli/spore_stims/complex_03_A_b.gif","forced_long","","6","complex_dissimilar","images/stimuli/spore_stims/complex_03_A_b.gif","","","","",""
"","null","html-keyboard-response","83","366981","0.0-21.0-0.3","SS1618435646381","","","null","","","","","","<p><img src= images/blank.png width =""600"" height = ""600"" style=""position:fixed;top:50%; left:50%; transform: translate(-50%, -50%); border:5px solid black"">","","","","","","","",""
"","4025.489999912679","sequential-stimulus-presentation-old","84","371515","0.0-21.0-1.3","SS1618435646381","trial","","40","500","4525.489999912679","images/stimuli/spore_stims/complex_04_A_a.gif","images/stimuli/spore_stims/complex_03_A_b.gif","forced_long","","6","complex_dissimilar","images/stimuli/spore_stims/complex_03_A_b.gif","","","","",""
"","2819.499999983236","survey-multi-choice","85","374337","0.0-22.0","SS1618435646381","math_question","","","","","","","","","","","","{""Q0"":""11""}","[0]","11","",""
"","null","html-keyboard-response","86","375433","0.0-23.0-0.0","SS1618435646381","","","null","","","","","","<p><img src= images/blank.png width =""600"" height = ""600"" style=""position:fixed;top:50%; left:50%; transform: translate(-50%, -50%); border:5px solid black"">","","","","","","","",""
"","10081.140000140294","sequential-stimulus-presentation-old","87","385569","0.0-23.0-1.0","SS1618435646381","trial","","40","500","10581.140000140294","images/stimuli/spore_stims/simple_06_A_b.gif","images/stimuli/spore_stims/simple_11_A_a.gif","forced_short","","7","simple_dissimilar","images/stimuli/spore_stims/simple_11_A_a.gif","","","","",""
"","null","html-keyboard-response","88","386782","0.0-23.0-0.1","SS1618435646381","","","null","","","","","","<p><img src= images/blank.png width =""600"" height = ""600"" style=""position:fixed;top:50%; left:50%; transform: translate(-50%, -50%); border:5px solid black"">","","","","","","","",""
"","3249.9249998945743","sequential-stimulus-presentation-old","89","390538","0.0-23.0-1.1","SS1618435646381","trial","","40","500","3749.9249998945743","images/stimuli/spore_stims/simple_06_A_b.gif","images/stimuli/spore_stims/simple_11_A_a.gif","forced_short","","7","simple_dissimilar","images/stimuli/spore_stims/simple_11_A_a.gif","","","","",""
"","null","html-keyboard-response","90","391438","0.0-23.0-0.2","SS1618435646381","","","null","","","","","","<p><img src= images/blank.png width =""600"" height = ""600"" style=""position:fixed;top:50%; left:50%; transform: translate(-50%, -50%); border:5px solid black"">","","","","","","","",""
"","4039.8150000255555","sequential-stimulus-presentation-old","91","395983","0.0-23.0-1.2","SS1618435646381","trial","","40","500","4539.8150000255555","images/stimuli/spore_stims/simple_06_A_b.gif","images/stimuli/spore_stims/simple_11_A_a.gif","forced_short","","7","simple_dissimilar","images/stimuli/spore_stims/simple_11_A_a.gif","","","","",""
"","null","html-keyboard-response","92","397023","0.0-23.0-0.3","SS1618435646381","","","null","","","","","","<p><img src= images/blank.png width =""600"" height = ""600"" style=""position:fixed;top:50%; left:50%; transform: translate(-50%, -50%); border:5px solid black"">","","","","","","","",""
"","4555.759999901056","sequential-stimulus-presentation-old","93","402084","0.0-23.0-1.3","SS1618435646381","trial","","40","500","5055.759999901056","images/stimuli/spore_stims/simple_06_A_b.gif","images/stimuli/spore_stims/simple_11_A_a.gif","forced_short","","7","simple_dissimilar","images/stimuli/spore_stims/simple_06_A_b.gif","","","","",""
"","null","html-keyboard-response","94","403030","0.0-23.0-0.4","SS1618435646381","","","null","","","","","","<p><img src= images/blank.png width =""600"" height = ""600"" style=""position:fixed;top:50%; left:50%; transform: translate(-50%, -50%); border:5px solid black"">","","","","","","","",""
"","4171.245000092313","sequential-stimulus-presentation-old","95","407710","0.0-23.0-1.4","SS1618435646381","trial","","40","500","4671.245000092313","images/stimuli/spore_stims/simple_06_A_b.gif","images/stimuli/spore_stims/simple_11_A_a.gif","forced_short","","7","simple_dissimilar","images/stimuli/spore_stims/simple_06_A_b.gif","","","","",""
"","null","html-keyboard-response","96","408852","0.0-23.0-0.5","SS1618435646381","","","null","","","","","","<p><img src= images/blank.png width =""600"" height = ""600"" style=""position:fixed;top:50%; left:50%; transform: translate(-50%, -50%); border:5px solid black"">","","","","","","","",""
"","3558.2150002010167","sequential-stimulus-presentation-old","97","412917","0.0-23.0-1.5","SS1618435646381","trial","","40","500","4058.2150002010167","images/stimuli/spore_stims/simple_06_A_b.gif","images/stimuli/spore_stims/simple_11_A_a.gif","forced_short","","7","simple_dissimilar","images/stimuli/spore_stims/simple_11_A_a.gif","","","","",""
"","3053.4200000111014","survey-multi-choice","98","415973","0.0-24.0","SS1618435646381","math_question","","","","","","","","","","","","{""Q0"":""10""}","[0]","10","",""
"","null","html-keyboard-response","99","417259","0.0-25.0-0.0","SS1618435646381","","","null","","","","","","<p><img src= images/blank.png width =""600"" height = ""600"" style=""position:fixed;top:50%; left:50%; transform: translate(-50%, -50%); border:5px solid black"">","","","","","","","",""
"","3289.5649999845773","sequential-stimulus-presentation-old","100","420604","0.0-25.0-1.0","SS1618435646381","trial","","40","500","3789.5649999845773","images/stimuli/spore_stims/simple_06_A_a.gif","images/stimuli/spore_stims/simple_13_A_b.gif","forced_short","","8","simple_dissimilar","images/stimuli/spore_stims/simple_13_A_b.gif","","","","",""
"","null","html-keyboard-response","101","421659","0.0-25.0-0.1","SS1618435646381","","","null","","","","","","<p><img src= images/blank.png width =""600"" height = ""600"" style=""position:fixed;top:50%; left:50%; transform: translate(-50%, -50%); border:5px solid black"">","","","","","","","",""
"","5508.099999977276","sequential-stimulus-presentation-old","102","427675","0.0-25.0-1.1","SS1618435646381","trial","","40","500","6008.099999977276","images/stimuli/spore_stims/simple_06_A_a.gif","images/stimuli/spore_stims/simple_13_A_b.gif","forced_short","","8","simple_dissimilar","images/stimuli/spore_stims/simple_13_A_b.gif","","","","",""
"","null","html-keyboard-response","103","428758","0.0-25.0-0.2","SS1618435646381","","","null","","","","","","<p><img src= images/blank.png width =""600"" height = ""600"" style=""position:fixed;top:50%; left:50%; transform: translate(-50%, -50%); border:5px solid black"">","","","","","","","",""
"","3025.8849998936057","sequential-stimulus-presentation-old","104","432292","0.0-25.0-1.2","SS1618435646381","trial","","40","500","3525.8849998936057","images/stimuli/spore_stims/simple_06_A_a.gif","images/stimuli/spore_stims/simple_13_A_b.gif","forced_short","","8","simple_dissimilar","images/stimuli/spore_stims/simple_13_A_b.gif","","","","",""
"","null","html-keyboard-response","105","433385","0.0-25.0-0.3","SS1618435646381","","","null","","","","","","<p><img src= images/blank.png width =""600"" height = ""600"" style=""position:fixed;top:50%; left:50%; transform: translate(-50%, -50%); border:5px solid black"">","","","","","","","",""
"","3014.7300001699477","sequential-stimulus-presentation-old","106","436909","0.0-25.0-1.3","SS1618435646381","trial","","40","500","3514.7300001699477","images/stimuli/spore_stims/simple_06_A_a.gif","images/stimuli/spore_stims/simple_13_A_b.gif","forced_short","","8","simple_dissimilar","images/stimuli/spore_stims/simple_06_A_a.gif","","","","",""
"","null","html-keyboard-response","107","438145","0.0-25.0-0.4","SS1618435646381","","","null","","","","","","<p><img src= images/blank.png width =""600"" height = ""600"" style=""position:fixed;top:50%; left:50%; transform: translate(-50%, -50%); border:5px solid black"">","","","","","","","",""
"","2933.7750000413507","sequential-stimulus-presentation-old","108","441585","0.0-25.0-1.4","SS1618435646381","trial","","40","500","3433.7750000413507","images/stimuli/spore_stims/simple_06_A_a.gif","images/stimuli/spore_stims/simple_13_A_b.gif","forced_short","","8","simple_dissimilar","images/stimuli/spore_stims/simple_06_A_a.gif","","","","",""
"","3780.174999963492","survey-multi-choice","109","445368","0.0-26.0","SS1618435646381","math_question","","","","","","","","","","","","{""Q0"":""10""}","[0]","10","",""
"","null","html-keyboard-response","110","446500","0.0-27.0-0.0","SS1618435646381","","","null","","","","","","<p><img src= images/blank.png width =""600"" height = ""600"" style=""position:fixed;top:50%; left:50%; transform: translate(-50%, -50%); border:5px solid black"">","","","","","","","",""
"","1721.3999999221414","sequential-stimulus-presentation-old","111","453230","0.0-27.0-1.0","SS1618435646381","trial","","40","500","2221.3999999221414","images/stimuli/spore_stims/complex_15_A_a.gif","images/stimuli/spore_stims/complex_19_A_b.gif","forced_long","","9","complex_dissimilar","images/stimuli/spore_stims/complex_19_A_b.gif","","","","",""
"","null","html-keyboard-response","112","454127","0.0-27.0-0.1","SS1618435646381","","","null","","","","","","<p><img src= images/blank.png width =""600"" height = ""600"" style=""position:fixed;top:50%; left:50%; transform: translate(-50%, -50%); border:5px solid black"">","","","","","","","",""
"","3396.0549999028444","sequential-stimulus-presentation-old","113","458028","0.0-27.0-1.1","SS1618435646381","trial","","40","500","3896.0549999028444","images/stimuli/spore_stims/complex_15_A_a.gif","images/stimuli/spore_stims/complex_19_A_b.gif","forced_long","","9","complex_dissimilar","images/stimuli/spore_stims/complex_15_A_a.gif","","","","",""
"","null","html-keyboard-response","114","459030","0.0-27.0-0.2","SS1618435646381","","","null","","","","","","<p><img src= images/blank.png width =""600"" height = ""600"" style=""position:fixed;top:50%; left:50%; transform: translate(-50%, -50%); border:5px solid black"">","","","","","","","",""
"","2875.1049998681992","sequential-stimulus-presentation-old","115","462410","0.0-27.0-1.2","SS1618435646381","trial","","40","500","3375.1049998681992","images/stimuli/spore_stims/complex_15_A_a.gif","images/stimuli/spore_stims/complex_19_A_b.gif","forced_long","","9","complex_dissimilar","images/stimuli/spore_stims/complex_19_A_b.gif","","","","",""
"","null","html-keyboard-response","116","463428","0.0-27.0-0.3","SS1618435646381","","","null","","","","","","<p><img src= images/blank.png width =""600"" height = ""600"" style=""position:fixed;top:50%; left:50%; transform: translate(-50%, -50%); border:5px solid black"">","","","","","","","",""
"","2946.1900000460446","sequential-stimulus-presentation-old","117","466880","0.0-27.0-1.3","SS1618435646381","trial","","40","500","3446.1900000460446","images/stimuli/spore_stims/complex_15_A_a.gif","images/stimuli/spore_stims/complex_19_A_b.gif","forced_long","","9","complex_dissimilar","images/stimuli/spore_stims/complex_19_A_b.gif","","","","",""
"","3168.2450000662357","survey-multi-choice","118","470053","0.0-28.0","SS1618435646381","math_question","","","","","","","","","","","","{""Q0"":""11""}","[0]","11","",""
"","null","html-keyboard-response","119","471146","0.0-29.0-0.0","SS1618435646381","","","null","","","","","","<p><img src= images/blank.png width =""600"" height = ""600"" style=""position:fixed;top:50%; left:50%; transform: translate(-50%, -50%); border:5px solid black"">","","","","","","","",""
"","5599.110000068322","sequential-stimulus-presentation-old","120","477249","0.0-29.0-1.0","SS1618435646381","trial","","40","500","6099.110000068322","images/stimuli/spore_stims/complex_17_A_a.gif","images/stimuli/spore_stims/complex_12_A_b.gif","self_paced","","10","complex_dissimilar","images/stimuli/spore_stims/complex_12_A_b.gif","","","","",""
"","null","html-keyboard-response","121","478153","0.0-29.0-0.1","SS1618435646381","","","null","","","","","","<p><img src= images/blank.png width =""600"" height = ""600"" style=""position:fixed;top:50%; left:50%; transform: translate(-50%, -50%); border:5px solid black"">","","","","","","","",""
"","2603.3149999566376","sequential-stimulus-presentation-old","122","481261","0.0-29.0-1.1","SS1618435646381","trial","","40","500","3103.3149999566376","images/stimuli/spore_stims/complex_17_A_a.gif","images/stimuli/spore_stims/complex_12_A_b.gif","self_paced","","10","complex_dissimilar","images/stimuli/spore_stims/complex_12_A_b.gif","","","","",""
"","null","html-keyboard-response","123","482113","0.0-29.0-0.2","SS1618435646381","","","null","","","","","","<p><img src= images/blank.png width =""600"" height = ""600"" style=""position:fixed;top:50%; left:50%; transform: translate(-50%, -50%); border:5px solid black"">","","","","","","","",""
"","2293.1949999183416","sequential-stimulus-presentation-old","124","484915","0.0-29.0-1.2","SS1618435646381","trial","","40","500","2793.1949999183416","images/stimuli/spore_stims/complex_17_A_a.gif","images/stimuli/spore_stims/complex_12_A_b.gif","self_paced","","10","complex_dissimilar","images/stimuli/spore_stims/complex_12_A_b.gif","","","","",""
"","null","html-keyboard-response","125","486073","0.0-29.0-0.3","SS1618435646381","","","null","","","","","","<p><img src= images/blank.png width =""600"" height = ""600"" style=""position:fixed;top:50%; left:50%; transform: translate(-50%, -50%); border:5px solid black"">","","","","","","","",""
"","3557.7850001864135","sequential-stimulus-presentation-old","126","490136","0.0-29.0-1.3","SS1618435646381","trial","","40","500","4057.7850001864135","images/stimuli/spore_stims/complex_17_A_a.gif","images/stimuli/spore_stims/complex_12_A_b.gif","self_paced","","10","complex_dissimilar","images/stimuli/spore_stims/complex_12_A_b.gif","","","","",""
"","null","html-keyboard-response","127","491109","0.0-29.0-0.4","SS1618435646381","","","null","","","","","","<p><img src= images/blank.png width =""600"" height = ""600"" style=""position:fixed;top:50%; left:50%; transform: translate(-50%, -50%); border:5px solid black"">","","","","","","","",""
"","4180.799999972805","sequential-stimulus-presentation-old","128","495796","0.0-29.0-1.4","SS1618435646381","trial","","40","500","4680.799999972805","images/stimuli/spore_stims/complex_17_A_a.gif","images/stimuli/spore_stims/complex_12_A_b.gif","self_paced","","10","complex_dissimilar","images/stimuli/spore_stims/complex_17_A_a.gif","","","","",""
"","null","html-keyboard-response","129","496806","0.0-29.0-0.5","SS1618435646381","","","null","","","","","","<p><img src= images/blank.png width =""600"" height = ""600"" style=""position:fixed;top:50%; left:50%; transform: translate(-50%, -50%); border:5px solid black"">","","","","","","","",""
"","1609.8400000482798","sequential-stimulus-presentation-old","130","498924","0.0-29.0-1.5","SS1618435646381","trial","","40","500","2109.8400000482798","images/stimuli/spore_stims/complex_17_A_a.gif","images/stimuli/spore_stims/complex_12_A_b.gif","self_paced","","10","complex_dissimilar","images/stimuli/spore_stims/complex_12_A_b.gif","","","","",""
"","2783.940000226721","survey-multi-choice","131","501711","0.0-30.0","SS1618435646381","math_question","","","","","","","","","","","","{""Q0"":""8""}","[0]","8","",""
"","null","html-keyboard-response","132","502989","0.0-31.0-0.0","SS1618435646381","","","null","","","","","","<p><img src= images/blank.png width =""600"" height = ""600"" style=""position:fixed;top:50%; left:50%; transform: translate(-50%, -50%); border:5px solid black"">","","","","","","","",""
"","1090.6299999915063","sequential-stimulus-presentation-old","133","504135","0.0-31.0-1.0","SS1618435646381","trial","","40","500","1590.6299999915063","images/stimuli/spore_stims/complex_17_A_b.gif","images/stimuli/spore_stims/complex_18_A_a.gif","forced_short","","11","complex_dissimilar","images/stimuli/spore_stims/complex_18_A_a.gif","","","","",""
"","null","html-keyboard-response","134","504969","0.0-31.0-0.1","SS1618435646381","","","null","","","","","","<p><img src= images/blank.png width =""600"" height = ""600"" style=""position:fixed;top:50%; left:50%; transform: translate(-50%, -50%); border:5px solid black"">","","","","","","","",""
"","4416.040000040084","sequential-stimulus-presentation-old","135","509891","0.0-31.0-1.1","SS1618435646381","trial","","40","500","4916.040000040084","images/stimuli/spore_stims/complex_17_A_b.gif","images/stimuli/spore_stims/complex_18_A_a.gif","forced_short","","11","complex_dissimilar","images/stimuli/spore_stims/complex_17_A_b.gif","","","","",""
"","null","html-keyboard-response","136","511139","0.0-31.0-0.2","SS1618435646381","","","null","","","","","","<p><img src= images/blank.png width =""600"" height = ""600"" style=""position:fixed;top:50%; left:50%; transform: translate(-50%, -50%); border:5px solid black"">","","","","","","","",""
"","4501.869999803603","sequential-stimulus-presentation-old","137","516148","0.0-31.0-1.2","SS1618435646381","trial","","40","500","5001.869999803603","images/stimuli/spore_stims/complex_17_A_b.gif","images/stimuli/spore_stims/complex_18_A_a.gif","forced_short","","11","complex_dissimilar","images/stimuli/spore_stims/complex_17_A_b.gif","","","","",""
"","null","html-keyboard-response","138","517309","0.0-31.0-0.3","SS1618435646381","","","null","","","","","","<p><img src= images/blank.png width =""600"" height = ""600"" style=""position:fixed;top:50%; left:50%; transform: translate(-50%, -50%); border:5px solid black"">","","","","","","","",""
"","5591.795000014827","sequential-stimulus-presentation-old","139","523409","0.0-31.0-1.3","SS1618435646381","trial","","40","500","6091.795000014827","images/stimuli/spore_stims/complex_17_A_b.gif","images/stimuli/spore_stims/complex_18_A_a.gif","forced_short","","11","complex_dissimilar","images/stimuli/spore_stims/complex_18_A_a.gif","","","","",""
"","null","html-keyboard-response","140","524494","0.0-31.0-0.4","SS1618435646381","","","null","","","","","","<p><img src= images/blank.png width =""600"" height = ""600"" style=""position:fixed;top:50%; left:50%; transform: translate(-50%, -50%); border:5px solid black"">","","","","","","","",""
"","3960.4299999773502","sequential-stimulus-presentation-old","141","528965","0.0-31.0-1.4","SS1618435646381","trial","","40","500","4460.42999997735","images/stimuli/spore_stims/complex_17_A_b.gif","images/stimuli/spore_stims/complex_18_A_a.gif","forced_short","","11","complex_dissimilar","images/stimuli/spore_stims/complex_18_A_a.gif","","","","",""
"","null","html-keyboard-response","142","530120","0.0-31.0-0.5","SS1618435646381","","","null","","","","","","<p><img src= images/blank.png width =""600"" height = ""600"" style=""position:fixed;top:50%; left:50%; transform: translate(-50%, -50%); border:5px solid black"">","","","","","","","",""
"","3521.154999965802","sequential-stimulus-presentation-old","143","534147","0.0-31.0-1.5","SS1618435646381","trial","","40","500","4021.154999965802","images/stimuli/spore_stims/complex_17_A_b.gif","images/stimuli/spore_stims/complex_18_A_a.gif","forced_short","","11","complex_dissimilar","images/stimuli/spore_stims/complex_18_A_a.gif","","","","",""
"[{""page_index"":0,""viewing_time"":5518.875000067055}]","5519.235000014305","instructions","144","539669","0.0-32.0","SS1618435646381","instructions","","","","","","","","","","","","","","","",""
"","13524.375000037253","survey-likert","145","553201","0.0-33.0","SS1618435646381","similarity_question","","","","","","","","","","","","{""Q0"":2}","[0]","","images/stimuli/spore_stims/complex_19_A_a.gif","images/stimuli/spore_stims/complex_16_A_b.gif"
"","10250.42499997653","survey-likert","146","563484","0.0-34.0","SS1618435646381","similarity_question","","","","","","","","","","","","{""Q0"":1}","[0]","","images/stimuli/spore_stims/complex_07_A_a.gif","images/stimuli/spore_stims/complex_02_A_b.gif"
"","9725.659999996424","survey-likert","147","573218","0.0-35.0","SS1618435646381","similarity_question","","","","","","","","","","","","{""Q0"":4}","[0]","","images/stimuli/spore_stims/complex_18_A_a.gif","images/stimuli/spore_stims/complex_17_A_b.gif"
"","6724.764999933541","survey-likert","148","579951","0.0-36.0","SS1618435646381","similarity_question","","","","","","","","","","","","{""Q0"":4}","[0]","","images/stimuli/spore_stims/simple_18_A_b.gif","images/stimuli/spore_stims/simple_19_A_a.gif"
"","5981.145000085235","survey-likert","149","585940","0.0-37.0","SS1618435646381","similarity_question","","","","","","","","","","","","{""Q0"":4}","[0]","","images/stimuli/spore_stims/simple_02_A_a.gif","images/stimuli/spore_stims/simple_04_A_b.gif"
"","8204.025000100955","survey-likert","150","594152","0.0-38.0","SS1618435646381","similarity_question","","","","","","","","","","","","{""Q0"":4}","[0]","","images/stimuli/spore_stims/simple_07_A_b.gif","images/stimuli/spore_stims/simple_08_A_a.gif"
"","6328.854999970645","survey-likert","151","600490","0.0-39.0","SS1618435646381","similarity_question","","","","","","","","","","","","{""Q0"":2}","[0]","","images/stimuli/spore_stims/complex_03_A_b.gif","images/stimuli/spore_stims/complex_04_A_a.gif"
"","7944.600000046194","survey-likert","152","608453","0.0-40.0","SS1618435646381","similarity_question","","","","","","","","","","","","{""Q0"":1}","[0]","","images/stimuli/spore_stims/complex_17_A_a.gif","images/stimuli/spore_stims/complex_12_A_b.gif"
"","4217.134999809787","survey-likert","153","612696","0.0-41.0","SS1618435646381","similarity_question","","","","","","","","","","","","{""Q0"":4}","[0]","","images/stimuli/spore_stims/simple_11_A_a.gif","images/stimuli/spore_stims/simple_06_A_b.gif"
"","3850.6000000052154","survey-likert","154","616579","0.0-42.0","SS1618435646381","similarity_question","","","","","","","","","","","","{""Q0"":4}","[0]","","images/stimuli/spore_stims/simple_16_A_a.gif","images/stimuli/spore_stims/simple_01_A_b.gif"
"","4848.570000147447","survey-likert","155","621443","0.0-43.0","SS1618435646381","similarity_question","","","","","","","","","","","","{""Q0"":5}","[0]","","images/stimuli/spore_stims/simple_13_A_b.gif","images/stimuli/spore_stims/simple_06_A_a.gif"
"","7235.635000048205","survey-likert","156","628686","0.0-44.0","SS1618435646381","similarity_question","","","","","","","","","","","","{""Q0"":4}","[0]","","images/stimuli/spore_stims/complex_15_A_a.gif","images/stimuli/spore_stims/complex_19_A_b.gif"
"[{""page_index"":0,""viewing_time"":6510.98999986425}]","6511.354999849573","instructions","157","635204","0.0-45.0","SS1618435646381","instructions","","","","","","","","","","","","","","","",""
"","8378.114999970421","survey-likert","158","643587","0.0-46.0","SS1618435646381","","","","","","","","","images/stimuli/spore_stims/complex_19_A_b.gif","","","","{""Q0"":5}","[0]","","",""
"","5256.760000018403","survey-likert","159","648851","0.0-47.0","SS1618435646381","","","","","","","","","images/stimuli/spore_stims/complex_17_A_b.gif","","","","{""Q0"":4}","[0]","","",""
"","3671.8250000849366","survey-likert","160","652531","0.0-48.0","SS1618435646381","","","","","","","","","images/stimuli/spore_stims/complex_04_A_a.gif","","","","{""Q0"":4}","[0]","","",""
"","6631.52000005357","survey-likert","161","659170","0.0-49.0","SS1618435646381","","","","","","","","","images/stimuli/spore_stims/simple_06_A_b.gif","","","","{""Q0"":1}","[0]","","",""
"","4258.910000091419","survey-likert","162","663436","0.0-50.0","SS1618435646381","","","","","","","","","images/stimuli/spore_stims/simple_07_A_b.gif","","","","{""Q0"":1}","[0]","","",""
"","4374.149999814108","survey-likert","163","667820","0.0-51.0","SS1618435646381","","","","","","","","","images/stimuli/spore_stims/simple_13_A_b.gif","","","","{""Q0"":1}","[0]","","",""
"","4679.839999880642","survey-likert","164","672507","0.0-52.0","SS1618435646381","","","","","","","","","images/stimuli/spore_stims/simple_19_A_a.gif","","","","{""Q0"":2}","[0]","","",""
"","3101.8099999055266","survey-likert","165","675616","0.0-53.0","SS1618435646381","","","","","","","","","images/stimuli/spore_stims/complex_12_A_b.gif","","","","{""Q0"":5}","[0]","","",""
"","4354.285000124946","survey-likert","166","679978","0.0-54.0","SS1618435646381","","","","","","","","","images/stimuli/spore_stims/complex_16_A_b.gif","","","","{""Q0"":5}","[0]","","",""
"","3072.809999808669","survey-likert","167","683059","0.0-55.0","SS1618435646381","","","","","","","","","images/stimuli/spore_stims/complex_07_A_a.gif","","","","{""Q0"":5}","[0]","","",""
"","4334.825000027195","survey-likert","168","687402","0.0-56.0","SS1618435646381","","","","","","","","","images/stimuli/spore_stims/simple_02_A_a.gif","","","","{""Q0"":1}","[0]","","",""
"","3544.4600000046194","survey-likert","169","690956","0.0-57.0","SS1618435646381","","","","","","","","","images/stimuli/spore_stims/simple_01_A_b.gif","","","","{""Q0"":1}","[0]","","",""
"[{""page_index"":0,""viewing_time"":2499.070000136271}]","2499.4350001215935","instructions","170","693463","0.0-58.0","SS1618435646381","instructions","","","","","","","","","","","","","","","",""
"","4105.985000031069","demog-age","171","697575","0.0-59.0","SS1618435646381","","","","","","","","","","","","","{""age"":""29""}","","","",""
"","6738.700000103563","demog-ethnic-US","172","704320","0.0-60.0","SS1618435646381","","","","","","","","","","","","","{""ethnicity"":[""White""]}","[0]","","",""
"","5834.585000062361","demog-gender-and-education","173","710162","0.0-61.0","SS1618435646381","","","","","","","","","","","","","{""gender"":""Male"",""education"":""Bachelor's Degree""}","[0,1]","","",""
"","112166.10000003129","survey-text","174","822341","0.0-62.0","SS1618435646381","feedback","","","","","","","","","","","","{""Q0"":""It sort of reminded me of a mushroom trip. Being able to switch between looking at different things when I got bored of 'em. And the annoying math questions similar to annoying disturbances by people.""}","","","",""
"[{""page_index"":0,""viewing_time"":3623.975000111386}]","3624.3199999444187","instructions","175","825969","0.0-63.0","SS1618435646381","instructions","","","","","","","","","","","","","","","",""
