"view_history","rt","trial_type","trial_index","time_elapsed","internal_node_id","subject","stimulus_type","trial_stimulus","key_press","minimum_viewing_duration","trial_looking_time","block_deviant","block_background","exposure_type","stimulus","block_number","block_type","stimulus_displayed","responses","question_order","math_correct_answer","stimulus_left","stimulus_right"
"[{""page_index"":0,""viewing_time"":2581.9099999498576}]","2582.2799999732524","instructions","0","2591","0.0-0.0","SS1618365676957","","","","","","","","","","","","","","","","",""
"[{""page_index"":0,""viewing_time"":185833.06500001345},{""page_index"":1,""viewing_time"":179551.61500000395}]","365384.9599999958","instructions","1","370068","0.0-1.0","SS1618365676957","instructions","","","","","","","","","","","","","","","",""
"","2376.7749999533407","sequential-stimulus-presentation-old","2","372951","0.0-2.0","SS1618365676957","","","40","500","2876.7749999533407","null","null","self_paced","","","","","","","","",""
"","1289.3899999908172","sequential-stimulus-presentation-old","3","374742","0.0-3.0","SS1618365676957","","","40","500","1789.3899999908172","null","null","self_paced","","","","","","","","",""
"[{""page_index"":0,""viewing_time"":11190.12499996461}]","11190.469999972265","instructions","4","385933","0.0-4.0","SS1618365676957","instructions","","","","","","","","","","","","","","","",""
"","748.154999979306","sequential-stimulus-presentation-old","5","391686","0.0-5.0","SS1618365676957","","","40","500","1248.154999979306","null","null","forced_long","","","","","","","","",""
"","3338.469999958761","sequential-stimulus-presentation-old","6","395081","0.0-6.0","SS1618365676957","","","40","50","3388.469999958761","null","null","forced_long","","","","","","","","",""
"[{""page_index"":0,""viewing_time"":1594.9999999720603}]","1595.229999977164","instructions","7","396677","0.0-7.0","SS1618365676957","instructions","","","","","","","","","","","","","","","",""
"[{""page_index"":0,""viewing_time"":3718.975000025239},{""page_index"":1,""viewing_time"":1309.4200000050478},{""page_index"":2,""viewing_time"":1010.7549999956973},{""page_index"":3,""viewing_time"":1390.1399999740534},{""page_index"":4,""viewing_time"":849.0850000525825}]","8278.585000021849","instructions","8","404957","0.0-8.0","SS1618365676957","instructions","","","","","","","","","","","","","","","",""
"","null","html-keyboard-response","9","405811","0.0-9.0-0.0","SS1618365676957","","","null","","","","","","<p><img src= images/blank.png width =""600"" height = ""600"" style=""position:fixed;top:50%; left:50%; transform: translate(-50%, -50%); border:5px solid black"">","","","","","","","",""
"","563.7749999877997","sequential-stimulus-presentation-old","10","411383","0.0-9.0-1.0","SS1618365676957","trial","","40","500","1063.7749999877997","images/stimuli/spore_stims/complex_17_A_b.gif","images/stimuli/spore_stims/complex_12_A_a.gif","forced_long","","0","complex_dissimilar","images/stimuli/spore_stims/complex_12_A_a.gif","","","","",""
"","null","html-keyboard-response","11","412565","0.0-9.0-0.1","SS1618365676957","","","null","","","","","","<p><img src= images/blank.png width =""600"" height = ""600"" style=""position:fixed;top:50%; left:50%; transform: translate(-50%, -50%); border:5px solid black"">","","","","","","","",""
"","15747.82500002766","sequential-stimulus-presentation-old","12","428882","0.0-9.0-1.1","SS1618365676957","trial","","40","500","16247.82500002766","images/stimuli/spore_stims/complex_17_A_b.gif","images/stimuli/spore_stims/complex_12_A_a.gif","forced_long","","0","complex_dissimilar","images/stimuli/spore_stims/complex_17_A_b.gif","","","","",""
"","null","html-keyboard-response","13","430000","0.0-9.0-0.2","SS1618365676957","","","null","","","","","","<p><img src= images/blank.png width =""600"" height = ""600"" style=""position:fixed;top:50%; left:50%; transform: translate(-50%, -50%); border:5px solid black"">","","","","","","","",""
"","4976.719999976922","sequential-stimulus-presentation-old","14","435482","0.0-9.0-1.2","SS1618365676957","trial","","40","500","5476.719999976922","images/stimuli/spore_stims/complex_17_A_b.gif","images/stimuli/spore_stims/complex_12_A_a.gif","forced_long","","0","complex_dissimilar","images/stimuli/spore_stims/complex_17_A_b.gif","","","","",""
"","null","html-keyboard-response","15","436493","0.0-9.0-0.3","SS1618365676957","","","null","","","","","","<p><img src= images/blank.png width =""600"" height = ""600"" style=""position:fixed;top:50%; left:50%; transform: translate(-50%, -50%); border:5px solid black"">","","","","","","","",""
"","5820.754999993369","sequential-stimulus-presentation-old","16","442821","0.0-9.0-1.3","SS1618365676957","trial","","40","500","6320.754999993369","images/stimuli/spore_stims/complex_17_A_b.gif","images/stimuli/spore_stims/complex_12_A_a.gif","forced_long","","0","complex_dissimilar","images/stimuli/spore_stims/complex_12_A_a.gif","","","","",""
"","2762.140000006184","survey-multi-choice","17","445587","0.0-10.0","SS1618365676957","math_question","","","","","","","","","","","","{""Q0"":""11""}","[0]","11","",""
"","null","html-keyboard-response","18","446872","0.0-11.0-0.0","SS1618365676957","","","null","","","","","","<p><img src= images/blank.png width =""600"" height = ""600"" style=""position:fixed;top:50%; left:50%; transform: translate(-50%, -50%); border:5px solid black"">","","","","","","","",""
"","1490.4349999851547","sequential-stimulus-presentation-old","19","448422","0.0-11.0-1.0","SS1618365676957","trial","","40","500","1990.4349999851547","images/stimuli/spore_stims/complex_01_A_b.gif","images/stimuli/spore_stims/complex_06_A_a.gif","forced_short","","1","complex_dissimilar","images/stimuli/spore_stims/complex_06_A_a.gif","","","","",""
"","null","html-keyboard-response","20","449519","0.0-11.0-0.1","SS1618365676957","","","null","","","","","","<p><img src= images/blank.png width =""600"" height = ""600"" style=""position:fixed;top:50%; left:50%; transform: translate(-50%, -50%); border:5px solid black"">","","","","","","","",""
"","1392.8650000016205","sequential-stimulus-presentation-old","21","451415","0.0-11.0-1.1","SS1618365676957","trial","","40","500","1892.8650000016205","images/stimuli/spore_stims/complex_01_A_b.gif","images/stimuli/spore_stims/complex_06_A_a.gif","forced_short","","1","complex_dissimilar","images/stimuli/spore_stims/complex_06_A_a.gif","","","","",""
"","null","html-keyboard-response","22","452298","0.0-11.0-0.2","SS1618365676957","","","null","","","","","","<p><img src= images/blank.png width =""600"" height = ""600"" style=""position:fixed;top:50%; left:50%; transform: translate(-50%, -50%); border:5px solid black"">","","","","","","","",""
"","1396.7650000122376","sequential-stimulus-presentation-old","23","454197","0.0-11.0-1.2","SS1618365676957","trial","","40","500","1896.7650000122376","images/stimuli/spore_stims/complex_01_A_b.gif","images/stimuli/spore_stims/complex_06_A_a.gif","forced_short","","1","complex_dissimilar","images/stimuli/spore_stims/complex_01_A_b.gif","","","","",""
"","null","html-keyboard-response","24","455110","0.0-11.0-0.3","SS1618365676957","","","null","","","","","","<p><img src= images/blank.png width =""600"" height = ""600"" style=""position:fixed;top:50%; left:50%; transform: translate(-50%, -50%); border:5px solid black"">","","","","","","","",""
"","1419.9350000126287","sequential-stimulus-presentation-old","25","457032","0.0-11.0-1.3","SS1618365676957","trial","","40","500","1919.9350000126287","images/stimuli/spore_stims/complex_01_A_b.gif","images/stimuli/spore_stims/complex_06_A_a.gif","forced_short","","1","complex_dissimilar","images/stimuli/spore_stims/complex_01_A_b.gif","","","","",""
"","4150.875000050291","survey-multi-choice","26","461185","0.0-12.0","SS1618365676957","math_question","","","","","","","","","","","","{""Q0"":""11""}","[0]","11","",""
"","null","html-keyboard-response","27","462239","0.0-13.0-0.0","SS1618365676957","","","null","","","","","","<p><img src= images/blank.png width =""600"" height = ""600"" style=""position:fixed;top:50%; left:50%; transform: translate(-50%, -50%); border:5px solid black"">","","","","","","","",""
"","1503.5749999806285","sequential-stimulus-presentation-old","28","464246","0.0-13.0-1.0","SS1618365676957","trial","","40","500","2003.5749999806285","images/stimuli/spore_stims/complex_13_A_a.gif","images/stimuli/spore_stims/complex_19_A_b.gif","self_paced","","2","complex_dissimilar","images/stimuli/spore_stims/complex_19_A_b.gif","","","","",""
"","null","html-keyboard-response","29","465525","0.0-13.0-0.1","SS1618365676957","","","null","","","","","","<p><img src= images/blank.png width =""600"" height = ""600"" style=""position:fixed;top:50%; left:50%; transform: translate(-50%, -50%); border:5px solid black"">","","","","","","","",""
"","1501.8399999826215","sequential-stimulus-presentation-old","30","467530","0.0-13.0-1.1","SS1618365676957","trial","","40","500","2001.8399999826215","images/stimuli/spore_stims/complex_13_A_a.gif","images/stimuli/spore_stims/complex_19_A_b.gif","self_paced","","2","complex_dissimilar","images/stimuli/spore_stims/complex_19_A_b.gif","","","","",""
"","null","html-keyboard-response","31","468832","0.0-13.0-0.2","SS1618365676957","","","null","","","","","","<p><img src= images/blank.png width =""600"" height = ""600"" style=""position:fixed;top:50%; left:50%; transform: translate(-50%, -50%); border:5px solid black"">","","","","","","","",""
"","1480.5599999963306","sequential-stimulus-presentation-old","32","470816","0.0-13.0-1.2","SS1618365676957","trial","","40","500","1980.5599999963306","images/stimuli/spore_stims/complex_13_A_a.gif","images/stimuli/spore_stims/complex_19_A_b.gif","self_paced","","2","complex_dissimilar","images/stimuli/spore_stims/complex_19_A_b.gif","","","","",""
"","null","html-keyboard-response","33","472040","0.0-13.0-0.3","SS1618365676957","","","null","","","","","","<p><img src= images/blank.png width =""600"" height = ""600"" style=""position:fixed;top:50%; left:50%; transform: translate(-50%, -50%); border:5px solid black"">","","","","","","","",""
"","1803.3000000286847","sequential-stimulus-presentation-old","34","474348","0.0-13.0-1.3","SS1618365676957","trial","","40","500","2303.3000000286847","images/stimuli/spore_stims/complex_13_A_a.gif","images/stimuli/spore_stims/complex_19_A_b.gif","self_paced","","2","complex_dissimilar","images/stimuli/spore_stims/complex_19_A_b.gif","","","","",""
"","null","html-keyboard-response","35","475475","0.0-13.0-0.4","SS1618365676957","","","null","","","","","","<p><img src= images/blank.png width =""600"" height = ""600"" style=""position:fixed;top:50%; left:50%; transform: translate(-50%, -50%); border:5px solid black"">","","","","","","","",""
"","1679.2750000022352","sequential-stimulus-presentation-old","36","477658","0.0-13.0-1.4","SS1618365676957","trial","","40","500","2179.275000002235","images/stimuli/spore_stims/complex_13_A_a.gif","images/stimuli/spore_stims/complex_19_A_b.gif","self_paced","","2","complex_dissimilar","images/stimuli/spore_stims/complex_19_A_b.gif","","","","",""
"","null","html-keyboard-response","37","478697","0.0-13.0-0.5","SS1618365676957","","","null","","","","","","<p><img src= images/blank.png width =""600"" height = ""600"" style=""position:fixed;top:50%; left:50%; transform: translate(-50%, -50%); border:5px solid black"">","","","","","","","",""
"","3820.6450000288896","sequential-stimulus-presentation-old","38","483022","0.0-13.0-1.5","SS1618365676957","trial","","40","500","4320.64500002889","images/stimuli/spore_stims/complex_13_A_a.gif","images/stimuli/spore_stims/complex_19_A_b.gif","self_paced","","2","complex_dissimilar","images/stimuli/spore_stims/complex_13_A_a.gif","","","","",""
"","2435.544999956619","survey-multi-choice","39","485459","0.0-14.0","SS1618365676957","math_question","","","","","","","","","","","","{""Q0"":""7""}","[0]","7","",""
"","null","html-keyboard-response","40","486406","0.0-15.0-0.0","SS1618365676957","","","null","","","","","","<p><img src= images/blank.png width =""600"" height = ""600"" style=""position:fixed;top:50%; left:50%; transform: translate(-50%, -50%); border:5px solid black"">","","","","","","","",""
"","3279.6349999844097","sequential-stimulus-presentation-old","41","489738","0.0-15.0-1.0","SS1618365676957","trial","","40","500","3779.6349999844097","images/stimuli/spore_stims/simple_16_A_a.gif","images/stimuli/spore_stims/simple_17_A_b.gif","forced_short","","3","simple_dissimilar","images/stimuli/spore_stims/simple_17_A_b.gif","","","","",""
"","null","html-keyboard-response","42","490835","0.0-15.0-0.1","SS1618365676957","","","null","","","","","","<p><img src= images/blank.png width =""600"" height = ""600"" style=""position:fixed;top:50%; left:50%; transform: translate(-50%, -50%); border:5px solid black"">","","","","","","","",""
"","3899.939999973867","sequential-stimulus-presentation-old","43","495240","0.0-15.0-1.1","SS1618365676957","trial","","40","500","4399.939999973867","images/stimuli/spore_stims/simple_16_A_a.gif","images/stimuli/spore_stims/simple_17_A_b.gif","forced_short","","3","simple_dissimilar","images/stimuli/spore_stims/simple_17_A_b.gif","","","","",""
"","null","html-keyboard-response","44","496141","0.0-15.0-0.2","SS1618365676957","","","null","","","","","","<p><img src= images/blank.png width =""600"" height = ""600"" style=""position:fixed;top:50%; left:50%; transform: translate(-50%, -50%); border:5px solid black"">","","","","","","","",""
"","833.8999999687076","sequential-stimulus-presentation-old","45","497478","0.0-15.0-1.2","SS1618365676957","trial","","40","500","1333.8999999687076","images/stimuli/spore_stims/simple_16_A_a.gif","images/stimuli/spore_stims/simple_17_A_b.gif","forced_short","","3","simple_dissimilar","images/stimuli/spore_stims/simple_16_A_a.gif","","","","",""
"","null","html-keyboard-response","46","498440","0.0-15.0-0.3","SS1618365676957","","","null","","","","","","<p><img src= images/blank.png width =""600"" height = ""600"" style=""position:fixed;top:50%; left:50%; transform: translate(-50%, -50%); border:5px solid black"">","","","","","","","",""
"","1759.154999977909","sequential-stimulus-presentation-old","47","500703","0.0-15.0-1.3","SS1618365676957","trial","","40","500","2259.154999977909","images/stimuli/spore_stims/simple_16_A_a.gif","images/stimuli/spore_stims/simple_17_A_b.gif","forced_short","","3","simple_dissimilar","images/stimuli/spore_stims/simple_16_A_a.gif","","","","",""
"","null","html-keyboard-response","48","501618","0.0-15.0-0.4","SS1618365676957","","","null","","","","","","<p><img src= images/blank.png width =""600"" height = ""600"" style=""position:fixed;top:50%; left:50%; transform: translate(-50%, -50%); border:5px solid black"">","","","","","","","",""
"","3344.509999966249","sequential-stimulus-presentation-old","49","505469","0.0-15.0-1.4","SS1618365676957","trial","","40","500","3844.509999966249","images/stimuli/spore_stims/simple_16_A_a.gif","images/stimuli/spore_stims/simple_17_A_b.gif","forced_short","","3","simple_dissimilar","images/stimuli/spore_stims/simple_17_A_b.gif","","","","",""
"","2250.5849999724887","survey-multi-choice","50","507722","0.0-16.0","SS1618365676957","math_question","","","","","","","","","","","","{""Q0"":""9""}","[0]","9","",""
"","null","html-keyboard-response","51","508890","0.0-17.0-0.0","SS1618365676957","","","null","","","","","","<p><img src= images/blank.png width =""600"" height = ""600"" style=""position:fixed;top:50%; left:50%; transform: translate(-50%, -50%); border:5px solid black"">","","","","","","","",""
"","3029.5400000177324","sequential-stimulus-presentation-old","52","512423","0.0-17.0-1.0","SS1618365676957","trial","","40","500","3529.5400000177324","images/stimuli/spore_stims/simple_16_A_b.gif","images/stimuli/spore_stims/simple_18_A_a.gif","self_paced","","4","simple_dissimilar","images/stimuli/spore_stims/simple_18_A_a.gif","","","","",""
"","null","html-keyboard-response","53","513539","0.0-17.0-0.1","SS1618365676957","","","null","","","","","","<p><img src= images/blank.png width =""600"" height = ""600"" style=""position:fixed;top:50%; left:50%; transform: translate(-50%, -50%); border:5px solid black"">","","","","","","","",""
"","1137.319999979809","sequential-stimulus-presentation-old","54","515179","0.0-17.0-1.1","SS1618365676957","trial","","40","500","1637.319999979809","images/stimuli/spore_stims/simple_16_A_b.gif","images/stimuli/spore_stims/simple_18_A_a.gif","self_paced","","4","simple_dissimilar","images/stimuli/spore_stims/simple_18_A_a.gif","","","","",""
"","null","html-keyboard-response","55","515994","0.0-17.0-0.2","SS1618365676957","","","null","","","","","","<p><img src= images/blank.png width =""600"" height = ""600"" style=""position:fixed;top:50%; left:50%; transform: translate(-50%, -50%); border:5px solid black"">","","","","","","","",""
"","1108.6650000070222","sequential-stimulus-presentation-old","56","517609","0.0-17.0-1.2","SS1618365676957","trial","","40","500","1608.6650000070222","images/stimuli/spore_stims/simple_16_A_b.gif","images/stimuli/spore_stims/simple_18_A_a.gif","self_paced","","4","simple_dissimilar","images/stimuli/spore_stims/simple_18_A_a.gif","","","","",""
"","null","html-keyboard-response","57","518767","0.0-17.0-0.3","SS1618365676957","","","null","","","","","","<p><img src= images/blank.png width =""600"" height = ""600"" style=""position:fixed;top:50%; left:50%; transform: translate(-50%, -50%); border:5px solid black"">","","","","","","","",""
"","683.3150000311434","sequential-stimulus-presentation-old","58","519956","0.0-17.0-1.3","SS1618365676957","trial","","40","500","1183.3150000311434","images/stimuli/spore_stims/simple_16_A_b.gif","images/stimuli/spore_stims/simple_18_A_a.gif","self_paced","","4","simple_dissimilar","images/stimuli/spore_stims/simple_16_A_b.gif","","","","",""
"","null","html-keyboard-response","59","521241","0.0-17.0-0.4","SS1618365676957","","","null","","","","","","<p><img src= images/blank.png width =""600"" height = ""600"" style=""position:fixed;top:50%; left:50%; transform: translate(-50%, -50%); border:5px solid black"">","","","","","","","",""
"","475.96499999053776","sequential-stimulus-presentation-old","60","522225","0.0-17.0-1.4","SS1618365676957","trial","","40","500","975.9649999905378","images/stimuli/spore_stims/simple_16_A_b.gif","images/stimuli/spore_stims/simple_18_A_a.gif","self_paced","","4","simple_dissimilar","images/stimuli/spore_stims/simple_16_A_b.gif","","","","",""
"","2395.429999975022","survey-multi-choice","61","524623","0.0-18.0","SS1618365676957","math_question","","","","","","","","","","","","{""Q0"":""8""}","[0]","8","",""
"","null","html-keyboard-response","62","525848","0.0-19.0-0.0","SS1618365676957","","","null","","","","","","<p><img src= images/blank.png width =""600"" height = ""600"" style=""position:fixed;top:50%; left:50%; transform: translate(-50%, -50%); border:5px solid black"">","","","","","","","",""
"","6204.524999950081","sequential-stimulus-presentation-old","63","537058","0.0-19.0-1.0","SS1618365676957","trial","","40","500","6704.524999950081","images/stimuli/spore_stims/simple_17_A_a.gif","images/stimuli/spore_stims/simple_07_A_b.gif","forced_long","","5","simple_dissimilar","images/stimuli/spore_stims/simple_07_A_b.gif","","","","",""
"","null","html-keyboard-response","64","537933","0.0-19.0-0.1","SS1618365676957","","","null","","","","","","<p><img src= images/blank.png width =""600"" height = ""600"" style=""position:fixed;top:50%; left:50%; transform: translate(-50%, -50%); border:5px solid black"">","","","","","","","",""
"","1293.149999983143","sequential-stimulus-presentation-old","65","539734","0.0-19.0-1.1","SS1618365676957","trial","","40","500","1793.149999983143","images/stimuli/spore_stims/simple_17_A_a.gif","images/stimuli/spore_stims/simple_07_A_b.gif","forced_long","","5","simple_dissimilar","images/stimuli/spore_stims/simple_07_A_b.gif","","","","",""
"","null","html-keyboard-response","66","541003","0.0-19.0-0.2","SS1618365676957","","","null","","","","","","<p><img src= images/blank.png width =""600"" height = ""600"" style=""position:fixed;top:50%; left:50%; transform: translate(-50%, -50%); border:5px solid black"">","","","","","","","",""
"","2251.1299999896437","sequential-stimulus-presentation-old","67","543760","0.0-19.0-1.2","SS1618365676957","trial","","40","500","2751.1299999896437","images/stimuli/spore_stims/simple_17_A_a.gif","images/stimuli/spore_stims/simple_07_A_b.gif","forced_long","","5","simple_dissimilar","images/stimuli/spore_stims/simple_07_A_b.gif","","","","",""
"","null","html-keyboard-response","68","544974","0.0-19.0-0.3","SS1618365676957","","","null","","","","","","<p><img src= images/blank.png width =""600"" height = ""600"" style=""position:fixed;top:50%; left:50%; transform: translate(-50%, -50%); border:5px solid black"">","","","","","","","",""
"","3501.6649999888614","sequential-stimulus-presentation-old","69","548985","0.0-19.0-1.3","SS1618365676957","trial","","40","500","4001.6649999888614","images/stimuli/spore_stims/simple_17_A_a.gif","images/stimuli/spore_stims/simple_07_A_b.gif","forced_long","","5","simple_dissimilar","images/stimuli/spore_stims/simple_07_A_b.gif","","","","",""
"","null","html-keyboard-response","70","549883","0.0-19.0-0.4","SS1618365676957","","","null","","","","","","<p><img src= images/blank.png width =""600"" height = ""600"" style=""position:fixed;top:50%; left:50%; transform: translate(-50%, -50%); border:5px solid black"">","","","","","","","",""
"","3565.549999999348","sequential-stimulus-presentation-old","71","553952","0.0-19.0-1.4","SS1618365676957","trial","","40","500","4065.549999999348","images/stimuli/spore_stims/simple_17_A_a.gif","images/stimuli/spore_stims/simple_07_A_b.gif","forced_long","","5","simple_dissimilar","images/stimuli/spore_stims/simple_17_A_a.gif","","","","",""
"","null","html-keyboard-response","72","555174","0.0-19.0-0.5","SS1618365676957","","","null","","","","","","<p><img src= images/blank.png width =""600"" height = ""600"" style=""position:fixed;top:50%; left:50%; transform: translate(-50%, -50%); border:5px solid black"">","","","","","","","",""
"","1530.1650000037625","sequential-stimulus-presentation-old","73","557208","0.0-19.0-1.5","SS1618365676957","trial","","40","500","2030.1650000037625","images/stimuli/spore_stims/simple_17_A_a.gif","images/stimuli/spore_stims/simple_07_A_b.gif","forced_long","","5","simple_dissimilar","images/stimuli/spore_stims/simple_07_A_b.gif","","","","",""
"","4753.965000039898","survey-multi-choice","74","561964","0.0-20.0","SS1618365676957","math_question","","","","","","","","","","","","{""Q0"":""4""}","[0]","4","",""
"","null","html-keyboard-response","75","562960","0.0-21.0-0.0","SS1618365676957","","","null","","","","","","<p><img src= images/blank.png width =""600"" height = ""600"" style=""position:fixed;top:50%; left:50%; transform: translate(-50%, -50%); border:5px solid black"">","","","","","","","",""
"","524.8949999804609","sequential-stimulus-presentation-old","76","563989","0.0-21.0-1.0","SS1618365676957","trial","","40","500","1024.8949999804609","images/stimuli/spore_stims/simple_20_A_b.gif","images/stimuli/spore_stims/simple_01_A_a.gif","self_paced","","6","simple_dissimilar","images/stimuli/spore_stims/simple_01_A_a.gif","","","","",""
"","null","html-keyboard-response","77","565087","0.0-21.0-0.1","SS1618365676957","","","null","","","","","","<p><img src= images/blank.png width =""600"" height = ""600"" style=""position:fixed;top:50%; left:50%; transform: translate(-50%, -50%); border:5px solid black"">","","","","","","","",""
"","2654.8250000341795","sequential-stimulus-presentation-old","78","568247","0.0-21.0-1.1","SS1618365676957","trial","","40","500","3154.8250000341795","images/stimuli/spore_stims/simple_20_A_b.gif","images/stimuli/spore_stims/simple_01_A_a.gif","self_paced","","6","simple_dissimilar","images/stimuli/spore_stims/simple_01_A_a.gif","","","","",""
"","null","html-keyboard-response","79","569309","0.0-21.0-0.2","SS1618365676957","","","null","","","","","","<p><img src= images/blank.png width =""600"" height = ""600"" style=""position:fixed;top:50%; left:50%; transform: translate(-50%, -50%); border:5px solid black"">","","","","","","","",""
"","1820.575000019744","sequential-stimulus-presentation-old","80","571634","0.0-21.0-1.2","SS1618365676957","trial","","40","500","2320.575000019744","images/stimuli/spore_stims/simple_20_A_b.gif","images/stimuli/spore_stims/simple_01_A_a.gif","self_paced","","6","simple_dissimilar","images/stimuli/spore_stims/simple_01_A_a.gif","","","","",""
"","null","html-keyboard-response","81","572566","0.0-21.0-0.3","SS1618365676957","","","null","","","","","","<p><img src= images/blank.png width =""600"" height = ""600"" style=""position:fixed;top:50%; left:50%; transform: translate(-50%, -50%); border:5px solid black"">","","","","","","","",""
"","1566.7150000226684","sequential-stimulus-presentation-old","82","574640","0.0-21.0-1.3","SS1618365676957","trial","","40","500","2066.7150000226684","images/stimuli/spore_stims/simple_20_A_b.gif","images/stimuli/spore_stims/simple_01_A_a.gif","self_paced","","6","simple_dissimilar","images/stimuli/spore_stims/simple_01_A_a.gif","","","","",""
"","null","html-keyboard-response","83","575643","0.0-21.0-0.4","SS1618365676957","","","null","","","","","","<p><img src= images/blank.png width =""600"" height = ""600"" style=""position:fixed;top:50%; left:50%; transform: translate(-50%, -50%); border:5px solid black"">","","","","","","","",""
"","6095.419999968726","sequential-stimulus-presentation-old","84","582244","0.0-21.0-1.4","SS1618365676957","trial","","40","500","6595.419999968726","images/stimuli/spore_stims/simple_20_A_b.gif","images/stimuli/spore_stims/simple_01_A_a.gif","self_paced","","6","simple_dissimilar","images/stimuli/spore_stims/simple_20_A_b.gif","","","","",""
"","4216.115000017453","survey-multi-choice","85","586463","0.0-22.0","SS1618365676957","math_question","","","","","","","","","","","","{""Q0"":""5""}","[0]","5","",""
"","null","html-keyboard-response","86","587613","0.0-23.0-0.0","SS1618365676957","","","null","","","","","","<p><img src= images/blank.png width =""600"" height = ""600"" style=""position:fixed;top:50%; left:50%; transform: translate(-50%, -50%); border:5px solid black"">","","","","","","","",""
"","26847.575000021607","sequential-stimulus-presentation-old","87","619470","0.0-23.0-1.0","SS1618365676957","trial","","40","500","27347.575000021607","images/stimuli/spore_stims/simple_13_A_a.gif","images/stimuli/spore_stims/simple_19_A_b.gif","forced_long","","7","simple_dissimilar","images/stimuli/spore_stims/simple_19_A_b.gif","","","","",""
"","null","html-keyboard-response","88","620541","0.0-23.0-0.1","SS1618365676957","","","null","","","","","","<p><img src= images/blank.png width =""600"" height = ""600"" style=""position:fixed;top:50%; left:50%; transform: translate(-50%, -50%); border:5px solid black"">","","","","","","","",""
"","861.5149999968708","sequential-stimulus-presentation-old","89","621906","0.0-23.0-1.1","SS1618365676957","trial","","40","500","1361.5149999968708","images/stimuli/spore_stims/simple_13_A_a.gif","images/stimuli/spore_stims/simple_19_A_b.gif","forced_long","","7","simple_dissimilar","images/stimuli/spore_stims/simple_13_A_a.gif","","","","",""
"","null","html-keyboard-response","90","623187","0.0-23.0-0.2","SS1618365676957","","","null","","","","","","<p><img src= images/blank.png width =""600"" height = ""600"" style=""position:fixed;top:50%; left:50%; transform: translate(-50%, -50%); border:5px solid black"">","","","","","","","",""
"","3525.565000018105","sequential-stimulus-presentation-old","91","627220","0.0-23.0-1.2","SS1618365676957","trial","","40","500","4025.565000018105","images/stimuli/spore_stims/simple_13_A_a.gif","images/stimuli/spore_stims/simple_19_A_b.gif","forced_long","","7","simple_dissimilar","images/stimuli/spore_stims/simple_19_A_b.gif","","","","",""
"","null","html-keyboard-response","92","628423","0.0-23.0-0.3","SS1618365676957","","","null","","","","","","<p><img src= images/blank.png width =""600"" height = ""600"" style=""position:fixed;top:50%; left:50%; transform: translate(-50%, -50%); border:5px solid black"">","","","","","","","",""
"","231.83499998413026","sequential-stimulus-presentation-old","93","629160","0.0-23.0-1.3","SS1618365676957","trial","","40","500","731.8349999841303","images/stimuli/spore_stims/simple_13_A_a.gif","images/stimuli/spore_stims/simple_19_A_b.gif","forced_long","","7","simple_dissimilar","images/stimuli/spore_stims/simple_19_A_b.gif","","","","",""
"","null","html-keyboard-response","94","630345","0.0-23.0-0.4","SS1618365676957","","","null","","","","","","<p><img src= images/blank.png width =""600"" height = ""600"" style=""position:fixed;top:50%; left:50%; transform: translate(-50%, -50%); border:5px solid black"">","","","","","","","",""
"","908.8600000250153","sequential-stimulus-presentation-old","95","631758","0.0-23.0-1.4","SS1618365676957","trial","","40","500","1408.8600000250153","images/stimuli/spore_stims/simple_13_A_a.gif","images/stimuli/spore_stims/simple_19_A_b.gif","forced_long","","7","simple_dissimilar","images/stimuli/spore_stims/simple_19_A_b.gif","","","","",""
"","null","html-keyboard-response","96","632811","0.0-23.0-0.5","SS1618365676957","","","null","","","","","","<p><img src= images/blank.png width =""600"" height = ""600"" style=""position:fixed;top:50%; left:50%; transform: translate(-50%, -50%); border:5px solid black"">","","","","","","","",""
"","2268.470000009984","sequential-stimulus-presentation-old","97","635584","0.0-23.0-1.5","SS1618365676957","trial","","40","500","2768.470000009984","images/stimuli/spore_stims/simple_13_A_a.gif","images/stimuli/spore_stims/simple_19_A_b.gif","forced_long","","7","simple_dissimilar","images/stimuli/spore_stims/simple_13_A_a.gif","","","","",""
"","2160.665000032168","survey-multi-choice","98","637749","0.0-24.0","SS1618365676957","math_question","","","","","","","","","","","","{""Q0"":""10""}","[0]","10","",""
"","null","html-keyboard-response","99","639040","0.0-25.0-0.0","SS1618365676957","","","null","","","","","","<p><img src= images/blank.png width =""600"" height = ""600"" style=""position:fixed;top:50%; left:50%; transform: translate(-50%, -50%); border:5px solid black"">","","","","","","","",""
"","890.2600000146776","sequential-stimulus-presentation-old","100","639988","0.0-25.0-1.0","SS1618365676957","trial","","40","500","1390.2600000146776","images/stimuli/spore_stims/complex_17_A_a.gif","images/stimuli/spore_stims/complex_07_A_b.gif","forced_short","","8","complex_dissimilar","images/stimuli/spore_stims/complex_07_A_b.gif","","","","",""
"","null","html-keyboard-response","101","640951","0.0-25.0-0.1","SS1618365676957","","","null","","","","","","<p><img src= images/blank.png width =""600"" height = ""600"" style=""position:fixed;top:50%; left:50%; transform: translate(-50%, -50%); border:5px solid black"">","","","","","","","",""
"","2052.3900000262074","sequential-stimulus-presentation-old","102","643511","0.0-25.0-1.1","SS1618365676957","trial","","40","500","2552.3900000262074","images/stimuli/spore_stims/complex_17_A_a.gif","images/stimuli/spore_stims/complex_07_A_b.gif","forced_short","","8","complex_dissimilar","images/stimuli/spore_stims/complex_07_A_b.gif","","","","",""
"","null","html-keyboard-response","103","644341","0.0-25.0-0.2","SS1618365676957","","","null","","","","","","<p><img src= images/blank.png width =""600"" height = ""600"" style=""position:fixed;top:50%; left:50%; transform: translate(-50%, -50%); border:5px solid black"">","","","","","","","",""
"","50.44999998062849","sequential-stimulus-presentation-old","104","644900","0.0-25.0-1.2","SS1618365676957","trial","","40","500","550.4499999806285","images/stimuli/spore_stims/complex_17_A_a.gif","images/stimuli/spore_stims/complex_07_A_b.gif","forced_short","","8","complex_dissimilar","images/stimuli/spore_stims/complex_07_A_b.gif","","","","",""
"","null","html-keyboard-response","105","645780","0.0-25.0-0.3","SS1618365676957","","","null","","","","","","<p><img src= images/blank.png width =""600"" height = ""600"" style=""position:fixed;top:50%; left:50%; transform: translate(-50%, -50%); border:5px solid black"">","","","","","","","",""
"","1762.4150000046939","sequential-stimulus-presentation-old","106","648048","0.0-25.0-1.3","SS1618365676957","trial","","40","500","2262.415000004694","images/stimuli/spore_stims/complex_17_A_a.gif","images/stimuli/spore_stims/complex_07_A_b.gif","forced_short","","8","complex_dissimilar","images/stimuli/spore_stims/complex_07_A_b.gif","","","","",""
"","2028.409999969881","survey-multi-choice","107","650080","0.0-26.0","SS1618365676957","math_question","","","","","","","","","","","","{""Q0"":""12""}","[0]","12","",""
"","null","html-keyboard-response","108","651204","0.0-27.0-0.0","SS1618365676957","","","null","","","","","","<p><img src= images/blank.png width =""600"" height = ""600"" style=""position:fixed;top:50%; left:50%; transform: translate(-50%, -50%); border:5px solid black"">","","","","","","","",""
"","1450.7900000317022","sequential-stimulus-presentation-old","109","653162","0.0-27.0-1.0","SS1618365676957","trial","","40","500","1950.7900000317022","images/stimuli/spore_stims/complex_10_A_a.gif","images/stimuli/spore_stims/complex_03_A_b.gif","self_paced","","9","complex_dissimilar","images/stimuli/spore_stims/complex_03_A_b.gif","","","","",""
"","null","html-keyboard-response","110","654000","0.0-27.0-0.1","SS1618365676957","","","null","","","","","","<p><img src= images/blank.png width =""600"" height = ""600"" style=""position:fixed;top:50%; left:50%; transform: translate(-50%, -50%); border:5px solid black"">","","","","","","","",""
"","1428.0199999921024","sequential-stimulus-presentation-old","111","655931","0.0-27.0-1.1","SS1618365676957","trial","","40","500","1928.0199999921024","images/stimuli/spore_stims/complex_10_A_a.gif","images/stimuli/spore_stims/complex_03_A_b.gif","self_paced","","9","complex_dissimilar","images/stimuli/spore_stims/complex_10_A_a.gif","","","","",""
"","null","html-keyboard-response","112","656811","0.0-27.0-0.2","SS1618365676957","","","null","","","","","","<p><img src= images/blank.png width =""600"" height = ""600"" style=""position:fixed;top:50%; left:50%; transform: translate(-50%, -50%); border:5px solid black"">","","","","","","","",""
"","6727.5700000463985","sequential-stimulus-presentation-old","113","664043","0.0-27.0-1.2","SS1618365676957","trial","","40","500","7227.5700000463985","images/stimuli/spore_stims/complex_10_A_a.gif","images/stimuli/spore_stims/complex_03_A_b.gif","self_paced","","9","complex_dissimilar","images/stimuli/spore_stims/complex_03_A_b.gif","","","","",""
"","null","html-keyboard-response","114","664911","0.0-27.0-0.3","SS1618365676957","","","null","","","","","","<p><img src= images/blank.png width =""600"" height = ""600"" style=""position:fixed;top:50%; left:50%; transform: translate(-50%, -50%); border:5px solid black"">","","","","","","","",""
"","3393.579999974463","sequential-stimulus-presentation-old","115","668812","0.0-27.0-1.3","SS1618365676957","trial","","40","500","3893.579999974463","images/stimuli/spore_stims/complex_10_A_a.gif","images/stimuli/spore_stims/complex_03_A_b.gif","self_paced","","9","complex_dissimilar","images/stimuli/spore_stims/complex_03_A_b.gif","","","","",""
"","null","html-keyboard-response","116","669709","0.0-27.0-0.4","SS1618365676957","","","null","","","","","","<p><img src= images/blank.png width =""600"" height = ""600"" style=""position:fixed;top:50%; left:50%; transform: translate(-50%, -50%); border:5px solid black"">","","","","","","","",""
"","2317.764999985229","sequential-stimulus-presentation-old","117","672533","0.0-27.0-1.4","SS1618365676957","trial","","40","500","2817.764999985229","images/stimuli/spore_stims/complex_10_A_a.gif","images/stimuli/spore_stims/complex_03_A_b.gif","self_paced","","9","complex_dissimilar","images/stimuli/spore_stims/complex_03_A_b.gif","","","","",""
"","null","html-keyboard-response","118","673790","0.0-27.0-0.5","SS1618365676957","","","null","","","","","","<p><img src= images/blank.png width =""600"" height = ""600"" style=""position:fixed;top:50%; left:50%; transform: translate(-50%, -50%); border:5px solid black"">","","","","","","","",""
"","1895.6750000361353","sequential-stimulus-presentation-old","119","676191","0.0-27.0-1.5","SS1618365676957","trial","","40","500","2395.6750000361353","images/stimuli/spore_stims/complex_10_A_a.gif","images/stimuli/spore_stims/complex_03_A_b.gif","self_paced","","9","complex_dissimilar","images/stimuli/spore_stims/complex_03_A_b.gif","","","","",""
"","5360.7150000170805","survey-multi-choice","120","681555","0.0-28.0","SS1618365676957","math_question","","","","","","","","","","","","{""Q0"":""11""}","[0]","11","",""
"","null","html-keyboard-response","121","682623","0.0-29.0-0.0","SS1618365676957","","","null","","","","","","<p><img src= images/blank.png width =""600"" height = ""600"" style=""position:fixed;top:50%; left:50%; transform: translate(-50%, -50%); border:5px solid black"">","","","","","","","",""
"","1402.059999993071","sequential-stimulus-presentation-old","122","684081","0.0-29.0-1.0","SS1618365676957","trial","","40","500","1902.059999993071","images/stimuli/spore_stims/simple_03_A_b.gif","images/stimuli/spore_stims/simple_05_A_a.gif","forced_short","","10","simple_dissimilar","images/stimuli/spore_stims/simple_05_A_a.gif","","","","",""
"","null","html-keyboard-response","123","685107","0.0-29.0-0.1","SS1618365676957","","","null","","","","","","<p><img src= images/blank.png width =""600"" height = ""600"" style=""position:fixed;top:50%; left:50%; transform: translate(-50%, -50%); border:5px solid black"">","","","","","","","",""
"","110.34499999368563","sequential-stimulus-presentation-old","124","685721","0.0-29.0-1.1","SS1618365676957","trial","","40","500","610.3449999936856","images/stimuli/spore_stims/simple_03_A_b.gif","images/stimuli/spore_stims/simple_05_A_a.gif","forced_short","","10","simple_dissimilar","images/stimuli/spore_stims/simple_05_A_a.gif","","","","",""
"","null","html-keyboard-response","125","687210","0.0-29.0-0.2","SS1618365676957","","","null","","","","","","<p><img src= images/blank.png width =""600"" height = ""600"" style=""position:fixed;top:50%; left:50%; transform: translate(-50%, -50%); border:5px solid black"">","","","","","","","",""
"","1098.3549999655224","sequential-stimulus-presentation-old","126","689311","0.0-29.0-1.2","SS1618365676957","trial","","40","500","1598.3549999655224","images/stimuli/spore_stims/simple_03_A_b.gif","images/stimuli/spore_stims/simple_05_A_a.gif","forced_short","","10","simple_dissimilar","images/stimuli/spore_stims/simple_05_A_a.gif","","","","",""
"","null","html-keyboard-response","127","691420","0.0-29.0-0.3","SS1618365676957","","","null","","","","","","<p><img src= images/blank.png width =""600"" height = ""600"" style=""position:fixed;top:50%; left:50%; transform: translate(-50%, -50%); border:5px solid black"">","","","","","","","",""
"","478.9800000144169","sequential-stimulus-presentation-old","128","692409","0.0-29.0-1.3","SS1618365676957","trial","","40","500","978.9800000144169","images/stimuli/spore_stims/simple_03_A_b.gif","images/stimuli/spore_stims/simple_05_A_a.gif","forced_short","","10","simple_dissimilar","images/stimuli/spore_stims/simple_05_A_a.gif","","","","",""
"","2063.1399999838322","survey-multi-choice","129","694475","0.0-30.0","SS1618365676957","math_question","","","","","","","","","","","","{""Q0"":""6""}","[0]","6","",""
"","null","html-keyboard-response","130","695509","0.0-31.0-0.0","SS1618365676957","","","null","","","","","","<p><img src= images/blank.png width =""600"" height = ""600"" style=""position:fixed;top:50%; left:50%; transform: translate(-50%, -50%); border:5px solid black"">","","","","","","","",""
"","6057.455000001937","sequential-stimulus-presentation-old","131","706631","0.0-31.0-1.0","SS1618365676957","trial","","40","500","6557.455000001937","images/stimuli/spore_stims/complex_11_A_a.gif","images/stimuli/spore_stims/complex_13_A_b.gif","forced_long","","11","complex_dissimilar","images/stimuli/spore_stims/complex_13_A_b.gif","","","","",""
"","null","html-keyboard-response","132","707481","0.0-31.0-0.1","SS1618365676957","","","null","","","","","","<p><img src= images/blank.png width =""600"" height = ""600"" style=""position:fixed;top:50%; left:50%; transform: translate(-50%, -50%); border:5px solid black"">","","","","","","","",""
"","9048.194999981206","sequential-stimulus-presentation-old","133","717034","0.0-31.0-1.1","SS1618365676957","trial","","40","500","9548.194999981206","images/stimuli/spore_stims/complex_11_A_a.gif","images/stimuli/spore_stims/complex_13_A_b.gif","forced_long","","11","complex_dissimilar","images/stimuli/spore_stims/complex_13_A_b.gif","","","","",""
"","null","html-keyboard-response","134","718311","0.0-31.0-0.2","SS1618365676957","","","null","","","","","","<p><img src= images/blank.png width =""600"" height = ""600"" style=""position:fixed;top:50%; left:50%; transform: translate(-50%, -50%); border:5px solid black"">","","","","","","","",""
"","407.4900000123307","sequential-stimulus-presentation-old","135","719224","0.0-31.0-1.2","SS1618365676957","trial","","40","500","907.4900000123307","images/stimuli/spore_stims/complex_11_A_a.gif","images/stimuli/spore_stims/complex_13_A_b.gif","forced_long","","11","complex_dissimilar","images/stimuli/spore_stims/complex_13_A_b.gif","","","","",""
"","null","html-keyboard-response","136","720227","0.0-31.0-0.3","SS1618365676957","","","null","","","","","","<p><img src= images/blank.png width =""600"" height = ""600"" style=""position:fixed;top:50%; left:50%; transform: translate(-50%, -50%); border:5px solid black"">","","","","","","","",""
"","2183.690000034403","sequential-stimulus-presentation-old","137","722914","0.0-31.0-1.3","SS1618365676957","trial","","40","500","2683.690000034403","images/stimuli/spore_stims/complex_11_A_a.gif","images/stimuli/spore_stims/complex_13_A_b.gif","forced_long","","11","complex_dissimilar","images/stimuli/spore_stims/complex_13_A_b.gif","","","","",""
"","null","html-keyboard-response","138","723973","0.0-31.0-0.4","SS1618365676957","","","null","","","","","","<p><img src= images/blank.png width =""600"" height = ""600"" style=""position:fixed;top:50%; left:50%; transform: translate(-50%, -50%); border:5px solid black"">","","","","","","","",""
"","2460.1150000235066","sequential-stimulus-presentation-old","139","726939","0.0-31.0-1.4","SS1618365676957","trial","","40","500","2960.1150000235066","images/stimuli/spore_stims/complex_11_A_a.gif","images/stimuli/spore_stims/complex_13_A_b.gif","forced_long","","11","complex_dissimilar","images/stimuli/spore_stims/complex_11_A_a.gif","","","","",""
"","null","html-keyboard-response","140","727939","0.0-31.0-0.5","SS1618365676957","","","null","","","","","","<p><img src= images/blank.png width =""600"" height = ""600"" style=""position:fixed;top:50%; left:50%; transform: translate(-50%, -50%); border:5px solid black"">","","","","","","","",""
"","529.3250000104308","sequential-stimulus-presentation-old","141","728973","0.0-31.0-1.5","SS1618365676957","trial","","40","500","1029.3250000104308","images/stimuli/spore_stims/complex_11_A_a.gif","images/stimuli/spore_stims/complex_13_A_b.gif","forced_long","","11","complex_dissimilar","images/stimuli/spore_stims/complex_13_A_b.gif","","","","",""
"[{""page_index"":0,""viewing_time"":9040.529999998398}]","9040.815000014845","instructions","142","738016","0.0-32.0","SS1618365676957","instructions","","","","","","","","","","","","","","","",""
"","9414.285000006203","survey-likert","143","747436","0.0-33.0","SS1618365676957","similarity_question","","","","","","","","","","","","{""Q0"":0}","[0]","","images/stimuli/spore_stims/complex_03_A_b.gif","images/stimuli/spore_stims/complex_10_A_a.gif"
"","4295.8850000286475","survey-likert","144","751739","0.0-34.0","SS1618365676957","similarity_question","","","","","","","","","","","","{""Q0"":4}","[0]","","images/stimuli/spore_stims/simple_16_A_b.gif","images/stimuli/spore_stims/simple_18_A_a.gif"
"","3906.6149999853224","survey-likert","145","755653","0.0-35.0","SS1618365676957","similarity_question","","","","","","","","","","","","{""Q0"":0}","[0]","","images/stimuli/spore_stims/complex_06_A_a.gif","images/stimuli/spore_stims/complex_01_A_b.gif"
"","3971.1499999975786","survey-likert","146","759632","0.0-36.0","SS1618365676957","similarity_question","","","","","","","","","","","","{""Q0"":0}","[0]","","images/stimuli/spore_stims/complex_11_A_a.gif","images/stimuli/spore_stims/complex_13_A_b.gif"
"","6412.300000025425","survey-likert","147","766051","0.0-37.0","SS1618365676957","similarity_question","","","","","","","","","","","","{""Q0"":4}","[0]","","images/stimuli/spore_stims/simple_05_A_a.gif","images/stimuli/spore_stims/simple_03_A_b.gif"
"","2683.5149999824353","survey-likert","148","768743","0.0-38.0","SS1618365676957","similarity_question","","","","","","","","","","","","{""Q0"":4}","[0]","","images/stimuli/spore_stims/simple_16_A_a.gif","images/stimuli/spore_stims/simple_17_A_b.gif"
"","1901.6350000165403","survey-likert","149","770652","0.0-39.0","SS1618365676957","similarity_question","","","","","","","","","","","","{""Q0"":4}","[0]","","images/stimuli/spore_stims/simple_20_A_b.gif","images/stimuli/spore_stims/simple_01_A_a.gif"
"","2486.1600000294857","survey-likert","150","773149","0.0-40.0","SS1618365676957","similarity_question","","","","","","","","","","","","{""Q0"":0}","[0]","","images/stimuli/spore_stims/complex_17_A_a.gif","images/stimuli/spore_stims/complex_07_A_b.gif"
"","1780.0200000056066","survey-likert","151","774945","0.0-41.0","SS1618365676957","similarity_question","","","","","","","","","","","","{""Q0"":0}","[0]","","images/stimuli/spore_stims/complex_12_A_a.gif","images/stimuli/spore_stims/complex_17_A_b.gif"
"","1641.460000013467","survey-likert","152","776593","0.0-42.0","SS1618365676957","similarity_question","","","","","","","","","","","","{""Q0"":3}","[0]","","images/stimuli/spore_stims/simple_13_A_a.gif","images/stimuli/spore_stims/simple_19_A_b.gif"
"","1851.5999999945052","survey-likert","153","778453","0.0-43.0","SS1618365676957","similarity_question","","","","","","","","","","","","{""Q0"":1}","[0]","","images/stimuli/spore_stims/complex_19_A_b.gif","images/stimuli/spore_stims/complex_13_A_a.gif"
"","2530.5049999733455","survey-likert","154","780992","0.0-44.0","SS1618365676957","similarity_question","","","","","","","","","","","","{""Q0"":3}","[0]","","images/stimuli/spore_stims/simple_17_A_a.gif","images/stimuli/spore_stims/simple_07_A_b.gif"
"[{""page_index"":0,""viewing_time"":1716.0750000039116}]","1716.489999962505","instructions","155","782714","0.0-45.0","SS1618365676957","instructions","","","","","","","","","","","","","","","",""
"","4806.890000007115","survey-likert","156","787525","0.0-46.0","SS1618365676957","","","","","","","","","images/stimuli/spore_stims/complex_06_A_a.gif","","","","{""Q0"":5}","[0]","","",""
"","1898.3850000076927","survey-likert","157","789432","0.0-47.0","SS1618365676957","","","","","","","","","images/stimuli/spore_stims/complex_10_A_a.gif","","","","{""Q0"":4}","[0]","","",""
"","1631.8350000074133","survey-likert","158","791074","0.0-48.0","SS1618365676957","","","","","","","","","images/stimuli/spore_stims/simple_17_A_a.gif","","","","{""Q0"":1}","[0]","","",""
"","4454.734999977518","survey-likert","159","795536","0.0-49.0","SS1618365676957","","","","","","","","","images/stimuli/spore_stims/complex_07_A_b.gif","","","","{""Q0"":6}","[0]","","",""
"","2080.435000010766","survey-likert","160","797623","0.0-50.0","SS1618365676957","","","","","","","","","images/stimuli/spore_stims/simple_13_A_a.gif","","","","{""Q0"":3}","[0]","","",""
"","3460.4449999751523","survey-likert","161","801091","0.0-51.0","SS1618365676957","","","","","","","","","images/stimuli/spore_stims/simple_01_A_a.gif","","","","{""Q0"":1}","[0]","","",""
"","2128.9749999996275","survey-likert","162","803225","0.0-52.0","SS1618365676957","","","","","","","","","images/stimuli/spore_stims/simple_05_A_a.gif","","","","{""Q0"":1}","[0]","","",""
"","1772.0449999906123","survey-likert","163","805005","0.0-53.0","SS1618365676957","","","","","","","","","images/stimuli/spore_stims/simple_18_A_a.gif","","","","{""Q0"":2}","[0]","","",""
"","2320.980000018608","survey-likert","164","807333","0.0-54.0","SS1618365676957","","","","","","","","","images/stimuli/spore_stims/complex_11_A_a.gif","","","","{""Q0"":4}","[0]","","",""
"","1754.224999982398","survey-likert","165","809096","0.0-55.0","SS1618365676957","","","","","","","","","images/stimuli/spore_stims/complex_17_A_b.gif","","","","{""Q0"":5}","[0]","","",""
"","3256.890000018757","survey-likert","166","812361","0.0-56.0","SS1618365676957","","","","","","","","","images/stimuli/spore_stims/simple_16_A_a.gif","","","","{""Q0"":0}","[0]","","",""
"","2148.585000017192","survey-likert","167","814519","0.0-57.0","SS1618365676957","","","","","","","","","images/stimuli/spore_stims/complex_19_A_b.gif","","","","{""Q0"":6}","[0]","","",""
"[{""page_index"":0,""viewing_time"":1048.9350000279956}]","1050.1449999865144","instructions","168","815581","0.0-58.0","SS1618365676957","instructions","","","","","","","","","","","","","","","",""
"","2422.3450000281446","demog-age","169","818013","0.0-59.0","SS1618365676957","","","","","","","","","","","","","{""age"":""27""}","","","",""
"","2286.9899999932386","demog-ethnic-US","170","820309","0.0-60.0","SS1618365676957","","","","","","","","","","","","","{""ethnicity"":[""Hispanic or Latino""]}","[0]","","",""
"","4192.10500002373","demog-gender-and-education","171","824508","0.0-61.0","SS1618365676957","","","","","","","","","","","","","{""gender"":""Female"",""education"":""Bachelor's Degree""}","[0,1]","","",""
"","5156.264999997802","survey-text","172","829675","0.0-62.0","SS1618365676957","feedback","","","","","","","","","","","","{""Q0"":""No""}","","","",""
"[{""page_index"":0,""viewing_time"":1030.0299999653362}]","1030.1949999993667","instructions","173","830708","0.0-63.0","SS1618365676957","instructions","","","","","","","","","","","","","","","",""
