"view_history","rt","trial_type","trial_index","time_elapsed","internal_node_id","subject","stimulus_type","trial_stimulus","key_press","minimum_viewing_duration","trial_looking_time","block_deviant","block_background","exposure_type","stimulus","block_number","block_type","stimulus_displayed","responses","question_order","math_correct_answer","stimulus_left","stimulus_right"
"[{""page_index"":0,""viewing_time"":19027.784999925643}]","19028.790000011213","instructions","0","19021","0.0-0.0","SS1618365160573","","","","","","","","","","","","","","","","",""
"[{""page_index"":0,""viewing_time"":15140.364999999292},{""page_index"":1,""viewing_time"":6962.244999944232}]","22102.964999969117","instructions","1","43135","0.0-1.0","SS1618365160573","instructions","","","","","","","","","","","","","","","",""
"","7334.239999996498","sequential-stimulus-presentation-old","2","50981","0.0-2.0","SS1618365160573","","","40","500","7834.239999996498","null","null","self_paced","","","","","","","","",""
"","6018.594999914058","sequential-stimulus-presentation-old","3","57515","0.0-3.0","SS1618365160573","","","40","500","6518.594999914058","null","null","self_paced","","","","","","","","",""
"[{""page_index"":0,""viewing_time"":16445.339999976568}]","16445.76000003144","instructions","4","73963","0.0-4.0","SS1618365160573","instructions","","","","","","","","","","","","","","","",""
"","5607.245000079274","sequential-stimulus-presentation-old","5","84588","0.0-5.0","SS1618365160573","","","40","500","6107.245000079274","null","null","forced_long","","","","","","","","",""
"","22212.709999992512","sequential-stimulus-presentation-old","6","106860","0.0-6.0","SS1618365160573","","","40","50","22262.709999992512","null","null","forced_long","","","","","","","","",""
"[{""page_index"":0,""viewing_time"":4250.414999900386}]","4250.814999919385","instructions","7","111114","0.0-7.0","SS1618365160573","instructions","","","","","","","","","","","","","","","",""
"[{""page_index"":0,""viewing_time"":10418.44499995932},{""page_index"":1,""viewing_time"":9070.350000052713},{""page_index"":2,""viewing_time"":9346.469999989495},{""page_index"":3,""viewing_time"":2110.4099999647588},{""page_index"":4,""viewing_time"":1664.83500006143}]","32610.869999974966","instructions","8","143724","0.0-8.0","SS1618365160573","instructions","","","","","","","","","","","","","","","",""
"","null","html-keyboard-response","9","144843","0.0-9.0-0.0","SS1618365160573","","","null","","","","","","<p><img src= images/blank.png width =""600"" height = ""600"" style=""position:fixed;top:50%; left:50%; transform: translate(-50%, -50%); border:5px solid black"">","","","","","","","",""
"","5876.530000008643","sequential-stimulus-presentation-old","10","151230","0.0-9.0-1.0","SS1618365160573","trial","","40","500","6376.530000008643","images/stimuli/spore_stims/complex_19_A_a.gif","images/stimuli/spore_stims/complex_06_A_b.gif","self_paced","","0","complex_dissimilar","images/stimuli/spore_stims/complex_06_A_b.gif","","","","",""
"","null","html-keyboard-response","11","152293","0.0-9.0-0.1","SS1618365160573","","","null","","","","","","<p><img src= images/blank.png width =""600"" height = ""600"" style=""position:fixed;top:50%; left:50%; transform: translate(-50%, -50%); border:5px solid black"">","","","","","","","",""
"","6923.279999988154","sequential-stimulus-presentation-old","12","159723","0.0-9.0-1.1","SS1618365160573","trial","","40","500","7423.279999988154","images/stimuli/spore_stims/complex_19_A_a.gif","images/stimuli/spore_stims/complex_06_A_b.gif","self_paced","","0","complex_dissimilar","images/stimuli/spore_stims/complex_06_A_b.gif","","","","",""
"","null","html-keyboard-response","13","160629","0.0-9.0-0.2","SS1618365160573","","","null","","","","","","<p><img src= images/blank.png width =""600"" height = ""600"" style=""position:fixed;top:50%; left:50%; transform: translate(-50%, -50%); border:5px solid black"">","","","","","","","",""
"","8356.990000000224","sequential-stimulus-presentation-old","14","169496","0.0-9.0-1.2","SS1618365160573","trial","","40","500","8856.990000000224","images/stimuli/spore_stims/complex_19_A_a.gif","images/stimuli/spore_stims/complex_06_A_b.gif","self_paced","","0","complex_dissimilar","images/stimuli/spore_stims/complex_06_A_b.gif","","","","",""
"","null","html-keyboard-response","15","170730","0.0-9.0-0.3","SS1618365160573","","","null","","","","","","<p><img src= images/blank.png width =""600"" height = ""600"" style=""position:fixed;top:50%; left:50%; transform: translate(-50%, -50%); border:5px solid black"">","","","","","","","",""
"","9329.710000078194","sequential-stimulus-presentation-old","16","180579","0.0-9.0-1.3","SS1618365160573","trial","","40","500","9829.710000078194","images/stimuli/spore_stims/complex_19_A_a.gif","images/stimuli/spore_stims/complex_06_A_b.gif","self_paced","","0","complex_dissimilar","images/stimuli/spore_stims/complex_06_A_b.gif","","","","",""
"","7589.14499997627","survey-multi-choice","17","188176","0.0-10.0","SS1618365160573","math_question","","","","","","","","","","","","{""Q0"":""7""}","[0]","7","",""
"","null","html-keyboard-response","18","189140","0.0-11.0-0.0","SS1618365160573","","","null","","","","","","<p><img src= images/blank.png width =""600"" height = ""600"" style=""position:fixed;top:50%; left:50%; transform: translate(-50%, -50%); border:5px solid black"">","","","","","","","",""
"","8208.319999976084","sequential-stimulus-presentation-old","19","197399","0.0-11.0-1.0","SS1618365160573","trial","","40","500","8708.319999976084","images/stimuli/spore_stims/complex_02_A_a.gif","images/stimuli/spore_stims/complex_19_A_b.gif","forced_short","","1","complex_dissimilar","images/stimuli/spore_stims/complex_19_A_b.gif","","","","",""
"","null","html-keyboard-response","20","198286","0.0-11.0-0.1","SS1618365160573","","","null","","","","","","<p><img src= images/blank.png width =""600"" height = ""600"" style=""position:fixed;top:50%; left:50%; transform: translate(-50%, -50%); border:5px solid black"">","","","","","","","",""
"","6193.865000037476","sequential-stimulus-presentation-old","21","204993","0.0-11.0-1.1","SS1618365160573","trial","","40","500","6693.865000037476","images/stimuli/spore_stims/complex_02_A_a.gif","images/stimuli/spore_stims/complex_19_A_b.gif","forced_short","","1","complex_dissimilar","images/stimuli/spore_stims/complex_19_A_b.gif","","","","",""
"","null","html-keyboard-response","22","206056","0.0-11.0-0.2","SS1618365160573","","","null","","","","","","<p><img src= images/blank.png width =""600"" height = ""600"" style=""position:fixed;top:50%; left:50%; transform: translate(-50%, -50%); border:5px solid black"">","","","","","","","",""
"","7001.289999927394","sequential-stimulus-presentation-old","23","213572","0.0-11.0-1.2","SS1618365160573","trial","","40","500","7501.289999927394","images/stimuli/spore_stims/complex_02_A_a.gif","images/stimuli/spore_stims/complex_19_A_b.gif","forced_short","","1","complex_dissimilar","images/stimuli/spore_stims/complex_02_A_a.gif","","","","",""
"","null","html-keyboard-response","24","214506","0.0-11.0-0.3","SS1618365160573","","","null","","","","","","<p><img src= images/blank.png width =""600"" height = ""600"" style=""position:fixed;top:50%; left:50%; transform: translate(-50%, -50%); border:5px solid black"">","","","","","","","",""
"","6042.229999904521","sequential-stimulus-presentation-old","25","221064","0.0-11.0-1.3","SS1618365160573","trial","","40","500","6542.229999904521","images/stimuli/spore_stims/complex_02_A_a.gif","images/stimuli/spore_stims/complex_19_A_b.gif","forced_short","","1","complex_dissimilar","images/stimuli/spore_stims/complex_19_A_b.gif","","","","",""
"","null","html-keyboard-response","26","221940","0.0-11.0-0.4","SS1618365160573","","","null","","","","","","<p><img src= images/blank.png width =""600"" height = ""600"" style=""position:fixed;top:50%; left:50%; transform: translate(-50%, -50%); border:5px solid black"">","","","","","","","",""
"","8465.03500000108","sequential-stimulus-presentation-old","27","230919","0.0-11.0-1.4","SS1618365160573","trial","","40","500","8965.03500000108","images/stimuli/spore_stims/complex_02_A_a.gif","images/stimuli/spore_stims/complex_19_A_b.gif","forced_short","","1","complex_dissimilar","images/stimuli/spore_stims/complex_02_A_a.gif","","","","",""
"","4174.069999950007","survey-multi-choice","28","235097","0.0-12.0","SS1618365160573","math_question","","","","","","","","","","","","{""Q0"":""13""}","[0]","13","",""
"","null","html-keyboard-response","29","235940","0.0-13.0-0.0","SS1618365160573","","","null","","","","","","<p><img src= images/blank.png width =""600"" height = ""600"" style=""position:fixed;top:50%; left:50%; transform: translate(-50%, -50%); border:5px solid black"">","","","","","","","",""
"","163.76499994657934","sequential-stimulus-presentation-old","30","241121","0.0-13.0-1.0","SS1618365160573","trial","","40","500","663.7649999465793","images/stimuli/spore_stims/simple_13_A_a.gif","images/stimuli/spore_stims/simple_20_A_b.gif","forced_long","","2","simple_dissimilar","images/stimuli/spore_stims/simple_20_A_b.gif","","","","",""
"","null","html-keyboard-response","31","242137","0.0-13.0-0.1","SS1618365160573","","","null","","","","","","<p><img src= images/blank.png width =""600"" height = ""600"" style=""position:fixed;top:50%; left:50%; transform: translate(-50%, -50%); border:5px solid black"">","","","","","","","",""
"","4714.059999911115","sequential-stimulus-presentation-old","32","247360","0.0-13.0-1.1","SS1618365160573","trial","","40","500","5214.059999911115","images/stimuli/spore_stims/simple_13_A_a.gif","images/stimuli/spore_stims/simple_20_A_b.gif","forced_long","","2","simple_dissimilar","images/stimuli/spore_stims/simple_20_A_b.gif","","","","",""
"","null","html-keyboard-response","33","248651","0.0-13.0-0.2","SS1618365160573","","","null","","","","","","<p><img src= images/blank.png width =""600"" height = ""600"" style=""position:fixed;top:50%; left:50%; transform: translate(-50%, -50%); border:5px solid black"">","","","","","","","",""
"","5223.170000012033","sequential-stimulus-presentation-old","34","254388","0.0-13.0-1.2","SS1618365160573","trial","","40","500","5723.170000012033","images/stimuli/spore_stims/simple_13_A_a.gif","images/stimuli/spore_stims/simple_20_A_b.gif","forced_long","","2","simple_dissimilar","images/stimuli/spore_stims/simple_13_A_a.gif","","","","",""
"","null","html-keyboard-response","35","255316","0.0-13.0-0.3","SS1618365160573","","","null","","","","","","<p><img src= images/blank.png width =""600"" height = ""600"" style=""position:fixed;top:50%; left:50%; transform: translate(-50%, -50%); border:5px solid black"">","","","","","","","",""
"","5372.865000041202","sequential-stimulus-presentation-old","36","261204","0.0-13.0-1.3","SS1618365160573","trial","","40","500","5872.865000041202","images/stimuli/spore_stims/simple_13_A_a.gif","images/stimuli/spore_stims/simple_20_A_b.gif","forced_long","","2","simple_dissimilar","images/stimuli/spore_stims/simple_20_A_b.gif","","","","",""
"","null","html-keyboard-response","37","262079","0.0-13.0-0.4","SS1618365160573","","","null","","","","","","<p><img src= images/blank.png width =""600"" height = ""600"" style=""position:fixed;top:50%; left:50%; transform: translate(-50%, -50%); border:5px solid black"">","","","","","","","",""
"","8778.710000100546","sequential-stimulus-presentation-old","38","271376","0.0-13.0-1.4","SS1618365160573","trial","","40","500","9278.710000100546","images/stimuli/spore_stims/simple_13_A_a.gif","images/stimuli/spore_stims/simple_20_A_b.gif","forced_long","","2","simple_dissimilar","images/stimuli/spore_stims/simple_20_A_b.gif","","","","",""
"","null","html-keyboard-response","39","272352","0.0-13.0-0.5","SS1618365160573","","","null","","","","","","<p><img src= images/blank.png width =""600"" height = ""600"" style=""position:fixed;top:50%; left:50%; transform: translate(-50%, -50%); border:5px solid black"">","","","","","","","",""
"","10156.149999937043","sequential-stimulus-presentation-old","40","283022","0.0-13.0-1.5","SS1618365160573","trial","","40","500","10656.149999937043","images/stimuli/spore_stims/simple_13_A_a.gif","images/stimuli/spore_stims/simple_20_A_b.gif","forced_long","","2","simple_dissimilar","images/stimuli/spore_stims/simple_20_A_b.gif","","","","",""
"","2907.799999928102","survey-multi-choice","41","285934","0.0-14.0","SS1618365160573","math_question","","","","","","","","","","","","{""Q0"":""4""}","[0]","4","",""
"","null","html-keyboard-response","42","287143","0.0-15.0-0.0","SS1618365160573","","","null","","","","","","<p><img src= images/blank.png width =""600"" height = ""600"" style=""position:fixed;top:50%; left:50%; transform: translate(-50%, -50%); border:5px solid black"">","","","","","","","",""
"","4952.7300000190735","sequential-stimulus-presentation-old","43","292155","0.0-15.0-1.0","SS1618365160573","trial","","40","500","5452.7300000190735","images/stimuli/spore_stims/complex_20_A_b.gif","images/stimuli/spore_stims/complex_14_A_a.gif","forced_short","","3","complex_dissimilar","images/stimuli/spore_stims/complex_14_A_a.gif","","","","",""
"","null","html-keyboard-response","44","293369","0.0-15.0-0.1","SS1618365160573","","","null","","","","","","<p><img src= images/blank.png width =""600"" height = ""600"" style=""position:fixed;top:50%; left:50%; transform: translate(-50%, -50%); border:5px solid black"">","","","","","","","",""
"","6692.904999945313","sequential-stimulus-presentation-old","45","300575","0.0-15.0-1.1","SS1618365160573","trial","","40","500","7192.904999945313","images/stimuli/spore_stims/complex_20_A_b.gif","images/stimuli/spore_stims/complex_14_A_a.gif","forced_short","","3","complex_dissimilar","images/stimuli/spore_stims/complex_14_A_a.gif","","","","",""
"","null","html-keyboard-response","46","301485","0.0-15.0-0.2","SS1618365160573","","","null","","","","","","<p><img src= images/blank.png width =""600"" height = ""600"" style=""position:fixed;top:50%; left:50%; transform: translate(-50%, -50%); border:5px solid black"">","","","","","","","",""
"","6778.51999993436","sequential-stimulus-presentation-old","47","308778","0.0-15.0-1.2","SS1618365160573","trial","","40","500","7278.51999993436","images/stimuli/spore_stims/complex_20_A_b.gif","images/stimuli/spore_stims/complex_14_A_a.gif","forced_short","","3","complex_dissimilar","images/stimuli/spore_stims/complex_14_A_a.gif","","","","",""
"","null","html-keyboard-response","48","310028","0.0-15.0-0.3","SS1618365160573","","","null","","","","","","<p><img src= images/blank.png width =""600"" height = ""600"" style=""position:fixed;top:50%; left:50%; transform: translate(-50%, -50%); border:5px solid black"">","","","","","","","",""
"","7428.064999985509","sequential-stimulus-presentation-old","49","317964","0.0-15.0-1.3","SS1618365160573","trial","","40","500","7928.064999985509","images/stimuli/spore_stims/complex_20_A_b.gif","images/stimuli/spore_stims/complex_14_A_a.gif","forced_short","","3","complex_dissimilar","images/stimuli/spore_stims/complex_14_A_a.gif","","","","",""
"","3724.750000052154","survey-multi-choice","50","321694","0.0-16.0","SS1618365160573","math_question","","","","","","","","","","","","{""Q0"":""16""}","[0]","16","",""
"","null","html-keyboard-response","51","322832","0.0-17.0-0.0","SS1618365160573","","","null","","","","","","<p><img src= images/blank.png width =""600"" height = ""600"" style=""position:fixed;top:50%; left:50%; transform: translate(-50%, -50%); border:5px solid black"">","","","","","","","",""
"","1118.750000023283","sequential-stimulus-presentation-old","52","328973","0.0-17.0-1.0","SS1618365160573","trial","","40","500","1618.750000023283","images/stimuli/spore_stims/complex_02_A_b.gif","images/stimuli/spore_stims/complex_08_A_a.gif","forced_long","","4","complex_dissimilar","images/stimuli/spore_stims/complex_08_A_a.gif","","","","",""
"","null","html-keyboard-response","53","330170","0.0-17.0-0.1","SS1618365160573","","","null","","","","","","<p><img src= images/blank.png width =""600"" height = ""600"" style=""position:fixed;top:50%; left:50%; transform: translate(-50%, -50%); border:5px solid black"">","","","","","","","",""
"","10404.424999956973","sequential-stimulus-presentation-old","54","341088","0.0-17.0-1.1","SS1618365160573","trial","","40","500","10904.424999956973","images/stimuli/spore_stims/complex_02_A_b.gif","images/stimuli/spore_stims/complex_08_A_a.gif","forced_long","","4","complex_dissimilar","images/stimuli/spore_stims/complex_02_A_b.gif","","","","",""
"","null","html-keyboard-response","55","342065","0.0-17.0-0.2","SS1618365160573","","","null","","","","","","<p><img src= images/blank.png width =""600"" height = ""600"" style=""position:fixed;top:50%; left:50%; transform: translate(-50%, -50%); border:5px solid black"">","","","","","","","",""
"","10019.035000004806","sequential-stimulus-presentation-old","56","352603","0.0-17.0-1.2","SS1618365160573","trial","","40","500","10519.035000004806","images/stimuli/spore_stims/complex_02_A_b.gif","images/stimuli/spore_stims/complex_08_A_a.gif","forced_long","","4","complex_dissimilar","images/stimuli/spore_stims/complex_08_A_a.gif","","","","",""
"","null","html-keyboard-response","57","353584","0.0-17.0-0.3","SS1618365160573","","","null","","","","","","<p><img src= images/blank.png width =""600"" height = ""600"" style=""position:fixed;top:50%; left:50%; transform: translate(-50%, -50%); border:5px solid black"">","","","","","","","",""
"","3395.0849999673665","sequential-stimulus-presentation-old","58","357497","0.0-17.0-1.3","SS1618365160573","trial","","40","500","3895.0849999673665","images/stimuli/spore_stims/complex_02_A_b.gif","images/stimuli/spore_stims/complex_08_A_a.gif","forced_long","","4","complex_dissimilar","images/stimuli/spore_stims/complex_08_A_a.gif","","","","",""
"","2975.555000011809","survey-multi-choice","59","360478","0.0-18.0","SS1618365160573","math_question","","","","","","","","","","","","{""Q0"":""6""}","[0]","6","",""
"","null","html-keyboard-response","60","361737","0.0-19.0-0.0","SS1618365160573","","","null","","","","","","<p><img src= images/blank.png width =""600"" height = ""600"" style=""position:fixed;top:50%; left:50%; transform: translate(-50%, -50%); border:5px solid black"">","","","","","","","",""
"","5350.169999990612","sequential-stimulus-presentation-old","61","367601","0.0-19.0-1.0","SS1618365160573","trial","","40","500","5850.169999990612","images/stimuli/spore_stims/complex_08_A_b.gif","images/stimuli/spore_stims/complex_13_A_a.gif","self_paced","","5","complex_dissimilar","images/stimuli/spore_stims/complex_13_A_a.gif","","","","",""
"","null","html-keyboard-response","62","368634","0.0-19.0-0.1","SS1618365160573","","","null","","","","","","<p><img src= images/blank.png width =""600"" height = ""600"" style=""position:fixed;top:50%; left:50%; transform: translate(-50%, -50%); border:5px solid black"">","","","","","","","",""
"","4420.954999979585","sequential-stimulus-presentation-old","63","373568","0.0-19.0-1.1","SS1618365160573","trial","","40","500","4920.954999979585","images/stimuli/spore_stims/complex_08_A_b.gif","images/stimuli/spore_stims/complex_13_A_a.gif","self_paced","","5","complex_dissimilar","images/stimuli/spore_stims/complex_13_A_a.gif","","","","",""
"","null","html-keyboard-response","64","374800","0.0-19.0-0.2","SS1618365160573","","","null","","","","","","<p><img src= images/blank.png width =""600"" height = ""600"" style=""position:fixed;top:50%; left:50%; transform: translate(-50%, -50%); border:5px solid black"">","","","","","","","",""
"","7772.895000060089","sequential-stimulus-presentation-old","65","383081","0.0-19.0-1.2","SS1618365160573","trial","","40","500","8272.895000060089","images/stimuli/spore_stims/complex_08_A_b.gif","images/stimuli/spore_stims/complex_13_A_a.gif","self_paced","","5","complex_dissimilar","images/stimuli/spore_stims/complex_13_A_a.gif","","","","",""
"","null","html-keyboard-response","66","384059","0.0-19.0-0.3","SS1618365160573","","","null","","","","","","<p><img src= images/blank.png width =""600"" height = ""600"" style=""position:fixed;top:50%; left:50%; transform: translate(-50%, -50%); border:5px solid black"">","","","","","","","",""
"","7928.485000040382","sequential-stimulus-presentation-old","67","392497","0.0-19.0-1.3","SS1618365160573","trial","","40","500","8428.485000040382","images/stimuli/spore_stims/complex_08_A_b.gif","images/stimuli/spore_stims/complex_13_A_a.gif","self_paced","","5","complex_dissimilar","images/stimuli/spore_stims/complex_13_A_a.gif","","","","",""
"","null","html-keyboard-response","68","393320","0.0-19.0-0.4","SS1618365160573","","","null","","","","","","<p><img src= images/blank.png width =""600"" height = ""600"" style=""position:fixed;top:50%; left:50%; transform: translate(-50%, -50%); border:5px solid black"">","","","","","","","",""
"","19139.064999995753","sequential-stimulus-presentation-old","69","412967","0.0-19.0-1.4","SS1618365160573","trial","","40","500","19639.064999995753","images/stimuli/spore_stims/complex_08_A_b.gif","images/stimuli/spore_stims/complex_13_A_a.gif","self_paced","","5","complex_dissimilar","images/stimuli/spore_stims/complex_08_A_b.gif","","","","",""
"","null","html-keyboard-response","70","414221","0.0-19.0-0.5","SS1618365160573","","","null","","","","","","<p><img src= images/blank.png width =""600"" height = ""600"" style=""position:fixed;top:50%; left:50%; transform: translate(-50%, -50%); border:5px solid black"">","","","","","","","",""
"","9389.220000011846","sequential-stimulus-presentation-old","71","424124","0.0-19.0-1.5","SS1618365160573","trial","","40","500","9889.220000011846","images/stimuli/spore_stims/complex_08_A_b.gif","images/stimuli/spore_stims/complex_13_A_a.gif","self_paced","","5","complex_dissimilar","images/stimuli/spore_stims/complex_13_A_a.gif","","","","",""
"","3774.6949999127537","survey-multi-choice","72","427904","0.0-20.0","SS1618365160573","math_question","","","","","","","","","","","","{""Q0"":""5""}","[0]","5","",""
"","null","html-keyboard-response","73","429188","0.0-21.0-0.0","SS1618365160573","","","null","","","","","","<p><img src= images/blank.png width =""600"" height = ""600"" style=""position:fixed;top:50%; left:50%; transform: translate(-50%, -50%); border:5px solid black"">","","","","","","","",""
"","2667.805000091903","sequential-stimulus-presentation-old","74","432372","0.0-21.0-1.0","SS1618365160573","trial","","40","500","3167.805000091903","images/stimuli/spore_stims/simple_03_A_a.gif","images/stimuli/spore_stims/simple_06_A_b.gif","self_paced","","6","simple_dissimilar","images/stimuli/spore_stims/simple_06_A_b.gif","","","","",""
"","null","html-keyboard-response","75","433527","0.0-21.0-0.1","SS1618365160573","","","null","","","","","","<p><img src= images/blank.png width =""600"" height = ""600"" style=""position:fixed;top:50%; left:50%; transform: translate(-50%, -50%); border:5px solid black"">","","","","","","","",""
"","2574.25000006333","sequential-stimulus-presentation-old","76","436612","0.0-21.0-1.1","SS1618365160573","trial","","40","500","3074.25000006333","images/stimuli/spore_stims/simple_03_A_a.gif","images/stimuli/spore_stims/simple_06_A_b.gif","self_paced","","6","simple_dissimilar","images/stimuli/spore_stims/simple_06_A_b.gif","","","","",""
"","null","html-keyboard-response","77","437497","0.0-21.0-0.2","SS1618365160573","","","null","","","","","","<p><img src= images/blank.png width =""600"" height = ""600"" style=""position:fixed;top:50%; left:50%; transform: translate(-50%, -50%); border:5px solid black"">","","","","","","","",""
"","3287.7550000557676","sequential-stimulus-presentation-old","78","441293","0.0-21.0-1.2","SS1618365160573","trial","","40","500","3787.7550000557676","images/stimuli/spore_stims/simple_03_A_a.gif","images/stimuli/spore_stims/simple_06_A_b.gif","self_paced","","6","simple_dissimilar","images/stimuli/spore_stims/simple_06_A_b.gif","","","","",""
"","null","html-keyboard-response","79","442105","0.0-21.0-0.3","SS1618365160573","","","null","","","","","","<p><img src= images/blank.png width =""600"" height = ""600"" style=""position:fixed;top:50%; left:50%; transform: translate(-50%, -50%); border:5px solid black"">","","","","","","","",""
"","2496.849999995902","sequential-stimulus-presentation-old","80","445116","0.0-21.0-1.3","SS1618365160573","trial","","40","500","2996.849999995902","images/stimuli/spore_stims/simple_03_A_a.gif","images/stimuli/spore_stims/simple_06_A_b.gif","self_paced","","6","simple_dissimilar","images/stimuli/spore_stims/simple_06_A_b.gif","","","","",""
"","null","html-keyboard-response","81","446147","0.0-21.0-0.4","SS1618365160573","","","null","","","","","","<p><img src= images/blank.png width =""600"" height = ""600"" style=""position:fixed;top:50%; left:50%; transform: translate(-50%, -50%); border:5px solid black"">","","","","","","","",""
"","3829.989999998361","sequential-stimulus-presentation-old","82","450485","0.0-21.0-1.4","SS1618365160573","trial","","40","500","4329.989999998361","images/stimuli/spore_stims/simple_03_A_a.gif","images/stimuli/spore_stims/simple_06_A_b.gif","self_paced","","6","simple_dissimilar","images/stimuli/spore_stims/simple_06_A_b.gif","","","","",""
"","4908.594999928027","survey-multi-choice","83","455401","0.0-22.0","SS1618365160573","math_question","","","","","","","","","","","","{""Q0"":""10""}","[0]","10","",""
"","null","html-keyboard-response","84","456572","0.0-23.0-0.0","SS1618365160573","","","null","","","","","","<p><img src= images/blank.png width =""600"" height = ""600"" style=""position:fixed;top:50%; left:50%; transform: translate(-50%, -50%); border:5px solid black"">","","","","","","","",""
"","2663.285000016913","sequential-stimulus-presentation-old","85","459301","0.0-23.0-1.0","SS1618365160573","trial","","40","500","3163.285000016913","images/stimuli/spore_stims/simple_04_A_a.gif","images/stimuli/spore_stims/simple_19_A_b.gif","forced_short","","7","simple_dissimilar","images/stimuli/spore_stims/simple_19_A_b.gif","","","","",""
"","null","html-keyboard-response","86","460289","0.0-23.0-0.1","SS1618365160573","","","null","","","","","","<p><img src= images/blank.png width =""600"" height = ""600"" style=""position:fixed;top:50%; left:50%; transform: translate(-50%, -50%); border:5px solid black"">","","","","","","","",""
"","3805.4449999472126","sequential-stimulus-presentation-old","87","464606","0.0-23.0-1.1","SS1618365160573","trial","","40","500","4305.444999947213","images/stimuli/spore_stims/simple_04_A_a.gif","images/stimuli/spore_stims/simple_19_A_b.gif","forced_short","","7","simple_dissimilar","images/stimuli/spore_stims/simple_04_A_a.gif","","","","",""
"","null","html-keyboard-response","88","465689","0.0-23.0-0.2","SS1618365160573","","","null","","","","","","<p><img src= images/blank.png width =""600"" height = ""600"" style=""position:fixed;top:50%; left:50%; transform: translate(-50%, -50%); border:5px solid black"">","","","","","","","",""
"","2205.584999988787","sequential-stimulus-presentation-old","89","468412","0.0-23.0-1.2","SS1618365160573","trial","","40","500","2705.584999988787","images/stimuli/spore_stims/simple_04_A_a.gif","images/stimuli/spore_stims/simple_19_A_b.gif","forced_short","","7","simple_dissimilar","images/stimuli/spore_stims/simple_19_A_b.gif","","","","",""
"","null","html-keyboard-response","90","469712","0.0-23.0-0.3","SS1618365160573","","","null","","","","","","<p><img src= images/blank.png width =""600"" height = ""600"" style=""position:fixed;top:50%; left:50%; transform: translate(-50%, -50%); border:5px solid black"">","","","","","","","",""
"","1379.8850000603124","sequential-stimulus-presentation-old","91","471602","0.0-23.0-1.3","SS1618365160573","trial","","40","500","1879.8850000603124","images/stimuli/spore_stims/simple_04_A_a.gif","images/stimuli/spore_stims/simple_19_A_b.gif","forced_short","","7","simple_dissimilar","images/stimuli/spore_stims/simple_19_A_b.gif","","","","",""
"","null","html-keyboard-response","92","472467","0.0-23.0-0.4","SS1618365160573","","","null","","","","","","<p><img src= images/blank.png width =""600"" height = ""600"" style=""position:fixed;top:50%; left:50%; transform: translate(-50%, -50%); border:5px solid black"">","","","","","","","",""
"","1568.6249999562278","sequential-stimulus-presentation-old","93","474554","0.0-23.0-1.4","SS1618365160573","trial","","40","500","2068.624999956228","images/stimuli/spore_stims/simple_04_A_a.gif","images/stimuli/spore_stims/simple_19_A_b.gif","forced_short","","7","simple_dissimilar","images/stimuli/spore_stims/simple_04_A_a.gif","","","","",""
"","2989.6350000053644","survey-multi-choice","94","477551","0.0-24.0","SS1618365160573","math_question","","","","","","","","","","","","{""Q0"":""9""}","[0]","9","",""
"","null","html-keyboard-response","95","478472","0.0-25.0-0.0","SS1618365160573","","","null","","","","","","<p><img src= images/blank.png width =""600"" height = ""600"" style=""position:fixed;top:50%; left:50%; transform: translate(-50%, -50%); border:5px solid black"">","","","","","","","",""
"","726.094999932684","sequential-stimulus-presentation-old","96","484212","0.0-25.0-1.0","SS1618365160573","trial","","40","500","1226.094999932684","images/stimuli/spore_stims/complex_09_A_b.gif","images/stimuli/spore_stims/complex_17_A_a.gif","forced_long","","8","complex_dissimilar","images/stimuli/spore_stims/complex_17_A_a.gif","","","","",""
"","null","html-keyboard-response","97","485365","0.0-25.0-0.1","SS1618365160573","","","null","","","","","","<p><img src= images/blank.png width =""600"" height = ""600"" style=""position:fixed;top:50%; left:50%; transform: translate(-50%, -50%); border:5px solid black"">","","","","","","","",""
"","4030.945000005886","sequential-stimulus-presentation-old","98","489909","0.0-25.0-1.1","SS1618365160573","trial","","40","500","4530.945000005886","images/stimuli/spore_stims/complex_09_A_b.gif","images/stimuli/spore_stims/complex_17_A_a.gif","forced_long","","8","complex_dissimilar","images/stimuli/spore_stims/complex_17_A_a.gif","","","","",""
"","null","html-keyboard-response","99","490973","0.0-25.0-0.2","SS1618365160573","","","null","","","","","","<p><img src= images/blank.png width =""600"" height = ""600"" style=""position:fixed;top:50%; left:50%; transform: translate(-50%, -50%); border:5px solid black"">","","","","","","","",""
"","3237.1199999470264","sequential-stimulus-presentation-old","100","494726","0.0-25.0-1.2","SS1618365160573","trial","","40","500","3737.1199999470264","images/stimuli/spore_stims/complex_09_A_b.gif","images/stimuli/spore_stims/complex_17_A_a.gif","forced_long","","8","complex_dissimilar","images/stimuli/spore_stims/complex_17_A_a.gif","","","","",""
"","null","html-keyboard-response","101","496008","0.0-25.0-0.3","SS1618365160573","","","null","","","","","","<p><img src= images/blank.png width =""600"" height = ""600"" style=""position:fixed;top:50%; left:50%; transform: translate(-50%, -50%); border:5px solid black"">","","","","","","","",""
"","4246.365000028163","sequential-stimulus-presentation-old","102","500770","0.0-25.0-1.3","SS1618365160573","trial","","40","500","4746.365000028163","images/stimuli/spore_stims/complex_09_A_b.gif","images/stimuli/spore_stims/complex_17_A_a.gif","forced_long","","8","complex_dissimilar","images/stimuli/spore_stims/complex_09_A_b.gif","","","","",""
"","null","html-keyboard-response","103","502091","0.0-25.0-0.4","SS1618365160573","","","null","","","","","","<p><img src= images/blank.png width =""600"" height = ""600"" style=""position:fixed;top:50%; left:50%; transform: translate(-50%, -50%); border:5px solid black"">","","","","","","","",""
"","2561.86500005424","sequential-stimulus-presentation-old","104","505167","0.0-25.0-1.4","SS1618365160573","trial","","40","500","3061.86500005424","images/stimuli/spore_stims/complex_09_A_b.gif","images/stimuli/spore_stims/complex_17_A_a.gif","forced_long","","8","complex_dissimilar","images/stimuli/spore_stims/complex_17_A_a.gif","","","","",""
"","null","html-keyboard-response","105","506424","0.0-25.0-0.5","SS1618365160573","","","null","","","","","","<p><img src= images/blank.png width =""600"" height = ""600"" style=""position:fixed;top:50%; left:50%; transform: translate(-50%, -50%); border:5px solid black"">","","","","","","","",""
"","4294.940000050701","sequential-stimulus-presentation-old","106","511233","0.0-25.0-1.5","SS1618365160573","trial","","40","500","4794.940000050701","images/stimuli/spore_stims/complex_09_A_b.gif","images/stimuli/spore_stims/complex_17_A_a.gif","forced_long","","8","complex_dissimilar","images/stimuli/spore_stims/complex_09_A_b.gif","","","","",""
"","3410.7099999673665","survey-multi-choice","107","514652","0.0-26.0","SS1618365160573","math_question","","","","","","","","","","","","{""Q0"":""13""}","[0]","13","",""
"","null","html-keyboard-response","108","515475","0.0-27.0-0.0","SS1618365160573","","","null","","","","","","<p><img src= images/blank.png width =""600"" height = ""600"" style=""position:fixed;top:50%; left:50%; transform: translate(-50%, -50%); border:5px solid black"">","","","","","","","",""
"","3840.9799999790266","sequential-stimulus-presentation-old","109","524333","0.0-27.0-1.0","SS1618365160573","trial","","40","500","4340.979999979027","images/stimuli/spore_stims/simple_14_A_a.gif","images/stimuli/spore_stims/simple_15_A_b.gif","forced_long","","9","simple_dissimilar","images/stimuli/spore_stims/simple_15_A_b.gif","","","","",""
"","null","html-keyboard-response","110","525159","0.0-27.0-0.1","SS1618365160573","","","null","","","","","","<p><img src= images/blank.png width =""600"" height = ""600"" style=""position:fixed;top:50%; left:50%; transform: translate(-50%, -50%); border:5px solid black"">","","","","","","","",""
"","2859.2149999458343","sequential-stimulus-presentation-old","111","528533","0.0-27.0-1.1","SS1618365160573","trial","","40","500","3359.2149999458343","images/stimuli/spore_stims/simple_14_A_a.gif","images/stimuli/spore_stims/simple_15_A_b.gif","forced_long","","9","simple_dissimilar","images/stimuli/spore_stims/simple_15_A_b.gif","","","","",""
"","null","html-keyboard-response","112","529839","0.0-27.0-0.2","SS1618365160573","","","null","","","","","","<p><img src= images/blank.png width =""600"" height = ""600"" style=""position:fixed;top:50%; left:50%; transform: translate(-50%, -50%); border:5px solid black"">","","","","","","","",""
"","1790.3349999105558","sequential-stimulus-presentation-old","113","532145","0.0-27.0-1.2","SS1618365160573","trial","","40","500","2290.334999910556","images/stimuli/spore_stims/simple_14_A_a.gif","images/stimuli/spore_stims/simple_15_A_b.gif","forced_long","","9","simple_dissimilar","images/stimuli/spore_stims/simple_15_A_b.gif","","","","",""
"","null","html-keyboard-response","114","533215","0.0-27.0-0.3","SS1618365160573","","","null","","","","","","<p><img src= images/blank.png width =""600"" height = ""600"" style=""position:fixed;top:50%; left:50%; transform: translate(-50%, -50%); border:5px solid black"">","","","","","","","",""
"","3789.9400000460446","sequential-stimulus-presentation-old","115","537529","0.0-27.0-1.3","SS1618365160573","trial","","40","500","4289.940000046045","images/stimuli/spore_stims/simple_14_A_a.gif","images/stimuli/spore_stims/simple_15_A_b.gif","forced_long","","9","simple_dissimilar","images/stimuli/spore_stims/simple_14_A_a.gif","","","","",""
"","3284.194999956526","survey-multi-choice","116","540820","0.0-28.0","SS1618365160573","math_question","","","","","","","","","","","","{""Q0"":""11""}","[0]","11","",""
"","null","html-keyboard-response","117","541693","0.0-29.0-0.0","SS1618365160573","","","null","","","","","","<p><img src= images/blank.png width =""600"" height = ""600"" style=""position:fixed;top:50%; left:50%; transform: translate(-50%, -50%); border:5px solid black"">","","","","","","","",""
"","4576.774999964982","sequential-stimulus-presentation-old","118","546786","0.0-29.0-1.0","SS1618365160573","trial","","40","500","5076.774999964982","images/stimuli/spore_stims/simple_10_A_a.gif","images/stimuli/spore_stims/simple_11_A_b.gif","self_paced","","10","simple_dissimilar","images/stimuli/spore_stims/simple_11_A_b.gif","","","","",""
"","null","html-keyboard-response","119","547620","0.0-29.0-0.1","SS1618365160573","","","null","","","","","","<p><img src= images/blank.png width =""600"" height = ""600"" style=""position:fixed;top:50%; left:50%; transform: translate(-50%, -50%); border:5px solid black"">","","","","","","","",""
"","3927.6499999687076","sequential-stimulus-presentation-old","120","552067","0.0-29.0-1.1","SS1618365160573","trial","","40","500","4427.649999968708","images/stimuli/spore_stims/simple_10_A_a.gif","images/stimuli/spore_stims/simple_11_A_b.gif","self_paced","","10","simple_dissimilar","images/stimuli/spore_stims/simple_10_A_a.gif","","","","",""
"","null","html-keyboard-response","121","553002","0.0-29.0-0.2","SS1618365160573","","","null","","","","","","<p><img src= images/blank.png width =""600"" height = ""600"" style=""position:fixed;top:50%; left:50%; transform: translate(-50%, -50%); border:5px solid black"">","","","","","","","",""
"","7617.009999928996","sequential-stimulus-presentation-old","122","561132","0.0-29.0-1.2","SS1618365160573","trial","","40","500","8117.009999928996","images/stimuli/spore_stims/simple_10_A_a.gif","images/stimuli/spore_stims/simple_11_A_b.gif","self_paced","","10","simple_dissimilar","images/stimuli/spore_stims/simple_11_A_b.gif","","","","",""
"","null","html-keyboard-response","123","561952","0.0-29.0-0.3","SS1618365160573","","","null","","","","","","<p><img src= images/blank.png width =""600"" height = ""600"" style=""position:fixed;top:50%; left:50%; transform: translate(-50%, -50%); border:5px solid black"">","","","","","","","",""
"","3241.885000024922","sequential-stimulus-presentation-old","124","565716","0.0-29.0-1.3","SS1618365160573","trial","","40","500","3741.885000024922","images/stimuli/spore_stims/simple_10_A_a.gif","images/stimuli/spore_stims/simple_11_A_b.gif","self_paced","","10","simple_dissimilar","images/stimuli/spore_stims/simple_11_A_b.gif","","","","",""
"","null","html-keyboard-response","125","566985","0.0-29.0-0.4","SS1618365160573","","","null","","","","","","<p><img src= images/blank.png width =""600"" height = ""600"" style=""position:fixed;top:50%; left:50%; transform: translate(-50%, -50%); border:5px solid black"">","","","","","","","",""
"","2425.5600000033155","sequential-stimulus-presentation-old","126","569931","0.0-29.0-1.4","SS1618365160573","trial","","40","500","2925.5600000033155","images/stimuli/spore_stims/simple_10_A_a.gif","images/stimuli/spore_stims/simple_11_A_b.gif","self_paced","","10","simple_dissimilar","images/stimuli/spore_stims/simple_11_A_b.gif","","","","",""
"","null","html-keyboard-response","127","570856","0.0-29.0-0.5","SS1618365160573","","","null","","","","","","<p><img src= images/blank.png width =""600"" height = ""600"" style=""position:fixed;top:50%; left:50%; transform: translate(-50%, -50%); border:5px solid black"">","","","","","","","",""
"","2588.315000059083","sequential-stimulus-presentation-old","128","573961","0.0-29.0-1.5","SS1618365160573","trial","","40","500","3088.315000059083","images/stimuli/spore_stims/simple_10_A_a.gif","images/stimuli/spore_stims/simple_11_A_b.gif","self_paced","","10","simple_dissimilar","images/stimuli/spore_stims/simple_10_A_a.gif","","","","",""
"","3219.0999999875203","survey-multi-choice","129","577188","0.0-30.0","SS1618365160573","math_question","","","","","","","","","","","","{""Q0"":""11""}","[0]","11","",""
"","null","html-keyboard-response","130","578323","0.0-31.0-0.0","SS1618365160573","","","null","","","","","","<p><img src= images/blank.png width =""600"" height = ""600"" style=""position:fixed;top:50%; left:50%; transform: translate(-50%, -50%); border:5px solid black"">","","","","","","","",""
"","1398.12000002712","sequential-stimulus-presentation-old","131","579785","0.0-31.0-1.0","SS1618365160573","trial","","40","500","1898.12000002712","images/stimuli/spore_stims/simple_16_A_b.gif","images/stimuli/spore_stims/simple_01_A_a.gif","forced_short","","11","simple_dissimilar","images/stimuli/spore_stims/simple_01_A_a.gif","","","","",""
"","null","html-keyboard-response","132","580870","0.0-31.0-0.1","SS1618365160573","","","null","","","","","","<p><img src= images/blank.png width =""600"" height = ""600"" style=""position:fixed;top:50%; left:50%; transform: translate(-50%, -50%); border:5px solid black"">","","","","","","","",""
"","4899.999999906868","sequential-stimulus-presentation-old","133","586283","0.0-31.0-1.1","SS1618365160573","trial","","40","500","5399.999999906868","images/stimuli/spore_stims/simple_16_A_b.gif","images/stimuli/spore_stims/simple_01_A_a.gif","forced_short","","11","simple_dissimilar","images/stimuli/spore_stims/simple_01_A_a.gif","","","","",""
"","null","html-keyboard-response","134","587394","0.0-31.0-0.2","SS1618365160573","","","null","","","","","","<p><img src= images/blank.png width =""600"" height = ""600"" style=""position:fixed;top:50%; left:50%; transform: translate(-50%, -50%); border:5px solid black"">","","","","","","","",""
"","2325.3699999768287","sequential-stimulus-presentation-old","135","590233","0.0-31.0-1.2","SS1618365160573","trial","","40","500","2825.3699999768287","images/stimuli/spore_stims/simple_16_A_b.gif","images/stimuli/spore_stims/simple_01_A_a.gif","forced_short","","11","simple_dissimilar","images/stimuli/spore_stims/simple_01_A_a.gif","","","","",""
"","null","html-keyboard-response","136","591388","0.0-31.0-0.3","SS1618365160573","","","null","","","","","","<p><img src= images/blank.png width =""600"" height = ""600"" style=""position:fixed;top:50%; left:50%; transform: translate(-50%, -50%); border:5px solid black"">","","","","","","","",""
"","6248.194999992847","sequential-stimulus-presentation-old","137","598156","0.0-31.0-1.3","SS1618365160573","trial","","40","500","6748.194999992847","images/stimuli/spore_stims/simple_16_A_b.gif","images/stimuli/spore_stims/simple_01_A_a.gif","forced_short","","11","simple_dissimilar","images/stimuli/spore_stims/simple_01_A_a.gif","","","","",""
"[{""page_index"":0,""viewing_time"":5212.8800000064075}]","5213.67999992799","instructions","138","603377","0.0-32.0","SS1618365160573","instructions","","","","","","","","","","","","","","","",""
"","9575.650000013411","survey-likert","139","612957","0.0-33.0","SS1618365160573","similarity_question","","","","","","","","","","","","{""Q0"":4}","[0]","","images/stimuli/spore_stims/simple_03_A_a.gif","images/stimuli/spore_stims/simple_06_A_b.gif"
"","7191.225000075065","survey-likert","140","620151","0.0-34.0","SS1618365160573","similarity_question","","","","","","","","","","","","{""Q0"":1}","[0]","","images/stimuli/spore_stims/complex_17_A_a.gif","images/stimuli/spore_stims/complex_09_A_b.gif"
"","5823.429999989457","survey-likert","141","625978","0.0-35.0","SS1618365160573","similarity_question","","","","","","","","","","","","{""Q0"":1}","[0]","","images/stimuli/spore_stims/complex_20_A_b.gif","images/stimuli/spore_stims/complex_14_A_a.gif"
"","5275.735000032","survey-likert","142","631259","0.0-36.0","SS1618365160573","similarity_question","","","","","","","","","","","","{""Q0"":5}","[0]","","images/stimuli/spore_stims/simple_16_A_b.gif","images/stimuli/spore_stims/simple_01_A_a.gif"
"","6440.539999981411","survey-likert","143","637704","0.0-37.0","SS1618365160573","similarity_question","","","","","","","","","","","","{""Q0"":3}","[0]","","images/stimuli/spore_stims/simple_10_A_a.gif","images/stimuli/spore_stims/simple_11_A_b.gif"
"","5387.400000006892","survey-likert","144","643095","0.0-38.0","SS1618365160573","similarity_question","","","","","","","","","","","","{""Q0"":4}","[0]","","images/stimuli/spore_stims/simple_19_A_b.gif","images/stimuli/spore_stims/simple_04_A_a.gif"
"","3521.720000077039","survey-likert","145","646621","0.0-39.0","SS1618365160573","similarity_question","","","","","","","","","","","","{""Q0"":5}","[0]","","images/stimuli/spore_stims/simple_14_A_a.gif","images/stimuli/spore_stims/simple_15_A_b.gif"
"","6014.094999991357","survey-likert","146","652639","0.0-40.0","SS1618365160573","similarity_question","","","","","","","","","","","","{""Q0"":1}","[0]","","images/stimuli/spore_stims/complex_08_A_b.gif","images/stimuli/spore_stims/complex_13_A_a.gif"
"","8931.870000087656","survey-likert","147","661575","0.0-41.0","SS1618365160573","similarity_question","","","","","","","","","","","","{""Q0"":1}","[0]","","images/stimuli/spore_stims/complex_06_A_b.gif","images/stimuli/spore_stims/complex_19_A_a.gif"
"","7087.749999947846","survey-likert","148","668667","0.0-42.0","SS1618365160573","similarity_question","","","","","","","","","","","","{""Q0"":4}","[0]","","images/stimuli/spore_stims/simple_20_A_b.gif","images/stimuli/spore_stims/simple_13_A_a.gif"
"","11261.660000076517","survey-likert","149","679929","0.0-43.0","SS1618365160573","similarity_question","","","","","","","","","","","","{""Q0"":1}","[0]","","images/stimuli/spore_stims/complex_02_A_a.gif","images/stimuli/spore_stims/complex_19_A_b.gif"
"","4959.440000005998","survey-likert","150","684892","0.0-44.0","SS1618365160573","similarity_question","","","","","","","","","","","","{""Q0"":1}","[0]","","images/stimuli/spore_stims/complex_02_A_b.gif","images/stimuli/spore_stims/complex_08_A_a.gif"
"[{""page_index"":0,""viewing_time"":5467.189999995753}]","5467.585000093095","instructions","151","690363","0.0-45.0","SS1618365160573","instructions","","","","","","","","","","","","","","","",""
"","6570.539999986067","survey-likert","152","696937","0.0-46.0","SS1618365160573","","","","","","","","","images/stimuli/spore_stims/complex_08_A_a.gif","","","","{""Q0"":4}","[0]","","",""
"","6155.050000059418","survey-likert","153","703096","0.0-47.0","SS1618365160573","","","","","","","","","images/stimuli/spore_stims/complex_14_A_a.gif","","","","{""Q0"":5}","[0]","","",""
"","4250.404999940656","survey-likert","154","707351","0.0-48.0","SS1618365160573","","","","","","","","","images/stimuli/spore_stims/simple_16_A_b.gif","","","","{""Q0"":1}","[0]","","",""
"","3744.3900000071153","survey-likert","155","711100","0.0-49.0","SS1618365160573","","","","","","","","","images/stimuli/spore_stims/simple_13_A_a.gif","","","","{""Q0"":0}","[0]","","",""
"","6751.685000024736","survey-likert","156","717856","0.0-50.0","SS1618365160573","","","","","","","","","images/stimuli/spore_stims/complex_19_A_a.gif","","","","{""Q0"":5}","[0]","","",""
"","4291.135000064969","survey-likert","157","722151","0.0-51.0","SS1618365160573","","","","","","","","","images/stimuli/spore_stims/simple_10_A_a.gif","","","","{""Q0"":0}","[0]","","",""
"","5131.820000009611","survey-likert","158","727287","0.0-52.0","SS1618365160573","","","","","","","","","images/stimuli/spore_stims/complex_13_A_a.gif","","","","{""Q0"":4}","[0]","","",""
"","3682.9199999338016","survey-likert","159","730975","0.0-53.0","SS1618365160573","","","","","","","","","images/stimuli/spore_stims/simple_03_A_a.gif","","","","{""Q0"":1}","[0]","","",""
"","4403.289999929257","survey-likert","160","735388","0.0-54.0","SS1618365160573","","","","","","","","","images/stimuli/spore_stims/simple_14_A_a.gif","","","","{""Q0"":1}","[0]","","",""
"","2982.424999936484","survey-likert","161","738375","0.0-55.0","SS1618365160573","","","","","","","","","images/stimuli/spore_stims/simple_19_A_b.gif","","","","{""Q0"":1}","[0]","","",""
"","3702.585000079125","survey-likert","162","742083","0.0-56.0","SS1618365160573","","","","","","","","","images/stimuli/spore_stims/complex_17_A_a.gif","","","","{""Q0"":4}","[0]","","",""
"","3044.7350000031292","survey-likert","163","745131","0.0-57.0","SS1618365160573","","","","","","","","","images/stimuli/spore_stims/complex_02_A_a.gif","","","","{""Q0"":4}","[0]","","",""
"[{""page_index"":0,""viewing_time"":2102.4800000013784}]","2102.8449999867007","instructions","164","747238","0.0-58.0","SS1618365160573","instructions","","","","","","","","","","","","","","","",""
"","2891.5750000160187","demog-age","165","750135","0.0-59.0","SS1618365160573","","","","","","","","","","","","","{""age"":""24""}","","","",""
"","5403.455000021495","demog-ethnic-US","166","755545","0.0-60.0","SS1618365160573","","","","","","","","","","","","","{""ethnicity"":[""Hispanic or Latino""]}","[0]","","",""
"","5950.264999992214","demog-gender-and-education","167","761501","0.0-61.0","SS1618365160573","","","","","","","","","","","","","{""gender"":""Female"",""education"":""Bachelor's Degree""}","[0,1]","","",""
"","36071.499999961816","survey-text","168","797577","0.0-62.0","SS1618365160573","feedback","","","","","","","","","","","","{""Q0"":""THE ANIMATION TAKEN TO LOAD""}","","","",""
"[{""page_index"":0,""viewing_time"":1516.5299999061972}]","1516.8749999720603","instructions","169","799098","0.0-63.0","SS1618365160573","instructions","","","","","","","","","","","","","","","",""
