"view_history","rt","trial_type","trial_index","time_elapsed","internal_node_id","subject","stimulus_type","trial_stimulus","key_press","minimum_viewing_duration","trial_looking_time","block_deviant","block_background","exposure_type","stimulus","block_number","block_type","stimulus_displayed","responses","question_order","math_correct_answer","stimulus_left","stimulus_right"
"[{""page_index"":0,""viewing_time"":7319.52999997884}]","7320.594999939203","instructions","0","7326","0.0-0.0","SS1618435655877","","","","","","","","","","","","","","","","",""
"[{""page_index"":0,""viewing_time"":19676.76499998197},{""page_index"":1,""viewing_time"":2772.7250000461936}]","22449.870000127703","instructions","1","31780","0.0-1.0","SS1618435655877","instructions","","","","","","","","","","","","","","","",""
"","7729.16500037536","sequential-stimulus-presentation-old","2","40014","0.0-2.0","SS1618435655877","","","40","500","8229.16500037536","null","null","self_paced","","","","","","","","",""
"","1802.5000002235174","sequential-stimulus-presentation-old","3","42324","0.0-3.0","SS1618435655877","","","40","500","2302.5000002235174","null","null","self_paced","","","","","","","","",""
"[{""page_index"":0,""viewing_time"":9191.029999870807}]","9191.424999851733","instructions","4","51516","0.0-4.0","SS1618435655877","instructions","","","","","","","","","","","","","","","",""
"","741.7649999260902","sequential-stimulus-presentation-old","5","57267","0.0-5.0","SS1618435655877","","","40","500","1241.7649999260902","null","null","forced_long","","","","","","","","",""
"","1934.649999719113","sequential-stimulus-presentation-old","6","59268","0.0-6.0","SS1618435655877","","","40","50","1984.649999719113","null","null","forced_long","","","","","","","","",""
"[{""page_index"":0,""viewing_time"":2669.3800003267825}]","2669.7250003926456","instructions","7","61939","0.0-7.0","SS1618435655877","instructions","","","","","","","","","","","","","","","",""
"[{""page_index"":0,""viewing_time"":5794.7799996472895},{""page_index"":1,""viewing_time"":4565.86500024423},{""page_index"":2,""viewing_time"":13374.950000084937},{""page_index"":3,""viewing_time"":9580.55999968201},{""page_index"":4,""viewing_time"":1141.605000011623}]","34458.13999976963","instructions","8","96399","0.0-8.0","SS1618435655877","instructions","","","","","","","","","","","","","","","",""
"","null","html-keyboard-response","9","97231","0.0-9.0-0.0","SS1618435655877","","","null","","","","","","<p><img src= images/blank.png width =""600"" height = ""600"" style=""position:fixed;top:50%; left:50%; transform: translate(-50%, -50%); border:5px solid black"">","","","","","","","",""
"","1331.66000014171","sequential-stimulus-presentation-old","10","98621","0.0-9.0-1.0","SS1618435655877","trial","","40","500","1831.66000014171","images/stimuli/spore_stims/simple_09_A_a.gif","images/stimuli/spore_stims/simple_10_A_b.gif","forced_short","","0","simple_dissimilar","images/stimuli/spore_stims/simple_10_A_b.gif","","","","",""
"","null","html-keyboard-response","11","99555","0.0-9.0-0.1","SS1618435655877","","","null","","","","","","<p><img src= images/blank.png width =""600"" height = ""600"" style=""position:fixed;top:50%; left:50%; transform: translate(-50%, -50%); border:5px solid black"">","","","","","","","",""
"","1893.2900000363588","sequential-stimulus-presentation-old","12","101956","0.0-9.0-1.1","SS1618435655877","trial","","40","500","2393.290000036359","images/stimuli/spore_stims/simple_09_A_a.gif","images/stimuli/spore_stims/simple_10_A_b.gif","forced_short","","0","simple_dissimilar","images/stimuli/spore_stims/simple_10_A_b.gif","","","","",""
"","null","html-keyboard-response","13","103261","0.0-9.0-0.2","SS1618435655877","","","null","","","","","","<p><img src= images/blank.png width =""600"" height = ""600"" style=""position:fixed;top:50%; left:50%; transform: translate(-50%, -50%); border:5px solid black"">","","","","","","","",""
"","251.21499970555305","sequential-stimulus-presentation-old","14","104022","0.0-9.0-1.2","SS1618435655877","trial","","40","500","751.214999705553","images/stimuli/spore_stims/simple_09_A_a.gif","images/stimuli/spore_stims/simple_10_A_b.gif","forced_short","","0","simple_dissimilar","images/stimuli/spore_stims/simple_10_A_b.gif","","","","",""
"","null","html-keyboard-response","15","105296","0.0-9.0-0.3","SS1618435655877","","","null","","","","","","<p><img src= images/blank.png width =""600"" height = ""600"" style=""position:fixed;top:50%; left:50%; transform: translate(-50%, -50%); border:5px solid black"">","","","","","","","",""
"","486.68000008910894","sequential-stimulus-presentation-old","16","106293","0.0-9.0-1.3","SS1618435655877","trial","","40","500","986.680000089109","images/stimuli/spore_stims/simple_09_A_a.gif","images/stimuli/spore_stims/simple_10_A_b.gif","forced_short","","0","simple_dissimilar","images/stimuli/spore_stims/simple_10_A_b.gif","","","","",""
"","null","html-keyboard-response","17","107529","0.0-9.0-0.4","SS1618435655877","","","null","","","","","","<p><img src= images/blank.png width =""600"" height = ""600"" style=""position:fixed;top:50%; left:50%; transform: translate(-50%, -50%); border:5px solid black"">","","","","","","","",""
"","979.6649999916553","sequential-stimulus-presentation-old","18","109014","0.0-9.0-1.4","SS1618435655877","trial","","40","500","1479.6649999916553","images/stimuli/spore_stims/simple_09_A_a.gif","images/stimuli/spore_stims/simple_10_A_b.gif","forced_short","","0","simple_dissimilar","images/stimuli/spore_stims/simple_09_A_a.gif","","","","",""
"","3394.2649997770786","survey-multi-choice","19","112413","0.0-10.0","SS1618435655877","math_question","","","","","","","","","","","","{""Q0"":""9""}","[0]","9","",""
"","null","html-keyboard-response","20","113513","0.0-11.0-0.0","SS1618435655877","","","null","","","","","","<p><img src= images/blank.png width =""600"" height = ""600"" style=""position:fixed;top:50%; left:50%; transform: translate(-50%, -50%); border:5px solid black"">","","","","","","","",""
"","955.4449999704957","sequential-stimulus-presentation-old","21","114975","0.0-11.0-1.0","SS1618435655877","trial","","40","500","1455.4449999704957","images/stimuli/spore_stims/complex_14_A_b.gif","images/stimuli/spore_stims/complex_06_A_a.gif","self_paced","","1","complex_dissimilar","images/stimuli/spore_stims/complex_06_A_a.gif","","","","",""
"","null","html-keyboard-response","22","116235","0.0-11.0-0.1","SS1618435655877","","","null","","","","","","<p><img src= images/blank.png width =""600"" height = ""600"" style=""position:fixed;top:50%; left:50%; transform: translate(-50%, -50%); border:5px solid black"">","","","","","","","",""
"","10810.994999948889","sequential-stimulus-presentation-old","23","127555","0.0-11.0-1.1","SS1618435655877","trial","","40","500","11310.994999948889","images/stimuli/spore_stims/complex_14_A_b.gif","images/stimuli/spore_stims/complex_06_A_a.gif","self_paced","","1","complex_dissimilar","images/stimuli/spore_stims/complex_06_A_a.gif","","","","",""
"","null","html-keyboard-response","24","128476","0.0-11.0-0.2","SS1618435655877","","","null","","","","","","<p><img src= images/blank.png width =""600"" height = ""600"" style=""position:fixed;top:50%; left:50%; transform: translate(-50%, -50%); border:5px solid black"">","","","","","","","",""
"","3605.20499991253","sequential-stimulus-presentation-old","25","132596","0.0-11.0-1.2","SS1618435655877","trial","","40","500","4105.20499991253","images/stimuli/spore_stims/complex_14_A_b.gif","images/stimuli/spore_stims/complex_06_A_a.gif","self_paced","","1","complex_dissimilar","images/stimuli/spore_stims/complex_14_A_b.gif","","","","",""
"","null","html-keyboard-response","26","133605","0.0-11.0-0.3","SS1618435655877","","","null","","","","","","<p><img src= images/blank.png width =""600"" height = ""600"" style=""position:fixed;top:50%; left:50%; transform: translate(-50%, -50%); border:5px solid black"">","","","","","","","",""
"","2621.365000028163","sequential-stimulus-presentation-old","27","136738","0.0-11.0-1.3","SS1618435655877","trial","","40","500","3121.365000028163","images/stimuli/spore_stims/complex_14_A_b.gif","images/stimuli/spore_stims/complex_06_A_a.gif","self_paced","","1","complex_dissimilar","images/stimuli/spore_stims/complex_06_A_a.gif","","","","",""
"","null","html-keyboard-response","28","137558","0.0-11.0-0.4","SS1618435655877","","","null","","","","","","<p><img src= images/blank.png width =""600"" height = ""600"" style=""position:fixed;top:50%; left:50%; transform: translate(-50%, -50%); border:5px solid black"">","","","","","","","",""
"","7481.7699999548495","sequential-stimulus-presentation-old","29","145547","0.0-11.0-1.4","SS1618435655877","trial","","40","500","7981.7699999548495","images/stimuli/spore_stims/complex_14_A_b.gif","images/stimuli/spore_stims/complex_06_A_a.gif","self_paced","","1","complex_dissimilar","images/stimuli/spore_stims/complex_14_A_b.gif","","","","",""
"","4512.974999845028","survey-multi-choice","30","150063","0.0-12.0","SS1618435655877","math_question","","","","","","","","","","","","{""Q0"":""11""}","[0]","11","",""
"","null","html-keyboard-response","31","151248","0.0-13.0-0.0","SS1618435655877","","","null","","","","","","<p><img src= images/blank.png width =""600"" height = ""600"" style=""position:fixed;top:50%; left:50%; transform: translate(-50%, -50%); border:5px solid black"">","","","","","","","",""
"","2312.3800000175834","sequential-stimulus-presentation-old","32","154068","0.0-13.0-1.0","SS1618435655877","trial","","40","500","2812.3800000175834","images/stimuli/spore_stims/simple_05_A_a.gif","images/stimuli/spore_stims/simple_12_A_b.gif","self_paced","","2","simple_dissimilar","images/stimuli/spore_stims/simple_12_A_b.gif","","","","",""
"","null","html-keyboard-response","33","155097","0.0-13.0-0.1","SS1618435655877","","","null","","","","","","<p><img src= images/blank.png width =""600"" height = ""600"" style=""position:fixed;top:50%; left:50%; transform: translate(-50%, -50%); border:5px solid black"">","","","","","","","",""
"","1679.5899998396635","sequential-stimulus-presentation-old","34","157290","0.0-13.0-1.1","SS1618435655877","trial","","40","500","2179.5899998396635","images/stimuli/spore_stims/simple_05_A_a.gif","images/stimuli/spore_stims/simple_12_A_b.gif","self_paced","","2","simple_dissimilar","images/stimuli/spore_stims/simple_12_A_b.gif","","","","",""
"","null","html-keyboard-response","35","158139","0.0-13.0-0.2","SS1618435655877","","","null","","","","","","<p><img src= images/blank.png width =""600"" height = ""600"" style=""position:fixed;top:50%; left:50%; transform: translate(-50%, -50%); border:5px solid black"">","","","","","","","",""
"","1179.5050003565848","sequential-stimulus-presentation-old","36","159826","0.0-13.0-1.2","SS1618435655877","trial","","40","500","1679.5050003565848","images/stimuli/spore_stims/simple_05_A_a.gif","images/stimuli/spore_stims/simple_12_A_b.gif","self_paced","","2","simple_dissimilar","images/stimuli/spore_stims/simple_12_A_b.gif","","","","",""
"","null","html-keyboard-response","37","160658","0.0-13.0-0.3","SS1618435655877","","","null","","","","","","<p><img src= images/blank.png width =""600"" height = ""600"" style=""position:fixed;top:50%; left:50%; transform: translate(-50%, -50%); border:5px solid black"">","","","","","","","",""
"","755.5350000038743","sequential-stimulus-presentation-old","38","161926","0.0-13.0-1.3","SS1618435655877","trial","","40","500","1255.5350000038743","images/stimuli/spore_stims/simple_05_A_a.gif","images/stimuli/spore_stims/simple_12_A_b.gif","self_paced","","2","simple_dissimilar","images/stimuli/spore_stims/simple_12_A_b.gif","","","","",""
"","null","html-keyboard-response","39","163013","0.0-13.0-0.4","SS1618435655877","","","null","","","","","","<p><img src= images/blank.png width =""600"" height = ""600"" style=""position:fixed;top:50%; left:50%; transform: translate(-50%, -50%); border:5px solid black"">","","","","","","","",""
"","944.1649997606874","sequential-stimulus-presentation-old","40","164462","0.0-13.0-1.4","SS1618435655877","trial","","40","500","1444.1649997606874","images/stimuli/spore_stims/simple_05_A_a.gif","images/stimuli/spore_stims/simple_12_A_b.gif","self_paced","","2","simple_dissimilar","images/stimuli/spore_stims/simple_12_A_b.gif","","","","",""
"","null","html-keyboard-response","41","165671","0.0-13.0-0.5","SS1618435655877","","","null","","","","","","<p><img src= images/blank.png width =""600"" height = ""600"" style=""position:fixed;top:50%; left:50%; transform: translate(-50%, -50%); border:5px solid black"">","","","","","","","",""
"","1741.5299997664988","sequential-stimulus-presentation-old","42","167919","0.0-13.0-1.5","SS1618435655877","trial","","40","500","2241.529999766499","images/stimuli/spore_stims/simple_05_A_a.gif","images/stimuli/spore_stims/simple_12_A_b.gif","self_paced","","2","simple_dissimilar","images/stimuli/spore_stims/simple_12_A_b.gif","","","","",""
"","3587.8750002011657","survey-multi-choice","43","171510","0.0-14.0","SS1618435655877","math_question","","","","","","","","","","","","{""Q0"":""16""}","[0]","16","",""
"","null","html-keyboard-response","44","172601","0.0-15.0-0.0","SS1618435655877","","","null","","","","","","<p><img src= images/blank.png width =""600"" height = ""600"" style=""position:fixed;top:50%; left:50%; transform: translate(-50%, -50%); border:5px solid black"">","","","","","","","",""
"","931.1649999581277","sequential-stimulus-presentation-old","45","173592","0.0-15.0-1.0","SS1618435655877","trial","","40","500","1431.1649999581277","images/stimuli/spore_stims/simple_15_A_a.gif","images/stimuli/spore_stims/simple_01_A_b.gif","forced_short","","3","simple_dissimilar","images/stimuli/spore_stims/simple_01_A_b.gif","","","","",""
"","null","html-keyboard-response","46","174778","0.0-15.0-0.1","SS1618435655877","","","null","","","","","","<p><img src= images/blank.png width =""600"" height = ""600"" style=""position:fixed;top:50%; left:50%; transform: translate(-50%, -50%); border:5px solid black"">","","","","","","","",""
"","19663.68000023067","sequential-stimulus-presentation-old","47","194952","0.0-15.0-1.1","SS1618435655877","trial","","40","500","20163.68000023067","images/stimuli/spore_stims/simple_15_A_a.gif","images/stimuli/spore_stims/simple_01_A_b.gif","forced_short","","3","simple_dissimilar","images/stimuli/spore_stims/simple_01_A_b.gif","","","","",""
"","null","html-keyboard-response","48","195969","0.0-15.0-0.2","SS1618435655877","","","null","","","","","","<p><img src= images/blank.png width =""600"" height = ""600"" style=""position:fixed;top:50%; left:50%; transform: translate(-50%, -50%); border:5px solid black"">","","","","","","","",""
"","1091.0249999724329","sequential-stimulus-presentation-old","49","197567","0.0-15.0-1.2","SS1618435655877","trial","","40","500","1591.0249999724329","images/stimuli/spore_stims/simple_15_A_a.gif","images/stimuli/spore_stims/simple_01_A_b.gif","forced_short","","3","simple_dissimilar","images/stimuli/spore_stims/simple_01_A_b.gif","","","","",""
"","null","html-keyboard-response","50","198692","0.0-15.0-0.3","SS1618435655877","","","null","","","","","","<p><img src= images/blank.png width =""600"" height = ""600"" style=""position:fixed;top:50%; left:50%; transform: translate(-50%, -50%); border:5px solid black"">","","","","","","","",""
"","2001.7250003293157","sequential-stimulus-presentation-old","51","201203","0.0-15.0-1.3","SS1618435655877","trial","","40","500","2501.7250003293157","images/stimuli/spore_stims/simple_15_A_a.gif","images/stimuli/spore_stims/simple_01_A_b.gif","forced_short","","3","simple_dissimilar","images/stimuli/spore_stims/simple_01_A_b.gif","","","","",""
"","null","html-keyboard-response","52","202413","0.0-15.0-0.4","SS1618435655877","","","null","","","","","","<p><img src= images/blank.png width =""600"" height = ""600"" style=""position:fixed;top:50%; left:50%; transform: translate(-50%, -50%); border:5px solid black"">","","","","","","","",""
"","765.9350000321865","sequential-stimulus-presentation-old","53","203690","0.0-15.0-1.4","SS1618435655877","trial","","40","500","1265.9350000321865","images/stimuli/spore_stims/simple_15_A_a.gif","images/stimuli/spore_stims/simple_01_A_b.gif","forced_short","","3","simple_dissimilar","images/stimuli/spore_stims/simple_01_A_b.gif","","","","",""
"","null","html-keyboard-response","54","204956","0.0-15.0-0.5","SS1618435655877","","","null","","","","","","<p><img src= images/blank.png width =""600"" height = ""600"" style=""position:fixed;top:50%; left:50%; transform: translate(-50%, -50%); border:5px solid black"">","","","","","","","",""
"","3821.7150000855327","sequential-stimulus-presentation-old","55","209296","0.0-15.0-1.5","SS1618435655877","trial","","40","500","4321.715000085533","images/stimuli/spore_stims/simple_15_A_a.gif","images/stimuli/spore_stims/simple_01_A_b.gif","forced_short","","3","simple_dissimilar","images/stimuli/spore_stims/simple_01_A_b.gif","","","","",""
"","2992.6299997605383","survey-multi-choice","56","212291","0.0-16.0","SS1618435655877","math_question","","","","","","","","","","","","{""Q0"":""8""}","[0]","8","",""
"","null","html-keyboard-response","57","213558","0.0-17.0-0.0","SS1618435655877","","","null","","","","","","<p><img src= images/blank.png width =""600"" height = ""600"" style=""position:fixed;top:50%; left:50%; transform: translate(-50%, -50%); border:5px solid black"">","","","","","","","",""
"","869.185000192374","sequential-stimulus-presentation-old","58","219438","0.0-17.0-1.0","SS1618435655877","trial","","40","500","1369.185000192374","images/stimuli/spore_stims/simple_16_A_a.gif","images/stimuli/spore_stims/simple_19_A_b.gif","forced_long","","4","simple_dissimilar","images/stimuli/spore_stims/simple_19_A_b.gif","","","","",""
"","null","html-keyboard-response","59","220273","0.0-17.0-0.1","SS1618435655877","","","null","","","","","","<p><img src= images/blank.png width =""600"" height = ""600"" style=""position:fixed;top:50%; left:50%; transform: translate(-50%, -50%); border:5px solid black"">","","","","","","","",""
"","1396.2499997578561","sequential-stimulus-presentation-old","60","222179","0.0-17.0-1.1","SS1618435655877","trial","","40","500","1896.2499997578561","images/stimuli/spore_stims/simple_16_A_a.gif","images/stimuli/spore_stims/simple_19_A_b.gif","forced_long","","4","simple_dissimilar","images/stimuli/spore_stims/simple_19_A_b.gif","","","","",""
"","null","html-keyboard-response","61","223079","0.0-17.0-0.2","SS1618435655877","","","null","","","","","","<p><img src= images/blank.png width =""600"" height = ""600"" style=""position:fixed;top:50%; left:50%; transform: translate(-50%, -50%); border:5px solid black"">","","","","","","","",""
"","3404.0850000455976","sequential-stimulus-presentation-old","62","226990","0.0-17.0-1.2","SS1618435655877","trial","","40","500","3904.0850000455976","images/stimuli/spore_stims/simple_16_A_a.gif","images/stimuli/spore_stims/simple_19_A_b.gif","forced_long","","4","simple_dissimilar","images/stimuli/spore_stims/simple_19_A_b.gif","","","","",""
"","null","html-keyboard-response","63","228247","0.0-17.0-0.3","SS1618435655877","","","null","","","","","","<p><img src= images/blank.png width =""600"" height = ""600"" style=""position:fixed;top:50%; left:50%; transform: translate(-50%, -50%); border:5px solid black"">","","","","","","","",""
"","3911.650000140071","sequential-stimulus-presentation-old","64","232674","0.0-17.0-1.3","SS1618435655877","trial","","40","500","4411.650000140071","images/stimuli/spore_stims/simple_16_A_a.gif","images/stimuli/spore_stims/simple_19_A_b.gif","forced_long","","4","simple_dissimilar","images/stimuli/spore_stims/simple_19_A_b.gif","","","","",""
"","5419.470000080764","survey-multi-choice","65","238094","0.0-18.0","SS1618435655877","math_question","","","","","","","","","","","","{""Q0"":""14""}","[0]","14","",""
"","null","html-keyboard-response","66","239398","0.0-19.0-0.0","SS1618435655877","","","null","","","","","","<p><img src= images/blank.png width =""600"" height = ""600"" style=""position:fixed;top:50%; left:50%; transform: translate(-50%, -50%); border:5px solid black"">","","","","","","","",""
"","684.6199999563396","sequential-stimulus-presentation-old","67","245088","0.0-19.0-1.0","SS1618435655877","trial","","40","500","1184.6199999563396","images/stimuli/spore_stims/simple_02_A_b.gif","images/stimuli/spore_stims/simple_13_A_a.gif","forced_long","","5","simple_dissimilar","images/stimuli/spore_stims/simple_13_A_a.gif","","","","",""
"","null","html-keyboard-response","68","246384","0.0-19.0-0.1","SS1618435655877","","","null","","","","","","<p><img src= images/blank.png width =""600"" height = ""600"" style=""position:fixed;top:50%; left:50%; transform: translate(-50%, -50%); border:5px solid black"">","","","","","","","",""
"","224.86499976366758","sequential-stimulus-presentation-old","69","247123","0.0-19.0-1.1","SS1618435655877","trial","","40","500","724.8649997636676","images/stimuli/spore_stims/simple_02_A_b.gif","images/stimuli/spore_stims/simple_13_A_a.gif","forced_long","","5","simple_dissimilar","images/stimuli/spore_stims/simple_13_A_a.gif","","","","",""
"","null","html-keyboard-response","70","248133","0.0-19.0-0.2","SS1618435655877","","","null","","","","","","<p><img src= images/blank.png width =""600"" height = ""600"" style=""position:fixed;top:50%; left:50%; transform: translate(-50%, -50%); border:5px solid black"">","","","","","","","",""
"","3459.384999703616","sequential-stimulus-presentation-old","71","252100","0.0-19.0-1.2","SS1618435655877","trial","","40","500","3959.384999703616","images/stimuli/spore_stims/simple_02_A_b.gif","images/stimuli/spore_stims/simple_13_A_a.gif","forced_long","","5","simple_dissimilar","images/stimuli/spore_stims/simple_13_A_a.gif","","","","",""
"","null","html-keyboard-response","72","253083","0.0-19.0-0.3","SS1618435655877","","","null","","","","","","<p><img src= images/blank.png width =""600"" height = ""600"" style=""position:fixed;top:50%; left:50%; transform: translate(-50%, -50%); border:5px solid black"">","","","","","","","",""
"","835.8249999582767","sequential-stimulus-presentation-old","73","254431","0.0-19.0-1.3","SS1618435655877","trial","","40","500","1335.8249999582767","images/stimuli/spore_stims/simple_02_A_b.gif","images/stimuli/spore_stims/simple_13_A_a.gif","forced_long","","5","simple_dissimilar","images/stimuli/spore_stims/simple_13_A_a.gif","","","","",""
"","null","html-keyboard-response","74","255583","0.0-19.0-0.4","SS1618435655877","","","null","","","","","","<p><img src= images/blank.png width =""600"" height = ""600"" style=""position:fixed;top:50%; left:50%; transform: translate(-50%, -50%); border:5px solid black"">","","","","","","","",""
"","2097.6700000464916","sequential-stimulus-presentation-old","75","258188","0.0-19.0-1.4","SS1618435655877","trial","","40","500","2597.6700000464916","images/stimuli/spore_stims/simple_02_A_b.gif","images/stimuli/spore_stims/simple_13_A_a.gif","forced_long","","5","simple_dissimilar","images/stimuli/spore_stims/simple_13_A_a.gif","","","","",""
"","null","html-keyboard-response","76","259332","0.0-19.0-0.5","SS1618435655877","","","null","","","","","","<p><img src= images/blank.png width =""600"" height = ""600"" style=""position:fixed;top:50%; left:50%; transform: translate(-50%, -50%); border:5px solid black"">","","","","","","","",""
"","7160.935000050813","sequential-stimulus-presentation-old","77","267000","0.0-19.0-1.5","SS1618435655877","trial","","40","500","7660.935000050813","images/stimuli/spore_stims/simple_02_A_b.gif","images/stimuli/spore_stims/simple_13_A_a.gif","forced_long","","5","simple_dissimilar","images/stimuli/spore_stims/simple_13_A_a.gif","","","","",""
"","3388.5499997995794","survey-multi-choice","78","270392","0.0-20.0","SS1618435655877","math_question","","","","","","","","","","","","{""Q0"":""5""}","[0]","5","",""
"","null","html-keyboard-response","79","271309","0.0-21.0-0.0","SS1618435655877","","","null","","","","","","<p><img src= images/blank.png width =""600"" height = ""600"" style=""position:fixed;top:50%; left:50%; transform: translate(-50%, -50%); border:5px solid black"">","","","","","","","",""
"","3148.4449999406934","sequential-stimulus-presentation-old","80","274962","0.0-21.0-1.0","SS1618435655877","trial","","40","500","3648.4449999406934","images/stimuli/spore_stims/simple_04_A_a.gif","images/stimuli/spore_stims/simple_17_A_b.gif","self_paced","","6","simple_dissimilar","images/stimuli/spore_stims/simple_17_A_b.gif","","","","",""
"","null","html-keyboard-response","81","275971","0.0-21.0-0.1","SS1618435655877","","","null","","","","","","<p><img src= images/blank.png width =""600"" height = ""600"" style=""position:fixed;top:50%; left:50%; transform: translate(-50%, -50%); border:5px solid black"">","","","","","","","",""
"","7823.4200002625585","sequential-stimulus-presentation-old","82","284310","0.0-21.0-1.1","SS1618435655877","trial","","40","500","8323.420000262558","images/stimuli/spore_stims/simple_04_A_a.gif","images/stimuli/spore_stims/simple_17_A_b.gif","self_paced","","6","simple_dissimilar","images/stimuli/spore_stims/simple_04_A_a.gif","","","","",""
"","null","html-keyboard-response","83","285318","0.0-21.0-0.2","SS1618435655877","","","null","","","","","","<p><img src= images/blank.png width =""600"" height = ""600"" style=""position:fixed;top:50%; left:50%; transform: translate(-50%, -50%); border:5px solid black"">","","","","","","","",""
"","6752.610000316054","sequential-stimulus-presentation-old","84","292587","0.0-21.0-1.2","SS1618435655877","trial","","40","500","7252.610000316054","images/stimuli/spore_stims/simple_04_A_a.gif","images/stimuli/spore_stims/simple_17_A_b.gif","self_paced","","6","simple_dissimilar","images/stimuli/spore_stims/simple_04_A_a.gif","","","","",""
"","null","html-keyboard-response","85","293710","0.0-21.0-0.3","SS1618435655877","","","null","","","","","","<p><img src= images/blank.png width =""600"" height = ""600"" style=""position:fixed;top:50%; left:50%; transform: translate(-50%, -50%); border:5px solid black"">","","","","","","","",""
"","3426.184999756515","sequential-stimulus-presentation-old","86","297652","0.0-21.0-1.3","SS1618435655877","trial","","40","500","3926.184999756515","images/stimuli/spore_stims/simple_04_A_a.gif","images/stimuli/spore_stims/simple_17_A_b.gif","self_paced","","6","simple_dissimilar","images/stimuli/spore_stims/simple_17_A_b.gif","","","","",""
"","null","html-keyboard-response","87","298903","0.0-21.0-0.4","SS1618435655877","","","null","","","","","","<p><img src= images/blank.png width =""600"" height = ""600"" style=""position:fixed;top:50%; left:50%; transform: translate(-50%, -50%); border:5px solid black"">","","","","","","","",""
"","2702.4950003251433","sequential-stimulus-presentation-old","88","302112","0.0-21.0-1.4","SS1618435655877","trial","","40","500","3202.4950003251433","images/stimuli/spore_stims/simple_04_A_a.gif","images/stimuli/spore_stims/simple_17_A_b.gif","self_paced","","6","simple_dissimilar","images/stimuli/spore_stims/simple_17_A_b.gif","","","","",""
"","3411.9500000961125","survey-multi-choice","89","305528","0.0-22.0","SS1618435655877","math_question","","","","","","","","","","","","{""Q0"":""8""}","[0]","8","",""
"","null","html-keyboard-response","90","306752","0.0-23.0-0.0","SS1618435655877","","","null","","","","","","<p><img src= images/blank.png width =""600"" height = ""600"" style=""position:fixed;top:50%; left:50%; transform: translate(-50%, -50%); border:5px solid black"">","","","","","","","",""
"","2116.9900000095367","sequential-stimulus-presentation-old","91","313876","0.0-23.0-1.0","SS1618435655877","trial","","40","500","2616.9900000095367","images/stimuli/spore_stims/complex_10_A_b.gif","images/stimuli/spore_stims/complex_08_A_a.gif","forced_long","","7","complex_dissimilar","images/stimuli/spore_stims/complex_08_A_a.gif","","","","",""
"","null","html-keyboard-response","92","315179","0.0-23.0-0.1","SS1618435655877","","","null","","","","","","<p><img src= images/blank.png width =""600"" height = ""600"" style=""position:fixed;top:50%; left:50%; transform: translate(-50%, -50%); border:5px solid black"">","","","","","","","",""
"","962.8300000913441","sequential-stimulus-presentation-old","93","316656","0.0-23.0-1.1","SS1618435655877","trial","","40","500","1462.8300000913441","images/stimuli/spore_stims/complex_10_A_b.gif","images/stimuli/spore_stims/complex_08_A_a.gif","forced_long","","7","complex_dissimilar","images/stimuli/spore_stims/complex_08_A_a.gif","","","","",""
"","null","html-keyboard-response","94","317967","0.0-23.0-0.2","SS1618435655877","","","null","","","","","","<p><img src= images/blank.png width =""600"" height = ""600"" style=""position:fixed;top:50%; left:50%; transform: translate(-50%, -50%); border:5px solid black"">","","","","","","","",""
"","13857.38500021398","sequential-stimulus-presentation-old","95","332336","0.0-23.0-1.2","SS1618435655877","trial","","40","500","14357.38500021398","images/stimuli/spore_stims/complex_10_A_b.gif","images/stimuli/spore_stims/complex_08_A_a.gif","forced_long","","7","complex_dissimilar","images/stimuli/spore_stims/complex_08_A_a.gif","","","","",""
"","null","html-keyboard-response","96","333341","0.0-23.0-0.3","SS1618435655877","","","null","","","","","","<p><img src= images/blank.png width =""600"" height = ""600"" style=""position:fixed;top:50%; left:50%; transform: translate(-50%, -50%); border:5px solid black"">","","","","","","","",""
"","540.7699998468161","sequential-stimulus-presentation-old","97","334391","0.0-23.0-1.3","SS1618435655877","trial","","40","500","1040.769999846816","images/stimuli/spore_stims/complex_10_A_b.gif","images/stimuli/spore_stims/complex_08_A_a.gif","forced_long","","7","complex_dissimilar","images/stimuli/spore_stims/complex_08_A_a.gif","","","","",""
"","null","html-keyboard-response","98","335615","0.0-23.0-0.4","SS1618435655877","","","null","","","","","","<p><img src= images/blank.png width =""600"" height = ""600"" style=""position:fixed;top:50%; left:50%; transform: translate(-50%, -50%); border:5px solid black"">","","","","","","","",""
"","2069.399999920279","sequential-stimulus-presentation-old","99","338192","0.0-23.0-1.4","SS1618435655877","trial","","40","500","2569.399999920279","images/stimuli/spore_stims/complex_10_A_b.gif","images/stimuli/spore_stims/complex_08_A_a.gif","forced_long","","7","complex_dissimilar","images/stimuli/spore_stims/complex_10_A_b.gif","","","","",""
"","2875.8099996484816","survey-multi-choice","100","341071","0.0-24.0","SS1618435655877","math_question","","","","","","","","","","","","{""Q0"":""9""}","[0]","9","",""
"","null","html-keyboard-response","101","341931","0.0-25.0-0.0","SS1618435655877","","","null","","","","","","<p><img src= images/blank.png width =""600"" height = ""600"" style=""position:fixed;top:50%; left:50%; transform: translate(-50%, -50%); border:5px solid black"">","","","","","","","",""
"","4740.9600000828505","sequential-stimulus-presentation-old","102","351684","0.0-25.0-1.0","SS1618435655877","trial","","40","500","5240.9600000828505","images/stimuli/spore_stims/complex_02_A_a.gif","images/stimuli/spore_stims/complex_03_A_b.gif","forced_long","","8","complex_dissimilar","images/stimuli/spore_stims/complex_03_A_b.gif","","","","",""
"","null","html-keyboard-response","103","352880","0.0-25.0-0.1","SS1618435655877","","","null","","","","","","<p><img src= images/blank.png width =""600"" height = ""600"" style=""position:fixed;top:50%; left:50%; transform: translate(-50%, -50%); border:5px solid black"">","","","","","","","",""
"","2474.5650002732873","sequential-stimulus-presentation-old","104","355862","0.0-25.0-1.1","SS1618435655877","trial","","40","500","2974.5650002732873","images/stimuli/spore_stims/complex_02_A_a.gif","images/stimuli/spore_stims/complex_03_A_b.gif","forced_long","","8","complex_dissimilar","images/stimuli/spore_stims/complex_03_A_b.gif","","","","",""
"","null","html-keyboard-response","105","356786","0.0-25.0-0.2","SS1618435655877","","","null","","","","","","<p><img src= images/blank.png width =""600"" height = ""600"" style=""position:fixed;top:50%; left:50%; transform: translate(-50%, -50%); border:5px solid black"">","","","","","","","",""
"","476.21999960392714","sequential-stimulus-presentation-old","106","357772","0.0-25.0-1.2","SS1618435655877","trial","","40","500","976.2199996039271","images/stimuli/spore_stims/complex_02_A_a.gif","images/stimuli/spore_stims/complex_03_A_b.gif","forced_long","","8","complex_dissimilar","images/stimuli/spore_stims/complex_03_A_b.gif","","","","",""
"","null","html-keyboard-response","107","359029","0.0-25.0-0.3","SS1618435655877","","","null","","","","","","<p><img src= images/blank.png width =""600"" height = ""600"" style=""position:fixed;top:50%; left:50%; transform: translate(-50%, -50%); border:5px solid black"">","","","","","","","",""
"","2235.1049999706447","sequential-stimulus-presentation-old","108","361773","0.0-25.0-1.3","SS1618435655877","trial","","40","500","2735.1049999706447","images/stimuli/spore_stims/complex_02_A_a.gif","images/stimuli/spore_stims/complex_03_A_b.gif","forced_long","","8","complex_dissimilar","images/stimuli/spore_stims/complex_03_A_b.gif","","","","",""
"","null","html-keyboard-response","109","362970","0.0-25.0-0.4","SS1618435655877","","","null","","","","","","<p><img src= images/blank.png width =""600"" height = ""600"" style=""position:fixed;top:50%; left:50%; transform: translate(-50%, -50%); border:5px solid black"">","","","","","","","",""
"","5320.724999997765","sequential-stimulus-presentation-old","110","368800","0.0-25.0-1.4","SS1618435655877","trial","","40","500","5820.724999997765","images/stimuli/spore_stims/complex_02_A_a.gif","images/stimuli/spore_stims/complex_03_A_b.gif","forced_long","","8","complex_dissimilar","images/stimuli/spore_stims/complex_02_A_a.gif","","","","",""
"","null","html-keyboard-response","111","370034","0.0-25.0-0.5","SS1618435655877","","","null","","","","","","<p><img src= images/blank.png width =""600"" height = ""600"" style=""position:fixed;top:50%; left:50%; transform: translate(-50%, -50%); border:5px solid black"">","","","","","","","",""
"","4062.69000004977","sequential-stimulus-presentation-old","112","374606","0.0-25.0-1.5","SS1618435655877","trial","","40","500","4562.69000004977","images/stimuli/spore_stims/complex_02_A_a.gif","images/stimuli/spore_stims/complex_03_A_b.gif","forced_long","","8","complex_dissimilar","images/stimuli/spore_stims/complex_02_A_a.gif","","","","",""
"","3196.165000088513","survey-multi-choice","113","377807","0.0-26.0","SS1618435655877","math_question","","","","","","","","","","","","{""Q0"":""11""}","[0]","11","",""
"","null","html-keyboard-response","114","378778","0.0-27.0-0.0","SS1618435655877","","","null","","","","","","<p><img src= images/blank.png width =""600"" height = ""600"" style=""position:fixed;top:50%; left:50%; transform: translate(-50%, -50%); border:5px solid black"">","","","","","","","",""
"","1173.3899996615946","sequential-stimulus-presentation-old","115","380011","0.0-27.0-1.0","SS1618435655877","trial","","40","500","1673.3899996615946","images/stimuli/spore_stims/complex_13_A_a.gif","images/stimuli/spore_stims/complex_16_A_b.gif","forced_short","","9","complex_dissimilar","images/stimuli/spore_stims/complex_16_A_b.gif","","","","",""
"","null","html-keyboard-response","116","381181","0.0-27.0-0.1","SS1618435655877","","","null","","","","","","<p><img src= images/blank.png width =""600"" height = ""600"" style=""position:fixed;top:50%; left:50%; transform: translate(-50%, -50%); border:5px solid black"">","","","","","","","",""
"","6021.205000113696","sequential-stimulus-presentation-old","117","387711","0.0-27.0-1.1","SS1618435655877","trial","","40","500","6521.205000113696","images/stimuli/spore_stims/complex_13_A_a.gif","images/stimuli/spore_stims/complex_16_A_b.gif","forced_short","","9","complex_dissimilar","images/stimuli/spore_stims/complex_13_A_a.gif","","","","",""
"","null","html-keyboard-response","118","388815","0.0-27.0-0.2","SS1618435655877","","","null","","","","","","<p><img src= images/blank.png width =""600"" height = ""600"" style=""position:fixed;top:50%; left:50%; transform: translate(-50%, -50%); border:5px solid black"">","","","","","","","",""
"","2284.874999895692","sequential-stimulus-presentation-old","119","391610","0.0-27.0-1.2","SS1618435655877","trial","","40","500","2784.874999895692","images/stimuli/spore_stims/complex_13_A_a.gif","images/stimuli/spore_stims/complex_16_A_b.gif","forced_short","","9","complex_dissimilar","images/stimuli/spore_stims/complex_16_A_b.gif","","","","",""
"","null","html-keyboard-response","120","392899","0.0-27.0-0.3","SS1618435655877","","","null","","","","","","<p><img src= images/blank.png width =""600"" height = ""600"" style=""position:fixed;top:50%; left:50%; transform: translate(-50%, -50%); border:5px solid black"">","","","","","","","",""
"","4043.265000451356","sequential-stimulus-presentation-old","121","397451","0.0-27.0-1.3","SS1618435655877","trial","","40","500","4543.265000451356","images/stimuli/spore_stims/complex_13_A_a.gif","images/stimuli/spore_stims/complex_16_A_b.gif","forced_short","","9","complex_dissimilar","images/stimuli/spore_stims/complex_13_A_a.gif","","","","",""
"","null","html-keyboard-response","122","398397","0.0-27.0-0.4","SS1618435655877","","","null","","","","","","<p><img src= images/blank.png width =""600"" height = ""600"" style=""position:fixed;top:50%; left:50%; transform: translate(-50%, -50%); border:5px solid black"">","","","","","","","",""
"","5516.800000332296","sequential-stimulus-presentation-old","123","404424","0.0-27.0-1.4","SS1618435655877","trial","","40","500","6016.800000332296","images/stimuli/spore_stims/complex_13_A_a.gif","images/stimuli/spore_stims/complex_16_A_b.gif","forced_short","","9","complex_dissimilar","images/stimuli/spore_stims/complex_16_A_b.gif","","","","",""
"","null","html-keyboard-response","124","405456","0.0-27.0-0.5","SS1618435655877","","","null","","","","","","<p><img src= images/blank.png width =""600"" height = ""600"" style=""position:fixed;top:50%; left:50%; transform: translate(-50%, -50%); border:5px solid black"">","","","","","","","",""
"","2526.659999974072","sequential-stimulus-presentation-old","125","408489","0.0-27.0-1.5","SS1618435655877","trial","","40","500","3026.659999974072","images/stimuli/spore_stims/complex_13_A_a.gif","images/stimuli/spore_stims/complex_16_A_b.gif","forced_short","","9","complex_dissimilar","images/stimuli/spore_stims/complex_16_A_b.gif","","","","",""
"","2993.0050000548363","survey-multi-choice","126","411487","0.0-28.0","SS1618435655877","math_question","","","","","","","","","","","","{""Q0"":""10""}","[0]","10","",""
"","null","html-keyboard-response","127","412780","0.0-29.0-0.0","SS1618435655877","","","null","","","","","","<p><img src= images/blank.png width =""600"" height = ""600"" style=""position:fixed;top:50%; left:50%; transform: translate(-50%, -50%); border:5px solid black"">","","","","","","","",""
"","3322.0950001850724","sequential-stimulus-presentation-old","128","416618","0.0-29.0-1.0","SS1618435655877","trial","","40","500","3822.0950001850724","images/stimuli/spore_stims/complex_12_A_a.gif","images/stimuli/spore_stims/complex_04_A_b.gif","self_paced","","10","complex_dissimilar","images/stimuli/spore_stims/complex_04_A_b.gif","","","","",""
"","null","html-keyboard-response","129","417538","0.0-29.0-0.1","SS1618435655877","","","null","","","","","","<p><img src= images/blank.png width =""600"" height = ""600"" style=""position:fixed;top:50%; left:50%; transform: translate(-50%, -50%); border:5px solid black"">","","","","","","","",""
"","1928.0050001107156","sequential-stimulus-presentation-old","130","419988","0.0-29.0-1.1","SS1618435655877","trial","","40","500","2428.0050001107156","images/stimuli/spore_stims/complex_12_A_a.gif","images/stimuli/spore_stims/complex_04_A_b.gif","self_paced","","10","complex_dissimilar","images/stimuli/spore_stims/complex_04_A_b.gif","","","","",""
"","null","html-keyboard-response","131","421029","0.0-29.0-0.2","SS1618435655877","","","null","","","","","","<p><img src= images/blank.png width =""600"" height = ""600"" style=""position:fixed;top:50%; left:50%; transform: translate(-50%, -50%); border:5px solid black"">","","","","","","","",""
"","2078.214999753982","sequential-stimulus-presentation-old","132","423623","0.0-29.0-1.2","SS1618435655877","trial","","40","500","2578.214999753982","images/stimuli/spore_stims/complex_12_A_a.gif","images/stimuli/spore_stims/complex_04_A_b.gif","self_paced","","10","complex_dissimilar","images/stimuli/spore_stims/complex_04_A_b.gif","","","","",""
"","null","html-keyboard-response","133","424719","0.0-29.0-0.3","SS1618435655877","","","null","","","","","","<p><img src= images/blank.png width =""600"" height = ""600"" style=""position:fixed;top:50%; left:50%; transform: translate(-50%, -50%); border:5px solid black"">","","","","","","","",""
"","3070.1700001955032","sequential-stimulus-presentation-old","134","428296","0.0-29.0-1.3","SS1618435655877","trial","","40","500","3570.1700001955032","images/stimuli/spore_stims/complex_12_A_a.gif","images/stimuli/spore_stims/complex_04_A_b.gif","self_paced","","10","complex_dissimilar","images/stimuli/spore_stims/complex_12_A_a.gif","","","","",""
"","null","html-keyboard-response","135","429286","0.0-29.0-0.4","SS1618435655877","","","null","","","","","","<p><img src= images/blank.png width =""600"" height = ""600"" style=""position:fixed;top:50%; left:50%; transform: translate(-50%, -50%); border:5px solid black"">","","","","","","","",""
"","3369.900000281632","sequential-stimulus-presentation-old","136","433171","0.0-29.0-1.4","SS1618435655877","trial","","40","500","3869.900000281632","images/stimuli/spore_stims/complex_12_A_a.gif","images/stimuli/spore_stims/complex_04_A_b.gif","self_paced","","10","complex_dissimilar","images/stimuli/spore_stims/complex_12_A_a.gif","","","","",""
"","5062.624999787658","survey-multi-choice","137","438240","0.0-30.0","SS1618435655877","math_question","","","","","","","","","","","","{""Q0"":""13""}","[0]","13","",""
"","null","html-keyboard-response","138","439331","0.0-31.0-0.0","SS1618435655877","","","null","","","","","","<p><img src= images/blank.png width =""600"" height = ""600"" style=""position:fixed;top:50%; left:50%; transform: translate(-50%, -50%); border:5px solid black"">","","","","","","","",""
"","1078.1550002284348","sequential-stimulus-presentation-old","139","440464","0.0-31.0-1.0","SS1618435655877","trial","","40","500","1578.1550002284348","images/stimuli/spore_stims/complex_02_A_b.gif","images/stimuli/spore_stims/complex_05_A_a.gif","forced_short","","11","complex_dissimilar","images/stimuli/spore_stims/complex_05_A_a.gif","","","","",""
"","null","html-keyboard-response","140","441751","0.0-31.0-0.1","SS1618435655877","","","null","","","","","","<p><img src= images/blank.png width =""600"" height = ""600"" style=""position:fixed;top:50%; left:50%; transform: translate(-50%, -50%); border:5px solid black"">","","","","","","","",""
"","13794.97000016272","sequential-stimulus-presentation-old","141","456055","0.0-31.0-1.1","SS1618435655877","trial","","40","500","14294.97000016272","images/stimuli/spore_stims/complex_02_A_b.gif","images/stimuli/spore_stims/complex_05_A_a.gif","forced_short","","11","complex_dissimilar","images/stimuli/spore_stims/complex_05_A_a.gif","","","","",""
"","null","html-keyboard-response","142","456907","0.0-31.0-0.2","SS1618435655877","","","null","","","","","","<p><img src= images/blank.png width =""600"" height = ""600"" style=""position:fixed;top:50%; left:50%; transform: translate(-50%, -50%); border:5px solid black"">","","","","","","","",""
"","3413.1649998016655","sequential-stimulus-presentation-old","143","460841","0.0-31.0-1.2","SS1618435655877","trial","","40","500","3913.1649998016655","images/stimuli/spore_stims/complex_02_A_b.gif","images/stimuli/spore_stims/complex_05_A_a.gif","forced_short","","11","complex_dissimilar","images/stimuli/spore_stims/complex_05_A_a.gif","","","","",""
"","null","html-keyboard-response","144","461899","0.0-31.0-0.3","SS1618435655877","","","null","","","","","","<p><img src= images/blank.png width =""600"" height = ""600"" style=""position:fixed;top:50%; left:50%; transform: translate(-50%, -50%); border:5px solid black"">","","","","","","","",""
"","1558.5900000296533","sequential-stimulus-presentation-old","145","463967","0.0-31.0-1.3","SS1618435655877","trial","","40","500","2058.5900000296533","images/stimuli/spore_stims/complex_02_A_b.gif","images/stimuli/spore_stims/complex_05_A_a.gif","forced_short","","11","complex_dissimilar","images/stimuli/spore_stims/complex_05_A_a.gif","","","","",""
"","null","html-keyboard-response","146","465063","0.0-31.0-0.4","SS1618435655877","","","null","","","","","","<p><img src= images/blank.png width =""600"" height = ""600"" style=""position:fixed;top:50%; left:50%; transform: translate(-50%, -50%); border:5px solid black"">","","","","","","","",""
"","3869.674999732524","sequential-stimulus-presentation-old","147","469445","0.0-31.0-1.4","SS1618435655877","trial","","40","500","4369.674999732524","images/stimuli/spore_stims/complex_02_A_b.gif","images/stimuli/spore_stims/complex_05_A_a.gif","forced_short","","11","complex_dissimilar","images/stimuli/spore_stims/complex_02_A_b.gif","","","","",""
"[{""page_index"":0,""viewing_time"":7376.149999909103}]","7376.52499973774","instructions","148","476826","0.0-32.0","SS1618435655877","instructions","","","","","","","","","","","","","","","",""
"","4633.539999835193","survey-likert","149","481465","0.0-33.0","SS1618435655877","similarity_question","","","","","","","","","","","","{""Q0"":5}","[0]","","images/stimuli/spore_stims/simple_16_A_a.gif","images/stimuli/spore_stims/simple_19_A_b.gif"
"","5661.084999796003","survey-likert","150","487133","0.0-34.0","SS1618435655877","similarity_question","","","","","","","","","","","","{""Q0"":2}","[0]","","images/stimuli/spore_stims/complex_13_A_a.gif","images/stimuli/spore_stims/complex_16_A_b.gif"
"","3451.189999934286","survey-likert","151","490592","0.0-35.0","SS1618435655877","similarity_question","","","","","","","","","","","","{""Q0"":0}","[0]","","images/stimuli/spore_stims/complex_12_A_a.gif","images/stimuli/spore_stims/complex_04_A_b.gif"
"","6878.224999643862","survey-likert","152","497476","0.0-36.0","SS1618435655877","similarity_question","","","","","","","","","","","","{""Q0"":6}","[0]","","images/stimuli/spore_stims/simple_15_A_a.gif","images/stimuli/spore_stims/simple_01_A_b.gif"
"","7882.360000163317","survey-likert","153","505365","0.0-37.0","SS1618435655877","similarity_question","","","","","","","","","","","","{""Q0"":3}","[0]","","images/stimuli/spore_stims/complex_02_A_a.gif","images/stimuli/spore_stims/complex_03_A_b.gif"
"","3556.224999949336","survey-likert","154","508930","0.0-38.0","SS1618435655877","similarity_question","","","","","","","","","","","","{""Q0"":6}","[0]","","images/stimuli/spore_stims/simple_13_A_a.gif","images/stimuli/spore_stims/simple_02_A_b.gif"
"","7659.454999957234","survey-likert","155","516596","0.0-39.0","SS1618435655877","similarity_question","","","","","","","","","","","","{""Q0"":1}","[0]","","images/stimuli/spore_stims/complex_06_A_a.gif","images/stimuli/spore_stims/complex_14_A_b.gif"
"","3863.959999755025","survey-likert","156","520467","0.0-40.0","SS1618435655877","similarity_question","","","","","","","","","","","","{""Q0"":5}","[0]","","images/stimuli/spore_stims/simple_05_A_a.gif","images/stimuli/spore_stims/simple_12_A_b.gif"
"","22993.745000101626","survey-likert","157","543466","0.0-41.0","SS1618435655877","similarity_question","","","","","","","","","","","","{""Q0"":4}","[0]","","images/stimuli/spore_stims/complex_10_A_b.gif","images/stimuli/spore_stims/complex_08_A_a.gif"
"","5913.734999950975","survey-likert","158","549385","0.0-42.0","SS1618435655877","similarity_question","","","","","","","","","","","","{""Q0"":5}","[0]","","images/stimuli/spore_stims/simple_04_A_a.gif","images/stimuli/spore_stims/simple_17_A_b.gif"
"","6531.204999890178","survey-likert","159","555923","0.0-43.0","SS1618435655877","similarity_question","","","","","","","","","","","","{""Q0"":4}","[0]","","images/stimuli/spore_stims/complex_02_A_b.gif","images/stimuli/spore_stims/complex_05_A_a.gif"
"","3499.2800001055","survey-likert","160","559429","0.0-44.0","SS1618435655877","similarity_question","","","","","","","","","","","","{""Q0"":5}","[0]","","images/stimuli/spore_stims/simple_10_A_b.gif","images/stimuli/spore_stims/simple_09_A_a.gif"
"[{""page_index"":0,""viewing_time"":2981.300000101328}]","2981.6999998874962","instructions","161","562415","0.0-45.0","SS1618435655877","instructions","","","","","","","","","","","","","","","",""
"","4100.074999965727","survey-likert","162","566520","0.0-46.0","SS1618435655877","","","","","","","","","images/stimuli/spore_stims/simple_15_A_a.gif","","","","{""Q0"":1}","[0]","","",""
"","4906.004999764264","survey-likert","163","571433","0.0-47.0","SS1618435655877","","","","","","","","","images/stimuli/spore_stims/complex_14_A_b.gif","","","","{""Q0"":4}","[0]","","",""
"","5121.550000272691","survey-likert","164","576562","0.0-48.0","SS1618435655877","","","","","","","","","images/stimuli/spore_stims/complex_10_A_b.gif","","","","{""Q0"":6}","[0]","","",""
"","4077.8450001962483","survey-likert","165","580647","0.0-49.0","SS1618435655877","","","","","","","","","images/stimuli/spore_stims/complex_12_A_a.gif","","","","{""Q0"":5}","[0]","","",""
"","3556.150000076741","survey-likert","166","584210","0.0-50.0","SS1618435655877","","","","","","","","","images/stimuli/spore_stims/simple_05_A_a.gif","","","","{""Q0"":0}","[0]","","",""
"","2538.74500002712","survey-likert","167","586755","0.0-51.0","SS1618435655877","","","","","","","","","images/stimuli/spore_stims/simple_02_A_b.gif","","","","{""Q0"":1}","[0]","","",""
"","2953.6850000731647","survey-likert","168","589716","0.0-52.0","SS1618435655877","","","","","","","","","images/stimuli/spore_stims/complex_05_A_a.gif","","","","{""Q0"":5}","[0]","","",""
"","2901.130000129342","survey-likert","169","592624","0.0-53.0","SS1618435655877","","","","","","","","","images/stimuli/spore_stims/simple_16_A_a.gif","","","","{""Q0"":2}","[0]","","",""
"","2868.920000270009","survey-likert","170","595499","0.0-54.0","SS1618435655877","","","","","","","","","images/stimuli/spore_stims/simple_17_A_b.gif","","","","{""Q0"":1}","[0]","","",""
"","2762.3899998143315","survey-likert","171","598269","0.0-55.0","SS1618435655877","","","","","","","","","images/stimuli/spore_stims/simple_10_A_b.gif","","","","{""Q0"":1}","[0]","","",""
"","3388.3700002916157","survey-likert","172","601664","0.0-56.0","SS1618435655877","","","","","","","","","images/stimuli/spore_stims/complex_02_A_a.gif","","","","{""Q0"":5}","[0]","","",""
"","2594.014999922365","survey-likert","173","604264","0.0-57.0","SS1618435655877","","","","","","","","","images/stimuli/spore_stims/complex_16_A_b.gif","","","","{""Q0"":6}","[0]","","",""
"[{""page_index"":0,""viewing_time"":5759.975000284612}]","5760.39500022307","instructions","174","610029","0.0-58.0","SS1618435655877","instructions","","","","","","","","","","","","","","","",""
"","3299.265000037849","demog-age","175","613337","0.0-59.0","SS1618435655877","","","","","","","","","","","","","{""age"":""21""}","","","",""
"","11054.124999791384","demog-ethnic-US","176","624400","0.0-60.0","SS1618435655877","","","","","","","","","","","","","{""ethnicity"":[""White""]}","[0]","","",""
"","13900.520000141114","demog-gender-and-education","177","638307","0.0-61.0","SS1618435655877","","","","","","","","","","","","","{""gender"":""Female"",""education"":""High school diploma""}","[0,1]","","",""
"","32052.474999800324","survey-text","178","670366","0.0-62.0","SS1618435655877","feedback","","","","","","","","","","","","{""Q0"":""no issues and thank you for the cute chill experiment :)""}","","","",""
"[{""page_index"":0,""viewing_time"":1553.0699999071658}]","1553.5149998031557","instructions","179","671929","0.0-63.0","SS1618435655877","instructions","","","","","","","","","","","","","","","",""
