"view_history","rt","trial_type","trial_index","time_elapsed","internal_node_id","subject","stimulus_type","trial_stimulus","key_press","minimum_viewing_duration","trial_looking_time","block_deviant","block_background","exposure_type","stimulus","block_number","block_type","stimulus_displayed","responses","question_order","math_correct_answer","stimulus_left","stimulus_right"
"[{""page_index"":0,""viewing_time"":26389.529999985825}]","26389.945000002626","instructions","0","26390","0.0-0.0","SS1618435642010","","","","","","","","","","","","","","","","",""
"[{""page_index"":0,""viewing_time"":18909.66499998467},{""page_index"":1,""viewing_time"":8384.125000040513}]","27293.9250000054","instructions","1","55686","0.0-1.0","SS1618435642010","instructions","","","","","","","","","","","","","","","",""
"","9144.6649999707","sequential-stimulus-presentation-old","2","65334","0.0-2.0","SS1618435642010","","","40","500","9644.6649999707","null","null","self_paced","","","","","","","","",""
"","9536.06499999296","sequential-stimulus-presentation-old","3","75372","0.0-3.0","SS1618435642010","","","40","500","10036.06499999296","null","null","self_paced","","","","","","","","",""
"[{""page_index"":0,""viewing_time"":25841.304999950808}]","25841.43499995116","instructions","4","101214","0.0-4.0","SS1618435642010","instructions","","","","","","","","","","","","","","","",""
"","6155.544999986887","sequential-stimulus-presentation-old","5","112371","0.0-5.0","SS1618435642010","","","40","500","6655.544999986887","null","null","forced_long","","","","","","","","",""
"","5759.39500000095","sequential-stimulus-presentation-old","6","118182","0.0-6.0","SS1618435642010","","","40","50","5809.39500000095","null","null","forced_long","","","","","","","","",""
"[{""page_index"":0,""viewing_time"":4767.529999953695}]","4767.639999976382","instructions","7","122950","0.0-7.0","SS1618435642010","instructions","","","","","","","","","","","","","","","",""
"[{""page_index"":0,""viewing_time"":12823.375000036322},{""page_index"":1,""viewing_time"":13495.995000004768},{""page_index"":2,""viewing_time"":8751.894999993965},{""page_index"":3,""viewing_time"":2223.939999996219},{""page_index"":4,""viewing_time"":1560.1399999577552}]","38855.46500002965","instructions","8","161806","0.0-8.0","SS1618435642010","instructions","","","","","","","","","","","","","","","",""
"","null","html-keyboard-response","9","162846","0.0-9.0-0.0","SS1618435642010","","","null","","","","","","<p><img src= images/blank.png width =""600"" height = ""600"" style=""position:fixed;top:50%; left:50%; transform: translate(-50%, -50%); border:5px solid black"">","","","","","","","",""
"","3527.0650000311434","sequential-stimulus-presentation-old","10","171375","0.0-9.0-1.0","SS1618435642010","trial","","40","500","4027.0650000311434","images/stimuli/spore_stims/simple_06_A_a.gif","images/stimuli/spore_stims/simple_13_A_b.gif","forced_long","","0","simple_dissimilar","images/stimuli/spore_stims/simple_13_A_b.gif","","","","",""
"","null","html-keyboard-response","11","172255","0.0-9.0-0.1","SS1618435642010","","","null","","","","","","<p><img src= images/blank.png width =""600"" height = ""600"" style=""position:fixed;top:50%; left:50%; transform: translate(-50%, -50%); border:5px solid black"">","","","","","","","",""
"","56017.454999964684","sequential-stimulus-presentation-old","12","228776","0.0-9.0-1.1","SS1618435642010","trial","","40","500","56517.454999964684","images/stimuli/spore_stims/simple_06_A_a.gif","images/stimuli/spore_stims/simple_13_A_b.gif","forced_long","","0","simple_dissimilar","images/stimuli/spore_stims/simple_13_A_b.gif","","","","",""
"","null","html-keyboard-response","13","229812","0.0-9.0-0.2","SS1618435642010","","","null","","","","","","<p><img src= images/blank.png width =""600"" height = ""600"" style=""position:fixed;top:50%; left:50%; transform: translate(-50%, -50%); border:5px solid black"">","","","","","","","",""
"","10373.179999995045","sequential-stimulus-presentation-old","14","240688","0.0-9.0-1.2","SS1618435642010","trial","","40","500","10873.179999995045","images/stimuli/spore_stims/simple_06_A_a.gif","images/stimuli/spore_stims/simple_13_A_b.gif","forced_long","","0","simple_dissimilar","images/stimuli/spore_stims/simple_13_A_b.gif","","","","",""
"","null","html-keyboard-response","15","241514","0.0-9.0-0.3","SS1618435642010","","","null","","","","","","<p><img src= images/blank.png width =""600"" height = ""600"" style=""position:fixed;top:50%; left:50%; transform: translate(-50%, -50%); border:5px solid black"">","","","","","","","",""
"","1601.0450000176206","sequential-stimulus-presentation-old","16","243624","0.0-9.0-1.3","SS1618435642010","trial","","40","500","2101.0450000176206","images/stimuli/spore_stims/simple_06_A_a.gif","images/stimuli/spore_stims/simple_13_A_b.gif","forced_long","","0","simple_dissimilar","images/stimuli/spore_stims/simple_13_A_b.gif","","","","",""
"","null","html-keyboard-response","17","244565","0.0-9.0-0.4","SS1618435642010","","","null","","","","","","<p><img src= images/blank.png width =""600"" height = ""600"" style=""position:fixed;top:50%; left:50%; transform: translate(-50%, -50%); border:5px solid black"">","","","","","","","",""
"","1558.0850000260398","sequential-stimulus-presentation-old","18","246624","0.0-9.0-1.4","SS1618435642010","trial","","40","500","2058.08500002604","images/stimuli/spore_stims/simple_06_A_a.gif","images/stimuli/spore_stims/simple_13_A_b.gif","forced_long","","0","simple_dissimilar","images/stimuli/spore_stims/simple_13_A_b.gif","","","","",""
"","null","html-keyboard-response","19","247761","0.0-9.0-0.5","SS1618435642010","","","null","","","","","","<p><img src= images/blank.png width =""600"" height = ""600"" style=""position:fixed;top:50%; left:50%; transform: translate(-50%, -50%); border:5px solid black"">","","","","","","","",""
"","1954.1750000207685","sequential-stimulus-presentation-old","20","250217","0.0-9.0-1.5","SS1618435642010","trial","","40","500","2454.1750000207685","images/stimuli/spore_stims/simple_06_A_a.gif","images/stimuli/spore_stims/simple_13_A_b.gif","forced_long","","0","simple_dissimilar","images/stimuli/spore_stims/simple_13_A_b.gif","","","","",""
"","5203.200000047218","survey-multi-choice","21","255422","0.0-10.0","SS1618435642010","math_question","","","","","","","","","","","","{""Q0"":""10""}","[0]","10","",""
"","null","html-keyboard-response","22","256692","0.0-11.0-0.0","SS1618435642010","","","null","","","","","","<p><img src= images/blank.png width =""600"" height = ""600"" style=""position:fixed;top:50%; left:50%; transform: translate(-50%, -50%); border:5px solid black"">","","","","","","","",""
"","1744.3349999957718","sequential-stimulus-presentation-old","23","258489","0.0-11.0-1.0","SS1618435642010","trial","","40","500","2244.334999995772","images/stimuli/spore_stims/complex_17_A_a.gif","images/stimuli/spore_stims/complex_20_A_b.gif","forced_short","","1","complex_dissimilar","images/stimuli/spore_stims/complex_20_A_b.gif","","","","",""
"","null","html-keyboard-response","24","259608","0.0-11.0-0.1","SS1618435642010","","","null","","","","","","<p><img src= images/blank.png width =""600"" height = ""600"" style=""position:fixed;top:50%; left:50%; transform: translate(-50%, -50%); border:5px solid black"">","","","","","","","",""
"","15910.419999971054","sequential-stimulus-presentation-old","25","276019","0.0-11.0-1.1","SS1618435642010","trial","","40","500","16410.419999971054","images/stimuli/spore_stims/complex_17_A_a.gif","images/stimuli/spore_stims/complex_20_A_b.gif","forced_short","","1","complex_dissimilar","images/stimuli/spore_stims/complex_20_A_b.gif","","","","",""
"","null","html-keyboard-response","26","277273","0.0-11.0-0.2","SS1618435642010","","","null","","","","","","<p><img src= images/blank.png width =""600"" height = ""600"" style=""position:fixed;top:50%; left:50%; transform: translate(-50%, -50%); border:5px solid black"">","","","","","","","",""
"","4887.374999991152","sequential-stimulus-presentation-old","27","282663","0.0-11.0-1.2","SS1618435642010","trial","","40","500","5387.374999991152","images/stimuli/spore_stims/complex_17_A_a.gif","images/stimuli/spore_stims/complex_20_A_b.gif","forced_short","","1","complex_dissimilar","images/stimuli/spore_stims/complex_20_A_b.gif","","","","",""
"","null","html-keyboard-response","28","283547","0.0-11.0-0.3","SS1618435642010","","","null","","","","","","<p><img src= images/blank.png width =""600"" height = ""600"" style=""position:fixed;top:50%; left:50%; transform: translate(-50%, -50%); border:5px solid black"">","","","","","","","",""
"","13742.12000000989","sequential-stimulus-presentation-old","29","297791","0.0-11.0-1.3","SS1618435642010","trial","","40","500","14242.12000000989","images/stimuli/spore_stims/complex_17_A_a.gif","images/stimuli/spore_stims/complex_20_A_b.gif","forced_short","","1","complex_dissimilar","images/stimuli/spore_stims/complex_20_A_b.gif","","","","",""
"","3796.764999977313","survey-multi-choice","30","301590","0.0-12.0","SS1618435642010","math_question","","","","","","","","","","","","{""Q0"":""9""}","[0]","9","",""
"","null","html-keyboard-response","31","302838","0.0-13.0-0.0","SS1618435642010","","","null","","","","","","<p><img src= images/blank.png width =""600"" height = ""600"" style=""position:fixed;top:50%; left:50%; transform: translate(-50%, -50%); border:5px solid black"">","","","","","","","",""
"","7740.930000029039","sequential-stimulus-presentation-old","32","311083","0.0-13.0-1.0","SS1618435642010","trial","","40","500","8240.930000029039","images/stimuli/spore_stims/complex_15_A_a.gif","images/stimuli/spore_stims/complex_06_A_b.gif","self_paced","","2","complex_dissimilar","images/stimuli/spore_stims/complex_06_A_b.gif","","","","",""
"","null","html-keyboard-response","33","312368","0.0-13.0-0.1","SS1618435642010","","","null","","","","","","<p><img src= images/blank.png width =""600"" height = ""600"" style=""position:fixed;top:50%; left:50%; transform: translate(-50%, -50%); border:5px solid black"">","","","","","","","",""
"","9516.319999995176","sequential-stimulus-presentation-old","34","322386","0.0-13.0-1.1","SS1618435642010","trial","","40","500","10016.319999995176","images/stimuli/spore_stims/complex_15_A_a.gif","images/stimuli/spore_stims/complex_06_A_b.gif","self_paced","","2","complex_dissimilar","images/stimuli/spore_stims/complex_06_A_b.gif","","","","",""
"","null","html-keyboard-response","35","323530","0.0-13.0-0.2","SS1618435642010","","","null","","","","","","<p><img src= images/blank.png width =""600"" height = ""600"" style=""position:fixed;top:50%; left:50%; transform: translate(-50%, -50%); border:5px solid black"">","","","","","","","",""
"","2223.984999989625","sequential-stimulus-presentation-old","36","326256","0.0-13.0-1.2","SS1618435642010","trial","","40","500","2723.984999989625","images/stimuli/spore_stims/complex_15_A_a.gif","images/stimuli/spore_stims/complex_06_A_b.gif","self_paced","","2","complex_dissimilar","images/stimuli/spore_stims/complex_06_A_b.gif","","","","",""
"","null","html-keyboard-response","37","327134","0.0-13.0-0.3","SS1618435642010","","","null","","","","","","<p><img src= images/blank.png width =""600"" height = ""600"" style=""position:fixed;top:50%; left:50%; transform: translate(-50%, -50%); border:5px solid black"">","","","","","","","",""
"","6508.265000011306","sequential-stimulus-presentation-old","38","334143","0.0-13.0-1.3","SS1618435642010","trial","","40","500","7008.265000011306","images/stimuli/spore_stims/complex_15_A_a.gif","images/stimuli/spore_stims/complex_06_A_b.gif","self_paced","","2","complex_dissimilar","images/stimuli/spore_stims/complex_15_A_a.gif","","","","",""
"","7445.230000012089","survey-multi-choice","39","341590","0.0-14.0","SS1618435642010","math_question","","","","","","","","","","","","{""Q0"":""12""}","[0]","12","",""
"","null","html-keyboard-response","40","342431","0.0-15.0-0.0","SS1618435642010","","","null","","","","","","<p><img src= images/blank.png width =""600"" height = ""600"" style=""position:fixed;top:50%; left:50%; transform: translate(-50%, -50%); border:5px solid black"">","","","","","","","",""
"","1306.1650000163354","sequential-stimulus-presentation-old","41","348739","0.0-15.0-1.0","SS1618435642010","trial","","40","500","1806.1650000163354","images/stimuli/spore_stims/complex_14_A_b.gif","images/stimuli/spore_stims/complex_08_A_a.gif","forced_long","","3","complex_dissimilar","images/stimuli/spore_stims/complex_08_A_a.gif","","","","",""
"","null","html-keyboard-response","42","349834","0.0-15.0-0.1","SS1618435642010","","","null","","","","","","<p><img src= images/blank.png width =""600"" height = ""600"" style=""position:fixed;top:50%; left:50%; transform: translate(-50%, -50%); border:5px solid black"">","","","","","","","",""
"","3681.6749999998137","sequential-stimulus-presentation-old","43","354018","0.0-15.0-1.1","SS1618435642010","trial","","40","500","4181.674999999814","images/stimuli/spore_stims/complex_14_A_b.gif","images/stimuli/spore_stims/complex_08_A_a.gif","forced_long","","3","complex_dissimilar","images/stimuli/spore_stims/complex_08_A_a.gif","","","","",""
"","null","html-keyboard-response","44","354858","0.0-15.0-0.2","SS1618435642010","","","null","","","","","","<p><img src= images/blank.png width =""600"" height = ""600"" style=""position:fixed;top:50%; left:50%; transform: translate(-50%, -50%); border:5px solid black"">","","","","","","","",""
"","617.0899999560788","sequential-stimulus-presentation-old","45","355977","0.0-15.0-1.2","SS1618435642010","trial","","40","500","1117.0899999560788","images/stimuli/spore_stims/complex_14_A_b.gif","images/stimuli/spore_stims/complex_08_A_a.gif","forced_long","","3","complex_dissimilar","images/stimuli/spore_stims/complex_08_A_a.gif","","","","",""
"","null","html-keyboard-response","46","357251","0.0-15.0-0.3","SS1618435642010","","","null","","","","","","<p><img src= images/blank.png width =""600"" height = ""600"" style=""position:fixed;top:50%; left:50%; transform: translate(-50%, -50%); border:5px solid black"">","","","","","","","",""
"","416.6100000147708","sequential-stimulus-presentation-old","47","358169","0.0-15.0-1.3","SS1618435642010","trial","","40","500","916.6100000147708","images/stimuli/spore_stims/complex_14_A_b.gif","images/stimuli/spore_stims/complex_08_A_a.gif","forced_long","","3","complex_dissimilar","images/stimuli/spore_stims/complex_08_A_a.gif","","","","",""
"","null","html-keyboard-response","48","359306","0.0-15.0-0.4","SS1618435642010","","","null","","","","","","<p><img src= images/blank.png width =""600"" height = ""600"" style=""position:fixed;top:50%; left:50%; transform: translate(-50%, -50%); border:5px solid black"">","","","","","","","",""
"","784.6449999487959","sequential-stimulus-presentation-old","49","360593","0.0-15.0-1.4","SS1618435642010","trial","","40","500","1284.6449999487959","images/stimuli/spore_stims/complex_14_A_b.gif","images/stimuli/spore_stims/complex_08_A_a.gif","forced_long","","3","complex_dissimilar","images/stimuli/spore_stims/complex_08_A_a.gif","","","","",""
"","null","html-keyboard-response","50","361495","0.0-15.0-0.5","SS1618435642010","","","null","","","","","","<p><img src= images/blank.png width =""600"" height = ""600"" style=""position:fixed;top:50%; left:50%; transform: translate(-50%, -50%); border:5px solid black"">","","","","","","","",""
"","1963.6649999883957","sequential-stimulus-presentation-old","51","363960","0.0-15.0-1.5","SS1618435642010","trial","","40","500","2463.6649999883957","images/stimuli/spore_stims/complex_14_A_b.gif","images/stimuli/spore_stims/complex_08_A_a.gif","forced_long","","3","complex_dissimilar","images/stimuli/spore_stims/complex_14_A_b.gif","","","","",""
"","3364.300000015646","survey-multi-choice","52","367326","0.0-16.0","SS1618435642010","math_question","","","","","","","","","","","","{""Q0"":""7""}","[0]","7","",""
"","null","html-keyboard-response","53","368468","0.0-17.0-0.0","SS1618435642010","","","null","","","","","","<p><img src= images/blank.png width =""600"" height = ""600"" style=""position:fixed;top:50%; left:50%; transform: translate(-50%, -50%); border:5px solid black"">","","","","","","","",""
"","563.1350000039674","sequential-stimulus-presentation-old","54","369533","0.0-17.0-1.0","SS1618435642010","trial","","40","500","1063.1350000039674","images/stimuli/spore_stims/simple_16_A_b.gif","images/stimuli/spore_stims/simple_20_A_a.gif","self_paced","","4","simple_dissimilar","images/stimuli/spore_stims/simple_20_A_a.gif","","","","",""
"","null","html-keyboard-response","55","370610","0.0-17.0-0.1","SS1618435642010","","","null","","","","","","<p><img src= images/blank.png width =""600"" height = ""600"" style=""position:fixed;top:50%; left:50%; transform: translate(-50%, -50%); border:5px solid black"">","","","","","","","",""
"","145.1099999831058","sequential-stimulus-presentation-old","56","371258","0.0-17.0-1.1","SS1618435642010","trial","","40","500","645.1099999831058","images/stimuli/spore_stims/simple_16_A_b.gif","images/stimuli/spore_stims/simple_20_A_a.gif","self_paced","","4","simple_dissimilar","images/stimuli/spore_stims/simple_20_A_a.gif","","","","",""
"","null","html-keyboard-response","57","372500","0.0-17.0-0.2","SS1618435642010","","","null","","","","","","<p><img src= images/blank.png width =""600"" height = ""600"" style=""position:fixed;top:50%; left:50%; transform: translate(-50%, -50%); border:5px solid black"">","","","","","","","",""
"","3951.520000002347","sequential-stimulus-presentation-old","58","376953","0.0-17.0-1.2","SS1618435642010","trial","","40","500","4451.520000002347","images/stimuli/spore_stims/simple_16_A_b.gif","images/stimuli/spore_stims/simple_20_A_a.gif","self_paced","","4","simple_dissimilar","images/stimuli/spore_stims/simple_20_A_a.gif","","","","",""
"","null","html-keyboard-response","59","377829","0.0-17.0-0.3","SS1618435642010","","","null","","","","","","<p><img src= images/blank.png width =""600"" height = ""600"" style=""position:fixed;top:50%; left:50%; transform: translate(-50%, -50%); border:5px solid black"">","","","","","","","",""
"","2969.64999998454","sequential-stimulus-presentation-old","60","381301","0.0-17.0-1.3","SS1618435642010","trial","","40","500","3469.64999998454","images/stimuli/spore_stims/simple_16_A_b.gif","images/stimuli/spore_stims/simple_20_A_a.gif","self_paced","","4","simple_dissimilar","images/stimuli/spore_stims/simple_16_A_b.gif","","","","",""
"","null","html-keyboard-response","61","382250","0.0-17.0-0.4","SS1618435642010","","","null","","","","","","<p><img src= images/blank.png width =""600"" height = ""600"" style=""position:fixed;top:50%; left:50%; transform: translate(-50%, -50%); border:5px solid black"">","","","","","","","",""
"","849.820000003092","sequential-stimulus-presentation-old","62","383602","0.0-17.0-1.4","SS1618435642010","trial","","40","500","1349.820000003092","images/stimuli/spore_stims/simple_16_A_b.gif","images/stimuli/spore_stims/simple_20_A_a.gif","self_paced","","4","simple_dissimilar","images/stimuli/spore_stims/simple_20_A_a.gif","","","","",""
"","null","html-keyboard-response","63","384789","0.0-17.0-0.5","SS1618435642010","","","null","","","","","","<p><img src= images/blank.png width =""600"" height = ""600"" style=""position:fixed;top:50%; left:50%; transform: translate(-50%, -50%); border:5px solid black"">","","","","","","","",""
"","1440.3799999854527","sequential-stimulus-presentation-old","64","386732","0.0-17.0-1.5","SS1618435642010","trial","","40","500","1940.3799999854527","images/stimuli/spore_stims/simple_16_A_b.gif","images/stimuli/spore_stims/simple_20_A_a.gif","self_paced","","4","simple_dissimilar","images/stimuli/spore_stims/simple_20_A_a.gif","","","","",""
"","3151.9400000106543","survey-multi-choice","65","389886","0.0-18.0","SS1618435642010","math_question","","","","","","","","","","","","{""Q0"":""9""}","[0]","9","",""
"","null","html-keyboard-response","66","390718","0.0-19.0-0.0","SS1618435642010","","","null","","","","","","<p><img src= images/blank.png width =""600"" height = ""600"" style=""position:fixed;top:50%; left:50%; transform: translate(-50%, -50%); border:5px solid black"">","","","","","","","",""
"","3220.694999967236","sequential-stimulus-presentation-old","67","393991","0.0-19.0-1.0","SS1618435642010","trial","","40","500","3720.694999967236","images/stimuli/spore_stims/simple_09_A_b.gif","images/stimuli/spore_stims/simple_01_A_a.gif","forced_short","","5","simple_dissimilar","images/stimuli/spore_stims/simple_01_A_a.gif","","","","",""
"","null","html-keyboard-response","68","395110","0.0-19.0-0.1","SS1618435642010","","","null","","","","","","<p><img src= images/blank.png width =""600"" height = ""600"" style=""position:fixed;top:50%; left:50%; transform: translate(-50%, -50%); border:5px solid black"">","","","","","","","",""
"","1314.524999994319","sequential-stimulus-presentation-old","69","396928","0.0-19.0-1.1","SS1618435642010","trial","","40","500","1814.524999994319","images/stimuli/spore_stims/simple_09_A_b.gif","images/stimuli/spore_stims/simple_01_A_a.gif","forced_short","","5","simple_dissimilar","images/stimuli/spore_stims/simple_01_A_a.gif","","","","",""
"","null","html-keyboard-response","70","397856","0.0-19.0-0.2","SS1618435642010","","","null","","","","","","<p><img src= images/blank.png width =""600"" height = ""600"" style=""position:fixed;top:50%; left:50%; transform: translate(-50%, -50%); border:5px solid black"">","","","","","","","",""
"","11291.170000040438","sequential-stimulus-presentation-old","71","409650","0.0-19.0-1.2","SS1618435642010","trial","","40","500","11791.170000040438","images/stimuli/spore_stims/simple_09_A_b.gif","images/stimuli/spore_stims/simple_01_A_a.gif","forced_short","","5","simple_dissimilar","images/stimuli/spore_stims/simple_01_A_a.gif","","","","",""
"","null","html-keyboard-response","72","410759","0.0-19.0-0.3","SS1618435642010","","","null","","","","","","<p><img src= images/blank.png width =""600"" height = ""600"" style=""position:fixed;top:50%; left:50%; transform: translate(-50%, -50%); border:5px solid black"">","","","","","","","",""
"","2688.0050000036135","sequential-stimulus-presentation-old","73","413949","0.0-19.0-1.3","SS1618435642010","trial","","40","500","3188.0050000036135","images/stimuli/spore_stims/simple_09_A_b.gif","images/stimuli/spore_stims/simple_01_A_a.gif","forced_short","","5","simple_dissimilar","images/stimuli/spore_stims/simple_09_A_b.gif","","","","",""
"","null","html-keyboard-response","74","414804","0.0-19.0-0.4","SS1618435642010","","","null","","","","","","<p><img src= images/blank.png width =""600"" height = ""600"" style=""position:fixed;top:50%; left:50%; transform: translate(-50%, -50%); border:5px solid black"">","","","","","","","",""
"","2156.3350000069477","sequential-stimulus-presentation-old","75","417463","0.0-19.0-1.4","SS1618435642010","trial","","40","500","2656.3350000069477","images/stimuli/spore_stims/simple_09_A_b.gif","images/stimuli/spore_stims/simple_01_A_a.gif","forced_short","","5","simple_dissimilar","images/stimuli/spore_stims/simple_09_A_b.gif","","","","",""
"","3517.1550000086427","survey-multi-choice","76","420982","0.0-20.0","SS1618435642010","math_question","","","","","","","","","","","","{""Q0"":""8""}","[0]","8","",""
"","null","html-keyboard-response","77","421910","0.0-21.0-0.0","SS1618435642010","","","null","","","","","","<p><img src= images/blank.png width =""600"" height = ""600"" style=""position:fixed;top:50%; left:50%; transform: translate(-50%, -50%); border:5px solid black"">","","","","","","","",""
"","574.6700000017881","sequential-stimulus-presentation-old","78","427486","0.0-21.0-1.0","SS1618435642010","trial","","40","500","1074.6700000017881","images/stimuli/spore_stims/simple_14_A_a.gif","images/stimuli/spore_stims/simple_07_A_b.gif","forced_long","","6","simple_dissimilar","images/stimuli/spore_stims/simple_07_A_b.gif","","","","",""
"","null","html-keyboard-response","79","428331","0.0-21.0-0.1","SS1618435642010","","","null","","","","","","<p><img src= images/blank.png width =""600"" height = ""600"" style=""position:fixed;top:50%; left:50%; transform: translate(-50%, -50%); border:5px solid black"">","","","","","","","",""
"","1137.1199999703094","sequential-stimulus-presentation-old","80","429970","0.0-21.0-1.1","SS1618435642010","trial","","40","500","1637.1199999703094","images/stimuli/spore_stims/simple_14_A_a.gif","images/stimuli/spore_stims/simple_07_A_b.gif","forced_long","","6","simple_dissimilar","images/stimuli/spore_stims/simple_07_A_b.gif","","","","",""
"","null","html-keyboard-response","81","431104","0.0-21.0-0.2","SS1618435642010","","","null","","","","","","<p><img src= images/blank.png width =""600"" height = ""600"" style=""position:fixed;top:50%; left:50%; transform: translate(-50%, -50%); border:5px solid black"">","","","","","","","",""
"","1187.1849999879487","sequential-stimulus-presentation-old","82","432793","0.0-21.0-1.2","SS1618435642010","trial","","40","500","1687.1849999879487","images/stimuli/spore_stims/simple_14_A_a.gif","images/stimuli/spore_stims/simple_07_A_b.gif","forced_long","","6","simple_dissimilar","images/stimuli/spore_stims/simple_07_A_b.gif","","","","",""
"","null","html-keyboard-response","83","433642","0.0-21.0-0.3","SS1618435642010","","","null","","","","","","<p><img src= images/blank.png width =""600"" height = ""600"" style=""position:fixed;top:50%; left:50%; transform: translate(-50%, -50%); border:5px solid black"">","","","","","","","",""
"","1289.429999946151","sequential-stimulus-presentation-old","84","435433","0.0-21.0-1.3","SS1618435642010","trial","","40","500","1789.429999946151","images/stimuli/spore_stims/simple_14_A_a.gif","images/stimuli/spore_stims/simple_07_A_b.gif","forced_long","","6","simple_dissimilar","images/stimuli/spore_stims/simple_07_A_b.gif","","","","",""
"","null","html-keyboard-response","85","436311","0.0-21.0-0.4","SS1618435642010","","","null","","","","","","<p><img src= images/blank.png width =""600"" height = ""600"" style=""position:fixed;top:50%; left:50%; transform: translate(-50%, -50%); border:5px solid black"">","","","","","","","",""
"","607.8850000048988","sequential-stimulus-presentation-old","86","437421","0.0-21.0-1.4","SS1618435642010","trial","","40","500","1107.8850000048988","images/stimuli/spore_stims/simple_14_A_a.gif","images/stimuli/spore_stims/simple_07_A_b.gif","forced_long","","6","simple_dissimilar","images/stimuli/spore_stims/simple_07_A_b.gif","","","","",""
"","null","html-keyboard-response","87","438472","0.0-21.0-0.5","SS1618435642010","","","null","","","","","","<p><img src= images/blank.png width =""600"" height = ""600"" style=""position:fixed;top:50%; left:50%; transform: translate(-50%, -50%); border:5px solid black"">","","","","","","","",""
"","49.014999996870756","sequential-stimulus-presentation-old","88","439023","0.0-21.0-1.5","SS1618435642010","trial","","40","500","549.0149999968708","images/stimuli/spore_stims/simple_14_A_a.gif","images/stimuli/spore_stims/simple_07_A_b.gif","forced_long","","6","simple_dissimilar","images/stimuli/spore_stims/simple_07_A_b.gif","","","","",""
"","2910.1199999568053","survey-multi-choice","89","441934","0.0-22.0","SS1618435642010","math_question","","","","","","","","","","","","{""Q0"":""10""}","[0]","10","",""
"","null","html-keyboard-response","90","442956","0.0-23.0-0.0","SS1618435642010","","","null","","","","","","<p><img src= images/blank.png width =""600"" height = ""600"" style=""position:fixed;top:50%; left:50%; transform: translate(-50%, -50%); border:5px solid black"">","","","","","","","",""
"","1204.680000024382","sequential-stimulus-presentation-old","91","444213","0.0-23.0-1.0","SS1618435642010","trial","","40","500","1704.680000024382","images/stimuli/spore_stims/simple_18_A_b.gif","images/stimuli/spore_stims/simple_16_A_a.gif","forced_short","","7","simple_dissimilar","images/stimuli/spore_stims/simple_16_A_a.gif","","","","",""
"","null","html-keyboard-response","92","445460","0.0-23.0-0.1","SS1618435642010","","","null","","","","","","<p><img src= images/blank.png width =""600"" height = ""600"" style=""position:fixed;top:50%; left:50%; transform: translate(-50%, -50%); border:5px solid black"">","","","","","","","",""
"","236.21000000275671","sequential-stimulus-presentation-old","93","446199","0.0-23.0-1.1","SS1618435642010","trial","","40","500","736.2100000027567","images/stimuli/spore_stims/simple_18_A_b.gif","images/stimuli/spore_stims/simple_16_A_a.gif","forced_short","","7","simple_dissimilar","images/stimuli/spore_stims/simple_18_A_b.gif","","","","",""
"","null","html-keyboard-response","94","447098","0.0-23.0-0.2","SS1618435642010","","","null","","","","","","<p><img src= images/blank.png width =""600"" height = ""600"" style=""position:fixed;top:50%; left:50%; transform: translate(-50%, -50%); border:5px solid black"">","","","","","","","",""
"","154.44499999284744","sequential-stimulus-presentation-old","95","447755","0.0-23.0-1.2","SS1618435642010","trial","","40","500","654.4449999928474","images/stimuli/spore_stims/simple_18_A_b.gif","images/stimuli/spore_stims/simple_16_A_a.gif","forced_short","","7","simple_dissimilar","images/stimuli/spore_stims/simple_16_A_a.gif","","","","",""
"","null","html-keyboard-response","96","448584","0.0-23.0-0.3","SS1618435642010","","","null","","","","","","<p><img src= images/blank.png width =""600"" height = ""600"" style=""position:fixed;top:50%; left:50%; transform: translate(-50%, -50%); border:5px solid black"">","","","","","","","",""
"","1052.9549999628216","sequential-stimulus-presentation-old","97","450138","0.0-23.0-1.3","SS1618435642010","trial","","40","500","1552.9549999628216","images/stimuli/spore_stims/simple_18_A_b.gif","images/stimuli/spore_stims/simple_16_A_a.gif","forced_short","","7","simple_dissimilar","images/stimuli/spore_stims/simple_16_A_a.gif","","","","",""
"","null","html-keyboard-response","98","451129","0.0-23.0-0.4","SS1618435642010","","","null","","","","","","<p><img src= images/blank.png width =""600"" height = ""600"" style=""position:fixed;top:50%; left:50%; transform: translate(-50%, -50%); border:5px solid black"">","","","","","","","",""
"","656.6100000054576","sequential-stimulus-presentation-old","99","452288","0.0-23.0-1.4","SS1618435642010","trial","","40","500","1156.6100000054576","images/stimuli/spore_stims/simple_18_A_b.gif","images/stimuli/spore_stims/simple_16_A_a.gif","forced_short","","7","simple_dissimilar","images/stimuli/spore_stims/simple_18_A_b.gif","","","","",""
"","3245.0950000202283","survey-multi-choice","100","455534","0.0-24.0","SS1618435642010","math_question","","","","","","","","","","","","{""Q0"":""4""}","[0]","4","",""
"","null","html-keyboard-response","101","456383","0.0-25.0-0.0","SS1618435642010","","","null","","","","","","<p><img src= images/blank.png width =""600"" height = ""600"" style=""position:fixed;top:50%; left:50%; transform: translate(-50%, -50%); border:5px solid black"">","","","","","","","",""
"","2558.8149999966845","sequential-stimulus-presentation-old","102","459002","0.0-25.0-1.0","SS1618435642010","trial","","40","500","3058.8149999966845","images/stimuli/spore_stims/complex_07_A_b.gif","images/stimuli/spore_stims/complex_14_A_a.gif","forced_short","","8","complex_dissimilar","images/stimuli/spore_stims/complex_14_A_a.gif","","","","",""
"","null","html-keyboard-response","103","460205","0.0-25.0-0.1","SS1618435642010","","","null","","","","","","<p><img src= images/blank.png width =""600"" height = ""600"" style=""position:fixed;top:50%; left:50%; transform: translate(-50%, -50%); border:5px solid black"">","","","","","","","",""
"","67.38000002223998","sequential-stimulus-presentation-old","104","460777","0.0-25.0-1.1","SS1618435642010","trial","","40","500","567.38000002224","images/stimuli/spore_stims/complex_07_A_b.gif","images/stimuli/spore_stims/complex_14_A_a.gif","forced_short","","8","complex_dissimilar","images/stimuli/spore_stims/complex_14_A_a.gif","","","","",""
"","null","html-keyboard-response","105","461688","0.0-25.0-0.2","SS1618435642010","","","null","","","","","","<p><img src= images/blank.png width =""600"" height = ""600"" style=""position:fixed;top:50%; left:50%; transform: translate(-50%, -50%); border:5px solid black"">","","","","","","","",""
"","700.1499999896623","sequential-stimulus-presentation-old","106","462891","0.0-25.0-1.2","SS1618435642010","trial","","40","500","1200.1499999896623","images/stimuli/spore_stims/complex_07_A_b.gif","images/stimuli/spore_stims/complex_14_A_a.gif","forced_short","","8","complex_dissimilar","images/stimuli/spore_stims/complex_07_A_b.gif","","","","",""
"","null","html-keyboard-response","107","464056","0.0-25.0-0.3","SS1618435642010","","","null","","","","","","<p><img src= images/blank.png width =""600"" height = ""600"" style=""position:fixed;top:50%; left:50%; transform: translate(-50%, -50%); border:5px solid black"">","","","","","","","",""
"","771.2750000064261","sequential-stimulus-presentation-old","108","465330","0.0-25.0-1.3","SS1618435642010","trial","","40","500","1271.2750000064261","images/stimuli/spore_stims/complex_07_A_b.gif","images/stimuli/spore_stims/complex_14_A_a.gif","forced_short","","8","complex_dissimilar","images/stimuli/spore_stims/complex_14_A_a.gif","","","","",""
"","null","html-keyboard-response","109","466467","0.0-25.0-0.4","SS1618435642010","","","null","","","","","","<p><img src= images/blank.png width =""600"" height = ""600"" style=""position:fixed;top:50%; left:50%; transform: translate(-50%, -50%); border:5px solid black"">","","","","","","","",""
"","13474.08000001451","sequential-stimulus-presentation-old","110","480442","0.0-25.0-1.4","SS1618435642010","trial","","40","500","13974.08000001451","images/stimuli/spore_stims/complex_07_A_b.gif","images/stimuli/spore_stims/complex_14_A_a.gif","forced_short","","8","complex_dissimilar","images/stimuli/spore_stims/complex_14_A_a.gif","","","","",""
"","null","html-keyboard-response","111","481298","0.0-25.0-0.5","SS1618435642010","","","null","","","","","","<p><img src= images/blank.png width =""600"" height = ""600"" style=""position:fixed;top:50%; left:50%; transform: translate(-50%, -50%); border:5px solid black"">","","","","","","","",""
"","9184.680000005756","sequential-stimulus-presentation-old","112","490985","0.0-25.0-1.5","SS1618435642010","trial","","40","500","9684.680000005756","images/stimuli/spore_stims/complex_07_A_b.gif","images/stimuli/spore_stims/complex_14_A_a.gif","forced_short","","8","complex_dissimilar","images/stimuli/spore_stims/complex_14_A_a.gif","","","","",""
"","3874.759999976959","survey-multi-choice","113","494861","0.0-26.0","SS1618435642010","math_question","","","","","","","","","","","","{""Q0"":""8""}","[0]","8","",""
"","null","html-keyboard-response","114","495672","0.0-27.0-0.0","SS1618435642010","","","null","","","","","","<p><img src= images/blank.png width =""600"" height = ""600"" style=""position:fixed;top:50%; left:50%; transform: translate(-50%, -50%); border:5px solid black"">","","","","","","","",""
"","7158.095000020694","sequential-stimulus-presentation-old","115","503333","0.0-27.0-1.0","SS1618435642010","trial","","40","500","7658.095000020694","images/stimuli/spore_stims/complex_18_A_b.gif","images/stimuli/spore_stims/complex_07_A_a.gif","self_paced","","9","complex_dissimilar","images/stimuli/spore_stims/complex_07_A_a.gif","","","","",""
"","null","html-keyboard-response","116","504330","0.0-27.0-0.1","SS1618435642010","","","null","","","","","","<p><img src= images/blank.png width =""600"" height = ""600"" style=""position:fixed;top:50%; left:50%; transform: translate(-50%, -50%); border:5px solid black"">","","","","","","","",""
"","968.605000001844","sequential-stimulus-presentation-old","117","505810","0.0-27.0-1.1","SS1618435642010","trial","","40","500","1468.605000001844","images/stimuli/spore_stims/complex_18_A_b.gif","images/stimuli/spore_stims/complex_07_A_a.gif","self_paced","","9","complex_dissimilar","images/stimuli/spore_stims/complex_07_A_a.gif","","","","",""
"","null","html-keyboard-response","118","506898","0.0-27.0-0.2","SS1618435642010","","","null","","","","","","<p><img src= images/blank.png width =""600"" height = ""600"" style=""position:fixed;top:50%; left:50%; transform: translate(-50%, -50%); border:5px solid black"">","","","","","","","",""
"","86.27500000875443","sequential-stimulus-presentation-old","119","507486","0.0-27.0-1.2","SS1618435642010","trial","","40","500","586.2750000087544","images/stimuli/spore_stims/complex_18_A_b.gif","images/stimuli/spore_stims/complex_07_A_a.gif","self_paced","","9","complex_dissimilar","images/stimuli/spore_stims/complex_07_A_a.gif","","","","",""
"","null","html-keyboard-response","120","508323","0.0-27.0-0.3","SS1618435642010","","","null","","","","","","<p><img src= images/blank.png width =""600"" height = ""600"" style=""position:fixed;top:50%; left:50%; transform: translate(-50%, -50%); border:5px solid black"">","","","","","","","",""
"","8472.544999967795","sequential-stimulus-presentation-old","121","517298","0.0-27.0-1.3","SS1618435642010","trial","","40","500","8972.544999967795","images/stimuli/spore_stims/complex_18_A_b.gif","images/stimuli/spore_stims/complex_07_A_a.gif","self_paced","","9","complex_dissimilar","images/stimuli/spore_stims/complex_07_A_a.gif","","","","",""
"","null","html-keyboard-response","122","518373","0.0-27.0-0.4","SS1618435642010","","","null","","","","","","<p><img src= images/blank.png width =""600"" height = ""600"" style=""position:fixed;top:50%; left:50%; transform: translate(-50%, -50%); border:5px solid black"">","","","","","","","",""
"","1145.0400000321679","sequential-stimulus-presentation-old","123","520020","0.0-27.0-1.4","SS1618435642010","trial","","40","500","1645.0400000321679","images/stimuli/spore_stims/complex_18_A_b.gif","images/stimuli/spore_stims/complex_07_A_a.gif","self_paced","","9","complex_dissimilar","images/stimuli/spore_stims/complex_18_A_b.gif","","","","",""
"","2943.92000004882","survey-multi-choice","124","522965","0.0-28.0","SS1618435642010","math_question","","","","","","","","","","","","{""Q0"":""6""}","[0]","6","",""
"","null","html-keyboard-response","125","523789","0.0-29.0-0.0","SS1618435642010","","","null","","","","","","<p><img src= images/blank.png width =""600"" height = ""600"" style=""position:fixed;top:50%; left:50%; transform: translate(-50%, -50%); border:5px solid black"">","","","","","","","",""
"","6850.075000023935","sequential-stimulus-presentation-old","126","535642","0.0-29.0-1.0","SS1618435642010","trial","","40","500","7350.075000023935","images/stimuli/spore_stims/complex_09_A_a.gif","images/stimuli/spore_stims/complex_11_A_b.gif","forced_long","","10","complex_dissimilar","images/stimuli/spore_stims/complex_11_A_b.gif","","","","",""
"","null","html-keyboard-response","127","536558","0.0-29.0-0.1","SS1618435642010","","","null","","","","","","<p><img src= images/blank.png width =""600"" height = ""600"" style=""position:fixed;top:50%; left:50%; transform: translate(-50%, -50%); border:5px solid black"">","","","","","","","",""
"","3985.6500000460073","sequential-stimulus-presentation-old","128","541046","0.0-29.0-1.1","SS1618435642010","trial","","40","500","4485.650000046007","images/stimuli/spore_stims/complex_09_A_a.gif","images/stimuli/spore_stims/complex_11_A_b.gif","forced_long","","10","complex_dissimilar","images/stimuli/spore_stims/complex_11_A_b.gif","","","","",""
"","null","html-keyboard-response","129","541852","0.0-29.0-0.2","SS1618435642010","","","null","","","","","","<p><img src= images/blank.png width =""600"" height = ""600"" style=""position:fixed;top:50%; left:50%; transform: translate(-50%, -50%); border:5px solid black"">","","","","","","","",""
"","39.63999997358769","sequential-stimulus-presentation-old","130","542394","0.0-29.0-1.2","SS1618435642010","trial","","40","500","539.6399999735877","images/stimuli/spore_stims/complex_09_A_a.gif","images/stimuli/spore_stims/complex_11_A_b.gif","forced_long","","10","complex_dissimilar","images/stimuli/spore_stims/complex_11_A_b.gif","","","","",""
"","null","html-keyboard-response","131","543547","0.0-29.0-0.3","SS1618435642010","","","null","","","","","","<p><img src= images/blank.png width =""600"" height = ""600"" style=""position:fixed;top:50%; left:50%; transform: translate(-50%, -50%); border:5px solid black"">","","","","","","","",""
"","2424.1699999547563","sequential-stimulus-presentation-old","132","546473","0.0-29.0-1.3","SS1618435642010","trial","","40","500","2924.1699999547563","images/stimuli/spore_stims/complex_09_A_a.gif","images/stimuli/spore_stims/complex_11_A_b.gif","forced_long","","10","complex_dissimilar","images/stimuli/spore_stims/complex_11_A_b.gif","","","","",""
"","null","html-keyboard-response","133","547506","0.0-29.0-0.4","SS1618435642010","","","null","","","","","","<p><img src= images/blank.png width =""600"" height = ""600"" style=""position:fixed;top:50%; left:50%; transform: translate(-50%, -50%); border:5px solid black"">","","","","","","","",""
"","821.6450000181794","sequential-stimulus-presentation-old","134","548830","0.0-29.0-1.4","SS1618435642010","trial","","40","500","1321.6450000181794","images/stimuli/spore_stims/complex_09_A_a.gif","images/stimuli/spore_stims/complex_11_A_b.gif","forced_long","","10","complex_dissimilar","images/stimuli/spore_stims/complex_11_A_b.gif","","","","",""
"","null","html-keyboard-response","135","550124","0.0-29.0-0.5","SS1618435642010","","","null","","","","","","<p><img src= images/blank.png width =""600"" height = ""600"" style=""position:fixed;top:50%; left:50%; transform: translate(-50%, -50%); border:5px solid black"">","","","","","","","",""
"","827.1150000509806","sequential-stimulus-presentation-old","136","551454","0.0-29.0-1.5","SS1618435642010","trial","","40","500","1327.1150000509806","images/stimuli/spore_stims/complex_09_A_a.gif","images/stimuli/spore_stims/complex_11_A_b.gif","forced_long","","10","complex_dissimilar","images/stimuli/spore_stims/complex_09_A_a.gif","","","","",""
"","2837.4750000075437","survey-multi-choice","137","554293","0.0-30.0","SS1618435642010","math_question","","","","","","","","","","","","{""Q0"":""4""}","[0]","4","",""
"","null","html-keyboard-response","138","555293","0.0-31.0-0.0","SS1618435642010","","","null","","","","","","<p><img src= images/blank.png width =""600"" height = ""600"" style=""position:fixed;top:50%; left:50%; transform: translate(-50%, -50%); border:5px solid black"">","","","","","","","",""
"","3793.550000002142","sequential-stimulus-presentation-old","139","559590","0.0-31.0-1.0","SS1618435642010","trial","","40","500","4293.550000002142","images/stimuli/spore_stims/simple_10_A_b.gif","images/stimuli/spore_stims/simple_03_A_a.gif","self_paced","","11","simple_dissimilar","images/stimuli/spore_stims/simple_03_A_a.gif","","","","",""
"","null","html-keyboard-response","140","560623","0.0-31.0-0.1","SS1618435642010","","","null","","","","","","<p><img src= images/blank.png width =""600"" height = ""600"" style=""position:fixed;top:50%; left:50%; transform: translate(-50%, -50%); border:5px solid black"">","","","","","","","",""
"","1986.014999973122","sequential-stimulus-presentation-old","141","563112","0.0-31.0-1.1","SS1618435642010","trial","","40","500","2486.014999973122","images/stimuli/spore_stims/simple_10_A_b.gif","images/stimuli/spore_stims/simple_03_A_a.gif","self_paced","","11","simple_dissimilar","images/stimuli/spore_stims/simple_03_A_a.gif","","","","",""
"","null","html-keyboard-response","142","564332","0.0-31.0-0.2","SS1618435642010","","","null","","","","","","<p><img src= images/blank.png width =""600"" height = ""600"" style=""position:fixed;top:50%; left:50%; transform: translate(-50%, -50%); border:5px solid black"">","","","","","","","",""
"","772.1400000154972","sequential-stimulus-presentation-old","143","565607","0.0-31.0-1.2","SS1618435642010","trial","","40","500","1272.1400000154972","images/stimuli/spore_stims/simple_10_A_b.gif","images/stimuli/spore_stims/simple_03_A_a.gif","self_paced","","11","simple_dissimilar","images/stimuli/spore_stims/simple_03_A_a.gif","","","","",""
"","null","html-keyboard-response","144","566785","0.0-31.0-0.3","SS1618435642010","","","null","","","","","","<p><img src= images/blank.png width =""600"" height = ""600"" style=""position:fixed;top:50%; left:50%; transform: translate(-50%, -50%); border:5px solid black"">","","","","","","","",""
"","966.6100000031292","sequential-stimulus-presentation-old","145","568254","0.0-31.0-1.3","SS1618435642010","trial","","40","500","1466.6100000031292","images/stimuli/spore_stims/simple_10_A_b.gif","images/stimuli/spore_stims/simple_03_A_a.gif","self_paced","","11","simple_dissimilar","images/stimuli/spore_stims/simple_03_A_a.gif","","","","",""
"[{""page_index"":0,""viewing_time"":6325.479999999516}]","6325.599999981932","instructions","146","574581","0.0-32.0","SS1618435642010","instructions","","","","","","","","","","","","","","","",""
"","7718.185000005178","survey-likert","147","582301","0.0-33.0","SS1618435642010","similarity_question","","","","","","","","","","","","{""Q0"":2}","[0]","","images/stimuli/spore_stims/simple_01_A_a.gif","images/stimuli/spore_stims/simple_09_A_b.gif"
"","13323.875000001863","survey-likert","148","595629","0.0-34.0","SS1618435642010","similarity_question","","","","","","","","","","","","{""Q0"":1}","[0]","","images/stimuli/spore_stims/simple_14_A_a.gif","images/stimuli/spore_stims/simple_07_A_b.gif"
"","9148.255000007339","survey-likert","149","604782","0.0-35.0","SS1618435642010","similarity_question","","","","","","","","","","","","{""Q0"":0}","[0]","","images/stimuli/spore_stims/complex_17_A_a.gif","images/stimuli/spore_stims/complex_20_A_b.gif"
"","3556.1300000408664","survey-likert","150","608342","0.0-36.0","SS1618435642010","similarity_question","","","","","","","","","","","","{""Q0"":0}","[0]","","images/stimuli/spore_stims/complex_14_A_b.gif","images/stimuli/spore_stims/complex_08_A_a.gif"
"","4180.044999986421","survey-likert","151","612526","0.0-37.0","SS1618435642010","similarity_question","","","","","","","","","","","","{""Q0"":1}","[0]","","images/stimuli/spore_stims/simple_16_A_b.gif","images/stimuli/spore_stims/simple_20_A_a.gif"
"","10100.159999972675","survey-likert","152","622630","0.0-38.0","SS1618435642010","similarity_question","","","","","","","","","","","","{""Q0"":1}","[0]","","images/stimuli/spore_stims/complex_18_A_b.gif","images/stimuli/spore_stims/complex_07_A_a.gif"
"","8499.905000033323","survey-likert","153","631134","0.0-39.0","SS1618435642010","similarity_question","","","","","","","","","","","","{""Q0"":2}","[0]","","images/stimuli/spore_stims/complex_07_A_b.gif","images/stimuli/spore_stims/complex_14_A_a.gif"
"","3556.0849999892525","survey-likert","154","634694","0.0-40.0","SS1618435642010","similarity_question","","","","","","","","","","","","{""Q0"":4}","[0]","","images/stimuli/spore_stims/simple_10_A_b.gif","images/stimuli/spore_stims/simple_03_A_a.gif"
"","3428.394999995362","survey-likert","155","638126","0.0-41.0","SS1618435642010","similarity_question","","","","","","","","","","","","{""Q0"":0}","[0]","","images/stimuli/spore_stims/complex_11_A_b.gif","images/stimuli/spore_stims/complex_09_A_a.gif"
"","2780.139999988023","survey-likert","156","640910","0.0-42.0","SS1618435642010","similarity_question","","","","","","","","","","","","{""Q0"":1}","[0]","","images/stimuli/spore_stims/simple_16_A_a.gif","images/stimuli/spore_stims/simple_18_A_b.gif"
"","2995.4150000121444","survey-likert","157","643910","0.0-43.0","SS1618435642010","similarity_question","","","","","","","","","","","","{""Q0"":5}","[0]","","images/stimuli/spore_stims/simple_13_A_b.gif","images/stimuli/spore_stims/simple_06_A_a.gif"
"","2892.330000002403","survey-likert","158","646806","0.0-44.0","SS1618435642010","similarity_question","","","","","","","","","","","","{""Q0"":0}","[0]","","images/stimuli/spore_stims/complex_15_A_a.gif","images/stimuli/spore_stims/complex_06_A_b.gif"
"[{""page_index"":0,""viewing_time"":5012.159999983851}]","5012.295000022277","instructions","159","651822","0.0-45.0","SS1618435642010","instructions","","","","","","","","","","","","","","","",""
"","9126.16500002332","survey-likert","160","660950","0.0-46.0","SS1618435642010","","","","","","","","","images/stimuli/spore_stims/complex_17_A_a.gif","","","","{""Q0"":4}","[0]","","",""
"","2676.2800000142306","survey-likert","161","663630","0.0-47.0","SS1618435642010","","","","","","","","","images/stimuli/spore_stims/simple_18_A_b.gif","","","","{""Q0"":0}","[0]","","",""
"","3331.8550000549294","survey-likert","162","666966","0.0-48.0","SS1618435642010","","","","","","","","","images/stimuli/spore_stims/simple_01_A_a.gif","","","","{""Q0"":0}","[0]","","",""
"","2291.63500003051","survey-likert","163","669262","0.0-49.0","SS1618435642010","","","","","","","","","images/stimuli/spore_stims/complex_14_A_a.gif","","","","{""Q0"":4}","[0]","","",""
"","2052.0350000006147","survey-likert","164","671318","0.0-50.0","SS1618435642010","","","","","","","","","images/stimuli/spore_stims/simple_16_A_b.gif","","","","{""Q0"":1}","[0]","","",""
"","2012.1349999681115","survey-likert","165","673334","0.0-51.0","SS1618435642010","","","","","","","","","images/stimuli/spore_stims/simple_07_A_b.gif","","","","{""Q0"":1}","[0]","","",""
"","2315.7699999865144","survey-likert","166","675654","0.0-52.0","SS1618435642010","","","","","","","","","images/stimuli/spore_stims/simple_10_A_b.gif","","","","{""Q0"":0}","[0]","","",""
"","2364.4299999577925","survey-likert","167","678022","0.0-53.0","SS1618435642010","","","","","","","","","images/stimuli/spore_stims/complex_15_A_a.gif","","","","{""Q0"":5}","[0]","","",""
"","2011.884999985341","survey-likert","168","680038","0.0-54.0","SS1618435642010","","","","","","","","","images/stimuli/spore_stims/complex_14_A_b.gif","","","","{""Q0"":4}","[0]","","",""
"","2860.0200000219047","survey-likert","169","682902","0.0-55.0","SS1618435642010","","","","","","","","","images/stimuli/spore_stims/simple_06_A_a.gif","","","","{""Q0"":0}","[0]","","",""
"","2012.0950000127777","survey-likert","170","684918","0.0-56.0","SS1618435642010","","","","","","","","","images/stimuli/spore_stims/complex_18_A_b.gif","","","","{""Q0"":5}","[0]","","",""
"","2203.719999990426","survey-likert","171","687126","0.0-57.0","SS1618435642010","","","","","","","","","images/stimuli/spore_stims/complex_09_A_a.gif","","","","{""Q0"":5}","[0]","","",""
"[{""page_index"":0,""viewing_time"":1363.7199999648146}]","1363.8599999831058","instructions","172","688494","0.0-58.0","SS1618435642010","instructions","","","","","","","","","","","","","","","",""
"","3229.2550000129268","demog-age","173","691726","0.0-59.0","SS1618435642010","","","","","","","","","","","","","{""age"":""30""}","","","",""
"","9420.990000013262","demog-ethnic-US","174","701150","0.0-60.0","SS1618435642010","","","","","","","","","","","","","{""ethnicity"":[""Other""]}","[0]","","",""
"","8779.674999997951","demog-gender-and-education","175","709934","0.0-61.0","SS1618435642010","","","","","","","","","","","","","{""gender"":""Male"",""education"":""Bachelor's Degree""}","[0,1]","","",""
"","8786.814999999478","survey-text","176","718726","0.0-62.0","SS1618435642010","feedback","","","","","","","","","","","","{""Q0"":""nope""}","","","",""
"[{""page_index"":0,""viewing_time"":1390.0900000007823}]","1390.2050000033341","instructions","177","720118","0.0-63.0","SS1618435642010","instructions","","","","","","","","","","","","","","","",""
