"view_history","rt","trial_type","trial_index","time_elapsed","internal_node_id","subject","stimulus_type","trial_stimulus","key_press","minimum_viewing_duration","trial_looking_time","block_deviant","block_background","exposure_type","stimulus","block_number","block_type","stimulus_displayed","responses","question_order","math_correct_answer","stimulus_left","stimulus_right"
"[{""page_index"":0,""viewing_time"":8517.450000043027}]","8520.140000036918","instructions","0","8527","0.0-0.0","SS1618365452233","","","","","","","","","","","","","","","","",""
"[{""page_index"":0,""viewing_time"":13741.084999986924},{""page_index"":1,""viewing_time"":5335.6950000161305}]","19077.894999994896","instructions","1","29611","0.0-1.0","SS1618365452233","instructions","","","","","","","","","","","","","","","",""
"","4913.710000109859","sequential-stimulus-presentation-old","2","35039","0.0-2.0","SS1618365452233","","","40","500","5413.710000109859","null","null","self_paced","","","","","","","","",""
"","3567.7949999226257","sequential-stimulus-presentation-old","3","39112","0.0-3.0","SS1618365452233","","","40","500","4067.7949999226257","null","null","self_paced","","","","","","","","",""
"[{""page_index"":0,""viewing_time"":11583.71499995701}]","11584.595000022091","instructions","4","50699","0.0-4.0","SS1618365452233","instructions","","","","","","","","","","","","","","","",""
"","780.3250000579283","sequential-stimulus-presentation-old","5","56484","0.0-5.0","SS1618365452233","","","40","500","1280.3250000579283","null","null","forced_long","","","","","","","","",""
"","2700.3399999812245","sequential-stimulus-presentation-old","6","59241","0.0-6.0","SS1618365452233","","","40","50","2750.3399999812245","null","null","forced_long","","","","","","","","",""
"[{""page_index"":0,""viewing_time"":5740.724999923259}]","5741.454999893904","instructions","7","64986","0.0-7.0","SS1618365452233","instructions","","","","","","","","","","","","","","","",""
"[{""page_index"":0,""viewing_time"":7906.870000064373},{""page_index"":1,""viewing_time"":8352.944999933243},{""page_index"":2,""viewing_time"":3992.075000074692},{""page_index"":3,""viewing_time"":1160.0649999454618},{""page_index"":4,""viewing_time"":1455.8149999938905}]","22868.914999999106","instructions","8","87858","0.0-8.0","SS1618365452233","instructions","","","","","","","","","","","","","","","",""
"","null","html-keyboard-response","9","88679","0.0-9.0-0.0","SS1618365452233","","","null","","","","","","<p><img src= images/blank.png width =""600"" height = ""600"" style=""position:fixed;top:50%; left:50%; transform: translate(-50%, -50%); border:5px solid black"">","","","","","","","",""
"","884.5799999544397","sequential-stimulus-presentation-old","10","94575","0.0-9.0-1.0","SS1618365452233","trial","","40","500","1384.5799999544397","images/stimuli/spore_stims/complex_08_A_b.gif","images/stimuli/spore_stims/complex_04_A_a.gif","forced_long","","0","complex_dissimilar","images/stimuli/spore_stims/complex_04_A_a.gif","","","","",""
"","null","html-keyboard-response","11","95741","0.0-9.0-0.1","SS1618365452233","","","null","","","","","","<p><img src= images/blank.png width =""600"" height = ""600"" style=""position:fixed;top:50%; left:50%; transform: translate(-50%, -50%); border:5px solid black"">","","","","","","","",""
"","9761.99499994982","sequential-stimulus-presentation-old","12","106010","0.0-9.0-1.1","SS1618365452233","trial","","40","500","10261.99499994982","images/stimuli/spore_stims/complex_08_A_b.gif","images/stimuli/spore_stims/complex_04_A_a.gif","forced_long","","0","complex_dissimilar","images/stimuli/spore_stims/complex_04_A_a.gif","","","","",""
"","null","html-keyboard-response","13","107009","0.0-9.0-0.2","SS1618365452233","","","null","","","","","","<p><img src= images/blank.png width =""600"" height = ""600"" style=""position:fixed;top:50%; left:50%; transform: translate(-50%, -50%); border:5px solid black"">","","","","","","","",""
"","4974.8149999650195","sequential-stimulus-presentation-old","14","112493","0.0-9.0-1.2","SS1618365452233","trial","","40","500","5474.8149999650195","images/stimuli/spore_stims/complex_08_A_b.gif","images/stimuli/spore_stims/complex_04_A_a.gif","forced_long","","0","complex_dissimilar","images/stimuli/spore_stims/complex_04_A_a.gif","","","","",""
"","null","html-keyboard-response","15","113530","0.0-9.0-0.3","SS1618365452233","","","null","","","","","","<p><img src= images/blank.png width =""600"" height = ""600"" style=""position:fixed;top:50%; left:50%; transform: translate(-50%, -50%); border:5px solid black"">","","","","","","","",""
"","5358.2900000037625","sequential-stimulus-presentation-old","16","119397","0.0-9.0-1.3","SS1618365452233","trial","","40","500","5858.2900000037625","images/stimuli/spore_stims/complex_08_A_b.gif","images/stimuli/spore_stims/complex_04_A_a.gif","forced_long","","0","complex_dissimilar","images/stimuli/spore_stims/complex_08_A_b.gif","","","","",""
"","8372.745000058785","survey-multi-choice","17","127781","0.0-10.0","SS1618365452233","math_question","","","","","","","","","","","","{""Q0"":""17""}","[0]","17","",""
"","null","html-keyboard-response","18","128947","0.0-11.0-0.0","SS1618365452233","","","null","","","","","","<p><img src= images/blank.png width =""600"" height = ""600"" style=""position:fixed;top:50%; left:50%; transform: translate(-50%, -50%); border:5px solid black"">","","","","","","","",""
"","5511.924999998882","sequential-stimulus-presentation-old","19","134970","0.0-11.0-1.0","SS1618365452233","trial","","40","500","6011.924999998882","images/stimuli/spore_stims/complex_11_A_a.gif","images/stimuli/spore_stims/complex_16_A_b.gif","self_paced","","1","complex_dissimilar","images/stimuli/spore_stims/complex_16_A_b.gif","","","","",""
"","null","html-keyboard-response","20","136116","0.0-11.0-0.1","SS1618365452233","","","null","","","","","","<p><img src= images/blank.png width =""600"" height = ""600"" style=""position:fixed;top:50%; left:50%; transform: translate(-50%, -50%); border:5px solid black"">","","","","","","","",""
"","6327.595000038855","sequential-stimulus-presentation-old","21","142954","0.0-11.0-1.1","SS1618365452233","trial","","40","500","6827.595000038855","images/stimuli/spore_stims/complex_11_A_a.gif","images/stimuli/spore_stims/complex_16_A_b.gif","self_paced","","1","complex_dissimilar","images/stimuli/spore_stims/complex_16_A_b.gif","","","","",""
"","null","html-keyboard-response","22","144250","0.0-11.0-0.2","SS1618365452233","","","null","","","","","","<p><img src= images/blank.png width =""600"" height = ""600"" style=""position:fixed;top:50%; left:50%; transform: translate(-50%, -50%); border:5px solid black"">","","","","","","","",""
"","4170.455000014044","sequential-stimulus-presentation-old","23","148929","0.0-11.0-1.2","SS1618365452233","trial","","40","500","4670.455000014044","images/stimuli/spore_stims/complex_11_A_a.gif","images/stimuli/spore_stims/complex_16_A_b.gif","self_paced","","1","complex_dissimilar","images/stimuli/spore_stims/complex_16_A_b.gif","","","","",""
"","null","html-keyboard-response","24","149812","0.0-11.0-0.3","SS1618365452233","","","null","","","","","","<p><img src= images/blank.png width =""600"" height = ""600"" style=""position:fixed;top:50%; left:50%; transform: translate(-50%, -50%); border:5px solid black"">","","","","","","","",""
"","3445.4050000058487","sequential-stimulus-presentation-old","25","153766","0.0-11.0-1.3","SS1618365452233","trial","","40","500","3945.4050000058487","images/stimuli/spore_stims/complex_11_A_a.gif","images/stimuli/spore_stims/complex_16_A_b.gif","self_paced","","1","complex_dissimilar","images/stimuli/spore_stims/complex_16_A_b.gif","","","","",""
"","null","html-keyboard-response","26","155065","0.0-11.0-0.4","SS1618365452233","","","null","","","","","","<p><img src= images/blank.png width =""600"" height = ""600"" style=""position:fixed;top:50%; left:50%; transform: translate(-50%, -50%); border:5px solid black"">","","","","","","","",""
"","4661.075000069104","sequential-stimulus-presentation-old","27","160234","0.0-11.0-1.4","SS1618365452233","trial","","40","500","5161.075000069104","images/stimuli/spore_stims/complex_11_A_a.gif","images/stimuli/spore_stims/complex_16_A_b.gif","self_paced","","1","complex_dissimilar","images/stimuli/spore_stims/complex_16_A_b.gif","","","","",""
"","null","html-keyboard-response","28","161189","0.0-11.0-0.5","SS1618365452233","","","null","","","","","","<p><img src= images/blank.png width =""600"" height = ""600"" style=""position:fixed;top:50%; left:50%; transform: translate(-50%, -50%); border:5px solid black"">","","","","","","","",""
"","3812.6450000563636","sequential-stimulus-presentation-old","29","165512","0.0-11.0-1.5","SS1618365452233","trial","","40","500","4312.645000056364","images/stimuli/spore_stims/complex_11_A_a.gif","images/stimuli/spore_stims/complex_16_A_b.gif","self_paced","","1","complex_dissimilar","images/stimuli/spore_stims/complex_16_A_b.gif","","","","",""
"","2957.3949999175966","survey-multi-choice","30","168474","0.0-12.0","SS1618365452233","math_question","","","","","","","","","","","","{""Q0"":""5""}","[0]","5","",""
"","null","html-keyboard-response","31","169556","0.0-13.0-0.0","SS1618365452233","","","null","","","","","","<p><img src= images/blank.png width =""600"" height = ""600"" style=""position:fixed;top:50%; left:50%; transform: translate(-50%, -50%); border:5px solid black"">","","","","","","","",""
"","1601.0150000220165","sequential-stimulus-presentation-old","32","171216","0.0-13.0-1.0","SS1618365452233","trial","","40","500","2101.0150000220165","images/stimuli/spore_stims/complex_07_A_a.gif","images/stimuli/spore_stims/complex_20_A_b.gif","forced_short","","2","complex_dissimilar","images/stimuli/spore_stims/complex_20_A_b.gif","","","","",""
"","null","html-keyboard-response","33","172199","0.0-13.0-0.1","SS1618365452233","","","null","","","","","","<p><img src= images/blank.png width =""600"" height = ""600"" style=""position:fixed;top:50%; left:50%; transform: translate(-50%, -50%); border:5px solid black"">","","","","","","","",""
"","8504.544999916106","sequential-stimulus-presentation-old","34","181212","0.0-13.0-1.1","SS1618365452233","trial","","40","500","9004.544999916106","images/stimuli/spore_stims/complex_07_A_a.gif","images/stimuli/spore_stims/complex_20_A_b.gif","forced_short","","2","complex_dissimilar","images/stimuli/spore_stims/complex_20_A_b.gif","","","","",""
"","null","html-keyboard-response","35","182061","0.0-13.0-0.2","SS1618365452233","","","null","","","","","","<p><img src= images/blank.png width =""600"" height = ""600"" style=""position:fixed;top:50%; left:50%; transform: translate(-50%, -50%); border:5px solid black"">","","","","","","","",""
"","3302.294999943115","sequential-stimulus-presentation-old","36","185873","0.0-13.0-1.2","SS1618365452233","trial","","40","500","3802.294999943115","images/stimuli/spore_stims/complex_07_A_a.gif","images/stimuli/spore_stims/complex_20_A_b.gif","forced_short","","2","complex_dissimilar","images/stimuli/spore_stims/complex_20_A_b.gif","","","","",""
"","null","html-keyboard-response","37","186806","0.0-13.0-0.3","SS1618365452233","","","null","","","","","","<p><img src= images/blank.png width =""600"" height = ""600"" style=""position:fixed;top:50%; left:50%; transform: translate(-50%, -50%); border:5px solid black"">","","","","","","","",""
"","3572.900000028312","sequential-stimulus-presentation-old","38","190887","0.0-13.0-1.3","SS1618365452233","trial","","40","500","4072.900000028312","images/stimuli/spore_stims/complex_07_A_a.gif","images/stimuli/spore_stims/complex_20_A_b.gif","forced_short","","2","complex_dissimilar","images/stimuli/spore_stims/complex_20_A_b.gif","","","","",""
"","null","html-keyboard-response","39","191854","0.0-13.0-0.4","SS1618365452233","","","null","","","","","","<p><img src= images/blank.png width =""600"" height = ""600"" style=""position:fixed;top:50%; left:50%; transform: translate(-50%, -50%); border:5px solid black"">","","","","","","","",""
"","3818.3149999240413","sequential-stimulus-presentation-old","40","196181","0.0-13.0-1.4","SS1618365452233","trial","","40","500","4318.314999924041","images/stimuli/spore_stims/complex_07_A_a.gif","images/stimuli/spore_stims/complex_20_A_b.gif","forced_short","","2","complex_dissimilar","images/stimuli/spore_stims/complex_20_A_b.gif","","","","",""
"","3607.164999935776","survey-multi-choice","41","199794","0.0-14.0","SS1618365452233","math_question","","","","","","","","","","","","{""Q0"":""10""}","[0]","10","",""
"","null","html-keyboard-response","42","200610","0.0-15.0-0.0","SS1618365452233","","","null","","","","","","<p><img src= images/blank.png width =""600"" height = ""600"" style=""position:fixed;top:50%; left:50%; transform: translate(-50%, -50%); border:5px solid black"">","","","","","","","",""
"","3577.930000028573","sequential-stimulus-presentation-old","43","204698","0.0-15.0-1.0","SS1618365452233","trial","","40","500","4077.930000028573","images/stimuli/spore_stims/complex_17_A_a.gif","images/stimuli/spore_stims/complex_07_A_b.gif","self_paced","","3","complex_dissimilar","images/stimuli/spore_stims/complex_07_A_b.gif","","","","",""
"","null","html-keyboard-response","44","205923","0.0-15.0-0.1","SS1618365452233","","","null","","","","","","<p><img src= images/blank.png width =""600"" height = ""600"" style=""position:fixed;top:50%; left:50%; transform: translate(-50%, -50%); border:5px solid black"">","","","","","","","",""
"","2878.0649999389425","sequential-stimulus-presentation-old","45","209312","0.0-15.0-1.1","SS1618365452233","trial","","40","500","3378.0649999389425","images/stimuli/spore_stims/complex_17_A_a.gif","images/stimuli/spore_stims/complex_07_A_b.gif","self_paced","","3","complex_dissimilar","images/stimuli/spore_stims/complex_07_A_b.gif","","","","",""
"","null","html-keyboard-response","46","210372","0.0-15.0-0.2","SS1618365452233","","","null","","","","","","<p><img src= images/blank.png width =""600"" height = ""600"" style=""position:fixed;top:50%; left:50%; transform: translate(-50%, -50%); border:5px solid black"">","","","","","","","",""
"","3274.224999942817","sequential-stimulus-presentation-old","47","214157","0.0-15.0-1.2","SS1618365452233","trial","","40","500","3774.224999942817","images/stimuli/spore_stims/complex_17_A_a.gif","images/stimuli/spore_stims/complex_07_A_b.gif","self_paced","","3","complex_dissimilar","images/stimuli/spore_stims/complex_07_A_b.gif","","","","",""
"","null","html-keyboard-response","48","215125","0.0-15.0-0.3","SS1618365452233","","","null","","","","","","<p><img src= images/blank.png width =""600"" height = ""600"" style=""position:fixed;top:50%; left:50%; transform: translate(-50%, -50%); border:5px solid black"">","","","","","","","",""
"","3102.904999977909","sequential-stimulus-presentation-old","49","218739","0.0-15.0-1.3","SS1618365452233","trial","","40","500","3602.904999977909","images/stimuli/spore_stims/complex_17_A_a.gif","images/stimuli/spore_stims/complex_07_A_b.gif","self_paced","","3","complex_dissimilar","images/stimuli/spore_stims/complex_07_A_b.gif","","","","",""
"","null","html-keyboard-response","50","219970","0.0-15.0-0.4","SS1618365452233","","","null","","","","","","<p><img src= images/blank.png width =""600"" height = ""600"" style=""position:fixed;top:50%; left:50%; transform: translate(-50%, -50%); border:5px solid black"">","","","","","","","",""
"","4049.710000050254","sequential-stimulus-presentation-old","51","224529","0.0-15.0-1.4","SS1618365452233","trial","","40","500","4549.710000050254","images/stimuli/spore_stims/complex_17_A_a.gif","images/stimuli/spore_stims/complex_07_A_b.gif","self_paced","","3","complex_dissimilar","images/stimuli/spore_stims/complex_17_A_a.gif","","","","",""
"","4416.859999997541","survey-multi-choice","52","228954","0.0-16.0","SS1618365452233","math_question","","","","","","","","","","","","{""Q0"":""6""}","[0]","6","",""
"","null","html-keyboard-response","53","229984","0.0-17.0-0.0","SS1618365452233","","","null","","","","","","<p><img src= images/blank.png width =""600"" height = ""600"" style=""position:fixed;top:50%; left:50%; transform: translate(-50%, -50%); border:5px solid black"">","","","","","","","",""
"","777.559999958612","sequential-stimulus-presentation-old","54","235770","0.0-17.0-1.0","SS1618365452233","trial","","40","500","1277.559999958612","images/stimuli/spore_stims/simple_06_A_a.gif","images/stimuli/spore_stims/simple_16_A_b.gif","forced_long","","4","simple_dissimilar","images/stimuli/spore_stims/simple_16_A_b.gif","","","","",""
"","null","html-keyboard-response","55","236813","0.0-17.0-0.1","SS1618365452233","","","null","","","","","","<p><img src= images/blank.png width =""600"" height = ""600"" style=""position:fixed;top:50%; left:50%; transform: translate(-50%, -50%); border:5px solid black"">","","","","","","","",""
"","6139.910000027157","sequential-stimulus-presentation-old","56","243463","0.0-17.0-1.1","SS1618365452233","trial","","40","500","6639.910000027157","images/stimuli/spore_stims/simple_06_A_a.gif","images/stimuli/spore_stims/simple_16_A_b.gif","forced_long","","4","simple_dissimilar","images/stimuli/spore_stims/simple_16_A_b.gif","","","","",""
"","null","html-keyboard-response","57","244339","0.0-17.0-0.2","SS1618365452233","","","null","","","","","","<p><img src= images/blank.png width =""600"" height = ""600"" style=""position:fixed;top:50%; left:50%; transform: translate(-50%, -50%); border:5px solid black"">","","","","","","","",""
"","3954.8300000606105","sequential-stimulus-presentation-old","58","248804","0.0-17.0-1.2","SS1618365452233","trial","","40","500","4454.8300000606105","images/stimuli/spore_stims/simple_06_A_a.gif","images/stimuli/spore_stims/simple_16_A_b.gif","forced_long","","4","simple_dissimilar","images/stimuli/spore_stims/simple_16_A_b.gif","","","","",""
"","null","html-keyboard-response","59","250015","0.0-17.0-0.3","SS1618365452233","","","null","","","","","","<p><img src= images/blank.png width =""600"" height = ""600"" style=""position:fixed;top:50%; left:50%; transform: translate(-50%, -50%); border:5px solid black"">","","","","","","","",""
"","3011.489999946207","sequential-stimulus-presentation-old","60","253537","0.0-17.0-1.3","SS1618365452233","trial","","40","500","3511.489999946207","images/stimuli/spore_stims/simple_06_A_a.gif","images/stimuli/spore_stims/simple_16_A_b.gif","forced_long","","4","simple_dissimilar","images/stimuli/spore_stims/simple_16_A_b.gif","","","","",""
"","null","html-keyboard-response","61","254363","0.0-17.0-0.4","SS1618365452233","","","null","","","","","","<p><img src= images/blank.png width =""600"" height = ""600"" style=""position:fixed;top:50%; left:50%; transform: translate(-50%, -50%); border:5px solid black"">","","","","","","","",""
"","3106.5600001020357","sequential-stimulus-presentation-old","62","257980","0.0-17.0-1.4","SS1618365452233","trial","","40","500","3606.5600001020357","images/stimuli/spore_stims/simple_06_A_a.gif","images/stimuli/spore_stims/simple_16_A_b.gif","forced_long","","4","simple_dissimilar","images/stimuli/spore_stims/simple_16_A_b.gif","","","","",""
"","null","html-keyboard-response","63","258918","0.0-17.0-0.5","SS1618365452233","","","null","","","","","","<p><img src= images/blank.png width =""600"" height = ""600"" style=""position:fixed;top:50%; left:50%; transform: translate(-50%, -50%); border:5px solid black"">","","","","","","","",""
"","3728.980000014417","sequential-stimulus-presentation-old","64","263158","0.0-17.0-1.5","SS1618365452233","trial","","40","500","4228.980000014417","images/stimuli/spore_stims/simple_06_A_a.gif","images/stimuli/spore_stims/simple_16_A_b.gif","forced_long","","4","simple_dissimilar","images/stimuli/spore_stims/simple_06_A_a.gif","","","","",""
"","4803.55499999132","survey-multi-choice","65","267969","0.0-18.0","SS1618365452233","math_question","","","","","","","","","","","","{""Q0"":""11""}","[0]","11","",""
"","null","html-keyboard-response","66","269182","0.0-19.0-0.0","SS1618365452233","","","null","","","","","","<p><img src= images/blank.png width =""600"" height = ""600"" style=""position:fixed;top:50%; left:50%; transform: translate(-50%, -50%); border:5px solid black"">","","","","","","","",""
"","2081.569999922067","sequential-stimulus-presentation-old","67","271323","0.0-19.0-1.0","SS1618365452233","trial","","40","500","2581.569999922067","images/stimuli/spore_stims/simple_14_A_b.gif","images/stimuli/spore_stims/simple_15_A_a.gif","forced_short","","5","simple_dissimilar","images/stimuli/spore_stims/simple_15_A_a.gif","","","","",""
"","null","html-keyboard-response","68","272589","0.0-19.0-0.1","SS1618365452233","","","null","","","","","","<p><img src= images/blank.png width =""600"" height = ""600"" style=""position:fixed;top:50%; left:50%; transform: translate(-50%, -50%); border:5px solid black"">","","","","","","","",""
"","3219.8499999940395","sequential-stimulus-presentation-old","69","276325","0.0-19.0-1.1","SS1618365452233","trial","","40","500","3719.8499999940395","images/stimuli/spore_stims/simple_14_A_b.gif","images/stimuli/spore_stims/simple_15_A_a.gif","forced_short","","5","simple_dissimilar","images/stimuli/spore_stims/simple_14_A_b.gif","","","","",""
"","null","html-keyboard-response","70","277502","0.0-19.0-0.2","SS1618365452233","","","null","","","","","","<p><img src= images/blank.png width =""600"" height = ""600"" style=""position:fixed;top:50%; left:50%; transform: translate(-50%, -50%); border:5px solid black"">","","","","","","","",""
"","3750.4600000102073","sequential-stimulus-presentation-old","71","281761","0.0-19.0-1.2","SS1618365452233","trial","","40","500","4250.460000010207","images/stimuli/spore_stims/simple_14_A_b.gif","images/stimuli/spore_stims/simple_15_A_a.gif","forced_short","","5","simple_dissimilar","images/stimuli/spore_stims/simple_15_A_a.gif","","","","",""
"","null","html-keyboard-response","72","282710","0.0-19.0-0.3","SS1618365452233","","","null","","","","","","<p><img src= images/blank.png width =""600"" height = ""600"" style=""position:fixed;top:50%; left:50%; transform: translate(-50%, -50%); border:5px solid black"">","","","","","","","",""
"","3049.8500000685453","sequential-stimulus-presentation-old","73","286270","0.0-19.0-1.3","SS1618365452233","trial","","40","500","3549.8500000685453","images/stimuli/spore_stims/simple_14_A_b.gif","images/stimuli/spore_stims/simple_15_A_a.gif","forced_short","","5","simple_dissimilar","images/stimuli/spore_stims/simple_14_A_b.gif","","","","",""
"","null","html-keyboard-response","74","287481","0.0-19.0-0.4","SS1618365452233","","","null","","","","","","<p><img src= images/blank.png width =""600"" height = ""600"" style=""position:fixed;top:50%; left:50%; transform: translate(-50%, -50%); border:5px solid black"">","","","","","","","",""
"","3159.550000098534","sequential-stimulus-presentation-old","75","291150","0.0-19.0-1.4","SS1618365452233","trial","","40","500","3659.550000098534","images/stimuli/spore_stims/simple_14_A_b.gif","images/stimuli/spore_stims/simple_15_A_a.gif","forced_short","","5","simple_dissimilar","images/stimuli/spore_stims/simple_15_A_a.gif","","","","",""
"","3500.7500000065193","survey-multi-choice","76","294658","0.0-20.0","SS1618365452233","math_question","","","","","","","","","","","","{""Q0"":""10""}","[0]","10","",""
"","null","html-keyboard-response","77","295819","0.0-21.0-0.0","SS1618365452233","","","null","","","","","","<p><img src= images/blank.png width =""600"" height = ""600"" style=""position:fixed;top:50%; left:50%; transform: translate(-50%, -50%); border:5px solid black"">","","","","","","","",""
"","4033.6399999214336","sequential-stimulus-presentation-old","78","300364","0.0-21.0-1.0","SS1618365452233","trial","","40","500","4533.639999921434","images/stimuli/spore_stims/simple_12_A_a.gif","images/stimuli/spore_stims/simple_05_A_b.gif","self_paced","","6","simple_dissimilar","images/stimuli/spore_stims/simple_05_A_b.gif","","","","",""
"","null","html-keyboard-response","79","301350","0.0-21.0-0.1","SS1618365452233","","","null","","","","","","<p><img src= images/blank.png width =""600"" height = ""600"" style=""position:fixed;top:50%; left:50%; transform: translate(-50%, -50%); border:5px solid black"">","","","","","","","",""
"","3910.165000008419","sequential-stimulus-presentation-old","80","305771","0.0-21.0-1.1","SS1618365452233","trial","","40","500","4410.165000008419","images/stimuli/spore_stims/simple_12_A_a.gif","images/stimuli/spore_stims/simple_05_A_b.gif","self_paced","","6","simple_dissimilar","images/stimuli/spore_stims/simple_05_A_b.gif","","","","",""
"","null","html-keyboard-response","81","306607","0.0-21.0-0.2","SS1618365452233","","","null","","","","","","<p><img src= images/blank.png width =""600"" height = ""600"" style=""position:fixed;top:50%; left:50%; transform: translate(-50%, -50%); border:5px solid black"">","","","","","","","",""
"","3851.9400000805035","sequential-stimulus-presentation-old","82","310971","0.0-21.0-1.2","SS1618365452233","trial","","40","500","4351.9400000805035","images/stimuli/spore_stims/simple_12_A_a.gif","images/stimuli/spore_stims/simple_05_A_b.gif","self_paced","","6","simple_dissimilar","images/stimuli/spore_stims/simple_05_A_b.gif","","","","",""
"","null","html-keyboard-response","83","312003","0.0-21.0-0.3","SS1618365452233","","","null","","","","","","<p><img src= images/blank.png width =""600"" height = ""600"" style=""position:fixed;top:50%; left:50%; transform: translate(-50%, -50%); border:5px solid black"">","","","","","","","",""
"","3232.395000057295","sequential-stimulus-presentation-old","84","315747","0.0-21.0-1.3","SS1618365452233","trial","","40","500","3732.395000057295","images/stimuli/spore_stims/simple_12_A_a.gif","images/stimuli/spore_stims/simple_05_A_b.gif","self_paced","","6","simple_dissimilar","images/stimuli/spore_stims/simple_05_A_b.gif","","","","",""
"","3838.229999993928","survey-multi-choice","85","319594","0.0-22.0","SS1618365452233","math_question","","","","","","","","","","","","{""Q0"":""7""}","[0]","7","",""
"","null","html-keyboard-response","86","320894","0.0-23.0-0.0","SS1618365452233","","","null","","","","","","<p><img src= images/blank.png width =""600"" height = ""600"" style=""position:fixed;top:50%; left:50%; transform: translate(-50%, -50%); border:5px solid black"">","","","","","","","",""
"","10039.385000010952","sequential-stimulus-presentation-old","87","335945","0.0-23.0-1.0","SS1618365452233","trial","","40","500","10539.385000010952","images/stimuli/spore_stims/complex_15_A_a.gif","images/stimuli/spore_stims/complex_03_A_b.gif","forced_long","","7","complex_dissimilar","images/stimuli/spore_stims/complex_03_A_b.gif","","","","",""
"","null","html-keyboard-response","88","337216","0.0-23.0-0.1","SS1618365452233","","","null","","","","","","<p><img src= images/blank.png width =""600"" height = ""600"" style=""position:fixed;top:50%; left:50%; transform: translate(-50%, -50%); border:5px solid black"">","","","","","","","",""
"","2980.4100000765175","sequential-stimulus-presentation-old","89","340709","0.0-23.0-1.1","SS1618365452233","trial","","40","500","3480.4100000765175","images/stimuli/spore_stims/complex_15_A_a.gif","images/stimuli/spore_stims/complex_03_A_b.gif","forced_long","","7","complex_dissimilar","images/stimuli/spore_stims/complex_03_A_b.gif","","","","",""
"","null","html-keyboard-response","90","341562","0.0-23.0-0.2","SS1618365452233","","","null","","","","","","<p><img src= images/blank.png width =""600"" height = ""600"" style=""position:fixed;top:50%; left:50%; transform: translate(-50%, -50%); border:5px solid black"">","","","","","","","",""
"","3488.095000036992","sequential-stimulus-presentation-old","91","345562","0.0-23.0-1.2","SS1618365452233","trial","","40","500","3988.095000036992","images/stimuli/spore_stims/complex_15_A_a.gif","images/stimuli/spore_stims/complex_03_A_b.gif","forced_long","","7","complex_dissimilar","images/stimuli/spore_stims/complex_03_A_b.gif","","","","",""
"","null","html-keyboard-response","92","346566","0.0-23.0-0.3","SS1618365452233","","","null","","","","","","<p><img src= images/blank.png width =""600"" height = ""600"" style=""position:fixed;top:50%; left:50%; transform: translate(-50%, -50%); border:5px solid black"">","","","","","","","",""
"","3062.650000094436","sequential-stimulus-presentation-old","93","350139","0.0-23.0-1.3","SS1618365452233","trial","","40","500","3562.650000094436","images/stimuli/spore_stims/complex_15_A_a.gif","images/stimuli/spore_stims/complex_03_A_b.gif","forced_long","","7","complex_dissimilar","images/stimuli/spore_stims/complex_03_A_b.gif","","","","",""
"","null","html-keyboard-response","94","351311","0.0-23.0-0.4","SS1618365452233","","","null","","","","","","<p><img src= images/blank.png width =""600"" height = ""600"" style=""position:fixed;top:50%; left:50%; transform: translate(-50%, -50%); border:5px solid black"">","","","","","","","",""
"","2803.804999915883","sequential-stimulus-presentation-old","95","354625","0.0-23.0-1.4","SS1618365452233","trial","","40","500","3303.804999915883","images/stimuli/spore_stims/complex_15_A_a.gif","images/stimuli/spore_stims/complex_03_A_b.gif","forced_long","","7","complex_dissimilar","images/stimuli/spore_stims/complex_03_A_b.gif","","","","",""
"","null","html-keyboard-response","96","355507","0.0-23.0-0.5","SS1618365452233","","","null","","","","","","<p><img src= images/blank.png width =""600"" height = ""600"" style=""position:fixed;top:50%; left:50%; transform: translate(-50%, -50%); border:5px solid black"">","","","","","","","",""
"","3798.010000027716","sequential-stimulus-presentation-old","97","359818","0.0-23.0-1.5","SS1618365452233","trial","","40","500","4298.010000027716","images/stimuli/spore_stims/complex_15_A_a.gif","images/stimuli/spore_stims/complex_03_A_b.gif","forced_long","","7","complex_dissimilar","images/stimuli/spore_stims/complex_15_A_a.gif","","","","",""
"","3952.8400000417605","survey-multi-choice","98","363778","0.0-24.0","SS1618365452233","math_question","","","","","","","","","","","","{""Q0"":""11""}","[0]","11","",""
"","null","html-keyboard-response","99","364897","0.0-25.0-0.0","SS1618365452233","","","null","","","","","","<p><img src= images/blank.png width =""600"" height = ""600"" style=""position:fixed;top:50%; left:50%; transform: translate(-50%, -50%); border:5px solid black"">","","","","","","","",""
"","1641.7699999874458","sequential-stimulus-presentation-old","100","366600","0.0-25.0-1.0","SS1618365452233","trial","","40","500","2141.7699999874458","images/stimuli/spore_stims/simple_08_A_a.gif","images/stimuli/spore_stims/simple_12_A_b.gif","forced_short","","8","simple_dissimilar","images/stimuli/spore_stims/simple_12_A_b.gif","","","","",""
"","null","html-keyboard-response","101","367691","0.0-25.0-0.1","SS1618365452233","","","null","","","","","","<p><img src= images/blank.png width =""600"" height = ""600"" style=""position:fixed;top:50%; left:50%; transform: translate(-50%, -50%); border:5px solid black"">","","","","","","","",""
"","2515.0900000007823","sequential-stimulus-presentation-old","102","370715","0.0-25.0-1.1","SS1618365452233","trial","","40","500","3015.0900000007823","images/stimuli/spore_stims/simple_08_A_a.gif","images/stimuli/spore_stims/simple_12_A_b.gif","forced_short","","8","simple_dissimilar","images/stimuli/spore_stims/simple_12_A_b.gif","","","","",""
"","null","html-keyboard-response","103","371742","0.0-25.0-0.2","SS1618365452233","","","null","","","","","","<p><img src= images/blank.png width =""600"" height = ""600"" style=""position:fixed;top:50%; left:50%; transform: translate(-50%, -50%); border:5px solid black"">","","","","","","","",""
"","2447.014999925159","sequential-stimulus-presentation-old","104","374698","0.0-25.0-1.2","SS1618365452233","trial","","40","500","2947.014999925159","images/stimuli/spore_stims/simple_08_A_a.gif","images/stimuli/spore_stims/simple_12_A_b.gif","forced_short","","8","simple_dissimilar","images/stimuli/spore_stims/simple_12_A_b.gif","","","","",""
"","null","html-keyboard-response","105","375840","0.0-25.0-0.3","SS1618365452233","","","null","","","","","","<p><img src= images/blank.png width =""600"" height = ""600"" style=""position:fixed;top:50%; left:50%; transform: translate(-50%, -50%); border:5px solid black"">","","","","","","","",""
"","3388.09499994386","sequential-stimulus-presentation-old","106","379738","0.0-25.0-1.3","SS1618365452233","trial","","40","500","3888.09499994386","images/stimuli/spore_stims/simple_08_A_a.gif","images/stimuli/spore_stims/simple_12_A_b.gif","forced_short","","8","simple_dissimilar","images/stimuli/spore_stims/simple_12_A_b.gif","","","","",""
"","4112.235000007786","survey-multi-choice","107","383858","0.0-26.0","SS1618365452233","math_question","","","","","","","","","","","","{""Q0"":""5""}","[0]","5","",""
"","null","html-keyboard-response","108","384944","0.0-27.0-0.0","SS1618365452233","","","null","","","","","","<p><img src= images/blank.png width =""600"" height = ""600"" style=""position:fixed;top:50%; left:50%; transform: translate(-50%, -50%); border:5px solid black"">","","","","","","","",""
"","2157.0050000445917","sequential-stimulus-presentation-old","109","387612","0.0-27.0-1.0","SS1618365452233","trial","","40","500","2657.0050000445917","images/stimuli/spore_stims/simple_17_A_b.gif","images/stimuli/spore_stims/simple_11_A_a.gif","self_paced","","9","simple_dissimilar","images/stimuli/spore_stims/simple_11_A_a.gif","","","","",""
"","null","html-keyboard-response","110","388522","0.0-27.0-0.1","SS1618365452233","","","null","","","","","","<p><img src= images/blank.png width =""600"" height = ""600"" style=""position:fixed;top:50%; left:50%; transform: translate(-50%, -50%); border:5px solid black"">","","","","","","","",""
"","3254.484999924898","sequential-stimulus-presentation-old","111","392289","0.0-27.0-1.1","SS1618365452233","trial","","40","500","3754.484999924898","images/stimuli/spore_stims/simple_17_A_b.gif","images/stimuli/spore_stims/simple_11_A_a.gif","self_paced","","9","simple_dissimilar","images/stimuli/spore_stims/simple_11_A_a.gif","","","","",""
"","null","html-keyboard-response","112","393405","0.0-27.0-0.2","SS1618365452233","","","null","","","","","","<p><img src= images/blank.png width =""600"" height = ""600"" style=""position:fixed;top:50%; left:50%; transform: translate(-50%, -50%); border:5px solid black"">","","","","","","","",""
"","3805.4949999786913","sequential-stimulus-presentation-old","113","397723","0.0-27.0-1.2","SS1618365452233","trial","","40","500","4305.494999978691","images/stimuli/spore_stims/simple_17_A_b.gif","images/stimuli/spore_stims/simple_11_A_a.gif","self_paced","","9","simple_dissimilar","images/stimuli/spore_stims/simple_11_A_a.gif","","","","",""
"","null","html-keyboard-response","114","398597","0.0-27.0-0.3","SS1618365452233","","","null","","","","","","<p><img src= images/blank.png width =""600"" height = ""600"" style=""position:fixed;top:50%; left:50%; transform: translate(-50%, -50%); border:5px solid black"">","","","","","","","",""
"","3946.555000031367","sequential-stimulus-presentation-old","115","403056","0.0-27.0-1.3","SS1618365452233","trial","","40","500","4446.555000031367","images/stimuli/spore_stims/simple_17_A_b.gif","images/stimuli/spore_stims/simple_11_A_a.gif","self_paced","","9","simple_dissimilar","images/stimuli/spore_stims/simple_17_A_b.gif","","","","",""
"","null","html-keyboard-response","116","404061","0.0-27.0-0.4","SS1618365452233","","","null","","","","","","<p><img src= images/blank.png width =""600"" height = ""600"" style=""position:fixed;top:50%; left:50%; transform: translate(-50%, -50%); border:5px solid black"">","","","","","","","",""
"","3812.9350000526756","sequential-stimulus-presentation-old","117","408383","0.0-27.0-1.4","SS1618365452233","trial","","40","500","4312.935000052676","images/stimuli/spore_stims/simple_17_A_b.gif","images/stimuli/spore_stims/simple_11_A_a.gif","self_paced","","9","simple_dissimilar","images/stimuli/spore_stims/simple_11_A_a.gif","","","","",""
"","null","html-keyboard-response","118","409277","0.0-27.0-0.5","SS1618365452233","","","null","","","","","","<p><img src= images/blank.png width =""600"" height = ""600"" style=""position:fixed;top:50%; left:50%; transform: translate(-50%, -50%); border:5px solid black"">","","","","","","","",""
"","3203.785000019707","sequential-stimulus-presentation-old","119","412994","0.0-27.0-1.5","SS1618365452233","trial","","40","500","3703.785000019707","images/stimuli/spore_stims/simple_17_A_b.gif","images/stimuli/spore_stims/simple_11_A_a.gif","self_paced","","9","simple_dissimilar","images/stimuli/spore_stims/simple_17_A_b.gif","","","","",""
"","3583.059999975376","survey-multi-choice","120","416586","0.0-28.0","SS1618365452233","math_question","","","","","","","","","","","","{""Q0"":""8""}","[0]","8","",""
"","null","html-keyboard-response","121","417683","0.0-29.0-0.0","SS1618365452233","","","null","","","","","","<p><img src= images/blank.png width =""600"" height = ""600"" style=""position:fixed;top:50%; left:50%; transform: translate(-50%, -50%); border:5px solid black"">","","","","","","","",""
"","950.829999987036","sequential-stimulus-presentation-old","122","423646","0.0-29.0-1.0","SS1618365452233","trial","","40","500","1450.829999987036","images/stimuli/spore_stims/simple_13_A_a.gif","images/stimuli/spore_stims/simple_06_A_b.gif","forced_long","","10","simple_dissimilar","images/stimuli/spore_stims/simple_06_A_b.gif","","","","",""
"","null","html-keyboard-response","123","424548","0.0-29.0-0.1","SS1618365452233","","","null","","","","","","<p><img src= images/blank.png width =""600"" height = ""600"" style=""position:fixed;top:50%; left:50%; transform: translate(-50%, -50%); border:5px solid black"">","","","","","","","",""
"","2987.7000000560656","sequential-stimulus-presentation-old","124","428048","0.0-29.0-1.1","SS1618365452233","trial","","40","500","3487.7000000560656","images/stimuli/spore_stims/simple_13_A_a.gif","images/stimuli/spore_stims/simple_06_A_b.gif","forced_long","","10","simple_dissimilar","images/stimuli/spore_stims/simple_06_A_b.gif","","","","",""
"","null","html-keyboard-response","125","429089","0.0-29.0-0.2","SS1618365452233","","","null","","","","","","<p><img src= images/blank.png width =""600"" height = ""600"" style=""position:fixed;top:50%; left:50%; transform: translate(-50%, -50%); border:5px solid black"">","","","","","","","",""
"","1352.4449999677017","sequential-stimulus-presentation-old","126","430954","0.0-29.0-1.2","SS1618365452233","trial","","40","500","1852.4449999677017","images/stimuli/spore_stims/simple_13_A_a.gif","images/stimuli/spore_stims/simple_06_A_b.gif","forced_long","","10","simple_dissimilar","images/stimuli/spore_stims/simple_06_A_b.gif","","","","",""
"","null","html-keyboard-response","127","432016","0.0-29.0-0.3","SS1618365452233","","","null","","","","","","<p><img src= images/blank.png width =""600"" height = ""600"" style=""position:fixed;top:50%; left:50%; transform: translate(-50%, -50%); border:5px solid black"">","","","","","","","",""
"","837.169999955222","sequential-stimulus-presentation-old","128","433364","0.0-29.0-1.3","SS1618365452233","trial","","40","500","1337.169999955222","images/stimuli/spore_stims/simple_13_A_a.gif","images/stimuli/spore_stims/simple_06_A_b.gif","forced_long","","10","simple_dissimilar","images/stimuli/spore_stims/simple_13_A_a.gif","","","","",""
"","null","html-keyboard-response","129","434243","0.0-29.0-0.4","SS1618365452233","","","null","","","","","","<p><img src= images/blank.png width =""600"" height = ""600"" style=""position:fixed;top:50%; left:50%; transform: translate(-50%, -50%); border:5px solid black"">","","","","","","","",""
"","1519.2700000479817","sequential-stimulus-presentation-old","130","436271","0.0-29.0-1.4","SS1618365452233","trial","","40","500","2019.2700000479817","images/stimuli/spore_stims/simple_13_A_a.gif","images/stimuli/spore_stims/simple_06_A_b.gif","forced_long","","10","simple_dissimilar","images/stimuli/spore_stims/simple_06_A_b.gif","","","","",""
"","7610.4850000701845","survey-multi-choice","131","443890","0.0-30.0","SS1618365452233","math_question","","","","","","","","","","","","{""Q0"":""11""}","[0]","11","",""
"","null","html-keyboard-response","132","444913","0.0-31.0-0.0","SS1618365452233","","","null","","","","","","<p><img src= images/blank.png width =""600"" height = ""600"" style=""position:fixed;top:50%; left:50%; transform: translate(-50%, -50%); border:5px solid black"">","","","","","","","",""
"","1979.1549999499694","sequential-stimulus-presentation-old","133","446956","0.0-31.0-1.0","SS1618365452233","trial","","40","500","2479.1549999499694","images/stimuli/spore_stims/complex_14_A_a.gif","images/stimuli/spore_stims/complex_01_A_b.gif","forced_short","","11","complex_dissimilar","images/stimuli/spore_stims/complex_01_A_b.gif","","","","",""
"","null","html-keyboard-response","134","447805","0.0-31.0-0.1","SS1618365452233","","","null","","","","","","<p><img src= images/blank.png width =""600"" height = ""600"" style=""position:fixed;top:50%; left:50%; transform: translate(-50%, -50%); border:5px solid black"">","","","","","","","",""
"","2812.8649999853224","sequential-stimulus-presentation-old","135","451129","0.0-31.0-1.1","SS1618365452233","trial","","40","500","3312.8649999853224","images/stimuli/spore_stims/complex_14_A_a.gif","images/stimuli/spore_stims/complex_01_A_b.gif","forced_short","","11","complex_dissimilar","images/stimuli/spore_stims/complex_01_A_b.gif","","","","",""
"","null","html-keyboard-response","136","452169","0.0-31.0-0.2","SS1618365452233","","","null","","","","","","<p><img src= images/blank.png width =""600"" height = ""600"" style=""position:fixed;top:50%; left:50%; transform: translate(-50%, -50%); border:5px solid black"">","","","","","","","",""
"","1994.8899999726564","sequential-stimulus-presentation-old","137","454677","0.0-31.0-1.2","SS1618365452233","trial","","40","500","2494.8899999726564","images/stimuli/spore_stims/complex_14_A_a.gif","images/stimuli/spore_stims/complex_01_A_b.gif","forced_short","","11","complex_dissimilar","images/stimuli/spore_stims/complex_01_A_b.gif","","","","",""
"","null","html-keyboard-response","138","455864","0.0-31.0-0.3","SS1618365452233","","","null","","","","","","<p><img src= images/blank.png width =""600"" height = ""600"" style=""position:fixed;top:50%; left:50%; transform: translate(-50%, -50%); border:5px solid black"">","","","","","","","",""
"","2085.5699999956414","sequential-stimulus-presentation-old","139","458458","0.0-31.0-1.3","SS1618365452233","trial","","40","500","2585.5699999956414","images/stimuli/spore_stims/complex_14_A_a.gif","images/stimuli/spore_stims/complex_01_A_b.gif","forced_short","","11","complex_dissimilar","images/stimuli/spore_stims/complex_01_A_b.gif","","","","",""
"","null","html-keyboard-response","140","459582","0.0-31.0-0.4","SS1618365452233","","","null","","","","","","<p><img src= images/blank.png width =""600"" height = ""600"" style=""position:fixed;top:50%; left:50%; transform: translate(-50%, -50%); border:5px solid black"">","","","","","","","",""
"","2300.0100000062957","sequential-stimulus-presentation-old","141","462395","0.0-31.0-1.4","SS1618365452233","trial","","40","500","2800.0100000062957","images/stimuli/spore_stims/complex_14_A_a.gif","images/stimuli/spore_stims/complex_01_A_b.gif","forced_short","","11","complex_dissimilar","images/stimuli/spore_stims/complex_01_A_b.gif","","","","",""
"","null","html-keyboard-response","142","463257","0.0-31.0-0.5","SS1618365452233","","","null","","","","","","<p><img src= images/blank.png width =""600"" height = ""600"" style=""position:fixed;top:50%; left:50%; transform: translate(-50%, -50%); border:5px solid black"">","","","","","","","",""
"","1460.495000006631","sequential-stimulus-presentation-old","143","465230","0.0-31.0-1.5","SS1618365452233","trial","","40","500","1960.495000006631","images/stimuli/spore_stims/complex_14_A_a.gif","images/stimuli/spore_stims/complex_01_A_b.gif","forced_short","","11","complex_dissimilar","images/stimuli/spore_stims/complex_01_A_b.gif","","","","",""
"[{""page_index"":0,""viewing_time"":3457.784999976866}]","3458.494999911636","instructions","144","468697","0.0-32.0","SS1618365452233","instructions","","","","","","","","","","","","","","","",""
"","8764.844999997877","survey-likert","145","477475","0.0-33.0","SS1618365452233","similarity_question","","","","","","","","","","","","{""Q0"":1}","[0]","","images/stimuli/spore_stims/complex_14_A_a.gif","images/stimuli/spore_stims/complex_01_A_b.gif"
"","8328.065000008792","survey-likert","146","485818","0.0-34.0","SS1618365452233","similarity_question","","","","","","","","","","","","{""Q0"":1}","[0]","","images/stimuli/spore_stims/simple_12_A_a.gif","images/stimuli/spore_stims/simple_05_A_b.gif"
"","3937.265000073239","survey-likert","147","489770","0.0-35.0","SS1618365452233","similarity_question","","","","","","","","","","","","{""Q0"":1}","[0]","","images/stimuli/spore_stims/simple_15_A_a.gif","images/stimuli/spore_stims/simple_14_A_b.gif"
"","5502.07499996759","survey-likert","148","495288","0.0-36.0","SS1618365452233","similarity_question","","","","","","","","","","","","{""Q0"":2}","[0]","","images/stimuli/spore_stims/simple_06_A_b.gif","images/stimuli/spore_stims/simple_13_A_a.gif"
"","7478.424999979325","survey-likert","149","502778","0.0-37.0","SS1618365452233","similarity_question","","","","","","","","","","","","{""Q0"":0}","[0]","","images/stimuli/spore_stims/complex_03_A_b.gif","images/stimuli/spore_stims/complex_15_A_a.gif"
"","4521.805000025779","survey-likert","150","507314","0.0-38.0","SS1618365452233","similarity_question","","","","","","","","","","","","{""Q0"":2}","[0]","","images/stimuli/spore_stims/simple_17_A_b.gif","images/stimuli/spore_stims/simple_11_A_a.gif"
"","10625.905000022613","survey-likert","151","517954","0.0-39.0","SS1618365452233","similarity_question","","","","","","","","","","","","{""Q0"":0}","[0]","","images/stimuli/spore_stims/complex_16_A_b.gif","images/stimuli/spore_stims/complex_11_A_a.gif"
"","6017.4400000832975","survey-likert","152","523985","0.0-40.0","SS1618365452233","similarity_question","","","","","","","","","","","","{""Q0"":1}","[0]","","images/stimuli/spore_stims/complex_08_A_b.gif","images/stimuli/spore_stims/complex_04_A_a.gif"
"","7599.575000000186","survey-likert","153","531601","0.0-41.0","SS1618365452233","similarity_question","","","","","","","","","","","","{""Q0"":1}","[0]","","images/stimuli/spore_stims/complex_20_A_b.gif","images/stimuli/spore_stims/complex_07_A_a.gif"
"","6553.484999923967","survey-likert","154","538169","0.0-42.0","SS1618365452233","similarity_question","","","","","","","","","","","","{""Q0"":2}","[0]","","images/stimuli/spore_stims/simple_12_A_b.gif","images/stimuli/spore_stims/simple_08_A_a.gif"
"","7914.935000007972","survey-likert","155","546097","0.0-43.0","SS1618365452233","similarity_question","","","","","","","","","","","","{""Q0"":1}","[0]","","images/stimuli/spore_stims/simple_06_A_a.gif","images/stimuli/spore_stims/simple_16_A_b.gif"
"","7217.330000014044","survey-likert","156","553329","0.0-44.0","SS1618365452233","similarity_question","","","","","","","","","","","","{""Q0"":1}","[0]","","images/stimuli/spore_stims/complex_07_A_b.gif","images/stimuli/spore_stims/complex_17_A_a.gif"
"[{""page_index"":0,""viewing_time"":2809.5650000032037}]","2810.1549999555573","instructions","157","556151","0.0-45.0","SS1618365452233","instructions","","","","","","","","","","","","","","","",""
"","4362.525000004098","survey-likert","158","560521","0.0-46.0","SS1618365452233","","","","","","","","","images/stimuli/spore_stims/simple_06_A_b.gif","","","","{""Q0"":1}","[0]","","",""
"","3178.0799999833107","survey-likert","159","563714","0.0-47.0","SS1618365452233","","","","","","","","","images/stimuli/spore_stims/complex_16_A_b.gif","","","","{""Q0"":6}","[0]","","",""
"","3785.1149999769405","survey-likert","160","567513","0.0-48.0","SS1618365452233","","","","","","","","","images/stimuli/spore_stims/simple_11_A_a.gif","","","","{""Q0"":1}","[0]","","",""
"","3074.0099999820814","survey-likert","161","570601","0.0-49.0","SS1618365452233","","","","","","","","","images/stimuli/spore_stims/complex_14_A_a.gif","","","","{""Q0"":6}","[0]","","",""
"","2753.4600000362843","survey-likert","162","573369","0.0-50.0","SS1618365452233","","","","","","","","","images/stimuli/spore_stims/simple_16_A_b.gif","","","","{""Q0"":1}","[0]","","",""
"","7946.830000029877","survey-likert","163","581330","0.0-51.0","SS1618365452233","","","","","","","","","images/stimuli/spore_stims/complex_03_A_b.gif","","","","{""Q0"":5}","[0]","","",""
"","3338.844999903813","survey-likert","164","584681","0.0-52.0","SS1618365452233","","","","","","","","","images/stimuli/spore_stims/complex_20_A_b.gif","","","","{""Q0"":6}","[0]","","",""
"","2457.550000050105","survey-likert","165","587153","0.0-53.0","SS1618365452233","","","","","","","","","images/stimuli/spore_stims/simple_12_A_b.gif","","","","{""Q0"":1}","[0]","","",""
"","6339.184999931604","survey-likert","166","593505","0.0-54.0","SS1618365452233","","","","","","","","","images/stimuli/spore_stims/complex_17_A_a.gif","","","","{""Q0"":5}","[0]","","",""
"","7112.664999905974","survey-likert","167","600632","0.0-55.0","SS1618365452233","","","","","","","","","images/stimuli/spore_stims/complex_04_A_a.gif","","","","{""Q0"":6}","[0]","","",""
"","2699.5200000237674","survey-likert","168","603346","0.0-56.0","SS1618365452233","","","","","","","","","images/stimuli/spore_stims/simple_15_A_a.gif","","","","{""Q0"":1}","[0]","","",""
"","3800.054999999702","survey-likert","169","607161","0.0-57.0","SS1618365452233","","","","","","","","","images/stimuli/spore_stims/simple_12_A_a.gif","","","","{""Q0"":1}","[0]","","",""
"[{""page_index"":0,""viewing_time"":1882.7499999897555}]","1883.4800000768155","instructions","170","609063","0.0-58.0","SS1618365452233","instructions","","","","","","","","","","","","","","","",""
"","3519.5600000442937","demog-age","171","612602","0.0-59.0","SS1618365452233","","","","","","","","","","","","","{""age"":""29""}","","","",""
"","5728.819999960251","demog-ethnic-US","172","618361","0.0-60.0","SS1618365452233","","","","","","","","","","","","","{""ethnicity"":[""White""]}","[0]","","",""
"","15967.37500000745","demog-gender-and-education","173","634345","0.0-61.0","SS1618365452233","","","","","","","","","","","","","{""gender"":""Female"",""education"":""Bachelor's Degree""}","[0,1]","","",""
"","166960.04999999423","survey-text","174","801328","0.0-62.0","SS1618365452233","feedback","","","","","","","","","","","","{""Q0"":""I didn't think the animations were particularly cute but I understand the need to create a series of complex and simple animations (assuming the study is to test whether complexity may help infants distinguish objects better?)""}","","","",""
"[{""page_index"":0,""viewing_time"":2076.6949999378994}]","2077.6249999180436","instructions","175","803422","0.0-63.0","SS1618365452233","instructions","","","","","","","","","","","","","","","",""
