"view_history","rt","trial_type","trial_index","time_elapsed","internal_node_id","subject","stimulus_type","trial_stimulus","key_press","minimum_viewing_duration","trial_looking_time","block_deviant","block_background","exposure_type","stimulus","block_number","block_type","stimulus_displayed","responses","question_order","math_correct_answer","stimulus_left","stimulus_right"
"[{""page_index"":0,""viewing_time"":36995.09500002023}]","36995.7600000198","instructions","0","36998","0.0-0.0","SS1618435657512","","","","","","","","","","","","","","","","",""
"[{""page_index"":0,""viewing_time"":19498.79499996314},{""page_index"":1,""viewing_time"":8411.015000019688}]","27910.244999977294","instructions","1","66923","0.0-1.0","SS1618435657512","instructions","","","","","","","","","","","","","","","",""
"","9723.78000000026","sequential-stimulus-presentation-old","2","77166","0.0-2.0","SS1618435657512","","","40","500","10223.78000000026","null","null","self_paced","","","","","","","","",""
"","9203.075000026729","sequential-stimulus-presentation-old","3","86876","0.0-3.0","SS1618435657512","","","40","500","9703.075000026729","null","null","self_paced","","","","","","","","",""
"[{""page_index"":0,""viewing_time"":35239.78999996325}]","35240.194999962114","instructions","4","122118","0.0-4.0","SS1618435657512","instructions","","","","","","","","","","","","","","","",""
"","5022.1249999594875","sequential-stimulus-presentation-old","5","132152","0.0-5.0","SS1618435657512","","","40","500","5522.1249999594875","null","null","forced_long","","","","","","","","",""
"","7130.784999986645","sequential-stimulus-presentation-old","6","139338","0.0-6.0","SS1618435657512","","","40","50","7180.784999986645","null","null","forced_long","","","","","","","","",""
"[{""page_index"":0,""viewing_time"":9169.294999970589}]","9169.664999993984","instructions","7","148509","0.0-7.0","SS1618435657512","instructions","","","","","","","","","","","","","","","",""
"[{""page_index"":0,""viewing_time"":17370.599999965634},{""page_index"":1,""viewing_time"":40875.895000004675},{""page_index"":2,""viewing_time"":10832.764999999199},{""page_index"":3,""viewing_time"":3767.549999989569},{""page_index"":4,""viewing_time"":3001.875000016298}]","75849.2199999746","instructions","8","224359","0.0-8.0","SS1618435657512","instructions","","","","","","","","","","","","","","","",""
"","null","html-keyboard-response","9","225315","0.0-9.0-0.0","SS1618435657512","","","null","","","","","","<p><img src= images/blank.png width =""600"" height = ""600"" style=""position:fixed;top:50%; left:50%; transform: translate(-50%, -50%); border:5px solid black"">","","","","","","","",""
"","742.4950000131503","sequential-stimulus-presentation-old","10","231073","0.0-9.0-1.0","SS1618435657512","trial","","40","500","1242.4950000131503","images/stimuli/spore_stims/simple_16_A_b.gif","images/stimuli/spore_stims/simple_13_A_a.gif","forced_long","","0","simple_dissimilar","images/stimuli/spore_stims/simple_13_A_a.gif","","","","",""
"","null","html-keyboard-response","11","231958","0.0-9.0-0.1","SS1618435657512","","","null","","","","","","<p><img src= images/blank.png width =""600"" height = ""600"" style=""position:fixed;top:50%; left:50%; transform: translate(-50%, -50%); border:5px solid black"">","","","","","","","",""
"","4758.030000026338","sequential-stimulus-presentation-old","12","237219","0.0-9.0-1.1","SS1618435657512","trial","","40","500","5258.030000026338","images/stimuli/spore_stims/simple_16_A_b.gif","images/stimuli/spore_stims/simple_13_A_a.gif","forced_long","","0","simple_dissimilar","images/stimuli/spore_stims/simple_16_A_b.gif","","","","",""
"","null","html-keyboard-response","13","238525","0.0-9.0-0.2","SS1618435657512","","","null","","","","","","<p><img src= images/blank.png width =""600"" height = ""600"" style=""position:fixed;top:50%; left:50%; transform: translate(-50%, -50%); border:5px solid black"">","","","","","","","",""
"","7741.87000002712","sequential-stimulus-presentation-old","14","246773","0.0-9.0-1.2","SS1618435657512","trial","","40","500","8241.87000002712","images/stimuli/spore_stims/simple_16_A_b.gif","images/stimuli/spore_stims/simple_13_A_a.gif","forced_long","","0","simple_dissimilar","images/stimuli/spore_stims/simple_13_A_a.gif","","","","",""
"","null","html-keyboard-response","15","247863","0.0-9.0-0.3","SS1618435657512","","","null","","","","","","<p><img src= images/blank.png width =""600"" height = ""600"" style=""position:fixed;top:50%; left:50%; transform: translate(-50%, -50%); border:5px solid black"">","","","","","","","",""
"","5119.499999971595","sequential-stimulus-presentation-old","16","253494","0.0-9.0-1.3","SS1618435657512","trial","","40","500","5619.499999971595","images/stimuli/spore_stims/simple_16_A_b.gif","images/stimuli/spore_stims/simple_13_A_a.gif","forced_long","","0","simple_dissimilar","images/stimuli/spore_stims/simple_13_A_a.gif","","","","",""
"","null","html-keyboard-response","17","254783","0.0-9.0-0.4","SS1618435657512","","","null","","","","","","<p><img src= images/blank.png width =""600"" height = ""600"" style=""position:fixed;top:50%; left:50%; transform: translate(-50%, -50%); border:5px solid black"">","","","","","","","",""
"","5724.270000006072","sequential-stimulus-presentation-old","18","261015","0.0-9.0-1.4","SS1618435657512","trial","","40","500","6224.270000006072","images/stimuli/spore_stims/simple_16_A_b.gif","images/stimuli/spore_stims/simple_13_A_a.gif","forced_long","","0","simple_dissimilar","images/stimuli/spore_stims/simple_13_A_a.gif","","","","",""
"","null","html-keyboard-response","19","262039","0.0-9.0-0.5","SS1618435657512","","","null","","","","","","<p><img src= images/blank.png width =""600"" height = ""600"" style=""position:fixed;top:50%; left:50%; transform: translate(-50%, -50%); border:5px solid black"">","","","","","","","",""
"","4186.694999982137","sequential-stimulus-presentation-old","20","266730","0.0-9.0-1.5","SS1618435657512","trial","","40","500","4686.694999982137","images/stimuli/spore_stims/simple_16_A_b.gif","images/stimuli/spore_stims/simple_13_A_a.gif","forced_long","","0","simple_dissimilar","images/stimuli/spore_stims/simple_16_A_b.gif","","","","",""
"","10270.004999998491","survey-multi-choice","21","277005","0.0-10.0","SS1618435657512","math_question","","","","","","","","","","","","{""Q0"":""15""}","[0]","15","",""
"","null","html-keyboard-response","22","278106","0.0-11.0-0.0","SS1618435657512","","","null","","","","","","<p><img src= images/blank.png width =""600"" height = ""600"" style=""position:fixed;top:50%; left:50%; transform: translate(-50%, -50%); border:5px solid black"">","","","","","","","",""
"","2194.149999995716","sequential-stimulus-presentation-old","23","280366","0.0-11.0-1.0","SS1618435657512","trial","","40","500","2694.149999995716","images/stimuli/spore_stims/simple_19_A_a.gif","images/stimuli/spore_stims/simple_20_A_b.gif","forced_short","","1","simple_dissimilar","images/stimuli/spore_stims/simple_20_A_b.gif","","","","",""
"","null","html-keyboard-response","24","281291","0.0-11.0-0.1","SS1618435657512","","","null","","","","","","<p><img src= images/blank.png width =""600"" height = ""600"" style=""position:fixed;top:50%; left:50%; transform: translate(-50%, -50%); border:5px solid black"">","","","","","","","",""
"","7324.270000040997","sequential-stimulus-presentation-old","25","289128","0.0-11.0-1.1","SS1618435657512","trial","","40","500","7824.270000040997","images/stimuli/spore_stims/simple_19_A_a.gif","images/stimuli/spore_stims/simple_20_A_b.gif","forced_short","","1","simple_dissimilar","images/stimuli/spore_stims/simple_19_A_a.gif","","","","",""
"","null","html-keyboard-response","26","290184","0.0-11.0-0.2","SS1618435657512","","","null","","","","","","<p><img src= images/blank.png width =""600"" height = ""600"" style=""position:fixed;top:50%; left:50%; transform: translate(-50%, -50%); border:5px solid black"">","","","","","","","",""
"","6366.174999973737","sequential-stimulus-presentation-old","27","297056","0.0-11.0-1.2","SS1618435657512","trial","","40","500","6866.174999973737","images/stimuli/spore_stims/simple_19_A_a.gif","images/stimuli/spore_stims/simple_20_A_b.gif","forced_short","","1","simple_dissimilar","images/stimuli/spore_stims/simple_20_A_b.gif","","","","",""
"","null","html-keyboard-response","28","298021","0.0-11.0-0.3","SS1618435657512","","","null","","","","","","<p><img src= images/blank.png width =""600"" height = ""600"" style=""position:fixed;top:50%; left:50%; transform: translate(-50%, -50%); border:5px solid black"">","","","","","","","",""
"","4326.914999983273","sequential-stimulus-presentation-old","29","302864","0.0-11.0-1.3","SS1618435657512","trial","","40","500","4826.914999983273","images/stimuli/spore_stims/simple_19_A_a.gif","images/stimuli/spore_stims/simple_20_A_b.gif","forced_short","","1","simple_dissimilar","images/stimuli/spore_stims/simple_19_A_a.gif","","","","",""
"","6576.144999999087","survey-multi-choice","30","309438","0.0-12.0","SS1618435657512","math_question","","","","","","","","","","","","{""Q0"":""13""}","[0]","13","",""
"","null","html-keyboard-response","31","310298","0.0-13.0-0.0","SS1618435657512","","","null","","","","","","<p><img src= images/blank.png width =""600"" height = ""600"" style=""position:fixed;top:50%; left:50%; transform: translate(-50%, -50%); border:5px solid black"">","","","","","","","",""
"","2768.5749999945983","sequential-stimulus-presentation-old","32","313133","0.0-13.0-1.0","SS1618435657512","trial","","40","500","3268.5749999945983","images/stimuli/spore_stims/complex_14_A_a.gif","images/stimuli/spore_stims/complex_11_A_b.gif","forced_short","","2","complex_dissimilar","images/stimuli/spore_stims/complex_11_A_b.gif","","","","",""
"","null","html-keyboard-response","33","314281","0.0-13.0-0.1","SS1618435657512","","","null","","","","","","<p><img src= images/blank.png width =""600"" height = ""600"" style=""position:fixed;top:50%; left:50%; transform: translate(-50%, -50%); border:5px solid black"">","","","","","","","",""
"","4053.075000003446","sequential-stimulus-presentation-old","34","318847","0.0-13.0-1.1","SS1618435657512","trial","","40","500","4553.075000003446","images/stimuli/spore_stims/complex_14_A_a.gif","images/stimuli/spore_stims/complex_11_A_b.gif","forced_short","","2","complex_dissimilar","images/stimuli/spore_stims/complex_11_A_b.gif","","","","",""
"","null","html-keyboard-response","35","319769","0.0-13.0-0.2","SS1618435657512","","","null","","","","","","<p><img src= images/blank.png width =""600"" height = ""600"" style=""position:fixed;top:50%; left:50%; transform: translate(-50%, -50%); border:5px solid black"">","","","","","","","",""
"","3293.2249999721535","sequential-stimulus-presentation-old","36","323573","0.0-13.0-1.2","SS1618435657512","trial","","40","500","3793.2249999721535","images/stimuli/spore_stims/complex_14_A_a.gif","images/stimuli/spore_stims/complex_11_A_b.gif","forced_short","","2","complex_dissimilar","images/stimuli/spore_stims/complex_11_A_b.gif","","","","",""
"","null","html-keyboard-response","37","324545","0.0-13.0-0.3","SS1618435657512","","","null","","","","","","<p><img src= images/blank.png width =""600"" height = ""600"" style=""position:fixed;top:50%; left:50%; transform: translate(-50%, -50%); border:5px solid black"">","","","","","","","",""
"","2882.5050000450574","sequential-stimulus-presentation-old","38","327937","0.0-13.0-1.3","SS1618435657512","trial","","40","500","3382.5050000450574","images/stimuli/spore_stims/complex_14_A_a.gif","images/stimuli/spore_stims/complex_11_A_b.gif","forced_short","","2","complex_dissimilar","images/stimuli/spore_stims/complex_11_A_b.gif","","","","",""
"","null","html-keyboard-response","39","329228","0.0-13.0-0.4","SS1618435657512","","","null","","","","","","<p><img src= images/blank.png width =""600"" height = ""600"" style=""position:fixed;top:50%; left:50%; transform: translate(-50%, -50%); border:5px solid black"">","","","","","","","",""
"","4069.5149999810383","sequential-stimulus-presentation-old","40","333808","0.0-13.0-1.4","SS1618435657512","trial","","40","500","4569.514999981038","images/stimuli/spore_stims/complex_14_A_a.gif","images/stimuli/spore_stims/complex_11_A_b.gif","forced_short","","2","complex_dissimilar","images/stimuli/spore_stims/complex_14_A_a.gif","","","","",""
"","null","html-keyboard-response","41","335076","0.0-13.0-0.5","SS1618435657512","","","null","","","","","","<p><img src= images/blank.png width =""600"" height = ""600"" style=""position:fixed;top:50%; left:50%; transform: translate(-50%, -50%); border:5px solid black"">","","","","","","","",""
"","5359.194999968167","sequential-stimulus-presentation-old","42","340939","0.0-13.0-1.5","SS1618435657512","trial","","40","500","5859.194999968167","images/stimuli/spore_stims/complex_14_A_a.gif","images/stimuli/spore_stims/complex_11_A_b.gif","forced_short","","2","complex_dissimilar","images/stimuli/spore_stims/complex_14_A_a.gif","","","","",""
"","4301.73999996623","survey-multi-choice","43","345244","0.0-14.0","SS1618435657512","math_question","","","","","","","","","","","","{""Q0"":""10""}","[0]","10","",""
"","null","html-keyboard-response","44","346503","0.0-15.0-0.0","SS1618435657512","","","null","","","","","","<p><img src= images/blank.png width =""600"" height = ""600"" style=""position:fixed;top:50%; left:50%; transform: translate(-50%, -50%); border:5px solid black"">","","","","","","","",""
"","2749.210000038147","sequential-stimulus-presentation-old","45","349307","0.0-15.0-1.0","SS1618435657512","trial","","40","500","3249.210000038147","images/stimuli/spore_stims/complex_14_A_b.gif","images/stimuli/spore_stims/complex_07_A_a.gif","forced_short","","3","complex_dissimilar","images/stimuli/spore_stims/complex_07_A_a.gif","","","","",""
"","null","html-keyboard-response","46","350425","0.0-15.0-0.1","SS1618435657512","","","null","","","","","","<p><img src= images/blank.png width =""600"" height = ""600"" style=""position:fixed;top:50%; left:50%; transform: translate(-50%, -50%); border:5px solid black"">","","","","","","","",""
"","5897.624999983236","sequential-stimulus-presentation-old","47","356837","0.0-15.0-1.1","SS1618435657512","trial","","40","500","6397.624999983236","images/stimuli/spore_stims/complex_14_A_b.gif","images/stimuli/spore_stims/complex_07_A_a.gif","forced_short","","3","complex_dissimilar","images/stimuli/spore_stims/complex_07_A_a.gif","","","","",""
"","null","html-keyboard-response","48","358022","0.0-15.0-0.2","SS1618435657512","","","null","","","","","","<p><img src= images/blank.png width =""600"" height = ""600"" style=""position:fixed;top:50%; left:50%; transform: translate(-50%, -50%); border:5px solid black"">","","","","","","","",""
"","5689.925000013318","sequential-stimulus-presentation-old","49","364225","0.0-15.0-1.2","SS1618435657512","trial","","40","500","6189.925000013318","images/stimuli/spore_stims/complex_14_A_b.gif","images/stimuli/spore_stims/complex_07_A_a.gif","forced_short","","3","complex_dissimilar","images/stimuli/spore_stims/complex_14_A_b.gif","","","","",""
"","null","html-keyboard-response","50","365173","0.0-15.0-0.3","SS1618435657512","","","null","","","","","","<p><img src= images/blank.png width =""600"" height = ""600"" style=""position:fixed;top:50%; left:50%; transform: translate(-50%, -50%); border:5px solid black"">","","","","","","","",""
"","2325.3549999790266","sequential-stimulus-presentation-old","51","368013","0.0-15.0-1.3","SS1618435657512","trial","","40","500","2825.3549999790266","images/stimuli/spore_stims/complex_14_A_b.gif","images/stimuli/spore_stims/complex_07_A_a.gif","forced_short","","3","complex_dissimilar","images/stimuli/spore_stims/complex_07_A_a.gif","","","","",""
"","null","html-keyboard-response","52","368870","0.0-15.0-0.4","SS1618435657512","","","null","","","","","","<p><img src= images/blank.png width =""600"" height = ""600"" style=""position:fixed;top:50%; left:50%; transform: translate(-50%, -50%); border:5px solid black"">","","","","","","","",""
"","1355.985000031069","sequential-stimulus-presentation-old","53","370730","0.0-15.0-1.4","SS1618435657512","trial","","40","500","1855.985000031069","images/stimuli/spore_stims/complex_14_A_b.gif","images/stimuli/spore_stims/complex_07_A_a.gif","forced_short","","3","complex_dissimilar","images/stimuli/spore_stims/complex_14_A_b.gif","","","","",""
"","4176.7849999596365","survey-multi-choice","54","374910","0.0-16.0","SS1618435657512","math_question","","","","","","","","","","","","{""Q0"":""11""}","[0]","11","",""
"","null","html-keyboard-response","55","375869","0.0-17.0-0.0","SS1618435657512","","","null","","","","","","<p><img src= images/blank.png width =""600"" height = ""600"" style=""position:fixed;top:50%; left:50%; transform: translate(-50%, -50%); border:5px solid black"">","","","","","","","",""
"","676.4449999900535","sequential-stimulus-presentation-old","56","377060","0.0-17.0-1.0","SS1618435657512","trial","","40","500","1176.4449999900535","images/stimuli/spore_stims/simple_18_A_b.gif","images/stimuli/spore_stims/simple_16_A_a.gif","self_paced","","4","simple_dissimilar","images/stimuli/spore_stims/simple_16_A_a.gif","","","","",""
"","null","html-keyboard-response","57","378351","0.0-17.0-0.1","SS1618435657512","","","null","","","","","","<p><img src= images/blank.png width =""600"" height = ""600"" style=""position:fixed;top:50%; left:50%; transform: translate(-50%, -50%); border:5px solid black"">","","","","","","","",""
"","2090.5800000182353","sequential-stimulus-presentation-old","58","380953","0.0-17.0-1.1","SS1618435657512","trial","","40","500","2590.5800000182353","images/stimuli/spore_stims/simple_18_A_b.gif","images/stimuli/spore_stims/simple_16_A_a.gif","self_paced","","4","simple_dissimilar","images/stimuli/spore_stims/simple_16_A_a.gif","","","","",""
"","null","html-keyboard-response","59","381901","0.0-17.0-0.2","SS1618435657512","","","null","","","","","","<p><img src= images/blank.png width =""600"" height = ""600"" style=""position:fixed;top:50%; left:50%; transform: translate(-50%, -50%); border:5px solid black"">","","","","","","","",""
"","2468.754999979865","sequential-stimulus-presentation-old","60","384885","0.0-17.0-1.2","SS1618435657512","trial","","40","500","2968.754999979865","images/stimuli/spore_stims/simple_18_A_b.gif","images/stimuli/spore_stims/simple_16_A_a.gif","self_paced","","4","simple_dissimilar","images/stimuli/spore_stims/simple_16_A_a.gif","","","","",""
"","null","html-keyboard-response","61","386166","0.0-17.0-0.3","SS1618435657512","","","null","","","","","","<p><img src= images/blank.png width =""600"" height = ""600"" style=""position:fixed;top:50%; left:50%; transform: translate(-50%, -50%); border:5px solid black"">","","","","","","","",""
"","1517.6699999719858","sequential-stimulus-presentation-old","62","388199","0.0-17.0-1.3","SS1618435657512","trial","","40","500","2017.6699999719858","images/stimuli/spore_stims/simple_18_A_b.gif","images/stimuli/spore_stims/simple_16_A_a.gif","self_paced","","4","simple_dissimilar","images/stimuli/spore_stims/simple_16_A_a.gif","","","","",""
"","null","html-keyboard-response","63","389150","0.0-17.0-0.4","SS1618435657512","","","null","","","","","","<p><img src= images/blank.png width =""600"" height = ""600"" style=""position:fixed;top:50%; left:50%; transform: translate(-50%, -50%); border:5px solid black"">","","","","","","","",""
"","2035.2399999974295","sequential-stimulus-presentation-old","64","391700","0.0-17.0-1.4","SS1618435657512","trial","","40","500","2535.2399999974295","images/stimuli/spore_stims/simple_18_A_b.gif","images/stimuli/spore_stims/simple_16_A_a.gif","self_paced","","4","simple_dissimilar","images/stimuli/spore_stims/simple_16_A_a.gif","","","","",""
"","null","html-keyboard-response","65","392914","0.0-17.0-0.5","SS1618435657512","","","null","","","","","","<p><img src= images/blank.png width =""600"" height = ""600"" style=""position:fixed;top:50%; left:50%; transform: translate(-50%, -50%); border:5px solid black"">","","","","","","","",""
"","733.0150000052527","sequential-stimulus-presentation-old","66","394155","0.0-17.0-1.5","SS1618435657512","trial","","40","500","1233.0150000052527","images/stimuli/spore_stims/simple_18_A_b.gif","images/stimuli/spore_stims/simple_16_A_a.gif","self_paced","","4","simple_dissimilar","images/stimuli/spore_stims/simple_16_A_a.gif","","","","",""
"","4019.1350000095554","survey-multi-choice","67","398177","0.0-18.0","SS1618435657512","math_question","","","","","","","","","","","","{""Q0"":""13""}","[0]","13","",""
"","null","html-keyboard-response","68","399465","0.0-19.0-0.0","SS1618435657512","","","null","","","","","","<p><img src= images/blank.png width =""600"" height = ""600"" style=""position:fixed;top:50%; left:50%; transform: translate(-50%, -50%); border:5px solid black"">","","","","","","","",""
"","4659.539999964181","sequential-stimulus-presentation-old","69","404634","0.0-19.0-1.0","SS1618435657512","trial","","40","500","5159.539999964181","images/stimuli/spore_stims/complex_06_A_a.gif","images/stimuli/spore_stims/complex_17_A_b.gif","self_paced","","5","complex_dissimilar","images/stimuli/spore_stims/complex_17_A_b.gif","","","","",""
"","null","html-keyboard-response","70","405709","0.0-19.0-0.1","SS1618435657512","","","null","","","","","","<p><img src= images/blank.png width =""600"" height = ""600"" style=""position:fixed;top:50%; left:50%; transform: translate(-50%, -50%); border:5px solid black"">","","","","","","","",""
"","1682.8649999806657","sequential-stimulus-presentation-old","71","407905","0.0-19.0-1.1","SS1618435657512","trial","","40","500","2182.8649999806657","images/stimuli/spore_stims/complex_06_A_a.gif","images/stimuli/spore_stims/complex_17_A_b.gif","self_paced","","5","complex_dissimilar","images/stimuli/spore_stims/complex_17_A_b.gif","","","","",""
"","null","html-keyboard-response","72","409097","0.0-19.0-0.2","SS1618435657512","","","null","","","","","","<p><img src= images/blank.png width =""600"" height = ""600"" style=""position:fixed;top:50%; left:50%; transform: translate(-50%, -50%); border:5px solid black"">","","","","","","","",""
"","5259.164999995846","sequential-stimulus-presentation-old","73","414872","0.0-19.0-1.2","SS1618435657512","trial","","40","500","5759.164999995846","images/stimuli/spore_stims/complex_06_A_a.gif","images/stimuli/spore_stims/complex_17_A_b.gif","self_paced","","5","complex_dissimilar","images/stimuli/spore_stims/complex_17_A_b.gif","","","","",""
"","null","html-keyboard-response","74","415758","0.0-19.0-0.3","SS1618435657512","","","null","","","","","","<p><img src= images/blank.png width =""600"" height = ""600"" style=""position:fixed;top:50%; left:50%; transform: translate(-50%, -50%); border:5px solid black"">","","","","","","","",""
"","4236.995000042953","sequential-stimulus-presentation-old","75","420503","0.0-19.0-1.3","SS1618435657512","trial","","40","500","4736.995000042953","images/stimuli/spore_stims/complex_06_A_a.gif","images/stimuli/spore_stims/complex_17_A_b.gif","self_paced","","5","complex_dissimilar","images/stimuli/spore_stims/complex_17_A_b.gif","","","","",""
"","4751.6450000111945","survey-multi-choice","76","425257","0.0-20.0","SS1618435657512","math_question","","","","","","","","","","","","{""Q0"":""13""}","[0]","13","",""
"","null","html-keyboard-response","77","426158","0.0-21.0-0.0","SS1618435657512","","","null","","","","","","<p><img src= images/blank.png width =""600"" height = ""600"" style=""position:fixed;top:50%; left:50%; transform: translate(-50%, -50%); border:5px solid black"">","","","","","","","",""
"","1687.0600000256673","sequential-stimulus-presentation-old","78","427911","0.0-21.0-1.0","SS1618435657512","trial","","40","500","2187.0600000256673","images/stimuli/spore_stims/simple_08_A_b.gif","images/stimuli/spore_stims/simple_09_A_a.gif","forced_short","","6","simple_dissimilar","images/stimuli/spore_stims/simple_09_A_a.gif","","","","",""
"","null","html-keyboard-response","79","428912","0.0-21.0-0.1","SS1618435657512","","","null","","","","","","<p><img src= images/blank.png width =""600"" height = ""600"" style=""position:fixed;top:50%; left:50%; transform: translate(-50%, -50%); border:5px solid black"">","","","","","","","",""
"","3273.9399999845773","sequential-stimulus-presentation-old","80","432706","0.0-21.0-1.1","SS1618435657512","trial","","40","500","3773.9399999845773","images/stimuli/spore_stims/simple_08_A_b.gif","images/stimuli/spore_stims/simple_09_A_a.gif","forced_short","","6","simple_dissimilar","images/stimuli/spore_stims/simple_09_A_a.gif","","","","",""
"","null","html-keyboard-response","81","433615","0.0-21.0-0.2","SS1618435657512","","","null","","","","","","<p><img src= images/blank.png width =""600"" height = ""600"" style=""position:fixed;top:50%; left:50%; transform: translate(-50%, -50%); border:5px solid black"">","","","","","","","",""
"","3985.4649999761023","sequential-stimulus-presentation-old","82","438117","0.0-21.0-1.2","SS1618435657512","trial","","40","500","4485.464999976102","images/stimuli/spore_stims/simple_08_A_b.gif","images/stimuli/spore_stims/simple_09_A_a.gif","forced_short","","6","simple_dissimilar","images/stimuli/spore_stims/simple_09_A_a.gif","","","","",""
"","null","html-keyboard-response","83","439058","0.0-21.0-0.3","SS1618435657512","","","null","","","","","","<p><img src= images/blank.png width =""600"" height = ""600"" style=""position:fixed;top:50%; left:50%; transform: translate(-50%, -50%); border:5px solid black"">","","","","","","","",""
"","1832.8399999882095","sequential-stimulus-presentation-old","84","441396","0.0-21.0-1.3","SS1618435657512","trial","","40","500","2332.8399999882095","images/stimuli/spore_stims/simple_08_A_b.gif","images/stimuli/spore_stims/simple_09_A_a.gif","forced_short","","6","simple_dissimilar","images/stimuli/spore_stims/simple_09_A_a.gif","","","","",""
"","null","html-keyboard-response","85","442591","0.0-21.0-0.4","SS1618435657512","","","null","","","","","","<p><img src= images/blank.png width =""600"" height = ""600"" style=""position:fixed;top:50%; left:50%; transform: translate(-50%, -50%); border:5px solid black"">","","","","","","","",""
"","3027.025000017602","sequential-stimulus-presentation-old","86","446124","0.0-21.0-1.4","SS1618435657512","trial","","40","500","3527.025000017602","images/stimuli/spore_stims/simple_08_A_b.gif","images/stimuli/spore_stims/simple_09_A_a.gif","forced_short","","6","simple_dissimilar","images/stimuli/spore_stims/simple_09_A_a.gif","","","","",""
"","null","html-keyboard-response","87","447350","0.0-21.0-0.5","SS1618435657512","","","null","","","","","","<p><img src= images/blank.png width =""600"" height = ""600"" style=""position:fixed;top:50%; left:50%; transform: translate(-50%, -50%); border:5px solid black"">","","","","","","","",""
"","2240.15500000678","sequential-stimulus-presentation-old","88","450100","0.0-21.0-1.5","SS1618435657512","trial","","40","500","2740.15500000678","images/stimuli/spore_stims/simple_08_A_b.gif","images/stimuli/spore_stims/simple_09_A_a.gif","forced_short","","6","simple_dissimilar","images/stimuli/spore_stims/simple_08_A_b.gif","","","","",""
"","5955.764999962412","survey-multi-choice","89","456059","0.0-22.0","SS1618435657512","math_question","","","","","","","","","","","","{""Q0"":""6""}","[0]","6","",""
"","null","html-keyboard-response","90","456900","0.0-23.0-0.0","SS1618435657512","","","null","","","","","","<p><img src= images/blank.png width =""600"" height = ""600"" style=""position:fixed;top:50%; left:50%; transform: translate(-50%, -50%); border:5px solid black"">","","","","","","","",""
"","3966.824999952223","sequential-stimulus-presentation-old","91","461371","0.0-23.0-1.0","SS1618435657512","trial","","40","500","4466.824999952223","images/stimuli/spore_stims/complex_15_A_a.gif","images/stimuli/spore_stims/complex_16_A_b.gif","self_paced","","7","complex_dissimilar","images/stimuli/spore_stims/complex_16_A_b.gif","","","","",""
"","null","html-keyboard-response","92","462673","0.0-23.0-0.1","SS1618435657512","","","null","","","","","","<p><img src= images/blank.png width =""600"" height = ""600"" style=""position:fixed;top:50%; left:50%; transform: translate(-50%, -50%); border:5px solid black"">","","","","","","","",""
"","1329.9300000071526","sequential-stimulus-presentation-old","93","464507","0.0-23.0-1.1","SS1618435657512","trial","","40","500","1829.9300000071526","images/stimuli/spore_stims/complex_15_A_a.gif","images/stimuli/spore_stims/complex_16_A_b.gif","self_paced","","7","complex_dissimilar","images/stimuli/spore_stims/complex_16_A_b.gif","","","","",""
"","null","html-keyboard-response","94","465710","0.0-23.0-0.2","SS1618435657512","","","null","","","","","","<p><img src= images/blank.png width =""600"" height = ""600"" style=""position:fixed;top:50%; left:50%; transform: translate(-50%, -50%); border:5px solid black"">","","","","","","","",""
"","3913.590000011027","sequential-stimulus-presentation-old","95","470129","0.0-23.0-1.2","SS1618435657512","trial","","40","500","4413.590000011027","images/stimuli/spore_stims/complex_15_A_a.gif","images/stimuli/spore_stims/complex_16_A_b.gif","self_paced","","7","complex_dissimilar","images/stimuli/spore_stims/complex_15_A_a.gif","","","","",""
"","null","html-keyboard-response","96","471177","0.0-23.0-0.3","SS1618435657512","","","null","","","","","","<p><img src= images/blank.png width =""600"" height = ""600"" style=""position:fixed;top:50%; left:50%; transform: translate(-50%, -50%); border:5px solid black"">","","","","","","","",""
"","4275.495000008959","sequential-stimulus-presentation-old","97","475962","0.0-23.0-1.3","SS1618435657512","trial","","40","500","4775.495000008959","images/stimuli/spore_stims/complex_15_A_a.gif","images/stimuli/spore_stims/complex_16_A_b.gif","self_paced","","7","complex_dissimilar","images/stimuli/spore_stims/complex_16_A_b.gif","","","","",""
"","null","html-keyboard-response","98","477054","0.0-23.0-0.4","SS1618435657512","","","null","","","","","","<p><img src= images/blank.png width =""600"" height = ""600"" style=""position:fixed;top:50%; left:50%; transform: translate(-50%, -50%); border:5px solid black"">","","","","","","","",""
"","485.1849999977276","sequential-stimulus-presentation-old","99","478053","0.0-23.0-1.4","SS1618435657512","trial","","40","500","985.1849999977276","images/stimuli/spore_stims/complex_15_A_a.gif","images/stimuli/spore_stims/complex_16_A_b.gif","self_paced","","7","complex_dissimilar","images/stimuli/spore_stims/complex_16_A_b.gif","","","","",""
"","null","html-keyboard-response","100","479274","0.0-23.0-0.5","SS1618435657512","","","null","","","","","","<p><img src= images/blank.png width =""600"" height = ""600"" style=""position:fixed;top:50%; left:50%; transform: translate(-50%, -50%); border:5px solid black"">","","","","","","","",""
"","1539.6400000317954","sequential-stimulus-presentation-old","101","481320","0.0-23.0-1.5","SS1618435657512","trial","","40","500","2039.6400000317954","images/stimuli/spore_stims/complex_15_A_a.gif","images/stimuli/spore_stims/complex_16_A_b.gif","self_paced","","7","complex_dissimilar","images/stimuli/spore_stims/complex_15_A_a.gif","","","","",""
"","3357.335000007879","survey-multi-choice","102","484682","0.0-24.0","SS1618435657512","math_question","","","","","","","","","","","","{""Q0"":""2""}","[0]","2","",""
"","null","html-keyboard-response","103","485837","0.0-25.0-0.0","SS1618435657512","","","null","","","","","","<p><img src= images/blank.png width =""600"" height = ""600"" style=""position:fixed;top:50%; left:50%; transform: translate(-50%, -50%); border:5px solid black"">","","","","","","","",""
"","1416.945000004489","sequential-stimulus-presentation-old","104","492248","0.0-25.0-1.0","SS1618435657512","trial","","40","500","1916.945000004489","images/stimuli/spore_stims/simple_03_A_b.gif","images/stimuli/spore_stims/simple_02_A_a.gif","forced_long","","8","simple_dissimilar","images/stimuli/spore_stims/simple_02_A_a.gif","","","","",""
"","null","html-keyboard-response","105","493497","0.0-25.0-0.1","SS1618435657512","","","null","","","","","","<p><img src= images/blank.png width =""600"" height = ""600"" style=""position:fixed;top:50%; left:50%; transform: translate(-50%, -50%); border:5px solid black"">","","","","","","","",""
"","4513.08499998413","sequential-stimulus-presentation-old","106","498518","0.0-25.0-1.1","SS1618435657512","trial","","40","500","5013.08499998413","images/stimuli/spore_stims/simple_03_A_b.gif","images/stimuli/spore_stims/simple_02_A_a.gif","forced_long","","8","simple_dissimilar","images/stimuli/spore_stims/simple_03_A_b.gif","","","","",""
"","null","html-keyboard-response","107","499771","0.0-25.0-0.2","SS1618435657512","","","null","","","","","","<p><img src= images/blank.png width =""600"" height = ""600"" style=""position:fixed;top:50%; left:50%; transform: translate(-50%, -50%); border:5px solid black"">","","","","","","","",""
"","4290.764999983367","sequential-stimulus-presentation-old","108","504569","0.0-25.0-1.2","SS1618435657512","trial","","40","500","4790.764999983367","images/stimuli/spore_stims/simple_03_A_b.gif","images/stimuli/spore_stims/simple_02_A_a.gif","forced_long","","8","simple_dissimilar","images/stimuli/spore_stims/simple_02_A_a.gif","","","","",""
"","null","html-keyboard-response","109","505844","0.0-25.0-0.3","SS1618435657512","","","null","","","","","","<p><img src= images/blank.png width =""600"" height = ""600"" style=""position:fixed;top:50%; left:50%; transform: translate(-50%, -50%); border:5px solid black"">","","","","","","","",""
"","1319.6549999993294","sequential-stimulus-presentation-old","110","507672","0.0-25.0-1.3","SS1618435657512","trial","","40","500","1819.6549999993294","images/stimuli/spore_stims/simple_03_A_b.gif","images/stimuli/spore_stims/simple_02_A_a.gif","forced_long","","8","simple_dissimilar","images/stimuli/spore_stims/simple_03_A_b.gif","","","","",""
"","3955.305000010412","survey-multi-choice","111","511633","0.0-26.0","SS1618435657512","math_question","","","","","","","","","","","","{""Q0"":""9""}","[0]","9","",""
"","null","html-keyboard-response","112","512527","0.0-27.0-0.0","SS1618435657512","","","null","","","","","","<p><img src= images/blank.png width =""600"" height = ""600"" style=""position:fixed;top:50%; left:50%; transform: translate(-50%, -50%); border:5px solid black"">","","","","","","","",""
"","7711.204999999609","sequential-stimulus-presentation-old","113","525252","0.0-27.0-1.0","SS1618435657512","trial","","40","500","8211.204999999609","images/stimuli/spore_stims/complex_01_A_a.gif","images/stimuli/spore_stims/complex_06_A_b.gif","forced_long","","9","complex_dissimilar","images/stimuli/spore_stims/complex_06_A_b.gif","","","","",""
"","null","html-keyboard-response","114","526540","0.0-27.0-0.1","SS1618435657512","","","null","","","","","","<p><img src= images/blank.png width =""600"" height = ""600"" style=""position:fixed;top:50%; left:50%; transform: translate(-50%, -50%); border:5px solid black"">","","","","","","","",""
"","4181.0000000405125","sequential-stimulus-presentation-old","115","531228","0.0-27.0-1.1","SS1618435657512","trial","","40","500","4681.0000000405125","images/stimuli/spore_stims/complex_01_A_a.gif","images/stimuli/spore_stims/complex_06_A_b.gif","forced_long","","9","complex_dissimilar","images/stimuli/spore_stims/complex_01_A_a.gif","","","","",""
"","null","html-keyboard-response","116","532474","0.0-27.0-0.2","SS1618435657512","","","null","","","","","","<p><img src= images/blank.png width =""600"" height = ""600"" style=""position:fixed;top:50%; left:50%; transform: translate(-50%, -50%); border:5px solid black"">","","","","","","","",""
"","3161.074999952689","sequential-stimulus-presentation-old","117","536149","0.0-27.0-1.2","SS1618435657512","trial","","40","500","3661.074999952689","images/stimuli/spore_stims/complex_01_A_a.gif","images/stimuli/spore_stims/complex_06_A_b.gif","forced_long","","9","complex_dissimilar","images/stimuli/spore_stims/complex_01_A_a.gif","","","","",""
"","null","html-keyboard-response","118","537140","0.0-27.0-0.3","SS1618435657512","","","null","","","","","","<p><img src= images/blank.png width =""600"" height = ""600"" style=""position:fixed;top:50%; left:50%; transform: translate(-50%, -50%); border:5px solid black"">","","","","","","","",""
"","5311.690000002272","sequential-stimulus-presentation-old","119","542967","0.0-27.0-1.3","SS1618435657512","trial","","40","500","5811.690000002272","images/stimuli/spore_stims/complex_01_A_a.gif","images/stimuli/spore_stims/complex_06_A_b.gif","forced_long","","9","complex_dissimilar","images/stimuli/spore_stims/complex_06_A_b.gif","","","","",""
"","3826.7500000074506","survey-multi-choice","120","546799","0.0-28.0","SS1618435657512","math_question","","","","","","","","","","","","{""Q0"":""7""}","[0]","7","",""
"","null","html-keyboard-response","121","547888","0.0-29.0-0.0","SS1618435657512","","","null","","","","","","<p><img src= images/blank.png width =""600"" height = ""600"" style=""position:fixed;top:50%; left:50%; transform: translate(-50%, -50%); border:5px solid black"">","","","","","","","",""
"","5091.644999978598","sequential-stimulus-presentation-old","122","553503","0.0-29.0-1.0","SS1618435657512","trial","","40","500","5591.644999978598","images/stimuli/spore_stims/simple_11_A_a.gif","images/stimuli/spore_stims/simple_14_A_b.gif","self_paced","","10","simple_dissimilar","images/stimuli/spore_stims/simple_14_A_b.gif","","","","",""
"","null","html-keyboard-response","123","554612","0.0-29.0-0.1","SS1618435657512","","","null","","","","","","<p><img src= images/blank.png width =""600"" height = ""600"" style=""position:fixed;top:50%; left:50%; transform: translate(-50%, -50%); border:5px solid black"">","","","","","","","",""
"","4026.979999965988","sequential-stimulus-presentation-old","124","559151","0.0-29.0-1.1","SS1618435657512","trial","","40","500","4526.979999965988","images/stimuli/spore_stims/simple_11_A_a.gif","images/stimuli/spore_stims/simple_14_A_b.gif","self_paced","","10","simple_dissimilar","images/stimuli/spore_stims/simple_11_A_a.gif","","","","",""
"","null","html-keyboard-response","125","560021","0.0-29.0-0.2","SS1618435657512","","","null","","","","","","<p><img src= images/blank.png width =""600"" height = ""600"" style=""position:fixed;top:50%; left:50%; transform: translate(-50%, -50%); border:5px solid black"">","","","","","","","",""
"","3583.2500000251457","sequential-stimulus-presentation-old","126","564112","0.0-29.0-1.2","SS1618435657512","trial","","40","500","4083.2500000251457","images/stimuli/spore_stims/simple_11_A_a.gif","images/stimuli/spore_stims/simple_14_A_b.gif","self_paced","","10","simple_dissimilar","images/stimuli/spore_stims/simple_11_A_a.gif","","","","",""
"","null","html-keyboard-response","127","565294","0.0-29.0-0.3","SS1618435657512","","","null","","","","","","<p><img src= images/blank.png width =""600"" height = ""600"" style=""position:fixed;top:50%; left:50%; transform: translate(-50%, -50%); border:5px solid black"">","","","","","","","",""
"","2451.2550000217743","sequential-stimulus-presentation-old","128","568255","0.0-29.0-1.3","SS1618435657512","trial","","40","500","2951.2550000217743","images/stimuli/spore_stims/simple_11_A_a.gif","images/stimuli/spore_stims/simple_14_A_b.gif","self_paced","","10","simple_dissimilar","images/stimuli/spore_stims/simple_14_A_b.gif","","","","",""
"","null","html-keyboard-response","129","569206","0.0-29.0-0.4","SS1618435657512","","","null","","","","","","<p><img src= images/blank.png width =""600"" height = ""600"" style=""position:fixed;top:50%; left:50%; transform: translate(-50%, -50%); border:5px solid black"">","","","","","","","",""
"","2778.7200000020675","sequential-stimulus-presentation-old","130","572499","0.0-29.0-1.4","SS1618435657512","trial","","40","500","3278.7200000020675","images/stimuli/spore_stims/simple_11_A_a.gif","images/stimuli/spore_stims/simple_14_A_b.gif","self_paced","","10","simple_dissimilar","images/stimuli/spore_stims/simple_14_A_b.gif","","","","",""
"","3374.3549999780953","survey-multi-choice","131","575876","0.0-30.0","SS1618435657512","math_question","","","","","","","","","","","","{""Q0"":""10""}","[0]","10","",""
"","null","html-keyboard-response","132","577152","0.0-31.0-0.0","SS1618435657512","","","null","","","","","","<p><img src= images/blank.png width =""600"" height = ""600"" style=""position:fixed;top:50%; left:50%; transform: translate(-50%, -50%); border:5px solid black"">","","","","","","","",""
"","1225.594999967143","sequential-stimulus-presentation-old","133","583384","0.0-31.0-1.0","SS1618435657512","trial","","40","500","1725.594999967143","images/stimuli/spore_stims/complex_07_A_b.gif","images/stimuli/spore_stims/complex_03_A_a.gif","forced_long","","11","complex_dissimilar","images/stimuli/spore_stims/complex_03_A_a.gif","","","","",""
"","null","html-keyboard-response","134","584308","0.0-31.0-0.1","SS1618435657512","","","null","","","","","","<p><img src= images/blank.png width =""600"" height = ""600"" style=""position:fixed;top:50%; left:50%; transform: translate(-50%, -50%); border:5px solid black"">","","","","","","","",""
"","2235.6099999742582","sequential-stimulus-presentation-old","135","587059","0.0-31.0-1.1","SS1618435657512","trial","","40","500","2735.6099999742582","images/stimuli/spore_stims/complex_07_A_b.gif","images/stimuli/spore_stims/complex_03_A_a.gif","forced_long","","11","complex_dissimilar","images/stimuli/spore_stims/complex_03_A_a.gif","","","","",""
"","null","html-keyboard-response","136","588157","0.0-31.0-0.2","SS1618435657512","","","null","","","","","","<p><img src= images/blank.png width =""600"" height = ""600"" style=""position:fixed;top:50%; left:50%; transform: translate(-50%, -50%); border:5px solid black"">","","","","","","","",""
"","3198.214999982156","sequential-stimulus-presentation-old","137","591867","0.0-31.0-1.2","SS1618435657512","trial","","40","500","3698.214999982156","images/stimuli/spore_stims/complex_07_A_b.gif","images/stimuli/spore_stims/complex_03_A_a.gif","forced_long","","11","complex_dissimilar","images/stimuli/spore_stims/complex_03_A_a.gif","","","","",""
"","null","html-keyboard-response","138","593114","0.0-31.0-0.3","SS1618435657512","","","null","","","","","","<p><img src= images/blank.png width =""600"" height = ""600"" style=""position:fixed;top:50%; left:50%; transform: translate(-50%, -50%); border:5px solid black"">","","","","","","","",""
"","2167.6950000110082","sequential-stimulus-presentation-old","139","595791","0.0-31.0-1.3","SS1618435657512","trial","","40","500","2667.6950000110082","images/stimuli/spore_stims/complex_07_A_b.gif","images/stimuli/spore_stims/complex_03_A_a.gif","forced_long","","11","complex_dissimilar","images/stimuli/spore_stims/complex_03_A_a.gif","","","","",""
"","null","html-keyboard-response","140","596766","0.0-31.0-0.4","SS1618435657512","","","null","","","","","","<p><img src= images/blank.png width =""600"" height = ""600"" style=""position:fixed;top:50%; left:50%; transform: translate(-50%, -50%); border:5px solid black"">","","","","","","","",""
"","3150.034999998752","sequential-stimulus-presentation-old","141","600422","0.0-31.0-1.4","SS1618435657512","trial","","40","500","3650.034999998752","images/stimuli/spore_stims/complex_07_A_b.gif","images/stimuli/spore_stims/complex_03_A_a.gif","forced_long","","11","complex_dissimilar","images/stimuli/spore_stims/complex_07_A_b.gif","","","","",""
"[{""page_index"":0,""viewing_time"":6642.370000015944}]","6642.755000037141","instructions","142","607069","0.0-32.0","SS1618435657512","instructions","","","","","","","","","","","","","","","",""
"","11109.865000005811","survey-likert","143","618185","0.0-33.0","SS1618435657512","similarity_question","","","","","","","","","","","","{""Q0"":2}","[0]","","images/stimuli/spore_stims/simple_16_A_a.gif","images/stimuli/spore_stims/simple_18_A_b.gif"
"","7101.749999972526","survey-likert","144","625292","0.0-34.0","SS1618435657512","similarity_question","","","","","","","","","","","","{""Q0"":5}","[0]","","images/stimuli/spore_stims/complex_15_A_a.gif","images/stimuli/spore_stims/complex_16_A_b.gif"
"","7176.809999975376","survey-likert","145","632472","0.0-35.0","SS1618435657512","similarity_question","","","","","","","","","","","","{""Q0"":5}","[0]","","images/stimuli/spore_stims/complex_17_A_b.gif","images/stimuli/spore_stims/complex_06_A_a.gif"
"","5783.504999999423","survey-likert","146","638259","0.0-36.0","SS1618435657512","similarity_question","","","","","","","","","","","","{""Q0"":2}","[0]","","images/stimuli/spore_stims/simple_20_A_b.gif","images/stimuli/spore_stims/simple_19_A_a.gif"
"","6500.07499998901","survey-likert","147","644763","0.0-37.0","SS1618435657512","similarity_question","","","","","","","","","","","","{""Q0"":4}","[0]","","images/stimuli/spore_stims/complex_03_A_a.gif","images/stimuli/spore_stims/complex_07_A_b.gif"
"","9842.170000018086","survey-likert","148","654609","0.0-38.0","SS1618435657512","similarity_question","","","","","","","","","","","","{""Q0"":2}","[0]","","images/stimuli/spore_stims/complex_06_A_b.gif","images/stimuli/spore_stims/complex_01_A_a.gif"
"","8410.38000001572","survey-likert","149","663024","0.0-39.0","SS1618435657512","similarity_question","","","","","","","","","","","","{""Q0"":4}","[0]","","images/stimuli/spore_stims/simple_02_A_a.gif","images/stimuli/spore_stims/simple_03_A_b.gif"
"","6895.564999955241","survey-likert","150","669925","0.0-40.0","SS1618435657512","similarity_question","","","","","","","","","","","","{""Q0"":2}","[0]","","images/stimuli/spore_stims/simple_08_A_b.gif","images/stimuli/spore_stims/simple_09_A_a.gif"
"","8294.564999989234","survey-likert","151","678224","0.0-41.0","SS1618435657512","similarity_question","","","","","","","","","","","","{""Q0"":4}","[0]","","images/stimuli/spore_stims/complex_14_A_b.gif","images/stimuli/spore_stims/complex_07_A_a.gif"
"","7573.0449999682605","survey-likert","152","685804","0.0-42.0","SS1618435657512","similarity_question","","","","","","","","","","","","{""Q0"":1}","[0]","","images/stimuli/spore_stims/simple_16_A_b.gif","images/stimuli/spore_stims/simple_13_A_a.gif"
"","8979.434999986552","survey-likert","153","694790","0.0-43.0","SS1618435657512","similarity_question","","","","","","","","","","","","{""Q0"":1}","[0]","","images/stimuli/spore_stims/simple_11_A_a.gif","images/stimuli/spore_stims/simple_14_A_b.gif"
"","10161.560000036843","survey-likert","154","704959","0.0-44.0","SS1618435657512","similarity_question","","","","","","","","","","","","{""Q0"":2}","[0]","","images/stimuli/spore_stims/complex_11_A_b.gif","images/stimuli/spore_stims/complex_14_A_a.gif"
"[{""page_index"":0,""viewing_time"":7542.600000044331}]","7542.930000054184","instructions","155","712504","0.0-45.0","SS1618435657512","instructions","","","","","","","","","","","","","","","",""
"","10939.354999980424","survey-likert","156","723449","0.0-46.0","SS1618435657512","","","","","","","","","images/stimuli/spore_stims/complex_17_A_b.gif","","","","{""Q0"":4}","[0]","","",""
"","3809.3450000160374","survey-likert","157","727264","0.0-47.0","SS1618435657512","","","","","","","","","images/stimuli/spore_stims/complex_01_A_a.gif","","","","{""Q0"":4}","[0]","","",""
"","6581.9550000014715","survey-likert","158","733850","0.0-48.0","SS1618435657512","","","","","","","","","images/stimuli/spore_stims/simple_16_A_a.gif","","","","{""Q0"":0}","[0]","","",""
"","3907.9050000291318","survey-likert","159","737762","0.0-49.0","SS1618435657512","","","","","","","","","images/stimuli/spore_stims/simple_13_A_a.gif","","","","{""Q0"":0}","[0]","","",""
"","4932.504999975208","survey-likert","160","742700","0.0-50.0","SS1618435657512","","","","","","","","","images/stimuli/spore_stims/complex_07_A_a.gif","","","","{""Q0"":5}","[0]","","",""
"","4569.224999984726","survey-likert","161","747275","0.0-51.0","SS1618435657512","","","","","","","","","images/stimuli/spore_stims/simple_08_A_b.gif","","","","{""Q0"":1}","[0]","","",""
"","5282.485000032466","survey-likert","162","752563","0.0-52.0","SS1618435657512","","","","","","","","","images/stimuli/spore_stims/simple_14_A_b.gif","","","","{""Q0"":1}","[0]","","",""
"","7352.384999976493","survey-likert","163","759922","0.0-53.0","SS1618435657512","","","","","","","","","images/stimuli/spore_stims/complex_15_A_a.gif","","","","{""Q0"":6}","[0]","","",""
"","7882.619999989402","survey-likert","164","767812","0.0-54.0","SS1618435657512","","","","","","","","","images/stimuli/spore_stims/simple_02_A_a.gif","","","","{""Q0"":2}","[0]","","",""
"","7693.950000044424","survey-likert","165","775510","0.0-55.0","SS1618435657512","","","","","","","","","images/stimuli/spore_stims/complex_11_A_b.gif","","","","{""Q0"":5}","[0]","","",""
"","7245.250000036322","survey-likert","166","782760","0.0-56.0","SS1618435657512","","","","","","","","","images/stimuli/spore_stims/simple_19_A_a.gif","","","","{""Q0"":2}","[0]","","",""
"","4909.325000015087","survey-likert","167","787674","0.0-57.0","SS1618435657512","","","","","","","","","images/stimuli/spore_stims/complex_03_A_a.gif","","","","{""Q0"":6}","[0]","","",""
"[{""page_index"":0,""viewing_time"":3814.144999952987}]","3814.5999999833293","instructions","168","791493","0.0-58.0","SS1618435657512","instructions","","","","","","","","","","","","","","","",""
"","3901.5049999579787","demog-age","169","795400","0.0-59.0","SS1618435657512","","","","","","","","","","","","","{""age"":""21""}","","","",""
"","6472.01500000665","demog-ethnic-US","170","801878","0.0-60.0","SS1618435657512","","","","","","","","","","","","","{""ethnicity"":[""White""]}","[0]","","",""
"","44607.53500001738","demog-gender-and-education","171","846492","0.0-61.0","SS1618435657512","","","","","","","","","","","","","{""gender"":""Male"",""education"":""High school diploma""}","[0,1]","","",""
"","153737.5549999997","survey-text","172","1000237","0.0-62.0","SS1618435657512","feedback","","","","","","","","","","","","{""Q0"":""I have seen all the animations correctly. The test was a little bizarre but funny!""}","","","",""
"[{""page_index"":0,""viewing_time"":2489.5849999738857}]","2490.0899999774992","instructions","173","1002732","0.0-63.0","SS1618435657512","instructions","","","","","","","","","","","","","","","",""
