"view_history","rt","trial_type","trial_index","time_elapsed","internal_node_id","subject","stimulus_type","trial_stimulus","key_press","minimum_viewing_duration","trial_looking_time","block_deviant","block_background","exposure_type","stimulus","block_number","block_type","stimulus_displayed","responses","question_order","math_correct_answer","stimulus_left","stimulus_right"
"[{""page_index"":0,""viewing_time"":3433.839999954216}]","3434.4399999827147","instructions","0","3435","0.0-0.0","SS1618437658485","","","","","","","","","","","","","","","","",""
"[{""page_index"":0,""viewing_time"":19534.929999965243},{""page_index"":1,""viewing_time"":6990.035000024363}]","26525.200000032783","instructions","1","31962","0.0-1.0","SS1618437658485","instructions","","","","","","","","","","","","","","","",""
"","8594.50000000652","sequential-stimulus-presentation-old","2","41058","0.0-2.0","SS1618437658485","","","40","500","9094.50000000652","null","null","self_paced","","","","","","","","",""
"","6739.544999902137","sequential-stimulus-presentation-old","3","48300","0.0-3.0","SS1618437658485","","","40","500","7239.544999902137","null","null","self_paced","","","","","","","","",""
"[{""page_index"":0,""viewing_time"":60377.10000004154}]","60377.25000001956","instructions","4","108678","0.0-4.0","SS1618437658485","instructions","","","","","","","","","","","","","","","",""
"","1450.0349999871105","sequential-stimulus-presentation-old","5","115131","0.0-5.0","SS1618437658485","","","40","500","1950.0349999871105","null","null","forced_long","","","","","","","","",""
"","21172.44499991648","sequential-stimulus-presentation-old","6","136356","0.0-6.0","SS1618437658485","","","40","50","21222.44499991648","null","null","forced_long","","","","","","","","",""
"[{""page_index"":0,""viewing_time"":31709.83500010334}]","31709.980000043288","instructions","7","168067","0.0-7.0","SS1618437658485","instructions","","","","","","","","","","","","","","","",""
"[{""page_index"":0,""viewing_time"":166839.954999974},{""page_index"":1,""viewing_time"":437822.19999993686},{""page_index"":2,""viewing_time"":264015.78500005417},{""page_index"":3,""viewing_time"":24660.870000021532},{""page_index"":4,""viewing_time"":1002.0849999273196}]","894341.2549999775","instructions","8","1062409","0.0-8.0","SS1618437658485","instructions","","","","","","","","","","","","","","","",""
"","null","html-keyboard-response","9","1063662","0.0-9.0-0.0","SS1618437658485","","","null","","","","","","<p><img src= images/blank.png width =""600"" height = ""600"" style=""position:fixed;top:50%; left:50%; transform: translate(-50%, -50%); border:5px solid black"">","","","","","","","",""
"","5728.059999994002","sequential-stimulus-presentation-old","10","1069892","0.0-9.0-1.0","SS1618437658485","trial","","40","500","6228.059999994002","images/stimuli/spore_stims/simple_04_A_b.gif","images/stimuli/spore_stims/simple_08_A_a.gif","self_paced","","0","simple_dissimilar","images/stimuli/spore_stims/simple_08_A_a.gif","","","","",""
"","null","html-keyboard-response","11","1071055","0.0-9.0-0.1","SS1618437658485","","","null","","","","","","<p><img src= images/blank.png width =""600"" height = ""600"" style=""position:fixed;top:50%; left:50%; transform: translate(-50%, -50%); border:5px solid black"">","","","","","","","",""
"","5640.08499996271","sequential-stimulus-presentation-old","12","1077197","0.0-9.0-1.1","SS1618437658485","trial","","40","500","6140.08499996271","images/stimuli/spore_stims/simple_04_A_b.gif","images/stimuli/spore_stims/simple_08_A_a.gif","self_paced","","0","simple_dissimilar","images/stimuli/spore_stims/simple_08_A_a.gif","","","","",""
"","null","html-keyboard-response","13","1078483","0.0-9.0-0.2","SS1618437658485","","","null","","","","","","<p><img src= images/blank.png width =""600"" height = ""600"" style=""position:fixed;top:50%; left:50%; transform: translate(-50%, -50%); border:5px solid black"">","","","","","","","",""
"","8502.214999985881","sequential-stimulus-presentation-old","14","1087494","0.0-9.0-1.2","SS1618437658485","trial","","40","500","9002.214999985881","images/stimuli/spore_stims/simple_04_A_b.gif","images/stimuli/spore_stims/simple_08_A_a.gif","self_paced","","0","simple_dissimilar","images/stimuli/spore_stims/simple_08_A_a.gif","","","","",""
"","null","html-keyboard-response","15","1088456","0.0-9.0-0.3","SS1618437658485","","","null","","","","","","<p><img src= images/blank.png width =""600"" height = ""600"" style=""position:fixed;top:50%; left:50%; transform: translate(-50%, -50%); border:5px solid black"">","","","","","","","",""
"","4937.609999906272","sequential-stimulus-presentation-old","16","1093896","0.0-9.0-1.3","SS1618437658485","trial","","40","500","5437.609999906272","images/stimuli/spore_stims/simple_04_A_b.gif","images/stimuli/spore_stims/simple_08_A_a.gif","self_paced","","0","simple_dissimilar","images/stimuli/spore_stims/simple_04_A_b.gif","","","","",""
"","null","html-keyboard-response","17","1094982","0.0-9.0-0.4","SS1618437658485","","","null","","","","","","<p><img src= images/blank.png width =""600"" height = ""600"" style=""position:fixed;top:50%; left:50%; transform: translate(-50%, -50%); border:5px solid black"">","","","","","","","",""
"","2076.2099999701604","sequential-stimulus-presentation-old","18","1097561","0.0-9.0-1.4","SS1618437658485","trial","","40","500","2576.2099999701604","images/stimuli/spore_stims/simple_04_A_b.gif","images/stimuli/spore_stims/simple_08_A_a.gif","self_paced","","0","simple_dissimilar","images/stimuli/spore_stims/simple_08_A_a.gif","","","","",""
"","null","html-keyboard-response","19","1098639","0.0-9.0-0.5","SS1618437658485","","","null","","","","","","<p><img src= images/blank.png width =""600"" height = ""600"" style=""position:fixed;top:50%; left:50%; transform: translate(-50%, -50%); border:5px solid black"">","","","","","","","",""
"","6927.269999985583","sequential-stimulus-presentation-old","20","1106068","0.0-9.0-1.5","SS1618437658485","trial","","40","500","7427.269999985583","images/stimuli/spore_stims/simple_04_A_b.gif","images/stimuli/spore_stims/simple_08_A_a.gif","self_paced","","0","simple_dissimilar","images/stimuli/spore_stims/simple_04_A_b.gif","","","","",""
"","2555.3499999223277","survey-multi-choice","21","1108626","0.0-10.0","SS1618437658485","math_question","","","","","","","","","","","","{""Q0"":""5""}","[0]","5","",""
"","null","html-keyboard-response","22","1109826","0.0-11.0-0.0","SS1618437658485","","","null","","","","","","<p><img src= images/blank.png width =""600"" height = ""600"" style=""position:fixed;top:50%; left:50%; transform: translate(-50%, -50%); border:5px solid black"">","","","","","","","",""
"","1331.7250000545755","sequential-stimulus-presentation-old","23","1116174","0.0-11.0-1.0","SS1618437658485","trial","","40","500","1831.7250000545755","images/stimuli/spore_stims/complex_07_A_a.gif","images/stimuli/spore_stims/complex_15_A_b.gif","forced_long","","1","complex_dissimilar","images/stimuli/spore_stims/complex_15_A_b.gif","","","","",""
"","null","html-keyboard-response","24","1117314","0.0-11.0-0.1","SS1618437658485","","","null","","","","","","<p><img src= images/blank.png width =""600"" height = ""600"" style=""position:fixed;top:50%; left:50%; transform: translate(-50%, -50%); border:5px solid black"">","","","","","","","",""
"","6871.129999984987","sequential-stimulus-presentation-old","25","1124688","0.0-11.0-1.1","SS1618437658485","trial","","40","500","7371.129999984987","images/stimuli/spore_stims/complex_07_A_a.gif","images/stimuli/spore_stims/complex_15_A_b.gif","forced_long","","1","complex_dissimilar","images/stimuli/spore_stims/complex_07_A_a.gif","","","","",""
"","null","html-keyboard-response","26","1125745","0.0-11.0-0.2","SS1618437658485","","","null","","","","","","<p><img src= images/blank.png width =""600"" height = ""600"" style=""position:fixed;top:50%; left:50%; transform: translate(-50%, -50%); border:5px solid black"">","","","","","","","",""
"","6008.589999983087","sequential-stimulus-presentation-old","27","1132269","0.0-11.0-1.2","SS1618437658485","trial","","40","500","6508.589999983087","images/stimuli/spore_stims/complex_07_A_a.gif","images/stimuli/spore_stims/complex_15_A_b.gif","forced_long","","1","complex_dissimilar","images/stimuli/spore_stims/complex_15_A_b.gif","","","","",""
"","null","html-keyboard-response","28","1133424","0.0-11.0-0.3","SS1618437658485","","","null","","","","","","<p><img src= images/blank.png width =""600"" height = ""600"" style=""position:fixed;top:50%; left:50%; transform: translate(-50%, -50%); border:5px solid black"">","","","","","","","",""
"","2708.3850000053644","sequential-stimulus-presentation-old","29","1136638","0.0-11.0-1.3","SS1618437658485","trial","","40","500","3208.3850000053644","images/stimuli/spore_stims/complex_07_A_a.gif","images/stimuli/spore_stims/complex_15_A_b.gif","forced_long","","1","complex_dissimilar","images/stimuli/spore_stims/complex_15_A_b.gif","","","","",""
"","null","html-keyboard-response","30","1137530","0.0-11.0-0.4","SS1618437658485","","","null","","","","","","<p><img src= images/blank.png width =""600"" height = ""600"" style=""position:fixed;top:50%; left:50%; transform: translate(-50%, -50%); border:5px solid black"">","","","","","","","",""
"","4661.190000013448","sequential-stimulus-presentation-old","31","1142693","0.0-11.0-1.4","SS1618437658485","trial","","40","500","5161.190000013448","images/stimuli/spore_stims/complex_07_A_a.gif","images/stimuli/spore_stims/complex_15_A_b.gif","forced_long","","1","complex_dissimilar","images/stimuli/spore_stims/complex_15_A_b.gif","","","","",""
"","3484.7300000255927","survey-multi-choice","32","1146179","0.0-12.0","SS1618437658485","math_question","","","","","","","","","","","","{""Q0"":""11""}","[0]","11","",""
"","null","html-keyboard-response","33","1147282","0.0-13.0-0.0","SS1618437658485","","","null","","","","","","<p><img src= images/blank.png width =""600"" height = ""600"" style=""position:fixed;top:50%; left:50%; transform: translate(-50%, -50%); border:5px solid black"">","","","","","","","",""
"","2605.5100000230595","sequential-stimulus-presentation-old","34","1154891","0.0-13.0-1.0","SS1618437658485","trial","","40","500","3105.5100000230595","images/stimuli/spore_stims/simple_02_A_b.gif","images/stimuli/spore_stims/simple_10_A_a.gif","forced_long","","2","simple_dissimilar","images/stimuli/spore_stims/simple_10_A_a.gif","","","","",""
"","null","html-keyboard-response","35","1155721","0.0-13.0-0.1","SS1618437658485","","","null","","","","","","<p><img src= images/blank.png width =""600"" height = ""600"" style=""position:fixed;top:50%; left:50%; transform: translate(-50%, -50%); border:5px solid black"">","","","","","","","",""
"","4883.3700000541285","sequential-stimulus-presentation-old","36","1161107","0.0-13.0-1.1","SS1618437658485","trial","","40","500","5383.3700000541285","images/stimuli/spore_stims/simple_02_A_b.gif","images/stimuli/spore_stims/simple_10_A_a.gif","forced_long","","2","simple_dissimilar","images/stimuli/spore_stims/simple_10_A_a.gif","","","","",""
"","null","html-keyboard-response","37","1162071","0.0-13.0-0.2","SS1618437658485","","","null","","","","","","<p><img src= images/blank.png width =""600"" height = ""600"" style=""position:fixed;top:50%; left:50%; transform: translate(-50%, -50%); border:5px solid black"">","","","","","","","",""
"","8190.324999974109","sequential-stimulus-presentation-old","38","1170765","0.0-13.0-1.2","SS1618437658485","trial","","40","500","8690.32499997411","images/stimuli/spore_stims/simple_02_A_b.gif","images/stimuli/spore_stims/simple_10_A_a.gif","forced_long","","2","simple_dissimilar","images/stimuli/spore_stims/simple_10_A_a.gif","","","","",""
"","null","html-keyboard-response","39","1171580","0.0-13.0-0.3","SS1618437658485","","","null","","","","","","<p><img src= images/blank.png width =""600"" height = ""600"" style=""position:fixed;top:50%; left:50%; transform: translate(-50%, -50%); border:5px solid black"">","","","","","","","",""
"","5178.19500004407","sequential-stimulus-presentation-old","40","1177260","0.0-13.0-1.3","SS1618437658485","trial","","40","500","5678.19500004407","images/stimuli/spore_stims/simple_02_A_b.gif","images/stimuli/spore_stims/simple_10_A_a.gif","forced_long","","2","simple_dissimilar","images/stimuli/spore_stims/simple_10_A_a.gif","","","","",""
"","null","html-keyboard-response","41","1178469","0.0-13.0-0.4","SS1618437658485","","","null","","","","","","<p><img src= images/blank.png width =""600"" height = ""600"" style=""position:fixed;top:50%; left:50%; transform: translate(-50%, -50%); border:5px solid black"">","","","","","","","",""
"","1496.5599999995902","sequential-stimulus-presentation-old","42","1180468","0.0-13.0-1.4","SS1618437658485","trial","","40","500","1996.5599999995902","images/stimuli/spore_stims/simple_02_A_b.gif","images/stimuli/spore_stims/simple_10_A_a.gif","forced_long","","2","simple_dissimilar","images/stimuli/spore_stims/simple_10_A_a.gif","","","","",""
"","null","html-keyboard-response","43","1181665","0.0-13.0-0.5","SS1618437658485","","","null","","","","","","<p><img src= images/blank.png width =""600"" height = ""600"" style=""position:fixed;top:50%; left:50%; transform: translate(-50%, -50%); border:5px solid black"">","","","","","","","",""
"","2891.620000009425","sequential-stimulus-presentation-old","44","1185059","0.0-13.0-1.5","SS1618437658485","trial","","40","500","3391.620000009425","images/stimuli/spore_stims/simple_02_A_b.gif","images/stimuli/spore_stims/simple_10_A_a.gif","forced_long","","2","simple_dissimilar","images/stimuli/spore_stims/simple_02_A_b.gif","","","","",""
"","4406.115000019781","survey-multi-choice","45","1189466","0.0-14.0","SS1618437658485","math_question","","","","","","","","","","","","{""Q0"":""14""}","[0]","14","",""
"","null","html-keyboard-response","46","1190424","0.0-15.0-0.0","SS1618437658485","","","null","","","","","","<p><img src= images/blank.png width =""600"" height = ""600"" style=""position:fixed;top:50%; left:50%; transform: translate(-50%, -50%); border:5px solid black"">","","","","","","","",""
"","1790.720000048168","sequential-stimulus-presentation-old","47","1192269","0.0-15.0-1.0","SS1618437658485","trial","","40","500","2290.720000048168","images/stimuli/spore_stims/complex_15_A_a.gif","images/stimuli/spore_stims/complex_12_A_b.gif","forced_short","","3","complex_dissimilar","images/stimuli/spore_stims/complex_12_A_b.gif","","","","",""
"","null","html-keyboard-response","48","1193192","0.0-15.0-0.1","SS1618437658485","","","null","","","","","","<p><img src= images/blank.png width =""600"" height = ""600"" style=""position:fixed;top:50%; left:50%; transform: translate(-50%, -50%); border:5px solid black"">","","","","","","","",""
"","3231.6299999365583","sequential-stimulus-presentation-old","49","1196933","0.0-15.0-1.1","SS1618437658485","trial","","40","500","3731.6299999365583","images/stimuli/spore_stims/complex_15_A_a.gif","images/stimuli/spore_stims/complex_12_A_b.gif","forced_short","","3","complex_dissimilar","images/stimuli/spore_stims/complex_12_A_b.gif","","","","",""
"","null","html-keyboard-response","50","1197882","0.0-15.0-0.2","SS1618437658485","","","null","","","","","","<p><img src= images/blank.png width =""600"" height = ""600"" style=""position:fixed;top:50%; left:50%; transform: translate(-50%, -50%); border:5px solid black"">","","","","","","","",""
"","3909.2749999836087","sequential-stimulus-presentation-old","51","1202293","0.0-15.0-1.2","SS1618437658485","trial","","40","500","4409.274999983609","images/stimuli/spore_stims/complex_15_A_a.gif","images/stimuli/spore_stims/complex_12_A_b.gif","forced_short","","3","complex_dissimilar","images/stimuli/spore_stims/complex_12_A_b.gif","","","","",""
"","null","html-keyboard-response","52","1203464","0.0-15.0-0.3","SS1618437658485","","","null","","","","","","<p><img src= images/blank.png width =""600"" height = ""600"" style=""position:fixed;top:50%; left:50%; transform: translate(-50%, -50%); border:5px solid black"">","","","","","","","",""
"","1259.775000042282","sequential-stimulus-presentation-old","53","1205235","0.0-15.0-1.3","SS1618437658485","trial","","40","500","1759.775000042282","images/stimuli/spore_stims/complex_15_A_a.gif","images/stimuli/spore_stims/complex_12_A_b.gif","forced_short","","3","complex_dissimilar","images/stimuli/spore_stims/complex_12_A_b.gif","","","","",""
"","3712.5350000569597","survey-multi-choice","54","1208950","0.0-16.0","SS1618437658485","math_question","","","","","","","","","","","","{""Q0"":""15""}","[0]","15","",""
"","null","html-keyboard-response","55","1210067","0.0-17.0-0.0","SS1618437658485","","","null","","","","","","<p><img src= images/blank.png width =""600"" height = ""600"" style=""position:fixed;top:50%; left:50%; transform: translate(-50%, -50%); border:5px solid black"">","","","","","","","",""
"","4364.635000005364","sequential-stimulus-presentation-old","56","1214934","0.0-17.0-1.0","SS1618437658485","trial","","40","500","4864.635000005364","images/stimuli/spore_stims/complex_07_A_b.gif","images/stimuli/spore_stims/complex_16_A_a.gif","self_paced","","4","complex_dissimilar","images/stimuli/spore_stims/complex_16_A_a.gif","","","","",""
"","null","html-keyboard-response","57","1215946","0.0-17.0-0.1","SS1618437658485","","","null","","","","","","<p><img src= images/blank.png width =""600"" height = ""600"" style=""position:fixed;top:50%; left:50%; transform: translate(-50%, -50%); border:5px solid black"">","","","","","","","",""
"","1396.779999951832","sequential-stimulus-presentation-old","58","1217848","0.0-17.0-1.1","SS1618437658485","trial","","40","500","1896.779999951832","images/stimuli/spore_stims/complex_07_A_b.gif","images/stimuli/spore_stims/complex_16_A_a.gif","self_paced","","4","complex_dissimilar","images/stimuli/spore_stims/complex_16_A_a.gif","","","","",""
"","null","html-keyboard-response","59","1219015","0.0-17.0-0.2","SS1618437658485","","","null","","","","","","<p><img src= images/blank.png width =""600"" height = ""600"" style=""position:fixed;top:50%; left:50%; transform: translate(-50%, -50%); border:5px solid black"">","","","","","","","",""
"","3334.870000020601","sequential-stimulus-presentation-old","60","1222857","0.0-17.0-1.2","SS1618437658485","trial","","40","500","3834.870000020601","images/stimuli/spore_stims/complex_07_A_b.gif","images/stimuli/spore_stims/complex_16_A_a.gif","self_paced","","4","complex_dissimilar","images/stimuli/spore_stims/complex_16_A_a.gif","","","","",""
"","null","html-keyboard-response","61","1224131","0.0-17.0-0.3","SS1618437658485","","","null","","","","","","<p><img src= images/blank.png width =""600"" height = ""600"" style=""position:fixed;top:50%; left:50%; transform: translate(-50%, -50%); border:5px solid black"">","","","","","","","",""
"","1702.2649999707937","sequential-stimulus-presentation-old","62","1226336","0.0-17.0-1.3","SS1618437658485","trial","","40","500","2202.2649999707937","images/stimuli/spore_stims/complex_07_A_b.gif","images/stimuli/spore_stims/complex_16_A_a.gif","self_paced","","4","complex_dissimilar","images/stimuli/spore_stims/complex_16_A_a.gif","","","","",""
"","null","html-keyboard-response","63","1227300","0.0-17.0-0.4","SS1618437658485","","","null","","","","","","<p><img src= images/blank.png width =""600"" height = ""600"" style=""position:fixed;top:50%; left:50%; transform: translate(-50%, -50%); border:5px solid black"">","","","","","","","",""
"","3569.1850000293925","sequential-stimulus-presentation-old","64","1231371","0.0-17.0-1.4","SS1618437658485","trial","","40","500","4069.1850000293925","images/stimuli/spore_stims/complex_07_A_b.gif","images/stimuli/spore_stims/complex_16_A_a.gif","self_paced","","4","complex_dissimilar","images/stimuli/spore_stims/complex_16_A_a.gif","","","","",""
"","null","html-keyboard-response","65","1232595","0.0-17.0-0.5","SS1618437658485","","","null","","","","","","<p><img src= images/blank.png width =""600"" height = ""600"" style=""position:fixed;top:50%; left:50%; transform: translate(-50%, -50%); border:5px solid black"">","","","","","","","",""
"","1524.3899999186397","sequential-stimulus-presentation-old","66","1234623","0.0-17.0-1.5","SS1618437658485","trial","","40","500","2024.3899999186397","images/stimuli/spore_stims/complex_07_A_b.gif","images/stimuli/spore_stims/complex_16_A_a.gif","self_paced","","4","complex_dissimilar","images/stimuli/spore_stims/complex_07_A_b.gif","","","","",""
"","4568.884999956936","survey-multi-choice","67","1239193","0.0-18.0","SS1618437658485","math_question","","","","","","","","","","","","{""Q0"":""15""}","[0]","15","",""
"","null","html-keyboard-response","68","1240029","0.0-19.0-0.0","SS1618437658485","","","null","","","","","","<p><img src= images/blank.png width =""600"" height = ""600"" style=""position:fixed;top:50%; left:50%; transform: translate(-50%, -50%); border:5px solid black"">","","","","","","","",""
"","10144.459999981336","sequential-stimulus-presentation-old","69","1250679","0.0-19.0-1.0","SS1618437658485","trial","","40","500","10644.459999981336","images/stimuli/spore_stims/complex_13_A_a.gif","images/stimuli/spore_stims/complex_20_A_b.gif","self_paced","","5","complex_dissimilar","images/stimuli/spore_stims/complex_20_A_b.gif","","","","",""
"","null","html-keyboard-response","70","1251580","0.0-19.0-0.1","SS1618437658485","","","null","","","","","","<p><img src= images/blank.png width =""600"" height = ""600"" style=""position:fixed;top:50%; left:50%; transform: translate(-50%, -50%); border:5px solid black"">","","","","","","","",""
"","1461.6399999940768","sequential-stimulus-presentation-old","71","1253545","0.0-19.0-1.1","SS1618437658485","trial","","40","500","1961.6399999940768","images/stimuli/spore_stims/complex_13_A_a.gif","images/stimuli/spore_stims/complex_20_A_b.gif","self_paced","","5","complex_dissimilar","images/stimuli/spore_stims/complex_20_A_b.gif","","","","",""
"","null","html-keyboard-response","72","1254672","0.0-19.0-0.2","SS1618437658485","","","null","","","","","","<p><img src= images/blank.png width =""600"" height = ""600"" style=""position:fixed;top:50%; left:50%; transform: translate(-50%, -50%); border:5px solid black"">","","","","","","","",""
"","2397.1049999818206","sequential-stimulus-presentation-old","73","1257572","0.0-19.0-1.2","SS1618437658485","trial","","40","500","2897.1049999818206","images/stimuli/spore_stims/complex_13_A_a.gif","images/stimuli/spore_stims/complex_20_A_b.gif","self_paced","","5","complex_dissimilar","images/stimuli/spore_stims/complex_20_A_b.gif","","","","",""
"","null","html-keyboard-response","74","1258853","0.0-19.0-0.3","SS1618437658485","","","null","","","","","","<p><img src= images/blank.png width =""600"" height = ""600"" style=""position:fixed;top:50%; left:50%; transform: translate(-50%, -50%); border:5px solid black"">","","","","","","","",""
"","1795.505000045523","sequential-stimulus-presentation-old","75","1261152","0.0-19.0-1.3","SS1618437658485","trial","","40","500","2295.505000045523","images/stimuli/spore_stims/complex_13_A_a.gif","images/stimuli/spore_stims/complex_20_A_b.gif","self_paced","","5","complex_dissimilar","images/stimuli/spore_stims/complex_20_A_b.gif","","","","",""
"","null","html-keyboard-response","76","1262124","0.0-19.0-0.4","SS1618437658485","","","null","","","","","","<p><img src= images/blank.png width =""600"" height = ""600"" style=""position:fixed;top:50%; left:50%; transform: translate(-50%, -50%); border:5px solid black"">","","","","","","","",""
"","2529.545000055805","sequential-stimulus-presentation-old","77","1265158","0.0-19.0-1.4","SS1618437658485","trial","","40","500","3029.545000055805","images/stimuli/spore_stims/complex_13_A_a.gif","images/stimuli/spore_stims/complex_20_A_b.gif","self_paced","","5","complex_dissimilar","images/stimuli/spore_stims/complex_20_A_b.gif","","","","",""
"","null","html-keyboard-response","78","1266156","0.0-19.0-0.5","SS1618437658485","","","null","","","","","","<p><img src= images/blank.png width =""600"" height = ""600"" style=""position:fixed;top:50%; left:50%; transform: translate(-50%, -50%); border:5px solid black"">","","","","","","","",""
"","3815.7549999887124","sequential-stimulus-presentation-old","79","1270474","0.0-19.0-1.5","SS1618437658485","trial","","40","500","4315.754999988712","images/stimuli/spore_stims/complex_13_A_a.gif","images/stimuli/spore_stims/complex_20_A_b.gif","self_paced","","5","complex_dissimilar","images/stimuli/spore_stims/complex_20_A_b.gif","","","","",""
"","2895.3199998941272","survey-multi-choice","80","1273373","0.0-20.0","SS1618437658485","math_question","","","","","","","","","","","","{""Q0"":""14""}","[0]","14","",""
"","null","html-keyboard-response","81","1274361","0.0-21.0-0.0","SS1618437658485","","","null","","","","","","<p><img src= images/blank.png width =""600"" height = ""600"" style=""position:fixed;top:50%; left:50%; transform: translate(-50%, -50%); border:5px solid black"">","","","","","","","",""
"","365.68499996792525","sequential-stimulus-presentation-old","82","1279730","0.0-21.0-1.0","SS1618437658485","trial","","40","500","865.6849999679253","images/stimuli/spore_stims/complex_08_A_b.gif","images/stimuli/spore_stims/complex_12_A_a.gif","forced_long","","6","complex_dissimilar","images/stimuli/spore_stims/complex_12_A_a.gif","","","","",""
"","null","html-keyboard-response","83","1281006","0.0-21.0-0.1","SS1618437658485","","","null","","","","","","<p><img src= images/blank.png width =""600"" height = ""600"" style=""position:fixed;top:50%; left:50%; transform: translate(-50%, -50%); border:5px solid black"">","","","","","","","",""
"","3611.8149999529123","sequential-stimulus-presentation-old","84","1285122","0.0-21.0-1.1","SS1618437658485","trial","","40","500","4111.814999952912","images/stimuli/spore_stims/complex_08_A_b.gif","images/stimuli/spore_stims/complex_12_A_a.gif","forced_long","","6","complex_dissimilar","images/stimuli/spore_stims/complex_12_A_a.gif","","","","",""
"","null","html-keyboard-response","85","1286302","0.0-21.0-0.2","SS1618437658485","","","null","","","","","","<p><img src= images/blank.png width =""600"" height = ""600"" style=""position:fixed;top:50%; left:50%; transform: translate(-50%, -50%); border:5px solid black"">","","","","","","","",""
"","3942.509999964386","sequential-stimulus-presentation-old","86","1290747","0.0-21.0-1.2","SS1618437658485","trial","","40","500","4442.509999964386","images/stimuli/spore_stims/complex_08_A_b.gif","images/stimuli/spore_stims/complex_12_A_a.gif","forced_long","","6","complex_dissimilar","images/stimuli/spore_stims/complex_08_A_b.gif","","","","",""
"","null","html-keyboard-response","87","1291674","0.0-21.0-0.3","SS1618437658485","","","null","","","","","","<p><img src= images/blank.png width =""600"" height = ""600"" style=""position:fixed;top:50%; left:50%; transform: translate(-50%, -50%); border:5px solid black"">","","","","","","","",""
"","1324.8000000603497","sequential-stimulus-presentation-old","88","1293507","0.0-21.0-1.3","SS1618437658485","trial","","40","500","1824.8000000603497","images/stimuli/spore_stims/complex_08_A_b.gif","images/stimuli/spore_stims/complex_12_A_a.gif","forced_long","","6","complex_dissimilar","images/stimuli/spore_stims/complex_12_A_a.gif","","","","",""
"","null","html-keyboard-response","89","1294489","0.0-21.0-0.4","SS1618437658485","","","null","","","","","","<p><img src= images/blank.png width =""600"" height = ""600"" style=""position:fixed;top:50%; left:50%; transform: translate(-50%, -50%); border:5px solid black"">","","","","","","","",""
"","1949.0350000560284","sequential-stimulus-presentation-old","90","1296941","0.0-21.0-1.4","SS1618437658485","trial","","40","500","2449.0350000560284","images/stimuli/spore_stims/complex_08_A_b.gif","images/stimuli/spore_stims/complex_12_A_a.gif","forced_long","","6","complex_dissimilar","images/stimuli/spore_stims/complex_12_A_a.gif","","","","",""
"","2602.5249999947846","survey-multi-choice","91","1299545","0.0-22.0","SS1618437658485","math_question","","","","","","","","","","","","{""Q0"":""4""}","[0]","4","",""
"","null","html-keyboard-response","92","1300662","0.0-23.0-0.0","SS1618437658485","","","null","","","","","","<p><img src= images/blank.png width =""600"" height = ""600"" style=""position:fixed;top:50%; left:50%; transform: translate(-50%, -50%); border:5px solid black"">","","","","","","","",""
"","2883.090000017546","sequential-stimulus-presentation-old","93","1304049","0.0-23.0-1.0","SS1618437658485","trial","","40","500","3383.090000017546","images/stimuli/spore_stims/simple_02_A_a.gif","images/stimuli/spore_stims/simple_13_A_b.gif","self_paced","","7","simple_dissimilar","images/stimuli/spore_stims/simple_13_A_b.gif","","","","",""
"","null","html-keyboard-response","94","1305174","0.0-23.0-0.1","SS1618437658485","","","null","","","","","","<p><img src= images/blank.png width =""600"" height = ""600"" style=""position:fixed;top:50%; left:50%; transform: translate(-50%, -50%); border:5px solid black"">","","","","","","","",""
"","2512.7400000346825","sequential-stimulus-presentation-old","95","1308189","0.0-23.0-1.1","SS1618437658485","trial","","40","500","3012.7400000346825","images/stimuli/spore_stims/simple_02_A_a.gif","images/stimuli/spore_stims/simple_13_A_b.gif","self_paced","","7","simple_dissimilar","images/stimuli/spore_stims/simple_13_A_b.gif","","","","",""
"","null","html-keyboard-response","96","1309150","0.0-23.0-0.2","SS1618437658485","","","null","","","","","","<p><img src= images/blank.png width =""600"" height = ""600"" style=""position:fixed;top:50%; left:50%; transform: translate(-50%, -50%); border:5px solid black"">","","","","","","","",""
"","1812.6550000160933","sequential-stimulus-presentation-old","97","1311473","0.0-23.0-1.2","SS1618437658485","trial","","40","500","2312.6550000160933","images/stimuli/spore_stims/simple_02_A_a.gif","images/stimuli/spore_stims/simple_13_A_b.gif","self_paced","","7","simple_dissimilar","images/stimuli/spore_stims/simple_13_A_b.gif","","","","",""
"","null","html-keyboard-response","98","1312588","0.0-23.0-0.3","SS1618437658485","","","null","","","","","","<p><img src= images/blank.png width =""600"" height = ""600"" style=""position:fixed;top:50%; left:50%; transform: translate(-50%, -50%); border:5px solid black"">","","","","","","","",""
"","2556.9499999983236","sequential-stimulus-presentation-old","99","1315648","0.0-23.0-1.3","SS1618437658485","trial","","40","500","3056.9499999983236","images/stimuli/spore_stims/simple_02_A_a.gif","images/stimuli/spore_stims/simple_13_A_b.gif","self_paced","","7","simple_dissimilar","images/stimuli/spore_stims/simple_13_A_b.gif","","","","",""
"","null","html-keyboard-response","100","1316926","0.0-23.0-0.4","SS1618437658485","","","null","","","","","","<p><img src= images/blank.png width =""600"" height = ""600"" style=""position:fixed;top:50%; left:50%; transform: translate(-50%, -50%); border:5px solid black"">","","","","","","","",""
"","2400.3500000108033","sequential-stimulus-presentation-old","101","1319831","0.0-23.0-1.4","SS1618437658485","trial","","40","500","2900.3500000108033","images/stimuli/spore_stims/simple_02_A_a.gif","images/stimuli/spore_stims/simple_13_A_b.gif","self_paced","","7","simple_dissimilar","images/stimuli/spore_stims/simple_02_A_a.gif","","","","",""
"","3450.249999994412","survey-multi-choice","102","1323283","0.0-24.0","SS1618437658485","math_question","","","","","","","","","","","","{""Q0"":""11""}","[0]","11","",""
"","null","html-keyboard-response","103","1324460","0.0-25.0-0.0","SS1618437658485","","","null","","","","","","<p><img src= images/blank.png width =""600"" height = ""600"" style=""position:fixed;top:50%; left:50%; transform: translate(-50%, -50%); border:5px solid black"">","","","","","","","",""
"","329.6150000533089","sequential-stimulus-presentation-old","104","1329795","0.0-25.0-1.0","SS1618437658485","trial","","40","500","829.6150000533089","images/stimuli/spore_stims/simple_19_A_b.gif","images/stimuli/spore_stims/simple_13_A_a.gif","forced_long","","8","simple_dissimilar","images/stimuli/spore_stims/simple_13_A_a.gif","","","","",""
"","null","html-keyboard-response","105","1330685","0.0-25.0-0.1","SS1618437658485","","","null","","","","","","<p><img src= images/blank.png width =""600"" height = ""600"" style=""position:fixed;top:50%; left:50%; transform: translate(-50%, -50%); border:5px solid black"">","","","","","","","",""
"","28139.10999998916","sequential-stimulus-presentation-old","106","1359328","0.0-25.0-1.1","SS1618437658485","trial","","40","500","28639.10999998916","images/stimuli/spore_stims/simple_19_A_b.gif","images/stimuli/spore_stims/simple_13_A_a.gif","forced_long","","8","simple_dissimilar","images/stimuli/spore_stims/simple_13_A_a.gif","","","","",""
"","null","html-keyboard-response","107","1360170","0.0-25.0-0.2","SS1618437658485","","","null","","","","","","<p><img src= images/blank.png width =""600"" height = ""600"" style=""position:fixed;top:50%; left:50%; transform: translate(-50%, -50%); border:5px solid black"">","","","","","","","",""
"","3732.964999973774","sequential-stimulus-presentation-old","108","1364408","0.0-25.0-1.2","SS1618437658485","trial","","40","500","4232.964999973774","images/stimuli/spore_stims/simple_19_A_b.gif","images/stimuli/spore_stims/simple_13_A_a.gif","forced_long","","8","simple_dissimilar","images/stimuli/spore_stims/simple_19_A_b.gif","","","","",""
"","null","html-keyboard-response","109","1365557","0.0-25.0-0.3","SS1618437658485","","","null","","","","","","<p><img src= images/blank.png width =""600"" height = ""600"" style=""position:fixed;top:50%; left:50%; transform: translate(-50%, -50%); border:5px solid black"">","","","","","","","",""
"","1615.1049999753013","sequential-stimulus-presentation-old","110","1367674","0.0-25.0-1.3","SS1618437658485","trial","","40","500","2115.1049999753013","images/stimuli/spore_stims/simple_19_A_b.gif","images/stimuli/spore_stims/simple_13_A_a.gif","forced_long","","8","simple_dissimilar","images/stimuli/spore_stims/simple_19_A_b.gif","","","","",""
"","null","html-keyboard-response","111","1368748","0.0-25.0-0.4","SS1618437658485","","","null","","","","","","<p><img src= images/blank.png width =""600"" height = ""600"" style=""position:fixed;top:50%; left:50%; transform: translate(-50%, -50%); border:5px solid black"">","","","","","","","",""
"","1324.2600000230595","sequential-stimulus-presentation-old","112","1370583","0.0-25.0-1.4","SS1618437658485","trial","","40","500","1824.2600000230595","images/stimuli/spore_stims/simple_19_A_b.gif","images/stimuli/spore_stims/simple_13_A_a.gif","forced_long","","8","simple_dissimilar","images/stimuli/spore_stims/simple_13_A_a.gif","","","","",""
"","3337.734999950044","survey-multi-choice","113","1373923","0.0-26.0","SS1618437658485","math_question","","","","","","","","","","","","{""Q0"":""14""}","[0]","14","",""
"","null","html-keyboard-response","114","1374853","0.0-27.0-0.0","SS1618437658485","","","null","","","","","","<p><img src= images/blank.png width =""600"" height = ""600"" style=""position:fixed;top:50%; left:50%; transform: translate(-50%, -50%); border:5px solid black"">","","","","","","","",""
"","10534.495000028983","sequential-stimulus-presentation-old","115","1385441","0.0-27.0-1.0","SS1618437658485","trial","","40","500","11034.495000028983","images/stimuli/spore_stims/complex_09_A_a.gif","images/stimuli/spore_stims/complex_17_A_b.gif","forced_short","","9","complex_dissimilar","images/stimuli/spore_stims/complex_17_A_b.gif","","","","",""
"","null","html-keyboard-response","116","1386453","0.0-27.0-0.1","SS1618437658485","","","null","","","","","","<p><img src= images/blank.png width =""600"" height = ""600"" style=""position:fixed;top:50%; left:50%; transform: translate(-50%, -50%); border:5px solid black"">","","","","","","","",""
"","1415.3149999910966","sequential-stimulus-presentation-old","117","1388371","0.0-27.0-1.1","SS1618437658485","trial","","40","500","1915.3149999910966","images/stimuli/spore_stims/complex_09_A_a.gif","images/stimuli/spore_stims/complex_17_A_b.gif","forced_short","","9","complex_dissimilar","images/stimuli/spore_stims/complex_09_A_a.gif","","","","",""
"","null","html-keyboard-response","118","1389425","0.0-27.0-0.2","SS1618437658485","","","null","","","","","","<p><img src= images/blank.png width =""600"" height = ""600"" style=""position:fixed;top:50%; left:50%; transform: translate(-50%, -50%); border:5px solid black"">","","","","","","","",""
"","3569.6150000439957","sequential-stimulus-presentation-old","119","1393498","0.0-27.0-1.2","SS1618437658485","trial","","40","500","4069.6150000439957","images/stimuli/spore_stims/complex_09_A_a.gif","images/stimuli/spore_stims/complex_17_A_b.gif","forced_short","","9","complex_dissimilar","images/stimuli/spore_stims/complex_17_A_b.gif","","","","",""
"","null","html-keyboard-response","120","1394364","0.0-27.0-0.3","SS1618437658485","","","null","","","","","","<p><img src= images/blank.png width =""600"" height = ""600"" style=""position:fixed;top:50%; left:50%; transform: translate(-50%, -50%); border:5px solid black"">","","","","","","","",""
"","1674.280000035651","sequential-stimulus-presentation-old","121","1396543","0.0-27.0-1.3","SS1618437658485","trial","","40","500","2174.280000035651","images/stimuli/spore_stims/complex_09_A_a.gif","images/stimuli/spore_stims/complex_17_A_b.gif","forced_short","","9","complex_dissimilar","images/stimuli/spore_stims/complex_17_A_b.gif","","","","",""
"","2194.220000063069","survey-multi-choice","122","1398739","0.0-28.0","SS1618437658485","math_question","","","","","","","","","","","","{""Q0"":""10""}","[0]","10","",""
"","null","html-keyboard-response","123","1399644","0.0-29.0-0.0","SS1618437658485","","","null","","","","","","<p><img src= images/blank.png width =""600"" height = ""600"" style=""position:fixed;top:50%; left:50%; transform: translate(-50%, -50%); border:5px solid black"">","","","","","","","",""
"","1048.700000043027","sequential-stimulus-presentation-old","124","1400746","0.0-29.0-1.0","SS1618437658485","trial","","40","500","1548.700000043027","images/stimuli/spore_stims/simple_08_A_b.gif","images/stimuli/spore_stims/simple_06_A_a.gif","forced_short","","10","simple_dissimilar","images/stimuli/spore_stims/simple_06_A_a.gif","","","","",""
"","null","html-keyboard-response","125","1401827","0.0-29.0-0.1","SS1618437658485","","","null","","","","","","<p><img src= images/blank.png width =""600"" height = ""600"" style=""position:fixed;top:50%; left:50%; transform: translate(-50%, -50%); border:5px solid black"">","","","","","","","",""
"","2090.9799999790266","sequential-stimulus-presentation-old","126","1404421","0.0-29.0-1.1","SS1618437658485","trial","","40","500","2590.9799999790266","images/stimuli/spore_stims/simple_08_A_b.gif","images/stimuli/spore_stims/simple_06_A_a.gif","forced_short","","10","simple_dissimilar","images/stimuli/spore_stims/simple_06_A_a.gif","","","","",""
"","null","html-keyboard-response","127","1405654","0.0-29.0-0.2","SS1618437658485","","","null","","","","","","<p><img src= images/blank.png width =""600"" height = ""600"" style=""position:fixed;top:50%; left:50%; transform: translate(-50%, -50%); border:5px solid black"">","","","","","","","",""
"","723.0349999153987","sequential-stimulus-presentation-old","128","1406881","0.0-29.0-1.2","SS1618437658485","trial","","40","500","1223.0349999153987","images/stimuli/spore_stims/simple_08_A_b.gif","images/stimuli/spore_stims/simple_06_A_a.gif","forced_short","","10","simple_dissimilar","images/stimuli/spore_stims/simple_06_A_a.gif","","","","",""
"","null","html-keyboard-response","129","1408108","0.0-29.0-0.3","SS1618437658485","","","null","","","","","","<p><img src= images/blank.png width =""600"" height = ""600"" style=""position:fixed;top:50%; left:50%; transform: translate(-50%, -50%); border:5px solid black"">","","","","","","","",""
"","560.3549999650568","sequential-stimulus-presentation-old","130","1409171","0.0-29.0-1.3","SS1618437658485","trial","","40","500","1060.3549999650568","images/stimuli/spore_stims/simple_08_A_b.gif","images/stimuli/spore_stims/simple_06_A_a.gif","forced_short","","10","simple_dissimilar","images/stimuli/spore_stims/simple_06_A_a.gif","","","","",""
"","1834.1550000477582","survey-multi-choice","131","1411007","0.0-30.0","SS1618437658485","math_question","","","","","","","","","","","","{""Q0"":""4""}","[0]","4","",""
"","null","html-keyboard-response","132","1412103","0.0-31.0-0.0","SS1618437658485","","","null","","","","","","<p><img src= images/blank.png width =""600"" height = ""600"" style=""position:fixed;top:50%; left:50%; transform: translate(-50%, -50%); border:5px solid black"">","","","","","","","",""
"","703.0800000065938","sequential-stimulus-presentation-old","133","1412859","0.0-31.0-1.0","SS1618437658485","trial","","40","500","1203.0800000065938","images/stimuli/spore_stims/simple_12_A_b.gif","images/stimuli/spore_stims/simple_11_A_a.gif","forced_short","","11","simple_dissimilar","images/stimuli/spore_stims/simple_11_A_a.gif","","","","",""
"","null","html-keyboard-response","134","1413839","0.0-31.0-0.1","SS1618437658485","","","null","","","","","","<p><img src= images/blank.png width =""600"" height = ""600"" style=""position:fixed;top:50%; left:50%; transform: translate(-50%, -50%); border:5px solid black"">","","","","","","","",""
"","25.264999945648015","sequential-stimulus-presentation-old","135","1414373","0.0-31.0-1.1","SS1618437658485","trial","","40","500","525.264999945648","images/stimuli/spore_stims/simple_12_A_b.gif","images/stimuli/spore_stims/simple_11_A_a.gif","forced_short","","11","simple_dissimilar","images/stimuli/spore_stims/simple_11_A_a.gif","","","","",""
"","null","html-keyboard-response","136","1415583","0.0-31.0-0.2","SS1618437658485","","","null","","","","","","<p><img src= images/blank.png width =""600"" height = ""600"" style=""position:fixed;top:50%; left:50%; transform: translate(-50%, -50%); border:5px solid black"">","","","","","","","",""
"","2665.19500000868","sequential-stimulus-presentation-old","137","1418751","0.0-31.0-1.2","SS1618437658485","trial","","40","500","3165.19500000868","images/stimuli/spore_stims/simple_12_A_b.gif","images/stimuli/spore_stims/simple_11_A_a.gif","forced_short","","11","simple_dissimilar","images/stimuli/spore_stims/simple_11_A_a.gif","","","","",""
"","null","html-keyboard-response","138","1419601","0.0-31.0-0.3","SS1618437658485","","","null","","","","","","<p><img src= images/blank.png width =""600"" height = ""600"" style=""position:fixed;top:50%; left:50%; transform: translate(-50%, -50%); border:5px solid black"">","","","","","","","",""
"","2039.0749999787658","sequential-stimulus-presentation-old","139","1422145","0.0-31.0-1.3","SS1618437658485","trial","","40","500","2539.074999978766","images/stimuli/spore_stims/simple_12_A_b.gif","images/stimuli/spore_stims/simple_11_A_a.gif","forced_short","","11","simple_dissimilar","images/stimuli/spore_stims/simple_11_A_a.gif","","","","",""
"","null","html-keyboard-response","140","1423113","0.0-31.0-0.4","SS1618437658485","","","null","","","","","","<p><img src= images/blank.png width =""600"" height = ""600"" style=""position:fixed;top:50%; left:50%; transform: translate(-50%, -50%); border:5px solid black"">","","","","","","","",""
"","1820.6249999348074","sequential-stimulus-presentation-old","141","1425440","0.0-31.0-1.4","SS1618437658485","trial","","40","500","2320.6249999348074","images/stimuli/spore_stims/simple_12_A_b.gif","images/stimuli/spore_stims/simple_11_A_a.gif","forced_short","","11","simple_dissimilar","images/stimuli/spore_stims/simple_11_A_a.gif","","","","",""
"","null","html-keyboard-response","142","1426270","0.0-31.0-0.5","SS1618437658485","","","null","","","","","","<p><img src= images/blank.png width =""600"" height = ""600"" style=""position:fixed;top:50%; left:50%; transform: translate(-50%, -50%); border:5px solid black"">","","","","","","","",""
"","2387.739999918267","sequential-stimulus-presentation-old","143","1429161","0.0-31.0-1.5","SS1618437658485","trial","","40","500","2887.739999918267","images/stimuli/spore_stims/simple_12_A_b.gif","images/stimuli/spore_stims/simple_11_A_a.gif","forced_short","","11","simple_dissimilar","images/stimuli/spore_stims/simple_11_A_a.gif","","","","",""
"[{""page_index"":0,""viewing_time"":8198.375000036322}]","8198.540000012144","instructions","144","1437361","0.0-32.0","SS1618437658485","instructions","","","","","","","","","","","","","","","",""
"","15708.594999974594","survey-likert","145","1453073","0.0-33.0","SS1618437658485","similarity_question","","","","","","","","","","","","{""Q0"":5}","[0]","","images/stimuli/spore_stims/simple_08_A_b.gif","images/stimuli/spore_stims/simple_06_A_a.gif"
"","10998.565000016242","survey-likert","146","1464076","0.0-34.0","SS1618437658485","similarity_question","","","","","","","","","","","","{""Q0"":1}","[0]","","images/stimuli/spore_stims/complex_20_A_b.gif","images/stimuli/spore_stims/complex_13_A_a.gif"
"","3594.2000000504777","survey-likert","147","1467676","0.0-35.0","SS1618437658485","similarity_question","","","","","","","","","","","","{""Q0"":2}","[0]","","images/stimuli/spore_stims/complex_15_A_a.gif","images/stimuli/spore_stims/complex_12_A_b.gif"
"","4324.574999976903","survey-likert","148","1472005","0.0-36.0","SS1618437658485","similarity_question","","","","","","","","","","","","{""Q0"":5}","[0]","","images/stimuli/spore_stims/simple_10_A_a.gif","images/stimuli/spore_stims/simple_02_A_b.gif"
"","5658.32499996759","survey-likert","149","1477668","0.0-37.0","SS1618437658485","similarity_question","","","","","","","","","","","","{""Q0"":1}","[0]","","images/stimuli/spore_stims/complex_17_A_b.gif","images/stimuli/spore_stims/complex_09_A_a.gif"
"","10593.289999989793","survey-likert","150","1488267","0.0-38.0","SS1618437658485","similarity_question","","","","","","","","","","","","{""Q0"":4}","[0]","","images/stimuli/spore_stims/simple_12_A_b.gif","images/stimuli/spore_stims/simple_11_A_a.gif"
"","2860.164999961853","survey-likert","151","1491131","0.0-39.0","SS1618437658485","similarity_question","","","","","","","","","","","","{""Q0"":2}","[0]","","images/stimuli/spore_stims/complex_16_A_a.gif","images/stimuli/spore_stims/complex_07_A_b.gif"
"","3411.8149999994785","survey-likert","152","1494548","0.0-40.0","SS1618437658485","similarity_question","","","","","","","","","","","","{""Q0"":4}","[0]","","images/stimuli/spore_stims/simple_04_A_b.gif","images/stimuli/spore_stims/simple_08_A_a.gif"
"","4134.609999950044","survey-likert","153","1498688","0.0-41.0","SS1618437658485","similarity_question","","","","","","","","","","","","{""Q0"":4}","[0]","","images/stimuli/spore_stims/simple_13_A_a.gif","images/stimuli/spore_stims/simple_19_A_b.gif"
"","4635.454999981448","survey-likert","154","1503328","0.0-42.0","SS1618437658485","similarity_question","","","","","","","","","","","","{""Q0"":5}","[0]","","images/stimuli/spore_stims/simple_13_A_b.gif","images/stimuli/spore_stims/simple_02_A_a.gif"
"","15375.025000073947","survey-likert","155","1518709","0.0-43.0","SS1618437658485","similarity_question","","","","","","","","","","","","{""Q0"":1}","[0]","","images/stimuli/spore_stims/complex_12_A_a.gif","images/stimuli/spore_stims/complex_08_A_b.gif"
"","3927.0950000500306","survey-likert","156","1522641","0.0-44.0","SS1618437658485","similarity_question","","","","","","","","","","","","{""Q0"":1}","[0]","","images/stimuli/spore_stims/complex_07_A_a.gif","images/stimuli/spore_stims/complex_15_A_b.gif"
"[{""page_index"":0,""viewing_time"":5473.154999897815}]","5473.314999951981","instructions","157","1528119","0.0-45.0","SS1618437658485","instructions","","","","","","","","","","","","","","","",""
"","5017.595000099391","survey-likert","158","1533140","0.0-46.0","SS1618437658485","","","","","","","","","images/stimuli/spore_stims/complex_13_A_a.gif","","","","{""Q0"":5}","[0]","","",""
"","4096.149999997579","survey-likert","159","1537245","0.0-47.0","SS1618437658485","","","","","","","","","images/stimuli/spore_stims/simple_13_A_b.gif","","","","{""Q0"":0}","[0]","","",""
"","2902.8149999212474","survey-likert","160","1540152","0.0-48.0","SS1618437658485","","","","","","","","","images/stimuli/spore_stims/complex_16_A_a.gif","","","","{""Q0"":6}","[0]","","",""
"","2815.3199999360368","survey-likert","161","1542973","0.0-49.0","SS1618437658485","","","","","","","","","images/stimuli/spore_stims/complex_15_A_a.gif","","","","{""Q0"":5}","[0]","","",""
"","3419.329999946058","survey-likert","162","1546397","0.0-50.0","SS1618437658485","","","","","","","","","images/stimuli/spore_stims/simple_08_A_b.gif","","","","{""Q0"":0}","[0]","","",""
"","1893.51500000339","survey-likert","163","1548295","0.0-51.0","SS1618437658485","","","","","","","","","images/stimuli/spore_stims/simple_12_A_b.gif","","","","{""Q0"":1}","[0]","","",""
"","3254.2149999644607","survey-likert","164","1551554","0.0-52.0","SS1618437658485","","","","","","","","","images/stimuli/spore_stims/complex_17_A_b.gif","","","","{""Q0"":5}","[0]","","",""
"","1953.7400000263005","survey-likert","165","1553513","0.0-53.0","SS1618437658485","","","","","","","","","images/stimuli/spore_stims/simple_02_A_b.gif","","","","{""Q0"":0}","[0]","","",""
"","1461.2050000578165","survey-likert","166","1554979","0.0-54.0","SS1618437658485","","","","","","","","","images/stimuli/spore_stims/simple_08_A_a.gif","","","","{""Q0"":0}","[0]","","",""
"","2417.4450000282377","survey-likert","167","1557402","0.0-55.0","SS1618437658485","","","","","","","","","images/stimuli/spore_stims/simple_19_A_b.gif","","","","{""Q0"":2}","[0]","","",""
"","3497.399999992922","survey-likert","168","1560904","0.0-56.0","SS1618437658485","","","","","","","","","images/stimuli/spore_stims/complex_12_A_a.gif","","","","{""Q0"":5}","[0]","","",""
"","14435.470000025816","survey-likert","169","1575345","0.0-57.0","SS1618437658485","","","","","","","","","images/stimuli/spore_stims/complex_07_A_a.gif","","","","{""Q0"":4}","[0]","","",""
"[{""page_index"":0,""viewing_time"":1511.295000091195}]","1511.4400000311434","instructions","170","1576860","0.0-58.0","SS1618437658485","instructions","","","","","","","","","","","","","","","",""
"","1474.2499999701977","demog-age","171","1578340","0.0-59.0","SS1618437658485","","","","","","","","","","","","","{""age"":""21""}","","","",""
"","4310.7200000667945","demog-ethnic-US","172","1582655","0.0-60.0","SS1618437658485","","","","","","","","","","","","","{""ethnicity"":[""White""]}","[0]","","",""
"","11580.034999991767","demog-gender-and-education","173","1594242","0.0-61.0","SS1618437658485","","","","","","","","","","","","","{""gender"":""Male"",""education"":""Bachelor's Degree""}","[0,1]","","",""
"","6943.819999927655","survey-text","174","1601192","0.0-62.0","SS1618437658485","feedback","","","","","","","","","","","","{""Q0"":""All fine""}","","","",""
"[{""page_index"":0,""viewing_time"":2516.639999928884}]","2516.79999998305","instructions","175","1603711","0.0-63.0","SS1618437658485","instructions","","","","","","","","","","","","","","","",""
