"view_history","rt","trial_type","trial_index","time_elapsed","internal_node_id","subject","stimulus_type","trial_stimulus","key_press","minimum_viewing_duration","trial_looking_time","block_deviant","block_background","exposure_type","stimulus","block_number","block_type","stimulus_displayed","responses","question_order","math_correct_answer","stimulus_left","stimulus_right"
"[{""page_index"":0,""viewing_time"":22365.75500003528}]","22366.724999970756","instructions","0","22368","0.0-0.0","SS1618435637995","","","","","","","","","","","","","","","","",""
"[{""page_index"":0,""viewing_time"":10130.310000036843},{""page_index"":1,""viewing_time"":3272.055000066757}]","13402.805000077933","instructions","1","37775","0.0-1.0","SS1618435637995","instructions","","","","","","","","","","","","","","","",""
"","4551.410000072792","sequential-stimulus-presentation-old","2","42831","0.0-2.0","SS1618435637995","","","40","500","5051.410000072792","null","null","self_paced","","","","","","","","",""
"","13068.659999989904","sequential-stimulus-presentation-old","3","56404","0.0-3.0","SS1618435637995","","","40","500","13568.659999989904","null","null","self_paced","","","","","","","","",""
"[{""page_index"":0,""viewing_time"":10314.339999924414}]","10314.994999906048","instructions","4","66720","0.0-4.0","SS1618435637995","instructions","","","","","","","","","","","","","","","",""
"","2981.5500000258908","sequential-stimulus-presentation-old","5","74704","0.0-5.0","SS1618435637995","","","40","500","3481.5500000258908","null","null","forced_long","","","","","","","","",""
"","1981.6850000061095","sequential-stimulus-presentation-old","6","76747","0.0-6.0","SS1618435637995","","","40","50","2031.6850000061095","null","null","forced_long","","","","","","","","",""
"[{""page_index"":0,""viewing_time"":3145.875000045635}]","3146.2300000712276","instructions","7","79894","0.0-7.0","SS1618435637995","instructions","","","","","","","","","","","","","","","",""
"[{""page_index"":0,""viewing_time"":8200.440000044182},{""page_index"":1,""viewing_time"":53210.85999999195},{""page_index"":2,""viewing_time"":4168.599999975413},{""page_index"":3,""viewing_time"":1059.4399999827147},{""page_index"":4,""viewing_time"":812.1200000168756}]","67451.72500004992","instructions","8","147347","0.0-8.0","SS1618435637995","instructions","","","","","","","","","","","","","","","",""
"","null","html-keyboard-response","9","148373","0.0-9.0-0.0","SS1618435637995","","","null","","","","","","<p><img src= images/blank.png width =""600"" height = ""600"" style=""position:fixed;top:50%; left:50%; transform: translate(-50%, -50%); border:5px solid black"">","","","","","","","",""
"","2840.4149999842048","sequential-stimulus-presentation-old","10","151276","0.0-9.0-1.0","SS1618435637995","trial","","40","500","3340.4149999842048","images/stimuli/spore_stims/simple_20_A_b.gif","images/stimuli/spore_stims/simple_05_A_a.gif","forced_short","","0","simple_dissimilar","images/stimuli/spore_stims/simple_05_A_a.gif","","","","",""
"","null","html-keyboard-response","11","152181","0.0-9.0-0.1","SS1618435637995","","","null","","","","","","<p><img src= images/blank.png width =""600"" height = ""600"" style=""position:fixed;top:50%; left:50%; transform: translate(-50%, -50%); border:5px solid black"">","","","","","","","",""
"","8459.41499993205","sequential-stimulus-presentation-old","12","161150","0.0-9.0-1.1","SS1618435637995","trial","","40","500","8959.41499993205","images/stimuli/spore_stims/simple_20_A_b.gif","images/stimuli/spore_stims/simple_05_A_a.gif","forced_short","","0","simple_dissimilar","images/stimuli/spore_stims/simple_05_A_a.gif","","","","",""
"","null","html-keyboard-response","13","162446","0.0-9.0-0.2","SS1618435637995","","","null","","","","","","<p><img src= images/blank.png width =""600"" height = ""600"" style=""position:fixed;top:50%; left:50%; transform: translate(-50%, -50%); border:5px solid black"">","","","","","","","",""
"","5138.470000005327","sequential-stimulus-presentation-old","14","168092","0.0-9.0-1.2","SS1618435637995","trial","","40","500","5638.470000005327","images/stimuli/spore_stims/simple_20_A_b.gif","images/stimuli/spore_stims/simple_05_A_a.gif","forced_short","","0","simple_dissimilar","images/stimuli/spore_stims/simple_05_A_a.gif","","","","",""
"","null","html-keyboard-response","15","169342","0.0-9.0-0.3","SS1618435637995","","","null","","","","","","<p><img src= images/blank.png width =""600"" height = ""600"" style=""position:fixed;top:50%; left:50%; transform: translate(-50%, -50%); border:5px solid black"">","","","","","","","",""
"","3395.9199999226257","sequential-stimulus-presentation-old","16","173242","0.0-9.0-1.3","SS1618435637995","trial","","40","500","3895.9199999226257","images/stimuli/spore_stims/simple_20_A_b.gif","images/stimuli/spore_stims/simple_05_A_a.gif","forced_short","","0","simple_dissimilar","images/stimuli/spore_stims/simple_05_A_a.gif","","","","",""
"","null","html-keyboard-response","17","174310","0.0-9.0-0.4","SS1618435637995","","","null","","","","","","<p><img src= images/blank.png width =""600"" height = ""600"" style=""position:fixed;top:50%; left:50%; transform: translate(-50%, -50%); border:5px solid black"">","","","","","","","",""
"","6648.709999979474","sequential-stimulus-presentation-old","18","181479","0.0-9.0-1.4","SS1618435637995","trial","","40","500","7148.709999979474","images/stimuli/spore_stims/simple_20_A_b.gif","images/stimuli/spore_stims/simple_05_A_a.gif","forced_short","","0","simple_dissimilar","images/stimuli/spore_stims/simple_20_A_b.gif","","","","",""
"","5450.825000065379","survey-multi-choice","19","186934","0.0-10.0","SS1618435637995","math_question","","","","","","","","","","","","{""Q0"":""5""}","[0]","5","",""
"","null","html-keyboard-response","20","187740","0.0-11.0-0.0","SS1618435637995","","","null","","","","","","<p><img src= images/blank.png width =""600"" height = ""600"" style=""position:fixed;top:50%; left:50%; transform: translate(-50%, -50%); border:5px solid black"">","","","","","","","",""
"","1321.8399999896064","sequential-stimulus-presentation-old","21","194079","0.0-11.0-1.0","SS1618435637995","trial","","40","500","1821.8399999896064","images/stimuli/spore_stims/simple_20_A_a.gif","images/stimuli/spore_stims/simple_04_A_b.gif","forced_long","","1","simple_dissimilar","images/stimuli/spore_stims/simple_04_A_b.gif","","","","",""
"","null","html-keyboard-response","22","195200","0.0-11.0-0.1","SS1618435637995","","","null","","","","","","<p><img src= images/blank.png width =""600"" height = ""600"" style=""position:fixed;top:50%; left:50%; transform: translate(-50%, -50%); border:5px solid black"">","","","","","","","",""
"","8043.754999991506","sequential-stimulus-presentation-old","23","203751","0.0-11.0-1.1","SS1618435637995","trial","","40","500","8543.754999991506","images/stimuli/spore_stims/simple_20_A_a.gif","images/stimuli/spore_stims/simple_04_A_b.gif","forced_long","","1","simple_dissimilar","images/stimuli/spore_stims/simple_04_A_b.gif","","","","",""
"","null","html-keyboard-response","24","204918","0.0-11.0-0.2","SS1618435637995","","","null","","","","","","<p><img src= images/blank.png width =""600"" height = ""600"" style=""position:fixed;top:50%; left:50%; transform: translate(-50%, -50%); border:5px solid black"">","","","","","","","",""
"","5560.5150000192225","sequential-stimulus-presentation-old","25","210996","0.0-11.0-1.2","SS1618435637995","trial","","40","500","6060.5150000192225","images/stimuli/spore_stims/simple_20_A_a.gif","images/stimuli/spore_stims/simple_04_A_b.gif","forced_long","","1","simple_dissimilar","images/stimuli/spore_stims/simple_20_A_a.gif","","","","",""
"","null","html-keyboard-response","26","211878","0.0-11.0-0.3","SS1618435637995","","","null","","","","","","<p><img src= images/blank.png width =""600"" height = ""600"" style=""position:fixed;top:50%; left:50%; transform: translate(-50%, -50%); border:5px solid black"">","","","","","","","",""
"","6567.939999978989","sequential-stimulus-presentation-old","27","218952","0.0-11.0-1.3","SS1618435637995","trial","","40","500","7067.939999978989","images/stimuli/spore_stims/simple_20_A_a.gif","images/stimuli/spore_stims/simple_04_A_b.gif","forced_long","","1","simple_dissimilar","images/stimuli/spore_stims/simple_04_A_b.gif","","","","",""
"","null","html-keyboard-response","28","220197","0.0-11.0-0.4","SS1618435637995","","","null","","","","","","<p><img src= images/blank.png width =""600"" height = ""600"" style=""position:fixed;top:50%; left:50%; transform: translate(-50%, -50%); border:5px solid black"">","","","","","","","",""
"","3464.1699999338016","sequential-stimulus-presentation-old","29","224170","0.0-11.0-1.4","SS1618435637995","trial","","40","500","3964.1699999338016","images/stimuli/spore_stims/simple_20_A_a.gif","images/stimuli/spore_stims/simple_04_A_b.gif","forced_long","","1","simple_dissimilar","images/stimuli/spore_stims/simple_04_A_b.gif","","","","",""
"","2868.7349999090657","survey-multi-choice","30","227041","0.0-12.0","SS1618435637995","math_question","","","","","","","","","","","","{""Q0"":""3""}","[0]","3","",""
"","null","html-keyboard-response","31","228300","0.0-13.0-0.0","SS1618435637995","","","null","","","","","","<p><img src= images/blank.png width =""600"" height = ""600"" style=""position:fixed;top:50%; left:50%; transform: translate(-50%, -50%); border:5px solid black"">","","","","","","","",""
"","3493.830000050366","sequential-stimulus-presentation-old","32","231856","0.0-13.0-1.0","SS1618435637995","trial","","40","500","3993.830000050366","images/stimuli/spore_stims/complex_04_A_a.gif","images/stimuli/spore_stims/complex_05_A_b.gif","forced_short","","2","complex_dissimilar","images/stimuli/spore_stims/complex_05_A_b.gif","","","","",""
"","null","html-keyboard-response","33","232711","0.0-13.0-0.1","SS1618435637995","","","null","","","","","","<p><img src= images/blank.png width =""600"" height = ""600"" style=""position:fixed;top:50%; left:50%; transform: translate(-50%, -50%); border:5px solid black"">","","","","","","","",""
"","7965.970000019297","sequential-stimulus-presentation-old","34","241184","0.0-13.0-1.1","SS1618435637995","trial","","40","500","8465.970000019297","images/stimuli/spore_stims/complex_04_A_a.gif","images/stimuli/spore_stims/complex_05_A_b.gif","forced_short","","2","complex_dissimilar","images/stimuli/spore_stims/complex_04_A_a.gif","","","","",""
"","null","html-keyboard-response","35","242356","0.0-13.0-0.2","SS1618435637995","","","null","","","","","","<p><img src= images/blank.png width =""600"" height = ""600"" style=""position:fixed;top:50%; left:50%; transform: translate(-50%, -50%); border:5px solid black"">","","","","","","","",""
"","9080.485000042245","sequential-stimulus-presentation-old","36","251941","0.0-13.0-1.2","SS1618435637995","trial","","40","500","9580.485000042245","images/stimuli/spore_stims/complex_04_A_a.gif","images/stimuli/spore_stims/complex_05_A_b.gif","forced_short","","2","complex_dissimilar","images/stimuli/spore_stims/complex_05_A_b.gif","","","","",""
"","null","html-keyboard-response","37","252849","0.0-13.0-0.3","SS1618435637995","","","null","","","","","","<p><img src= images/blank.png width =""600"" height = ""600"" style=""position:fixed;top:50%; left:50%; transform: translate(-50%, -50%); border:5px solid black"">","","","","","","","",""
"","11176.55500001274","sequential-stimulus-presentation-old","38","264532","0.0-13.0-1.3","SS1618435637995","trial","","40","500","11676.55500001274","images/stimuli/spore_stims/complex_04_A_a.gif","images/stimuli/spore_stims/complex_05_A_b.gif","forced_short","","2","complex_dissimilar","images/stimuli/spore_stims/complex_05_A_b.gif","","","","",""
"","null","html-keyboard-response","39","265353","0.0-13.0-0.4","SS1618435637995","","","null","","","","","","<p><img src= images/blank.png width =""600"" height = ""600"" style=""position:fixed;top:50%; left:50%; transform: translate(-50%, -50%); border:5px solid black"">","","","","","","","",""
"","6149.124999996275","sequential-stimulus-presentation-old","40","272009","0.0-13.0-1.4","SS1618435637995","trial","","40","500","6649.124999996275","images/stimuli/spore_stims/complex_04_A_a.gif","images/stimuli/spore_stims/complex_05_A_b.gif","forced_short","","2","complex_dissimilar","images/stimuli/spore_stims/complex_05_A_b.gif","","","","",""
"","null","html-keyboard-response","41","272957","0.0-13.0-0.5","SS1618435637995","","","null","","","","","","<p><img src= images/blank.png width =""600"" height = ""600"" style=""position:fixed;top:50%; left:50%; transform: translate(-50%, -50%); border:5px solid black"">","","","","","","","",""
"","7998.3799998881295","sequential-stimulus-presentation-old","42","281464","0.0-13.0-1.5","SS1618435637995","trial","","40","500","8498.37999988813","images/stimuli/spore_stims/complex_04_A_a.gif","images/stimuli/spore_stims/complex_05_A_b.gif","forced_short","","2","complex_dissimilar","images/stimuli/spore_stims/complex_04_A_a.gif","","","","",""
"","2923.2349999947473","survey-multi-choice","43","284389","0.0-14.0","SS1618435637995","math_question","","","","","","","","","","","","{""Q0"":""10""}","[0]","10","",""
"","null","html-keyboard-response","44","285510","0.0-15.0-0.0","SS1618435637995","","","null","","","","","","<p><img src= images/blank.png width =""600"" height = ""600"" style=""position:fixed;top:50%; left:50%; transform: translate(-50%, -50%); border:5px solid black"">","","","","","","","",""
"","1178.1949999276549","sequential-stimulus-presentation-old","45","291692","0.0-15.0-1.0","SS1618435637995","trial","","40","500","1678.1949999276549","images/stimuli/spore_stims/simple_03_A_b.gif","images/stimuli/spore_stims/simple_02_A_a.gif","forced_long","","3","simple_dissimilar","images/stimuli/spore_stims/simple_02_A_a.gif","","","","",""
"","null","html-keyboard-response","46","292712","0.0-15.0-0.1","SS1618435637995","","","null","","","","","","<p><img src= images/blank.png width =""600"" height = ""600"" style=""position:fixed;top:50%; left:50%; transform: translate(-50%, -50%); border:5px solid black"">","","","","","","","",""
"","9566.624999977648","sequential-stimulus-presentation-old","47","302781","0.0-15.0-1.1","SS1618435637995","trial","","40","500","10066.624999977648","images/stimuli/spore_stims/simple_03_A_b.gif","images/stimuli/spore_stims/simple_02_A_a.gif","forced_long","","3","simple_dissimilar","images/stimuli/spore_stims/simple_02_A_a.gif","","","","",""
"","null","html-keyboard-response","48","304040","0.0-15.0-0.2","SS1618435637995","","","null","","","","","","<p><img src= images/blank.png width =""600"" height = ""600"" style=""position:fixed;top:50%; left:50%; transform: translate(-50%, -50%); border:5px solid black"">","","","","","","","",""
"","7058.665000018664","sequential-stimulus-presentation-old","49","311602","0.0-15.0-1.2","SS1618435637995","trial","","40","500","7558.665000018664","images/stimuli/spore_stims/simple_03_A_b.gif","images/stimuli/spore_stims/simple_02_A_a.gif","forced_long","","3","simple_dissimilar","images/stimuli/spore_stims/simple_02_A_a.gif","","","","",""
"","null","html-keyboard-response","50","312816","0.0-15.0-0.3","SS1618435637995","","","null","","","","","","<p><img src= images/blank.png width =""600"" height = ""600"" style=""position:fixed;top:50%; left:50%; transform: translate(-50%, -50%); border:5px solid black"">","","","","","","","",""
"","5850.169999990612","sequential-stimulus-presentation-old","51","319172","0.0-15.0-1.3","SS1618435637995","trial","","40","500","6350.169999990612","images/stimuli/spore_stims/simple_03_A_b.gif","images/stimuli/spore_stims/simple_02_A_a.gif","forced_long","","3","simple_dissimilar","images/stimuli/spore_stims/simple_02_A_a.gif","","","","",""
"","2272.785000037402","survey-multi-choice","52","321447","0.0-16.0","SS1618435637995","math_question","","","","","","","","","","","","{""Q0"":""7""}","[0]","7","",""
"","null","html-keyboard-response","53","322340","0.0-17.0-0.0","SS1618435637995","","","null","","","","","","<p><img src= images/blank.png width =""600"" height = ""600"" style=""position:fixed;top:50%; left:50%; transform: translate(-50%, -50%); border:5px solid black"">","","","","","","","",""
"","2557.0699999807402","sequential-stimulus-presentation-old","54","324950","0.0-17.0-1.0","SS1618435637995","trial","","40","500","3057.0699999807402","images/stimuli/spore_stims/complex_04_A_b.gif","images/stimuli/spore_stims/complex_14_A_a.gif","forced_short","","4","complex_dissimilar","images/stimuli/spore_stims/complex_14_A_a.gif","","","","",""
"","null","html-keyboard-response","55","326090","0.0-17.0-0.1","SS1618435637995","","","null","","","","","","<p><img src= images/blank.png width =""600"" height = ""600"" style=""position:fixed;top:50%; left:50%; transform: translate(-50%, -50%); border:5px solid black"">","","","","","","","",""
"","5674.41500001587","sequential-stimulus-presentation-old","56","332271","0.0-17.0-1.1","SS1618435637995","trial","","40","500","6174.41500001587","images/stimuli/spore_stims/complex_04_A_b.gif","images/stimuli/spore_stims/complex_14_A_a.gif","forced_short","","4","complex_dissimilar","images/stimuli/spore_stims/complex_14_A_a.gif","","","","",""
"","null","html-keyboard-response","57","333202","0.0-17.0-0.2","SS1618435637995","","","null","","","","","","<p><img src= images/blank.png width =""600"" height = ""600"" style=""position:fixed;top:50%; left:50%; transform: translate(-50%, -50%); border:5px solid black"">","","","","","","","",""
"","5338.1000000517815","sequential-stimulus-presentation-old","58","339045","0.0-17.0-1.2","SS1618435637995","trial","","40","500","5838.1000000517815","images/stimuli/spore_stims/complex_04_A_b.gif","images/stimuli/spore_stims/complex_14_A_a.gif","forced_short","","4","complex_dissimilar","images/stimuli/spore_stims/complex_04_A_b.gif","","","","",""
"","null","html-keyboard-response","59","340055","0.0-17.0-0.3","SS1618435637995","","","null","","","","","","<p><img src= images/blank.png width =""600"" height = ""600"" style=""position:fixed;top:50%; left:50%; transform: translate(-50%, -50%); border:5px solid black"">","","","","","","","",""
"","3839.544999995269","sequential-stimulus-presentation-old","60","344401","0.0-17.0-1.3","SS1618435637995","trial","","40","500","4339.544999995269","images/stimuli/spore_stims/complex_04_A_b.gif","images/stimuli/spore_stims/complex_14_A_a.gif","forced_short","","4","complex_dissimilar","images/stimuli/spore_stims/complex_04_A_b.gif","","","","",""
"","null","html-keyboard-response","61","345591","0.0-17.0-0.4","SS1618435637995","","","null","","","","","","<p><img src= images/blank.png width =""600"" height = ""600"" style=""position:fixed;top:50%; left:50%; transform: translate(-50%, -50%); border:5px solid black"">","","","","","","","",""
"","6000.215000007302","sequential-stimulus-presentation-old","62","352106","0.0-17.0-1.4","SS1618435637995","trial","","40","500","6500.215000007302","images/stimuli/spore_stims/complex_04_A_b.gif","images/stimuli/spore_stims/complex_14_A_a.gif","forced_short","","4","complex_dissimilar","images/stimuli/spore_stims/complex_14_A_a.gif","","","","",""
"","2354.2499999748543","survey-multi-choice","63","354462","0.0-18.0","SS1618435637995","math_question","","","","","","","","","","","","{""Q0"":""15""}","[0]","15","",""
"","null","html-keyboard-response","64","355772","0.0-19.0-0.0","SS1618435637995","","","null","","","","","","<p><img src= images/blank.png width =""600"" height = ""600"" style=""position:fixed;top:50%; left:50%; transform: translate(-50%, -50%); border:5px solid black"">","","","","","","","",""
"","1457.094999961555","sequential-stimulus-presentation-old","65","357284","0.0-19.0-1.0","SS1618435637995","trial","","40","500","1957.094999961555","images/stimuli/spore_stims/simple_13_A_a.gif","images/stimuli/spore_stims/simple_14_A_b.gif","forced_short","","5","simple_dissimilar","images/stimuli/spore_stims/simple_14_A_b.gif","","","","",""
"","null","html-keyboard-response","66","358544","0.0-19.0-0.1","SS1618435637995","","","null","","","","","","<p><img src= images/blank.png width =""600"" height = ""600"" style=""position:fixed;top:50%; left:50%; transform: translate(-50%, -50%); border:5px solid black"">","","","","","","","",""
"","5723.814999917522","sequential-stimulus-presentation-old","67","364771","0.0-19.0-1.1","SS1618435637995","trial","","40","500","6223.814999917522","images/stimuli/spore_stims/simple_13_A_a.gif","images/stimuli/spore_stims/simple_14_A_b.gif","forced_short","","5","simple_dissimilar","images/stimuli/spore_stims/simple_14_A_b.gif","","","","",""
"","null","html-keyboard-response","68","365629","0.0-19.0-0.2","SS1618435637995","","","null","","","","","","<p><img src= images/blank.png width =""600"" height = ""600"" style=""position:fixed;top:50%; left:50%; transform: translate(-50%, -50%); border:5px solid black"">","","","","","","","",""
"","3823.07500008028","sequential-stimulus-presentation-old","69","369961","0.0-19.0-1.2","SS1618435637995","trial","","40","500","4323.07500008028","images/stimuli/spore_stims/simple_13_A_a.gif","images/stimuli/spore_stims/simple_14_A_b.gif","forced_short","","5","simple_dissimilar","images/stimuli/spore_stims/simple_14_A_b.gif","","","","",""
"","null","html-keyboard-response","70","371172","0.0-19.0-0.3","SS1618435637995","","","null","","","","","","<p><img src= images/blank.png width =""600"" height = ""600"" style=""position:fixed;top:50%; left:50%; transform: translate(-50%, -50%); border:5px solid black"">","","","","","","","",""
"","5203.005000017583","sequential-stimulus-presentation-old","71","376879","0.0-19.0-1.3","SS1618435637995","trial","","40","500","5703.005000017583","images/stimuli/spore_stims/simple_13_A_a.gif","images/stimuli/spore_stims/simple_14_A_b.gif","forced_short","","5","simple_dissimilar","images/stimuli/spore_stims/simple_14_A_b.gif","","","","",""
"","3367.4049999099225","survey-multi-choice","72","380249","0.0-20.0","SS1618435637995","math_question","","","","","","","","","","","","{""Q0"":""13""}","[0]","13","",""
"","null","html-keyboard-response","73","381323","0.0-21.0-0.0","SS1618435637995","","","null","","","","","","<p><img src= images/blank.png width =""600"" height = ""600"" style=""position:fixed;top:50%; left:50%; transform: translate(-50%, -50%); border:5px solid black"">","","","","","","","",""
"","7800.109999952838","sequential-stimulus-presentation-old","74","389642","0.0-21.0-1.0","SS1618435637995","trial","","40","500","8300.109999952838","images/stimuli/spore_stims/simple_19_A_a.gif","images/stimuli/spore_stims/simple_06_A_b.gif","self_paced","","6","simple_dissimilar","images/stimuli/spore_stims/simple_06_A_b.gif","","","","",""
"","null","html-keyboard-response","75","390555","0.0-21.0-0.1","SS1618435637995","","","null","","","","","","<p><img src= images/blank.png width =""600"" height = ""600"" style=""position:fixed;top:50%; left:50%; transform: translate(-50%, -50%); border:5px solid black"">","","","","","","","",""
"","4675.67499994766","sequential-stimulus-presentation-old","76","395735","0.0-21.0-1.1","SS1618435637995","trial","","40","500","5175.67499994766","images/stimuli/spore_stims/simple_19_A_a.gif","images/stimuli/spore_stims/simple_06_A_b.gif","self_paced","","6","simple_dissimilar","images/stimuli/spore_stims/simple_06_A_b.gif","","","","",""
"","null","html-keyboard-response","77","396928","0.0-21.0-0.2","SS1618435637995","","","null","","","","","","<p><img src= images/blank.png width =""600"" height = ""600"" style=""position:fixed;top:50%; left:50%; transform: translate(-50%, -50%); border:5px solid black"">","","","","","","","",""
"","4999.635000014678","sequential-stimulus-presentation-old","78","402433","0.0-21.0-1.2","SS1618435637995","trial","","40","500","5499.635000014678","images/stimuli/spore_stims/simple_19_A_a.gif","images/stimuli/spore_stims/simple_06_A_b.gif","self_paced","","6","simple_dissimilar","images/stimuli/spore_stims/simple_06_A_b.gif","","","","",""
"","null","html-keyboard-response","79","403373","0.0-21.0-0.3","SS1618435637995","","","null","","","","","","<p><img src= images/blank.png width =""600"" height = ""600"" style=""position:fixed;top:50%; left:50%; transform: translate(-50%, -50%); border:5px solid black"">","","","","","","","",""
"","5540.069999988191","sequential-stimulus-presentation-old","80","409416","0.0-21.0-1.3","SS1618435637995","trial","","40","500","6040.069999988191","images/stimuli/spore_stims/simple_19_A_a.gif","images/stimuli/spore_stims/simple_06_A_b.gif","self_paced","","6","simple_dissimilar","images/stimuli/spore_stims/simple_06_A_b.gif","","","","",""
"","2939.21500002034","survey-multi-choice","81","412356","0.0-22.0","SS1618435637995","math_question","","","","","","","","","","","","{""Q0"":""13""}","[0]","13","",""
"","null","html-keyboard-response","82","413410","0.0-23.0-0.0","SS1618435637995","","","null","","","","","","<p><img src= images/blank.png width =""600"" height = ""600"" style=""position:fixed;top:50%; left:50%; transform: translate(-50%, -50%); border:5px solid black"">","","","","","","","",""
"","733.9999999385327","sequential-stimulus-presentation-old","83","419159","0.0-23.0-1.0","SS1618435637995","trial","","40","500","1233.9999999385327","images/stimuli/spore_stims/complex_13_A_a.gif","images/stimuli/spore_stims/complex_14_A_b.gif","forced_long","","7","complex_dissimilar","images/stimuli/spore_stims/complex_14_A_b.gif","","","","",""
"","null","html-keyboard-response","84","420130","0.0-23.0-0.1","SS1618435637995","","","null","","","","","","<p><img src= images/blank.png width =""600"" height = ""600"" style=""position:fixed;top:50%; left:50%; transform: translate(-50%, -50%); border:5px solid black"">","","","","","","","",""
"","7067.494999966584","sequential-stimulus-presentation-old","85","427702","0.0-23.0-1.1","SS1618435637995","trial","","40","500","7567.494999966584","images/stimuli/spore_stims/complex_13_A_a.gif","images/stimuli/spore_stims/complex_14_A_b.gif","forced_long","","7","complex_dissimilar","images/stimuli/spore_stims/complex_14_A_b.gif","","","","",""
"","null","html-keyboard-response","86","428627","0.0-23.0-0.2","SS1618435637995","","","null","","","","","","<p><img src= images/blank.png width =""600"" height = ""600"" style=""position:fixed;top:50%; left:50%; transform: translate(-50%, -50%); border:5px solid black"">","","","","","","","",""
"","5027.890000026673","sequential-stimulus-presentation-old","87","434158","0.0-23.0-1.2","SS1618435637995","trial","","40","500","5527.890000026673","images/stimuli/spore_stims/complex_13_A_a.gif","images/stimuli/spore_stims/complex_14_A_b.gif","forced_long","","7","complex_dissimilar","images/stimuli/spore_stims/complex_14_A_b.gif","","","","",""
"","null","html-keyboard-response","88","435397","0.0-23.0-0.3","SS1618435637995","","","null","","","","","","<p><img src= images/blank.png width =""600"" height = ""600"" style=""position:fixed;top:50%; left:50%; transform: translate(-50%, -50%); border:5px solid black"">","","","","","","","",""
"","3748.6900000367314","sequential-stimulus-presentation-old","89","439667","0.0-23.0-1.3","SS1618435637995","trial","","40","500","4248.690000036731","images/stimuli/spore_stims/complex_13_A_a.gif","images/stimuli/spore_stims/complex_14_A_b.gif","forced_long","","7","complex_dissimilar","images/stimuli/spore_stims/complex_14_A_b.gif","","","","",""
"","2666.469999938272","survey-multi-choice","90","442335","0.0-24.0","SS1618435637995","math_question","","","","","","","","","","","","{""Q0"":""11""}","[0]","11","",""
"","null","html-keyboard-response","91","443230","0.0-25.0-0.0","SS1618435637995","","","null","","","","","","<p><img src= images/blank.png width =""600"" height = ""600"" style=""position:fixed;top:50%; left:50%; transform: translate(-50%, -50%); border:5px solid black"">","","","","","","","",""
"","1303.3299999078736","sequential-stimulus-presentation-old","92","449544","0.0-25.0-1.0","SS1618435637995","trial","","40","500","1803.3299999078736","images/stimuli/spore_stims/complex_05_A_a.gif","images/stimuli/spore_stims/complex_11_A_b.gif","forced_long","","8","complex_dissimilar","images/stimuli/spore_stims/complex_11_A_b.gif","","","","",""
"","null","html-keyboard-response","93","450522","0.0-25.0-0.1","SS1618435637995","","","null","","","","","","<p><img src= images/blank.png width =""600"" height = ""600"" style=""position:fixed;top:50%; left:50%; transform: translate(-50%, -50%); border:5px solid black"">","","","","","","","",""
"","55661.384999984875","sequential-stimulus-presentation-old","94","506692","0.0-25.0-1.1","SS1618435637995","trial","","40","500","56161.384999984875","images/stimuli/spore_stims/complex_05_A_a.gif","images/stimuli/spore_stims/complex_11_A_b.gif","forced_long","","8","complex_dissimilar","images/stimuli/spore_stims/complex_11_A_b.gif","","","","",""
"","null","html-keyboard-response","95","507657","0.0-25.0-0.2","SS1618435637995","","","null","","","","","","<p><img src= images/blank.png width =""600"" height = ""600"" style=""position:fixed;top:50%; left:50%; transform: translate(-50%, -50%); border:5px solid black"">","","","","","","","",""
"","6126.3899999903515","sequential-stimulus-presentation-old","96","514289","0.0-25.0-1.2","SS1618435637995","trial","","40","500","6626.3899999903515","images/stimuli/spore_stims/complex_05_A_a.gif","images/stimuli/spore_stims/complex_11_A_b.gif","forced_long","","8","complex_dissimilar","images/stimuli/spore_stims/complex_11_A_b.gif","","","","",""
"","null","html-keyboard-response","97","515103","0.0-25.0-0.3","SS1618435637995","","","null","","","","","","<p><img src= images/blank.png width =""600"" height = ""600"" style=""position:fixed;top:50%; left:50%; transform: translate(-50%, -50%); border:5px solid black"">","","","","","","","",""
"","3781.9349999772385","sequential-stimulus-presentation-old","98","519394","0.0-25.0-1.3","SS1618435637995","trial","","40","500","4281.9349999772385","images/stimuli/spore_stims/complex_05_A_a.gif","images/stimuli/spore_stims/complex_11_A_b.gif","forced_long","","8","complex_dissimilar","images/stimuli/spore_stims/complex_11_A_b.gif","","","","",""
"","null","html-keyboard-response","99","520321","0.0-25.0-0.4","SS1618435637995","","","null","","","","","","<p><img src= images/blank.png width =""600"" height = ""600"" style=""position:fixed;top:50%; left:50%; transform: translate(-50%, -50%); border:5px solid black"">","","","","","","","",""
"","3939.379999996163","sequential-stimulus-presentation-old","100","524769","0.0-25.0-1.4","SS1618435637995","trial","","40","500","4439.379999996163","images/stimuli/spore_stims/complex_05_A_a.gif","images/stimuli/spore_stims/complex_11_A_b.gif","forced_long","","8","complex_dissimilar","images/stimuli/spore_stims/complex_11_A_b.gif","","","","",""
"","null","html-keyboard-response","101","526049","0.0-25.0-0.5","SS1618435637995","","","null","","","","","","<p><img src= images/blank.png width =""600"" height = ""600"" style=""position:fixed;top:50%; left:50%; transform: translate(-50%, -50%); border:5px solid black"">","","","","","","","",""
"","5483.514999970794","sequential-stimulus-presentation-old","102","532039","0.0-25.0-1.5","SS1618435637995","trial","","40","500","5983.514999970794","images/stimuli/spore_stims/complex_05_A_a.gif","images/stimuli/spore_stims/complex_11_A_b.gif","forced_long","","8","complex_dissimilar","images/stimuli/spore_stims/complex_11_A_b.gif","","","","",""
"","2189.104999997653","survey-multi-choice","103","534231","0.0-26.0","SS1618435637995","math_question","","","","","","","","","","","","{""Q0"":""7""}","[0]","7","",""
"","null","html-keyboard-response","104","535455","0.0-27.0-0.0","SS1618435637995","","","null","","","","","","<p><img src= images/blank.png width =""600"" height = ""600"" style=""position:fixed;top:50%; left:50%; transform: translate(-50%, -50%); border:5px solid black"">","","","","","","","",""
"","7757.285000057891","sequential-stimulus-presentation-old","105","543720","0.0-27.0-1.0","SS1618435637995","trial","","40","500","8257.285000057891","images/stimuli/spore_stims/complex_02_A_a.gif","images/stimuli/spore_stims/complex_08_A_b.gif","self_paced","","9","complex_dissimilar","images/stimuli/spore_stims/complex_08_A_b.gif","","","","",""
"","null","html-keyboard-response","106","544992","0.0-27.0-0.1","SS1618435637995","","","null","","","","","","<p><img src= images/blank.png width =""600"" height = ""600"" style=""position:fixed;top:50%; left:50%; transform: translate(-50%, -50%); border:5px solid black"">","","","","","","","",""
"","8565.65500004217","sequential-stimulus-presentation-old","107","554066","0.0-27.0-1.1","SS1618435637995","trial","","40","500","9065.65500004217","images/stimuli/spore_stims/complex_02_A_a.gif","images/stimuli/spore_stims/complex_08_A_b.gif","self_paced","","9","complex_dissimilar","images/stimuli/spore_stims/complex_02_A_a.gif","","","","",""
"","null","html-keyboard-response","108","555062","0.0-27.0-0.2","SS1618435637995","","","null","","","","","","<p><img src= images/blank.png width =""600"" height = ""600"" style=""position:fixed;top:50%; left:50%; transform: translate(-50%, -50%); border:5px solid black"">","","","","","","","",""
"","5517.749999999069","sequential-stimulus-presentation-old","109","561090","0.0-27.0-1.2","SS1618435637995","trial","","40","500","6017.749999999069","images/stimuli/spore_stims/complex_02_A_a.gif","images/stimuli/spore_stims/complex_08_A_b.gif","self_paced","","9","complex_dissimilar","images/stimuli/spore_stims/complex_02_A_a.gif","","","","",""
"","null","html-keyboard-response","110","562092","0.0-27.0-0.3","SS1618435637995","","","null","","","","","","<p><img src= images/blank.png width =""600"" height = ""600"" style=""position:fixed;top:50%; left:50%; transform: translate(-50%, -50%); border:5px solid black"">","","","","","","","",""
"","6543.27500006184","sequential-stimulus-presentation-old","111","569140","0.0-27.0-1.3","SS1618435637995","trial","","40","500","7043.27500006184","images/stimuli/spore_stims/complex_02_A_a.gif","images/stimuli/spore_stims/complex_08_A_b.gif","self_paced","","9","complex_dissimilar","images/stimuli/spore_stims/complex_08_A_b.gif","","","","",""
"","null","html-keyboard-response","112","570425","0.0-27.0-0.4","SS1618435637995","","","null","","","","","","<p><img src= images/blank.png width =""600"" height = ""600"" style=""position:fixed;top:50%; left:50%; transform: translate(-50%, -50%); border:5px solid black"">","","","","","","","",""
"","3381.114999996498","sequential-stimulus-presentation-old","113","574327","0.0-27.0-1.4","SS1618435637995","trial","","40","500","3881.114999996498","images/stimuli/spore_stims/complex_02_A_a.gif","images/stimuli/spore_stims/complex_08_A_b.gif","self_paced","","9","complex_dissimilar","images/stimuli/spore_stims/complex_08_A_b.gif","","","","",""
"","2387.8900000127032","survey-multi-choice","114","576717","0.0-28.0","SS1618435637995","math_question","","","","","","","","","","","","{""Q0"":""18""}","[0]","18","",""
"","null","html-keyboard-response","115","577931","0.0-29.0-0.0","SS1618435637995","","","null","","","","","","<p><img src= images/blank.png width =""600"" height = ""600"" style=""position:fixed;top:50%; left:50%; transform: translate(-50%, -50%); border:5px solid black"">","","","","","","","",""
"","8020.724999951199","sequential-stimulus-presentation-old","116","586457","0.0-29.0-1.0","SS1618435637995","trial","","40","500","8520.724999951199","images/stimuli/spore_stims/complex_15_A_a.gif","images/stimuli/spore_stims/complex_03_A_b.gif","self_paced","","10","complex_dissimilar","images/stimuli/spore_stims/complex_03_A_b.gif","","","","",""
"","null","html-keyboard-response","117","587576","0.0-29.0-0.1","SS1618435637995","","","null","","","","","","<p><img src= images/blank.png width =""600"" height = ""600"" style=""position:fixed;top:50%; left:50%; transform: translate(-50%, -50%); border:5px solid black"">","","","","","","","",""
"","7044.274999992922","sequential-stimulus-presentation-old","118","595128","0.0-29.0-1.1","SS1618435637995","trial","","40","500","7544.274999992922","images/stimuli/spore_stims/complex_15_A_a.gif","images/stimuli/spore_stims/complex_03_A_b.gif","self_paced","","10","complex_dissimilar","images/stimuli/spore_stims/complex_03_A_b.gif","","","","",""
"","null","html-keyboard-response","119","596314","0.0-29.0-0.2","SS1618435637995","","","null","","","","","","<p><img src= images/blank.png width =""600"" height = ""600"" style=""position:fixed;top:50%; left:50%; transform: translate(-50%, -50%); border:5px solid black"">","","","","","","","",""
"","5345.100000035018","sequential-stimulus-presentation-old","120","602167","0.0-29.0-1.2","SS1618435637995","trial","","40","500","5845.100000035018","images/stimuli/spore_stims/complex_15_A_a.gif","images/stimuli/spore_stims/complex_03_A_b.gif","self_paced","","10","complex_dissimilar","images/stimuli/spore_stims/complex_03_A_b.gif","","","","",""
"","null","html-keyboard-response","121","603404","0.0-29.0-0.3","SS1618435637995","","","null","","","","","","<p><img src= images/blank.png width =""600"" height = ""600"" style=""position:fixed;top:50%; left:50%; transform: translate(-50%, -50%); border:5px solid black"">","","","","","","","",""
"","5348.775000078604","sequential-stimulus-presentation-old","122","609262","0.0-29.0-1.3","SS1618435637995","trial","","40","500","5848.775000078604","images/stimuli/spore_stims/complex_15_A_a.gif","images/stimuli/spore_stims/complex_03_A_b.gif","self_paced","","10","complex_dissimilar","images/stimuli/spore_stims/complex_03_A_b.gif","","","","",""
"","null","html-keyboard-response","123","610122","0.0-29.0-0.4","SS1618435637995","","","null","","","","","","<p><img src= images/blank.png width =""600"" height = ""600"" style=""position:fixed;top:50%; left:50%; transform: translate(-50%, -50%); border:5px solid black"">","","","","","","","",""
"","5688.820000039414","sequential-stimulus-presentation-old","124","616319","0.0-29.0-1.4","SS1618435637995","trial","","40","500","6188.820000039414","images/stimuli/spore_stims/complex_15_A_a.gif","images/stimuli/spore_stims/complex_03_A_b.gif","self_paced","","10","complex_dissimilar","images/stimuli/spore_stims/complex_03_A_b.gif","","","","",""
"","null","html-keyboard-response","125","617520","0.0-29.0-0.5","SS1618435637995","","","null","","","","","","<p><img src= images/blank.png width =""600"" height = ""600"" style=""position:fixed;top:50%; left:50%; transform: translate(-50%, -50%); border:5px solid black"">","","","","","","","",""
"","3439.0549999661744","sequential-stimulus-presentation-old","126","621467","0.0-29.0-1.5","SS1618435637995","trial","","40","500","3939.0549999661744","images/stimuli/spore_stims/complex_15_A_a.gif","images/stimuli/spore_stims/complex_03_A_b.gif","self_paced","","10","complex_dissimilar","images/stimuli/spore_stims/complex_03_A_b.gif","","","","",""
"","2546.2599999736995","survey-multi-choice","127","624016","0.0-30.0","SS1618435637995","math_question","","","","","","","","","","","","{""Q0"":""8""}","[0]","8","",""
"","null","html-keyboard-response","128","624931","0.0-31.0-0.0","SS1618435637995","","","null","","","","","","<p><img src= images/blank.png width =""600"" height = ""600"" style=""position:fixed;top:50%; left:50%; transform: translate(-50%, -50%); border:5px solid black"">","","","","","","","",""
"","7660.455000004731","sequential-stimulus-presentation-old","129","633096","0.0-31.0-1.0","SS1618435637995","trial","","40","500","8160.455000004731","images/stimuli/spore_stims/simple_11_A_a.gif","images/stimuli/spore_stims/simple_18_A_b.gif","self_paced","","11","simple_dissimilar","images/stimuli/spore_stims/simple_18_A_b.gif","","","","",""
"","null","html-keyboard-response","130","634095","0.0-31.0-0.1","SS1618435637995","","","null","","","","","","<p><img src= images/blank.png width =""600"" height = ""600"" style=""position:fixed;top:50%; left:50%; transform: translate(-50%, -50%); border:5px solid black"">","","","","","","","",""
"","8682.505000033416","sequential-stimulus-presentation-old","131","643284","0.0-31.0-1.1","SS1618435637995","trial","","40","500","9182.505000033416","images/stimuli/spore_stims/simple_11_A_a.gif","images/stimuli/spore_stims/simple_18_A_b.gif","self_paced","","11","simple_dissimilar","images/stimuli/spore_stims/simple_18_A_b.gif","","","","",""
"","null","html-keyboard-response","132","644323","0.0-31.0-0.2","SS1618435637995","","","null","","","","","","<p><img src= images/blank.png width =""600"" height = ""600"" style=""position:fixed;top:50%; left:50%; transform: translate(-50%, -50%); border:5px solid black"">","","","","","","","",""
"","6275.400000042282","sequential-stimulus-presentation-old","133","651104","0.0-31.0-1.2","SS1618435637995","trial","","40","500","6775.400000042282","images/stimuli/spore_stims/simple_11_A_a.gif","images/stimuli/spore_stims/simple_18_A_b.gif","self_paced","","11","simple_dissimilar","images/stimuli/spore_stims/simple_11_A_a.gif","","","","",""
"","null","html-keyboard-response","134","651995","0.0-31.0-0.3","SS1618435637995","","","null","","","","","","<p><img src= images/blank.png width =""600"" height = ""600"" style=""position:fixed;top:50%; left:50%; transform: translate(-50%, -50%); border:5px solid black"">","","","","","","","",""
"","3953.815000015311","sequential-stimulus-presentation-old","135","656457","0.0-31.0-1.3","SS1618435637995","trial","","40","500","4453.815000015311","images/stimuli/spore_stims/simple_11_A_a.gif","images/stimuli/spore_stims/simple_18_A_b.gif","self_paced","","11","simple_dissimilar","images/stimuli/spore_stims/simple_18_A_b.gif","","","","",""
"","null","html-keyboard-response","136","657559","0.0-31.0-0.4","SS1618435637995","","","null","","","","","","<p><img src= images/blank.png width =""600"" height = ""600"" style=""position:fixed;top:50%; left:50%; transform: translate(-50%, -50%); border:5px solid black"">","","","","","","","",""
"","3601.550000021234","sequential-stimulus-presentation-old","137","661671","0.0-31.0-1.4","SS1618435637995","trial","","40","500","4101.550000021234","images/stimuli/spore_stims/simple_11_A_a.gif","images/stimuli/spore_stims/simple_18_A_b.gif","self_paced","","11","simple_dissimilar","images/stimuli/spore_stims/simple_11_A_a.gif","","","","",""
"","null","html-keyboard-response","138","662735","0.0-31.0-0.5","SS1618435637995","","","null","","","","","","<p><img src= images/blank.png width =""600"" height = ""600"" style=""position:fixed;top:50%; left:50%; transform: translate(-50%, -50%); border:5px solid black"">","","","","","","","",""
"","5501.309999963269","sequential-stimulus-presentation-old","139","668747","0.0-31.0-1.5","SS1618435637995","trial","","40","500","6001.309999963269","images/stimuli/spore_stims/simple_11_A_a.gif","images/stimuli/spore_stims/simple_18_A_b.gif","self_paced","","11","simple_dissimilar","images/stimuli/spore_stims/simple_18_A_b.gif","","","","",""
"[{""page_index"":0,""viewing_time"":3262.070000055246}]","3262.430000002496","instructions","140","672012","0.0-32.0","SS1618435637995","instructions","","","","","","","","","","","","","","","",""
"","8205.874999985099","survey-likert","141","680221","0.0-33.0","SS1618435637995","similarity_question","","","","","","","","","","","","{""Q0"":4}","[0]","","images/stimuli/spore_stims/complex_03_A_b.gif","images/stimuli/spore_stims/complex_15_A_a.gif"
"","6043.420000001788","survey-likert","142","686269","0.0-34.0","SS1618435637995","similarity_question","","","","","","","","","","","","{""Q0"":1}","[0]","","images/stimuli/spore_stims/simple_04_A_b.gif","images/stimuli/spore_stims/simple_20_A_a.gif"
"","3202.7300000190735","survey-likert","143","689476","0.0-35.0","SS1618435637995","similarity_question","","","","","","","","","","","","{""Q0"":0}","[0]","","images/stimuli/spore_stims/simple_18_A_b.gif","images/stimuli/spore_stims/simple_11_A_a.gif"
"","7009.994999971241","survey-likert","144","696489","0.0-36.0","SS1618435637995","similarity_question","","","","","","","","","","","","{""Q0"":0}","[0]","","images/stimuli/spore_stims/complex_02_A_a.gif","images/stimuli/spore_stims/complex_08_A_b.gif"
"","3606.719999923371","survey-likert","145","700100","0.0-37.0","SS1618435637995","similarity_question","","","","","","","","","","","","{""Q0"":2}","[0]","","images/stimuli/spore_stims/simple_05_A_a.gif","images/stimuli/spore_stims/simple_20_A_b.gif"
"","3671.0800000000745","survey-likert","146","703775","0.0-38.0","SS1618435637995","similarity_question","","","","","","","","","","","","{""Q0"":4}","[0]","","images/stimuli/spore_stims/simple_14_A_b.gif","images/stimuli/spore_stims/simple_13_A_a.gif"
"","4304.4450000161305","survey-likert","147","708082","0.0-39.0","SS1618435637995","similarity_question","","","","","","","","","","","","{""Q0"":1}","[0]","","images/stimuli/spore_stims/complex_14_A_b.gif","images/stimuli/spore_stims/complex_13_A_a.gif"
"","3941.7149999644607","survey-likert","148","712027","0.0-40.0","SS1618435637995","similarity_question","","","","","","","","","","","","{""Q0"":0}","[0]","","images/stimuli/spore_stims/complex_05_A_b.gif","images/stimuli/spore_stims/complex_04_A_a.gif"
"","4557.755000074394","survey-likert","149","716588","0.0-41.0","SS1618435637995","similarity_question","","","","","","","","","","","","{""Q0"":0}","[0]","","images/stimuli/spore_stims/complex_11_A_b.gif","images/stimuli/spore_stims/complex_05_A_a.gif"
"","3753.344999975525","survey-likert","150","720346","0.0-42.0","SS1618435637995","similarity_question","","","","","","","","","","","","{""Q0"":2}","[0]","","images/stimuli/spore_stims/simple_19_A_a.gif","images/stimuli/spore_stims/simple_06_A_b.gif"
"","5383.8700000196695","survey-likert","151","725734","0.0-43.0","SS1618435637995","similarity_question","","","","","","","","","","","","{""Q0"":4}","[0]","","images/stimuli/spore_stims/simple_02_A_a.gif","images/stimuli/spore_stims/simple_03_A_b.gif"
"","3881.0199999716133","survey-likert","152","729620","0.0-44.0","SS1618435637995","similarity_question","","","","","","","","","","","","{""Q0"":2}","[0]","","images/stimuli/spore_stims/complex_04_A_b.gif","images/stimuli/spore_stims/complex_14_A_a.gif"
"[{""page_index"":0,""viewing_time"":3214.6199999842793}]","3214.8599999491125","instructions","153","732838","0.0-45.0","SS1618435637995","instructions","","","","","","","","","","","","","","","",""
"","5866.019999957643","survey-likert","154","738708","0.0-46.0","SS1618435637995","","","","","","","","","images/stimuli/spore_stims/complex_03_A_b.gif","","","","{""Q0"":4}","[0]","","",""
"","3695.809999946505","survey-likert","155","742407","0.0-47.0","SS1618435637995","","","","","","","","","images/stimuli/spore_stims/complex_04_A_a.gif","","","","{""Q0"":5}","[0]","","",""
"","3397.0449999906123","survey-likert","156","745809","0.0-48.0","SS1618435637995","","","","","","","","","images/stimuli/spore_stims/complex_04_A_b.gif","","","","{""Q0"":5}","[0]","","",""
"","2605.3049999754876","survey-likert","157","748419","0.0-49.0","SS1618435637995","","","","","","","","","images/stimuli/spore_stims/simple_05_A_a.gif","","","","{""Q0"":0}","[0]","","",""
"","3801.355000003241","survey-likert","158","752223","0.0-50.0","SS1618435637995","","","","","","","","","images/stimuli/spore_stims/complex_13_A_a.gif","","","","{""Q0"":5}","[0]","","",""
"","3335.4200000176206","survey-likert","159","755563","0.0-51.0","SS1618435637995","","","","","","","","","images/stimuli/spore_stims/simple_14_A_b.gif","","","","{""Q0"":1}","[0]","","",""
"","1439.1299999551848","survey-likert","160","757006","0.0-52.0","SS1618435637995","","","","","","","","","images/stimuli/spore_stims/simple_02_A_a.gif","","","","{""Q0"":0}","[0]","","",""
"","2533.3000000100583","survey-likert","161","759543","0.0-53.0","SS1618435637995","","","","","","","","","images/stimuli/spore_stims/simple_20_A_a.gif","","","","{""Q0"":1}","[0]","","",""
"","1888.9600000111386","survey-likert","162","761435","0.0-54.0","SS1618435637995","","","","","","","","","images/stimuli/spore_stims/simple_11_A_a.gif","","","","{""Q0"":2}","[0]","","",""
"","1777.3350001079962","survey-likert","163","763216","0.0-55.0","SS1618435637995","","","","","","","","","images/stimuli/spore_stims/simple_06_A_b.gif","","","","{""Q0"":1}","[0]","","",""
"","3793.1700000772253","survey-likert","164","767015","0.0-56.0","SS1618435637995","","","","","","","","","images/stimuli/spore_stims/complex_08_A_b.gif","","","","{""Q0"":4}","[0]","","",""
"","5121.925000101328","survey-likert","165","772140","0.0-57.0","SS1618435637995","","","","","","","","","images/stimuli/spore_stims/complex_05_A_a.gif","","","","{""Q0"":4}","[0]","","",""
"[{""page_index"":0,""viewing_time"":1450.9049999760464}]","1451.2749999994412","instructions","166","773595","0.0-58.0","SS1618435637995","instructions","","","","","","","","","","","","","","","",""
"","1921.6449999948964","demog-age","167","775525","0.0-59.0","SS1618435637995","","","","","","","","","","","","","{""age"":""20""}","","","",""
"","4078.2700000563636","demog-ethnic-US","168","779611","0.0-60.0","SS1618435637995","","","","","","","","","","","","","{""ethnicity"":[""White""]}","[0]","","",""
"","8711.455000098795","demog-gender-and-education","169","788327","0.0-61.0","SS1618435637995","","","","","","","","","","","","","{""gender"":""Male"",""education"":""High school diploma""}","[0,1]","","",""
"","10819.510000059381","survey-text","170","799152","0.0-62.0","SS1618435637995","feedback","","","","","","","","","","","","{""Q0"":""I had no issues with the experiment""}","","","",""
"[{""page_index"":0,""viewing_time"":1120.560000068508}]","1120.7700000377372","instructions","171","800277","0.0-63.0","SS1618435637995","instructions","","","","","","","","","","","","","","","",""
