"view_history","rt","trial_type","trial_index","time_elapsed","internal_node_id","subject","stimulus_type","trial_stimulus","key_press","minimum_viewing_duration","trial_looking_time","block_deviant","block_background","exposure_type","stimulus","block_number","block_type","stimulus_displayed","responses","question_order","math_correct_answer","stimulus_left","stimulus_right"
"[{""page_index"":0,""viewing_time"":28053.404999998747}]","28053.69499999506","instructions","0","28055","0.0-0.0","SS1618435635415","","","","","","","","","","","","","","","","",""
"[{""page_index"":0,""viewing_time"":1442.6600000006147},{""page_index"":1,""viewing_time"":5054.105000002892}]","6496.9400000118185","instructions","1","36561","0.0-1.0","SS1618435635415","instructions","","","","","","","","","","","","","","","",""
"","4603.86999999173","sequential-stimulus-presentation-old","2","41679","0.0-2.0","SS1618435635415","","","40","500","5103.86999999173","null","null","self_paced","","","","","","","","",""
"","2495.694999990519","sequential-stimulus-presentation-old","3","44686","0.0-3.0","SS1618435635415","","","40","500","2995.694999990519","null","null","self_paced","","","","","","","","",""
"[{""page_index"":0,""viewing_time"":1821.9850000023143}]","1822.165000005043","instructions","4","46508","0.0-4.0","SS1618435635415","instructions","","","","","","","","","","","","","","","",""
"","4030.7800000009593","sequential-stimulus-presentation-old","5","55541","0.0-5.0","SS1618435635415","","","40","500","4530.780000000959","null","null","forced_long","","","","","","","","",""
"","4301.7000000108965","sequential-stimulus-presentation-old","6","59894","0.0-6.0","SS1618435635415","","","40","50","4351.7000000108965","null","null","forced_long","","","","","","","","",""
"[{""page_index"":0,""viewing_time"":1633.6149999988265}]","1633.7700000003679","instructions","7","61528","0.0-7.0","SS1618435635415","instructions","","","","","","","","","","","","","","","",""
"[{""page_index"":0,""viewing_time"":920.189999989816},{""page_index"":1,""viewing_time"":1241.1550000106217},{""page_index"":2,""viewing_time"":510.84000000264496},{""page_index"":3,""viewing_time"":1851.1149999976624},{""page_index"":4,""viewing_time"":829.939999995986}]","5353.424999993877","instructions","8","66882","0.0-8.0","SS1618435635415","instructions","","","","","","","","","","","","","","","",""
"","null","html-keyboard-response","9","68188","0.0-9.0-0.0","SS1618435635415","","","null","","","","","","<p><img src= images/blank.png width =""600"" height = ""600"" style=""position:fixed;top:50%; left:50%; transform: translate(-50%, -50%); border:5px solid black"">","","","","","","","",""
"","440.0900000036927","sequential-stimulus-presentation-old","10","68690","0.0-9.0-1.0","SS1618435635415","trial","","40","500","940.0900000036927","images/stimuli/spore_stims/simple_15_A_a.gif","images/stimuli/spore_stims/simple_02_A_b.gif","forced_short","","0","simple_dissimilar","images/stimuli/spore_stims/simple_02_A_b.gif","","","","",""
"","null","html-keyboard-response","11","69970","0.0-9.0-0.1","SS1618435635415","","","null","","","","","","<p><img src= images/blank.png width =""600"" height = ""600"" style=""position:fixed;top:50%; left:50%; transform: translate(-50%, -50%); border:5px solid black"">","","","","","","","",""
"","386.74999999057036","sequential-stimulus-presentation-old","12","70859","0.0-9.0-1.1","SS1618435635415","trial","","40","500","886.7499999905704","images/stimuli/spore_stims/simple_15_A_a.gif","images/stimuli/spore_stims/simple_02_A_b.gif","forced_short","","0","simple_dissimilar","images/stimuli/spore_stims/simple_02_A_b.gif","","","","",""
"","null","html-keyboard-response","13","71996","0.0-9.0-0.2","SS1618435635415","","","null","","","","","","<p><img src= images/blank.png width =""600"" height = ""600"" style=""position:fixed;top:50%; left:50%; transform: translate(-50%, -50%); border:5px solid black"">","","","","","","","",""
"","1087.4800000019604","sequential-stimulus-presentation-old","14","73598","0.0-9.0-1.2","SS1618435635415","trial","","40","500","1587.4800000019604","images/stimuli/spore_stims/simple_15_A_a.gif","images/stimuli/spore_stims/simple_02_A_b.gif","forced_short","","0","simple_dissimilar","images/stimuli/spore_stims/simple_15_A_a.gif","","","","",""
"","null","html-keyboard-response","15","74516","0.0-9.0-0.3","SS1618435635415","","","null","","","","","","<p><img src= images/blank.png width =""600"" height = ""600"" style=""position:fixed;top:50%; left:50%; transform: translate(-50%, -50%); border:5px solid black"">","","","","","","","",""
"","243.58999999822117","sequential-stimulus-presentation-old","16","75261","0.0-9.0-1.3","SS1618435635415","trial","","40","500","743.5899999982212","images/stimuli/spore_stims/simple_15_A_a.gif","images/stimuli/spore_stims/simple_02_A_b.gif","forced_short","","0","simple_dissimilar","images/stimuli/spore_stims/simple_02_A_b.gif","","","","",""
"","null","html-keyboard-response","17","76084","0.0-9.0-0.4","SS1618435635415","","","null","","","","","","<p><img src= images/blank.png width =""600"" height = ""600"" style=""position:fixed;top:50%; left:50%; transform: translate(-50%, -50%); border:5px solid black"">","","","","","","","",""
"","77.96500000404194","sequential-stimulus-presentation-old","18","76664","0.0-9.0-1.4","SS1618435635415","trial","","40","500","577.9650000040419","images/stimuli/spore_stims/simple_15_A_a.gif","images/stimuli/spore_stims/simple_02_A_b.gif","forced_short","","0","simple_dissimilar","images/stimuli/spore_stims/simple_02_A_b.gif","","","","",""
"","4066.575000004377","survey-multi-choice","19","80734","0.0-10.0","SS1618435635415","math_question","","","","","","","","","","","","{""Q0"":""9""}","[0]","9","",""
"","null","html-keyboard-response","20","81568","0.0-11.0-0.0","SS1618435635415","","","null","","","","","","<p><img src= images/blank.png width =""600"" height = ""600"" style=""position:fixed;top:50%; left:50%; transform: translate(-50%, -50%); border:5px solid black"">","","","","","","","",""
"","372.71000001055654","sequential-stimulus-presentation-old","21","82444","0.0-11.0-1.0","SS1618435635415","trial","","40","500","872.7100000105565","images/stimuli/spore_stims/simple_02_A_a.gif","images/stimuli/spore_stims/simple_10_A_b.gif","self_paced","","1","simple_dissimilar","images/stimuli/spore_stims/simple_10_A_b.gif","","","","",""
"","null","html-keyboard-response","22","83501","0.0-11.0-0.1","SS1618435635415","","","null","","","","","","<p><img src= images/blank.png width =""600"" height = ""600"" style=""position:fixed;top:50%; left:50%; transform: translate(-50%, -50%); border:5px solid black"">","","","","","","","",""
"","279.6050000033574","sequential-stimulus-presentation-old","23","84282","0.0-11.0-1.1","SS1618435635415","trial","","40","500","779.6050000033574","images/stimuli/spore_stims/simple_02_A_a.gif","images/stimuli/spore_stims/simple_10_A_b.gif","self_paced","","1","simple_dissimilar","images/stimuli/spore_stims/simple_10_A_b.gif","","","","",""
"","null","html-keyboard-response","24","85469","0.0-11.0-0.2","SS1618435635415","","","null","","","","","","<p><img src= images/blank.png width =""600"" height = ""600"" style=""position:fixed;top:50%; left:50%; transform: translate(-50%, -50%); border:5px solid black"">","","","","","","","",""
"","433.3349999942584","sequential-stimulus-presentation-old","25","86406","0.0-11.0-1.2","SS1618435635415","trial","","40","500","933.3349999942584","images/stimuli/spore_stims/simple_02_A_a.gif","images/stimuli/spore_stims/simple_10_A_b.gif","self_paced","","1","simple_dissimilar","images/stimuli/spore_stims/simple_10_A_b.gif","","","","",""
"","null","html-keyboard-response","26","87693","0.0-11.0-0.3","SS1618435635415","","","null","","","","","","<p><img src= images/blank.png width =""600"" height = ""600"" style=""position:fixed;top:50%; left:50%; transform: translate(-50%, -50%); border:5px solid black"">","","","","","","","",""
"","70.59499999741092","sequential-stimulus-presentation-old","27","88266","0.0-11.0-1.3","SS1618435635415","trial","","40","500","570.5949999974109","images/stimuli/spore_stims/simple_02_A_a.gif","images/stimuli/spore_stims/simple_10_A_b.gif","self_paced","","1","simple_dissimilar","images/stimuli/spore_stims/simple_10_A_b.gif","","","","",""
"","null","html-keyboard-response","28","89471","0.0-11.0-0.4","SS1618435635415","","","null","","","","","","<p><img src= images/blank.png width =""600"" height = ""600"" style=""position:fixed;top:50%; left:50%; transform: translate(-50%, -50%); border:5px solid black"">","","","","","","","",""
"","317.6050000038231","sequential-stimulus-presentation-old","29","90304","0.0-11.0-1.4","SS1618435635415","trial","","40","500","817.6050000038231","images/stimuli/spore_stims/simple_02_A_a.gif","images/stimuli/spore_stims/simple_10_A_b.gif","self_paced","","1","simple_dissimilar","images/stimuli/spore_stims/simple_10_A_b.gif","","","","",""
"","null","html-keyboard-response","30","91519","0.0-11.0-0.5","SS1618435635415","","","null","","","","","","<p><img src= images/blank.png width =""600"" height = ""600"" style=""position:fixed;top:50%; left:50%; transform: translate(-50%, -50%); border:5px solid black"">","","","","","","","",""
"","372.04499999643303","sequential-stimulus-presentation-old","31","92395","0.0-11.0-1.5","SS1618435635415","trial","","40","500","872.044999996433","images/stimuli/spore_stims/simple_02_A_a.gif","images/stimuli/spore_stims/simple_10_A_b.gif","self_paced","","1","simple_dissimilar","images/stimuli/spore_stims/simple_02_A_a.gif","","","","",""
"","3968.009999996866","survey-multi-choice","32","96365","0.0-12.0","SS1618435635415","math_question","","","","","","","","","","","","{""Q0"":""18""}","[0]","18","",""
"","null","html-keyboard-response","33","97237","0.0-13.0-0.0","SS1618435635415","","","null","","","","","","<p><img src= images/blank.png width =""600"" height = ""600"" style=""position:fixed;top:50%; left:50%; transform: translate(-50%, -50%); border:5px solid black"">","","","","","","","",""
"","1208.3000000129687","sequential-stimulus-presentation-old","34","103447","0.0-13.0-1.0","SS1618435635415","trial","","40","500","1708.3000000129687","images/stimuli/spore_stims/complex_02_A_b.gif","images/stimuli/spore_stims/complex_01_A_a.gif","forced_long","","2","complex_dissimilar","images/stimuli/spore_stims/complex_01_A_a.gif","","","","",""
"","null","html-keyboard-response","35","104552","0.0-13.0-0.1","SS1618435635415","","","null","","","","","","<p><img src= images/blank.png width =""600"" height = ""600"" style=""position:fixed;top:50%; left:50%; transform: translate(-50%, -50%); border:5px solid black"">","","","","","","","",""
"","113.22499999369029","sequential-stimulus-presentation-old","36","105167","0.0-13.0-1.1","SS1618435635415","trial","","40","500","613.2249999936903","images/stimuli/spore_stims/complex_02_A_b.gif","images/stimuli/spore_stims/complex_01_A_a.gif","forced_long","","2","complex_dissimilar","images/stimuli/spore_stims/complex_01_A_a.gif","","","","",""
"","null","html-keyboard-response","37","106234","0.0-13.0-0.2","SS1618435635415","","","null","","","","","","<p><img src= images/blank.png width =""600"" height = ""600"" style=""position:fixed;top:50%; left:50%; transform: translate(-50%, -50%); border:5px solid black"">","","","","","","","",""
"","600.2149999985704","sequential-stimulus-presentation-old","38","107336","0.0-13.0-1.2","SS1618435635415","trial","","40","500","1100.2149999985704","images/stimuli/spore_stims/complex_02_A_b.gif","images/stimuli/spore_stims/complex_01_A_a.gif","forced_long","","2","complex_dissimilar","images/stimuli/spore_stims/complex_01_A_a.gif","","","","",""
"","null","html-keyboard-response","39","108452","0.0-13.0-0.3","SS1618435635415","","","null","","","","","","<p><img src= images/blank.png width =""600"" height = ""600"" style=""position:fixed;top:50%; left:50%; transform: translate(-50%, -50%); border:5px solid black"">","","","","","","","",""
"","4788.354999996955","sequential-stimulus-presentation-old","40","113916","0.0-13.0-1.3","SS1618435635415","trial","","40","500","5288.354999996955","images/stimuli/spore_stims/complex_02_A_b.gif","images/stimuli/spore_stims/complex_01_A_a.gif","forced_long","","2","complex_dissimilar","images/stimuli/spore_stims/complex_01_A_a.gif","","","","",""
"","null","html-keyboard-response","41","114966","0.0-13.0-0.4","SS1618435635415","","","null","","","","","","<p><img src= images/blank.png width =""600"" height = ""600"" style=""position:fixed;top:50%; left:50%; transform: translate(-50%, -50%); border:5px solid black"">","","","","","","","",""
"","122.92499998875428","sequential-stimulus-presentation-old","42","115591","0.0-13.0-1.4","SS1618435635415","trial","","40","500","622.9249999887543","images/stimuli/spore_stims/complex_02_A_b.gif","images/stimuli/spore_stims/complex_01_A_a.gif","forced_long","","2","complex_dissimilar","images/stimuli/spore_stims/complex_02_A_b.gif","","","","",""
"","null","html-keyboard-response","43","116405","0.0-13.0-0.5","SS1618435635415","","","null","","","","","","<p><img src= images/blank.png width =""600"" height = ""600"" style=""position:fixed;top:50%; left:50%; transform: translate(-50%, -50%); border:5px solid black"">","","","","","","","",""
"","9693.834999998217","sequential-stimulus-presentation-old","44","126813","0.0-13.0-1.5","SS1618435635415","trial","","40","500","10193.834999998217","images/stimuli/spore_stims/complex_02_A_b.gif","images/stimuli/spore_stims/complex_01_A_a.gif","forced_long","","2","complex_dissimilar","images/stimuli/spore_stims/complex_02_A_b.gif","","","","",""
"","2414.4499999965774","survey-multi-choice","45","129228","0.0-14.0","SS1618435635415","math_question","","","","","","","","","","","","{""Q0"":""4""}","[0]","4","",""
"","null","html-keyboard-response","46","130505","0.0-15.0-0.0","SS1618435635415","","","null","","","","","","<p><img src= images/blank.png width =""600"" height = ""600"" style=""position:fixed;top:50%; left:50%; transform: translate(-50%, -50%); border:5px solid black"">","","","","","","","",""
"","242.64499999117106","sequential-stimulus-presentation-old","47","135764","0.0-15.0-1.0","SS1618435635415","trial","","40","500","742.6449999911711","images/stimuli/spore_stims/simple_19_A_a.gif","images/stimuli/spore_stims/simple_16_A_b.gif","forced_long","","3","simple_dissimilar","images/stimuli/spore_stims/simple_16_A_b.gif","","","","",""
"","null","html-keyboard-response","48","136731","0.0-15.0-0.1","SS1618435635415","","","null","","","","","","<p><img src= images/blank.png width =""600"" height = ""600"" style=""position:fixed;top:50%; left:50%; transform: translate(-50%, -50%); border:5px solid black"">","","","","","","","",""
"","193.35500001034234","sequential-stimulus-presentation-old","49","137427","0.0-15.0-1.1","SS1618435635415","trial","","40","500","693.3550000103423","images/stimuli/spore_stims/simple_19_A_a.gif","images/stimuli/spore_stims/simple_16_A_b.gif","forced_long","","3","simple_dissimilar","images/stimuli/spore_stims/simple_16_A_b.gif","","","","",""
"","null","html-keyboard-response","50","138658","0.0-15.0-0.2","SS1618435635415","","","null","","","","","","<p><img src= images/blank.png width =""600"" height = ""600"" style=""position:fixed;top:50%; left:50%; transform: translate(-50%, -50%); border:5px solid black"">","","","","","","","",""
"","153.70000000984874","sequential-stimulus-presentation-old","51","139315","0.0-15.0-1.2","SS1618435635415","trial","","40","500","653.7000000098487","images/stimuli/spore_stims/simple_19_A_a.gif","images/stimuli/spore_stims/simple_16_A_b.gif","forced_long","","3","simple_dissimilar","images/stimuli/spore_stims/simple_19_A_a.gif","","","","",""
"","null","html-keyboard-response","52","140444","0.0-15.0-0.3","SS1618435635415","","","null","","","","","","<p><img src= images/blank.png width =""600"" height = ""600"" style=""position:fixed;top:50%; left:50%; transform: translate(-50%, -50%); border:5px solid black"">","","","","","","","",""
"","161.64999999455176","sequential-stimulus-presentation-old","53","141109","0.0-15.0-1.3","SS1618435635415","trial","","40","500","661.6499999945518","images/stimuli/spore_stims/simple_19_A_a.gif","images/stimuli/spore_stims/simple_16_A_b.gif","forced_long","","3","simple_dissimilar","images/stimuli/spore_stims/simple_16_A_b.gif","","","","",""
"","2769.1849999973783","survey-multi-choice","54","143880","0.0-16.0","SS1618435635415","math_question","","","","","","","","","","","","{""Q0"":""11""}","[0]","11","",""
"","null","html-keyboard-response","55","145010","0.0-17.0-0.0","SS1618435635415","","","null","","","","","","<p><img src= images/blank.png width =""600"" height = ""600"" style=""position:fixed;top:50%; left:50%; transform: translate(-50%, -50%); border:5px solid black"">","","","","","","","",""
"","71.70499999483582","sequential-stimulus-presentation-old","56","145593","0.0-17.0-1.0","SS1618435635415","trial","","40","500","571.7049999948358","images/stimuli/spore_stims/complex_18_A_a.gif","images/stimuli/spore_stims/complex_05_A_b.gif","self_paced","","4","complex_dissimilar","images/stimuli/spore_stims/complex_05_A_b.gif","","","","",""
"","null","html-keyboard-response","57","147126","0.0-17.0-0.1","SS1618435635415","","","null","","","","","","<p><img src= images/blank.png width =""600"" height = ""600"" style=""position:fixed;top:50%; left:50%; transform: translate(-50%, -50%); border:5px solid black"">","","","","","","","",""
"","96.16499999538064","sequential-stimulus-presentation-old","58","147725","0.0-17.0-1.1","SS1618435635415","trial","","40","500","596.1649999953806","images/stimuli/spore_stims/complex_18_A_a.gif","images/stimuli/spore_stims/complex_05_A_b.gif","self_paced","","4","complex_dissimilar","images/stimuli/spore_stims/complex_05_A_b.gif","","","","",""
"","null","html-keyboard-response","59","148821","0.0-17.0-0.2","SS1618435635415","","","null","","","","","","<p><img src= images/blank.png width =""600"" height = ""600"" style=""position:fixed;top:50%; left:50%; transform: translate(-50%, -50%); border:5px solid black"">","","","","","","","",""
"","33.21500000311062","sequential-stimulus-presentation-old","60","149356","0.0-17.0-1.2","SS1618435635415","trial","","40","500","533.2150000031106","images/stimuli/spore_stims/complex_18_A_a.gif","images/stimuli/spore_stims/complex_05_A_b.gif","self_paced","","4","complex_dissimilar","images/stimuli/spore_stims/complex_05_A_b.gif","","","","",""
"","null","html-keyboard-response","61","150441","0.0-17.0-0.3","SS1618435635415","","","null","","","","","","<p><img src= images/blank.png width =""600"" height = ""600"" style=""position:fixed;top:50%; left:50%; transform: translate(-50%, -50%); border:5px solid black"">","","","","","","","",""
"","96.43000000505708","sequential-stimulus-presentation-old","62","151040","0.0-17.0-1.3","SS1618435635415","trial","","40","500","596.4300000050571","images/stimuli/spore_stims/complex_18_A_a.gif","images/stimuli/spore_stims/complex_05_A_b.gif","self_paced","","4","complex_dissimilar","images/stimuli/spore_stims/complex_18_A_a.gif","","","","",""
"","9259.384999997565","survey-multi-choice","63","160302","0.0-18.0","SS1618435635415","math_question","","","","","","","","","","","","{""Q0"":""11""}","[0]","11","",""
"","null","html-keyboard-response","64","161328","0.0-19.0-0.0","SS1618435635415","","","null","","","","","","<p><img src= images/blank.png width =""600"" height = ""600"" style=""position:fixed;top:50%; left:50%; transform: translate(-50%, -50%); border:5px solid black"">","","","","","","","",""
"","557.9900000011548","sequential-stimulus-presentation-old","65","161945","0.0-19.0-1.0","SS1618435635415","trial","","40","500","1057.9900000011548","images/stimuli/spore_stims/complex_20_A_b.gif","images/stimuli/spore_stims/complex_16_A_a.gif","forced_short","","5","complex_dissimilar","images/stimuli/spore_stims/complex_16_A_a.gif","","","","",""
"","null","html-keyboard-response","66","163199","0.0-19.0-0.1","SS1618435635415","","","null","","","","","","<p><img src= images/blank.png width =""600"" height = ""600"" style=""position:fixed;top:50%; left:50%; transform: translate(-50%, -50%); border:5px solid black"">","","","","","","","",""
"","81.96000001044013","sequential-stimulus-presentation-old","67","163784","0.0-19.0-1.1","SS1618435635415","trial","","40","500","581.9600000104401","images/stimuli/spore_stims/complex_20_A_b.gif","images/stimuli/spore_stims/complex_16_A_a.gif","forced_short","","5","complex_dissimilar","images/stimuli/spore_stims/complex_16_A_a.gif","","","","",""
"","null","html-keyboard-response","68","164813","0.0-19.0-0.2","SS1618435635415","","","null","","","","","","<p><img src= images/blank.png width =""600"" height = ""600"" style=""position:fixed;top:50%; left:50%; transform: translate(-50%, -50%); border:5px solid black"">","","","","","","","",""
"","5.035000009229407","sequential-stimulus-presentation-old","69","165321","0.0-19.0-1.2","SS1618435635415","trial","","40","500","505.0350000092294","images/stimuli/spore_stims/complex_20_A_b.gif","images/stimuli/spore_stims/complex_16_A_a.gif","forced_short","","5","complex_dissimilar","images/stimuli/spore_stims/complex_20_A_b.gif","","","","",""
"","null","html-keyboard-response","70","166485","0.0-19.0-0.3","SS1618435635415","","","null","","","","","","<p><img src= images/blank.png width =""600"" height = ""600"" style=""position:fixed;top:50%; left:50%; transform: translate(-50%, -50%); border:5px solid black"">","","","","","","","",""
"","78.6999999982072","sequential-stimulus-presentation-old","71","167066","0.0-19.0-1.3","SS1618435635415","trial","","40","500","578.6999999982072","images/stimuli/spore_stims/complex_20_A_b.gif","images/stimuli/spore_stims/complex_16_A_a.gif","forced_short","","5","complex_dissimilar","images/stimuli/spore_stims/complex_16_A_a.gif","","","","",""
"","null","html-keyboard-response","72","168328","0.0-19.0-0.4","SS1618435635415","","","null","","","","","","<p><img src= images/blank.png width =""600"" height = ""600"" style=""position:fixed;top:50%; left:50%; transform: translate(-50%, -50%); border:5px solid black"">","","","","","","","",""
"","101.17000000900589","sequential-stimulus-presentation-old","73","168934","0.0-19.0-1.4","SS1618435635415","trial","","40","500","601.1700000090059","images/stimuli/spore_stims/complex_20_A_b.gif","images/stimuli/spore_stims/complex_16_A_a.gif","forced_short","","5","complex_dissimilar","images/stimuli/spore_stims/complex_20_A_b.gif","","","","",""
"","2443.375000002561","survey-multi-choice","74","171379","0.0-20.0","SS1618435635415","math_question","","","","","","","","","","","","{""Q0"":""8""}","[0]","8","",""
"","null","html-keyboard-response","75","172397","0.0-21.0-0.0","SS1618435635415","","","null","","","","","","<p><img src= images/blank.png width =""600"" height = ""600"" style=""position:fixed;top:50%; left:50%; transform: translate(-50%, -50%); border:5px solid black"">","","","","","","","",""
"","26.529999988269992","sequential-stimulus-presentation-old","76","172926","0.0-21.0-1.0","SS1618435635415","trial","","40","500","526.52999998827","images/stimuli/spore_stims/complex_16_A_b.gif","images/stimuli/spore_stims/complex_17_A_a.gif","self_paced","","6","complex_dissimilar","images/stimuli/spore_stims/complex_17_A_a.gif","","","","",""
"","null","html-keyboard-response","77","174225","0.0-21.0-0.1","SS1618435635415","","","null","","","","","","<p><img src= images/blank.png width =""600"" height = ""600"" style=""position:fixed;top:50%; left:50%; transform: translate(-50%, -50%); border:5px solid black"">","","","","","","","",""
"","9.884999992209487","sequential-stimulus-presentation-old","78","174737","0.0-21.0-1.1","SS1618435635415","trial","","40","500","509.8849999922095","images/stimuli/spore_stims/complex_16_A_b.gif","images/stimuli/spore_stims/complex_17_A_a.gif","self_paced","","6","complex_dissimilar","images/stimuli/spore_stims/complex_17_A_a.gif","","","","",""
"","null","html-keyboard-response","79","175822","0.0-21.0-0.2","SS1618435635415","","","null","","","","","","<p><img src= images/blank.png width =""600"" height = ""600"" style=""position:fixed;top:50%; left:50%; transform: translate(-50%, -50%); border:5px solid black"">","","","","","","","",""
"","63.64999999641441","sequential-stimulus-presentation-old","80","176392","0.0-21.0-1.2","SS1618435635415","trial","","40","500","563.6499999964144","images/stimuli/spore_stims/complex_16_A_b.gif","images/stimuli/spore_stims/complex_17_A_a.gif","self_paced","","6","complex_dissimilar","images/stimuli/spore_stims/complex_17_A_a.gif","","","","",""
"","null","html-keyboard-response","81","177624","0.0-21.0-0.3","SS1618435635415","","","null","","","","","","<p><img src= images/blank.png width =""600"" height = ""600"" style=""position:fixed;top:50%; left:50%; transform: translate(-50%, -50%); border:5px solid black"">","","","","","","","",""
"","27.755000002798624","sequential-stimulus-presentation-old","82","178154","0.0-21.0-1.3","SS1618435635415","trial","","40","500","527.7550000027986","images/stimuli/spore_stims/complex_16_A_b.gif","images/stimuli/spore_stims/complex_17_A_a.gif","self_paced","","6","complex_dissimilar","images/stimuli/spore_stims/complex_17_A_a.gif","","","","",""
"","null","html-keyboard-response","83","179323","0.0-21.0-0.4","SS1618435635415","","","null","","","","","","<p><img src= images/blank.png width =""600"" height = ""600"" style=""position:fixed;top:50%; left:50%; transform: translate(-50%, -50%); border:5px solid black"">","","","","","","","",""
"","150.9200000000419","sequential-stimulus-presentation-old","84","179977","0.0-21.0-1.4","SS1618435635415","trial","","40","500","650.9200000000419","images/stimuli/spore_stims/complex_16_A_b.gif","images/stimuli/spore_stims/complex_17_A_a.gif","self_paced","","6","complex_dissimilar","images/stimuli/spore_stims/complex_17_A_a.gif","","","","",""
"","2809.094999989611","survey-multi-choice","85","182788","0.0-22.0","SS1618435635415","math_question","","","","","","","","","","","","{""Q0"":""13""}","[0]","13","",""
"","null","html-keyboard-response","86","183831","0.0-23.0-0.0","SS1618435635415","","","null","","","","","","<p><img src= images/blank.png width =""600"" height = ""600"" style=""position:fixed;top:50%; left:50%; transform: translate(-50%, -50%); border:5px solid black"">","","","","","","","",""
"","145.8249999996042","sequential-stimulus-presentation-old","87","184038","0.0-23.0-1.0","SS1618435635415","trial","","40","500","645.8249999996042","images/stimuli/spore_stims/simple_05_A_a.gif","images/stimuli/spore_stims/simple_04_A_b.gif","forced_short","","7","simple_dissimilar","images/stimuli/spore_stims/simple_04_A_b.gif","","","","",""
"","null","html-keyboard-response","88","185146","0.0-23.0-0.1","SS1618435635415","","","null","","","","","","<p><img src= images/blank.png width =""600"" height = ""600"" style=""position:fixed;top:50%; left:50%; transform: translate(-50%, -50%); border:5px solid black"">","","","","","","","",""
"","110.7449999981327","sequential-stimulus-presentation-old","89","185758","0.0-23.0-1.1","SS1618435635415","trial","","40","500","610.7449999981327","images/stimuli/spore_stims/simple_05_A_a.gif","images/stimuli/spore_stims/simple_04_A_b.gif","forced_short","","7","simple_dissimilar","images/stimuli/spore_stims/simple_04_A_b.gif","","","","",""
"","null","html-keyboard-response","90","186847","0.0-23.0-0.2","SS1618435635415","","","null","","","","","","<p><img src= images/blank.png width =""600"" height = ""600"" style=""position:fixed;top:50%; left:50%; transform: translate(-50%, -50%); border:5px solid black"">","","","","","","","",""
"","95.57499999937136","sequential-stimulus-presentation-old","91","187447","0.0-23.0-1.2","SS1618435635415","trial","","40","500","595.5749999993714","images/stimuli/spore_stims/simple_05_A_a.gif","images/stimuli/spore_stims/simple_04_A_b.gif","forced_short","","7","simple_dissimilar","images/stimuli/spore_stims/simple_05_A_a.gif","","","","",""
"","null","html-keyboard-response","92","188285","0.0-23.0-0.3","SS1618435635415","","","null","","","","","","<p><img src= images/blank.png width =""600"" height = ""600"" style=""position:fixed;top:50%; left:50%; transform: translate(-50%, -50%); border:5px solid black"">","","","","","","","",""
"","147.40499999606982","sequential-stimulus-presentation-old","93","188935","0.0-23.0-1.3","SS1618435635415","trial","","40","500","647.4049999960698","images/stimuli/spore_stims/simple_05_A_a.gif","images/stimuli/spore_stims/simple_04_A_b.gif","forced_short","","7","simple_dissimilar","images/stimuli/spore_stims/simple_04_A_b.gif","","","","",""
"","null","html-keyboard-response","94","190224","0.0-23.0-0.4","SS1618435635415","","","null","","","","","","<p><img src= images/blank.png width =""600"" height = ""600"" style=""position:fixed;top:50%; left:50%; transform: translate(-50%, -50%); border:5px solid black"">","","","","","","","",""
"","16.16499999363441","sequential-stimulus-presentation-old","95","190758","0.0-23.0-1.4","SS1618435635415","trial","","40","500","516.1649999936344","images/stimuli/spore_stims/simple_05_A_a.gif","images/stimuli/spore_stims/simple_04_A_b.gif","forced_short","","7","simple_dissimilar","images/stimuli/spore_stims/simple_04_A_b.gif","","","","",""
"","null","html-keyboard-response","96","191574","0.0-23.0-0.5","SS1618435635415","","","null","","","","","","<p><img src= images/blank.png width =""600"" height = ""600"" style=""position:fixed;top:50%; left:50%; transform: translate(-50%, -50%); border:5px solid black"">","","","","","","","",""
"","75.94500000413973","sequential-stimulus-presentation-old","97","192152","0.0-23.0-1.5","SS1618435635415","trial","","40","500","575.9450000041397","images/stimuli/spore_stims/simple_05_A_a.gif","images/stimuli/spore_stims/simple_04_A_b.gif","forced_short","","7","simple_dissimilar","images/stimuli/spore_stims/simple_05_A_a.gif","","","","",""
"","1673.080000007758","survey-multi-choice","98","193827","0.0-24.0","SS1618435635415","math_question","","","","","","","","","","","","{""Q0"":""10""}","[0]","10","",""
"","null","html-keyboard-response","99","194925","0.0-25.0-0.0","SS1618435635415","","","null","","","","","","<p><img src= images/blank.png width =""600"" height = ""600"" style=""position:fixed;top:50%; left:50%; transform: translate(-50%, -50%); border:5px solid black"">","","","","","","","",""
"","30.819999999948777","sequential-stimulus-presentation-old","100","195459","0.0-25.0-1.0","SS1618435635415","trial","","40","500","530.8199999999488","images/stimuli/spore_stims/simple_08_A_b.gif","images/stimuli/spore_stims/simple_04_A_a.gif","self_paced","","8","simple_dissimilar","images/stimuli/spore_stims/simple_04_A_a.gif","","","","",""
"","null","html-keyboard-response","101","197125","0.0-25.0-0.1","SS1618435635415","","","null","","","","","","<p><img src= images/blank.png width =""600"" height = ""600"" style=""position:fixed;top:50%; left:50%; transform: translate(-50%, -50%); border:5px solid black"">","","","","","","","",""
"","155.1400000025751","sequential-stimulus-presentation-old","102","197783","0.0-25.0-1.1","SS1618435635415","trial","","40","500","655.1400000025751","images/stimuli/spore_stims/simple_08_A_b.gif","images/stimuli/spore_stims/simple_04_A_a.gif","self_paced","","8","simple_dissimilar","images/stimuli/spore_stims/simple_08_A_b.gif","","","","",""
"","null","html-keyboard-response","103","198753","0.0-25.0-0.2","SS1618435635415","","","null","","","","","","<p><img src= images/blank.png width =""600"" height = ""600"" style=""position:fixed;top:50%; left:50%; transform: translate(-50%, -50%); border:5px solid black"">","","","","","","","",""
"","889.1399999993155","sequential-stimulus-presentation-old","104","201020","0.0-25.0-1.2","SS1618435635415","trial","","40","500","1389.1399999993155","images/stimuli/spore_stims/simple_08_A_b.gif","images/stimuli/spore_stims/simple_04_A_a.gif","self_paced","","8","simple_dissimilar","images/stimuli/spore_stims/simple_04_A_a.gif","","","","",""
"","null","html-keyboard-response","105","202173","0.0-25.0-0.3","SS1618435635415","","","null","","","","","","<p><img src= images/blank.png width =""600"" height = ""600"" style=""position:fixed;top:50%; left:50%; transform: translate(-50%, -50%); border:5px solid black"">","","","","","","","",""
"","57.255000006989576","sequential-stimulus-presentation-old","106","202733","0.0-25.0-1.3","SS1618435635415","trial","","40","500","557.2550000069896","images/stimuli/spore_stims/simple_08_A_b.gif","images/stimuli/spore_stims/simple_04_A_a.gif","self_paced","","8","simple_dissimilar","images/stimuli/spore_stims/simple_08_A_b.gif","","","","",""
"","2770.6299999990733","survey-multi-choice","107","205505","0.0-26.0","SS1618435635415","math_question","","","","","","","","","","","","{""Q0"":""7""}","[0]","7","",""
"","null","html-keyboard-response","108","206636","0.0-27.0-0.0","SS1618435635415","","","null","","","","","","<p><img src= images/blank.png width =""600"" height = ""600"" style=""position:fixed;top:50%; left:50%; transform: translate(-50%, -50%); border:5px solid black"">","","","","","","","",""
"","875.1300000003539","sequential-stimulus-presentation-old","109","207564","0.0-27.0-1.0","SS1618435635415","trial","","40","500","1375.130000000354","images/stimuli/spore_stims/complex_06_A_b.gif","images/stimuli/spore_stims/complex_11_A_a.gif","forced_short","","9","complex_dissimilar","images/stimuli/spore_stims/complex_11_A_a.gif","","","","",""
"","null","html-keyboard-response","110","208553","0.0-27.0-0.1","SS1618435635415","","","null","","","","","","<p><img src= images/blank.png width =""600"" height = ""600"" style=""position:fixed;top:50%; left:50%; transform: translate(-50%, -50%); border:5px solid black"">","","","","","","","",""
"","32.804999995278195","sequential-stimulus-presentation-old","111","209089","0.0-27.0-1.1","SS1618435635415","trial","","40","500","532.8049999952782","images/stimuli/spore_stims/complex_06_A_b.gif","images/stimuli/spore_stims/complex_11_A_a.gif","forced_short","","9","complex_dissimilar","images/stimuli/spore_stims/complex_06_A_b.gif","","","","",""
"","null","html-keyboard-response","112","210022","0.0-27.0-0.2","SS1618435635415","","","null","","","","","","<p><img src= images/blank.png width =""600"" height = ""600"" style=""position:fixed;top:50%; left:50%; transform: translate(-50%, -50%); border:5px solid black"">","","","","","","","",""
"","47.27999999886379","sequential-stimulus-presentation-old","113","210573","0.0-27.0-1.2","SS1618435635415","trial","","40","500","547.2799999988638","images/stimuli/spore_stims/complex_06_A_b.gif","images/stimuli/spore_stims/complex_11_A_a.gif","forced_short","","9","complex_dissimilar","images/stimuli/spore_stims/complex_11_A_a.gif","","","","",""
"","null","html-keyboard-response","114","211610","0.0-27.0-0.3","SS1618435635415","","","null","","","","","","<p><img src= images/blank.png width =""600"" height = ""600"" style=""position:fixed;top:50%; left:50%; transform: translate(-50%, -50%); border:5px solid black"">","","","","","","","",""
"","908.1949999963399","sequential-stimulus-presentation-old","115","213032","0.0-27.0-1.3","SS1618435635415","trial","","40","500","1408.19499999634","images/stimuli/spore_stims/complex_06_A_b.gif","images/stimuli/spore_stims/complex_11_A_a.gif","forced_short","","9","complex_dissimilar","images/stimuli/spore_stims/complex_06_A_b.gif","","","","",""
"","null","html-keyboard-response","116","214133","0.0-27.0-0.4","SS1618435635415","","","null","","","","","","<p><img src= images/blank.png width =""600"" height = ""600"" style=""position:fixed;top:50%; left:50%; transform: translate(-50%, -50%); border:5px solid black"">","","","","","","","",""
"","3937.755000006291","sequential-stimulus-presentation-old","117","219065","0.0-27.0-1.4","SS1618435635415","trial","","40","500","4437.755000006291","images/stimuli/spore_stims/complex_06_A_b.gif","images/stimuli/spore_stims/complex_11_A_a.gif","forced_short","","9","complex_dissimilar","images/stimuli/spore_stims/complex_11_A_a.gif","","","","",""
"","6023.294999991776","survey-multi-choice","118","225090","0.0-28.0","SS1618435635415","math_question","","","","","","","","","","","","{""Q0"":""12""}","[0]","12","",""
"","null","html-keyboard-response","119","225971","0.0-29.0-0.0","SS1618435635415","","","null","","","","","","<p><img src= images/blank.png width =""600"" height = ""600"" style=""position:fixed;top:50%; left:50%; transform: translate(-50%, -50%); border:5px solid black"">","","","","","","","",""
"","50036.74000001047","sequential-stimulus-presentation-old","120","281160","0.0-29.0-1.0","SS1618435635415","trial","","40","500","50536.74000001047","images/stimuli/spore_stims/simple_03_A_b.gif","images/stimuli/spore_stims/simple_12_A_a.gif","forced_long","","10","simple_dissimilar","images/stimuli/spore_stims/simple_12_A_a.gif","","","","",""
"","null","html-keyboard-response","121","282087","0.0-29.0-0.1","SS1618435635415","","","null","","","","","","<p><img src= images/blank.png width =""600"" height = ""600"" style=""position:fixed;top:50%; left:50%; transform: translate(-50%, -50%); border:5px solid black"">","","","","","","","",""
"","82.7900000003865","sequential-stimulus-presentation-old","122","282673","0.0-29.0-1.1","SS1618435635415","trial","","40","500","582.7900000003865","images/stimuli/spore_stims/simple_03_A_b.gif","images/stimuli/spore_stims/simple_12_A_a.gif","forced_long","","10","simple_dissimilar","images/stimuli/spore_stims/simple_12_A_a.gif","","","","",""
"","null","html-keyboard-response","123","283670","0.0-29.0-0.2","SS1618435635415","","","null","","","","","","<p><img src= images/blank.png width =""600"" height = ""600"" style=""position:fixed;top:50%; left:50%; transform: translate(-50%, -50%); border:5px solid black"">","","","","","","","",""
"","74.09500000358094","sequential-stimulus-presentation-old","124","284248","0.0-29.0-1.2","SS1618435635415","trial","","40","500","574.0950000035809","images/stimuli/spore_stims/simple_03_A_b.gif","images/stimuli/spore_stims/simple_12_A_a.gif","forced_long","","10","simple_dissimilar","images/stimuli/spore_stims/simple_03_A_b.gif","","","","",""
"","null","html-keyboard-response","125","285153","0.0-29.0-0.3","SS1618435635415","","","null","","","","","","<p><img src= images/blank.png width =""600"" height = ""600"" style=""position:fixed;top:50%; left:50%; transform: translate(-50%, -50%); border:5px solid black"">","","","","","","","",""
"","109.45500001253095","sequential-stimulus-presentation-old","126","285765","0.0-29.0-1.3","SS1618435635415","trial","","40","500","609.455000012531","images/stimuli/spore_stims/simple_03_A_b.gif","images/stimuli/spore_stims/simple_12_A_a.gif","forced_long","","10","simple_dissimilar","images/stimuli/spore_stims/simple_03_A_b.gif","","","","",""
"","6403.160000001662","survey-multi-choice","127","292171","0.0-30.0","SS1618435635415","math_question","","","","","","","","","","","","{""Q0"":""13""}","[0]","13","",""
"","null","html-keyboard-response","128","292997","0.0-31.0-0.0","SS1618435635415","","","null","","","","","","<p><img src= images/blank.png width =""600"" height = ""600"" style=""position:fixed;top:50%; left:50%; transform: translate(-50%, -50%); border:5px solid black"">","","","","","","","",""
"","21.159999989322387","sequential-stimulus-presentation-old","129","298021","0.0-31.0-1.0","SS1618435635415","trial","","40","500","521.1599999893224","images/stimuli/spore_stims/complex_20_A_a.gif","images/stimuli/spore_stims/complex_19_A_b.gif","forced_long","","11","complex_dissimilar","images/stimuli/spore_stims/complex_19_A_b.gif","","","","",""
"","null","html-keyboard-response","130","299171","0.0-31.0-0.1","SS1618435635415","","","null","","","","","","<p><img src= images/blank.png width =""600"" height = ""600"" style=""position:fixed;top:50%; left:50%; transform: translate(-50%, -50%); border:5px solid black"">","","","","","","","",""
"","86.93499999935739","sequential-stimulus-presentation-old","131","299762","0.0-31.0-1.1","SS1618435635415","trial","","40","500","586.9349999993574","images/stimuli/spore_stims/complex_20_A_a.gif","images/stimuli/spore_stims/complex_19_A_b.gif","forced_long","","11","complex_dissimilar","images/stimuli/spore_stims/complex_20_A_a.gif","","","","",""
"","null","html-keyboard-response","132","300936","0.0-31.0-0.2","SS1618435635415","","","null","","","","","","<p><img src= images/blank.png width =""600"" height = ""600"" style=""position:fixed;top:50%; left:50%; transform: translate(-50%, -50%); border:5px solid black"">","","","","","","","",""
"","16.584999990300275","sequential-stimulus-presentation-old","133","301471","0.0-31.0-1.2","SS1618435635415","trial","","40","500","516.5849999903003","images/stimuli/spore_stims/complex_20_A_a.gif","images/stimuli/spore_stims/complex_19_A_b.gif","forced_long","","11","complex_dissimilar","images/stimuli/spore_stims/complex_19_A_b.gif","","","","",""
"","null","html-keyboard-response","134","302718","0.0-31.0-0.3","SS1618435635415","","","null","","","","","","<p><img src= images/blank.png width =""600"" height = ""600"" style=""position:fixed;top:50%; left:50%; transform: translate(-50%, -50%); border:5px solid black"">","","","","","","","",""
"","15.294999990146607","sequential-stimulus-presentation-old","135","303249","0.0-31.0-1.3","SS1618435635415","trial","","40","500","515.2949999901466","images/stimuli/spore_stims/complex_20_A_a.gif","images/stimuli/spore_stims/complex_19_A_b.gif","forced_long","","11","complex_dissimilar","images/stimuli/spore_stims/complex_19_A_b.gif","","","","",""
"","null","html-keyboard-response","136","304460","0.0-31.0-0.4","SS1618435635415","","","null","","","","","","<p><img src= images/blank.png width =""600"" height = ""600"" style=""position:fixed;top:50%; left:50%; transform: translate(-50%, -50%); border:5px solid black"">","","","","","","","",""
"","105.66499999549706","sequential-stimulus-presentation-old","137","305084","0.0-31.0-1.4","SS1618435635415","trial","","40","500","605.664999995497","images/stimuli/spore_stims/complex_20_A_a.gif","images/stimuli/spore_stims/complex_19_A_b.gif","forced_long","","11","complex_dissimilar","images/stimuli/spore_stims/complex_19_A_b.gif","","","","",""
"","null","html-keyboard-response","138","305899","0.0-31.0-0.5","SS1618435635415","","","null","","","","","","<p><img src= images/blank.png width =""600"" height = ""600"" style=""position:fixed;top:50%; left:50%; transform: translate(-50%, -50%); border:5px solid black"">","","","","","","","",""
"","147.62500001234002","sequential-stimulus-presentation-old","139","306560","0.0-31.0-1.5","SS1618435635415","trial","","40","500","647.62500001234","images/stimuli/spore_stims/complex_20_A_a.gif","images/stimuli/spore_stims/complex_19_A_b.gif","forced_long","","11","complex_dissimilar","images/stimuli/spore_stims/complex_19_A_b.gif","","","","",""
"[{""page_index"":0,""viewing_time"":2600.2000000007683}]","2600.395000001299","instructions","140","309163","0.0-32.0","SS1618435635415","instructions","","","","","","","","","","","","","","","",""
"","8885.104999993928","survey-likert","141","318051","0.0-33.0","SS1618435635415","similarity_question","","","","","","","","","","","","{""Q0"":4}","[0]","","images/stimuli/spore_stims/simple_04_A_a.gif","images/stimuli/spore_stims/simple_08_A_b.gif"
"","2669.3150000064634","survey-likert","142","320723","0.0-34.0","SS1618435635415","similarity_question","","","","","","","","","","","","{""Q0"":3}","[0]","","images/stimuli/spore_stims/complex_17_A_a.gif","images/stimuli/spore_stims/complex_16_A_b.gif"
"","15738.335000001825","survey-likert","143","336463","0.0-35.0","SS1618435635415","similarity_question","","","","","","","","","","","","{""Q0"":4}","[0]","","images/stimuli/spore_stims/simple_15_A_a.gif","images/stimuli/spore_stims/simple_02_A_b.gif"
"","1427.1349999908125","survey-likert","144","337893","0.0-36.0","SS1618435635415","similarity_question","","","","","","","","","","","","{""Q0"":4}","[0]","","images/stimuli/spore_stims/complex_01_A_a.gif","images/stimuli/spore_stims/complex_02_A_b.gif"
"","5712.299999999232","survey-likert","145","343608","0.0-37.0","SS1618435635415","similarity_question","","","","","","","","","","","","{""Q0"":1}","[0]","","images/stimuli/spore_stims/complex_05_A_b.gif","images/stimuli/spore_stims/complex_18_A_a.gif"
"","3040.020000000368","survey-likert","146","346650","0.0-38.0","SS1618435635415","similarity_question","","","","","","","","","","","","{""Q0"":4}","[0]","","images/stimuli/spore_stims/simple_05_A_a.gif","images/stimuli/spore_stims/simple_04_A_b.gif"
"","2598.7850000092294","survey-likert","147","349252","0.0-39.0","SS1618435635415","similarity_question","","","","","","","","","","","","{""Q0"":5}","[0]","","images/stimuli/spore_stims/simple_03_A_b.gif","images/stimuli/spore_stims/simple_12_A_a.gif"
"","1979.6500000084052","survey-likert","148","351234","0.0-40.0","SS1618435635415","similarity_question","","","","","","","","","","","","{""Q0"":4}","[0]","","images/stimuli/spore_stims/simple_10_A_b.gif","images/stimuli/spore_stims/simple_02_A_a.gif"
"","2499.119999993127","survey-likert","149","353736","0.0-41.0","SS1618435635415","similarity_question","","","","","","","","","","","","{""Q0"":3}","[0]","","images/stimuli/spore_stims/complex_16_A_a.gif","images/stimuli/spore_stims/complex_20_A_b.gif"
"","5081.580000012764","survey-likert","150","358820","0.0-42.0","SS1618435635415","similarity_question","","","","","","","","","","","","{""Q0"":5}","[0]","","images/stimuli/spore_stims/complex_19_A_b.gif","images/stimuli/spore_stims/complex_20_A_a.gif"
"","3029.5049999986077","survey-likert","151","361852","0.0-43.0","SS1618435635415","similarity_question","","","","","","","","","","","","{""Q0"":3}","[0]","","images/stimuli/spore_stims/complex_11_A_a.gif","images/stimuli/spore_stims/complex_06_A_b.gif"
"","2359.0799999947194","survey-likert","152","364214","0.0-44.0","SS1618435635415","similarity_question","","","","","","","","","","","","{""Q0"":2}","[0]","","images/stimuli/spore_stims/simple_16_A_b.gif","images/stimuli/spore_stims/simple_19_A_a.gif"
"[{""page_index"":0,""viewing_time"":1088.1000000081258}]","1088.3250000042608","instructions","153","365305","0.0-45.0","SS1618435635415","instructions","","","","","","","","","","","","","","","",""
"","3850.959999996121","survey-likert","154","369158","0.0-46.0","SS1618435635415","","","","","","","","","images/stimuli/spore_stims/simple_05_A_a.gif","","","","{""Q0"":2}","[0]","","",""
"","4020.394999999553","survey-likert","155","373181","0.0-47.0","SS1618435635415","","","","","","","","","images/stimuli/spore_stims/simple_10_A_b.gif","","","","{""Q0"":2}","[0]","","",""
"","12206.26999999513","survey-likert","156","385390","0.0-48.0","SS1618435635415","","","","","","","","","images/stimuli/spore_stims/complex_05_A_b.gif","","","","{""Q0"":4}","[0]","","",""
"","1969.375000000582","survey-likert","157","387362","0.0-49.0","SS1618435635415","","","","","","","","","images/stimuli/spore_stims/complex_16_A_b.gif","","","","{""Q0"":1}","[0]","","",""
"","30430.624999993597","survey-likert","158","417796","0.0-50.0","SS1618435635415","","","","","","","","","images/stimuli/spore_stims/complex_11_A_a.gif","","","","{""Q0"":5}","[0]","","",""
"","2089.5049999962794","survey-likert","159","419888","0.0-51.0","SS1618435635415","","","","","","","","","images/stimuli/spore_stims/complex_20_A_a.gif","","","","{""Q0"":5}","[0]","","",""
"","3880.4499999969266","survey-likert","160","423771","0.0-52.0","SS1618435635415","","","","","","","","","images/stimuli/spore_stims/simple_04_A_a.gif","","","","{""Q0"":2}","[0]","","",""
"","2599.1050000011455","survey-likert","161","426373","0.0-53.0","SS1618435635415","","","","","","","","","images/stimuli/spore_stims/complex_02_A_b.gif","","","","{""Q0"":2}","[0]","","",""
"","2019.589999996242","survey-likert","162","428395","0.0-54.0","SS1618435635415","","","","","","","","","images/stimuli/spore_stims/simple_16_A_b.gif","","","","{""Q0"":2}","[0]","","",""
"","2028.5000000003492","survey-likert","163","430426","0.0-55.0","SS1618435635415","","","","","","","","","images/stimuli/spore_stims/simple_02_A_b.gif","","","","{""Q0"":2}","[0]","","",""
"","3100.174999999581","survey-likert","164","433529","0.0-56.0","SS1618435635415","","","","","","","","","images/stimuli/spore_stims/complex_20_A_b.gif","","","","{""Q0"":4}","[0]","","",""
"","3239.6000000007916","survey-likert","165","436771","0.0-57.0","SS1618435635415","","","","","","","","","images/stimuli/spore_stims/simple_12_A_a.gif","","","","{""Q0"":2}","[0]","","",""
"[{""page_index"":0,""viewing_time"":1748.989999992773}]","1749.1699999955017","instructions","166","438523","0.0-58.0","SS1618435635415","instructions","","","","","","","","","","","","","","","",""
"","1899.0049999993062","demog-age","167","440425","0.0-59.0","SS1618435635415","","","","","","","","","","","","","{""age"":""22""}","","","",""
"","1897.9099999996834","demog-ethnic-US","168","442326","0.0-60.0","SS1618435635415","","","","","","","","","","","","","{""ethnicity"":[""Hispanic or Latino""]}","[0]","","",""
"","4150.0749999977415","demog-gender-and-education","169","446479","0.0-61.0","SS1618435635415","","","","","","","","","","","","","{""gender"":""Male"",""education"":""High school diploma""}","[0,1]","","",""
"","6131.534999993164","survey-text","170","452614","0.0-62.0","SS1618435635415","feedback","","","","","","","","","","","","{""Q0"":""no""}","","","",""
"[{""page_index"":0,""viewing_time"":808.6599999951432}]","808.8649999990594","instructions","171","453425","0.0-63.0","SS1618435635415","instructions","","","","","","","","","","","","","","","",""
