"view_history","rt","trial_type","trial_index","time_elapsed","internal_node_id","subject","stimulus_type","trial_stimulus","key_press","minimum_viewing_duration","trial_looking_time","block_deviant","block_background","exposure_type","stimulus","block_number","block_type","stimulus_displayed","responses","question_order","math_correct_answer","stimulus_left","stimulus_right"
"[{""page_index"":0,""viewing_time"":45022.00499997707}]","45022.575000009965","instructions","0","45025","0.0-0.0","SS1618365926744","","","","","","","","","","","","","","","","",""
"[{""page_index"":0,""viewing_time"":17074.80999996187},{""page_index"":1,""viewing_time"":8024.124999996275}]","25099.434999981895","instructions","1","72128","0.0-1.0","SS1618365926744","instructions","","","","","","","","","","","","","","","",""
"","8294.504999998026","sequential-stimulus-presentation-old","2","80927","0.0-2.0","SS1618365926744","","","40","500","8794.504999998026","null","null","self_paced","","","","","","","","",""
"","5981.249999953434","sequential-stimulus-presentation-old","3","87412","0.0-3.0","SS1618365926744","","","40","500","6481.249999953434","null","null","self_paced","","","","","","","","",""
"[{""page_index"":0,""viewing_time"":36010.614999977406}]","36011.10000000335","instructions","4","123424","0.0-4.0","SS1618365926744","instructions","","","","","","","","","","","","","","","",""
"","5249.699999985751","sequential-stimulus-presentation-old","5","133678","0.0-5.0","SS1618365926744","","","40","500","5749.699999985751","null","null","forced_long","","","","","","","","",""
"","11666.96999996202","sequential-stimulus-presentation-old","6","145398","0.0-6.0","SS1618365926744","","","40","50","11716.96999996202","null","null","forced_long","","","","","","","","",""
"[{""page_index"":0,""viewing_time"":5815.94000000041}]","5816.315000003669","instructions","7","151216","0.0-7.0","SS1618365926744","instructions","","","","","","","","","","","","","","","",""
"[{""page_index"":0,""viewing_time"":10662.500000034925},{""page_index"":1,""viewing_time"":13359.849999949802},{""page_index"":2,""viewing_time"":5880.035000038333},{""page_index"":3,""viewing_time"":1743.9349999767728},{""page_index"":4,""viewing_time"":1472.1649999846704}]","33119.11000002874","instructions","8","184336","0.0-8.0","SS1618365926744","instructions","","","","","","","","","","","","","","","",""
"","null","html-keyboard-response","9","185225","0.0-9.0-0.0","SS1618365926744","","","null","","","","","","<p><img src= images/blank.png width =""600"" height = ""600"" style=""position:fixed;top:50%; left:50%; transform: translate(-50%, -50%); border:5px solid black"">","","","","","","","",""
"","7213.055000000168","sequential-stimulus-presentation-old","10","197444","0.0-9.0-1.0","SS1618365926744","trial","","40","500","7713.055000000168","images/stimuli/spore_stims/simple_15_A_a.gif","images/stimuli/spore_stims/simple_01_A_b.gif","forced_long","","0","simple_dissimilar","images/stimuli/spore_stims/simple_01_A_b.gif","","","","",""
"","null","html-keyboard-response","11","198585","0.0-9.0-0.1","SS1618365926744","","","null","","","","","","<p><img src= images/blank.png width =""600"" height = ""600"" style=""position:fixed;top:50%; left:50%; transform: translate(-50%, -50%); border:5px solid black"">","","","","","","","",""
"","2630.3299999563023","sequential-stimulus-presentation-old","12","201718","0.0-9.0-1.1","SS1618365926744","trial","","40","500","3130.3299999563023","images/stimuli/spore_stims/simple_15_A_a.gif","images/stimuli/spore_stims/simple_01_A_b.gif","forced_long","","0","simple_dissimilar","images/stimuli/spore_stims/simple_15_A_a.gif","","","","",""
"","null","html-keyboard-response","13","202796","0.0-9.0-0.2","SS1618365926744","","","null","","","","","","<p><img src= images/blank.png width =""600"" height = ""600"" style=""position:fixed;top:50%; left:50%; transform: translate(-50%, -50%); border:5px solid black"">","","","","","","","",""
"","6199.414999980945","sequential-stimulus-presentation-old","14","209499","0.0-9.0-1.2","SS1618365926744","trial","","40","500","6699.414999980945","images/stimuli/spore_stims/simple_15_A_a.gif","images/stimuli/spore_stims/simple_01_A_b.gif","forced_long","","0","simple_dissimilar","images/stimuli/spore_stims/simple_15_A_a.gif","","","","",""
"","null","html-keyboard-response","15","210592","0.0-9.0-0.3","SS1618365926744","","","null","","","","","","<p><img src= images/blank.png width =""600"" height = ""600"" style=""position:fixed;top:50%; left:50%; transform: translate(-50%, -50%); border:5px solid black"">","","","","","","","",""
"","4699.575000035111","sequential-stimulus-presentation-old","16","215796","0.0-9.0-1.3","SS1618365926744","trial","","40","500","5199.575000035111","images/stimuli/spore_stims/simple_15_A_a.gif","images/stimuli/spore_stims/simple_01_A_b.gif","forced_long","","0","simple_dissimilar","images/stimuli/spore_stims/simple_01_A_b.gif","","","","",""
"","7569.359999964945","survey-multi-choice","17","223369","0.0-10.0","SS1618365926744","math_question","","","","","","","","","","","","{""Q0"":""12""}","[0]","12","",""
"","null","html-keyboard-response","18","224628","0.0-11.0-0.0","SS1618365926744","","","null","","","","","","<p><img src= images/blank.png width =""600"" height = ""600"" style=""position:fixed;top:50%; left:50%; transform: translate(-50%, -50%); border:5px solid black"">","","","","","","","",""
"","16282.300000020768","sequential-stimulus-presentation-old","19","240966","0.0-11.0-1.0","SS1618365926744","trial","","40","500","16782.30000002077","images/stimuli/spore_stims/simple_11_A_b.gif","images/stimuli/spore_stims/simple_05_A_a.gif","forced_short","","1","simple_dissimilar","images/stimuli/spore_stims/simple_05_A_a.gif","","","","",""
"","null","html-keyboard-response","20","241965","0.0-11.0-0.1","SS1618365926744","","","null","","","","","","<p><img src= images/blank.png width =""600"" height = ""600"" style=""position:fixed;top:50%; left:50%; transform: translate(-50%, -50%); border:5px solid black"">","","","","","","","",""
"","3414.359999995213","sequential-stimulus-presentation-old","21","245883","0.0-11.0-1.1","SS1618365926744","trial","","40","500","3914.359999995213","images/stimuli/spore_stims/simple_11_A_b.gif","images/stimuli/spore_stims/simple_05_A_a.gif","forced_short","","1","simple_dissimilar","images/stimuli/spore_stims/simple_11_A_b.gif","","","","",""
"","null","html-keyboard-response","22","246874","0.0-11.0-0.2","SS1618365926744","","","null","","","","","","<p><img src= images/blank.png width =""600"" height = ""600"" style=""position:fixed;top:50%; left:50%; transform: translate(-50%, -50%); border:5px solid black"">","","","","","","","",""
"","3304.3199999956414","sequential-stimulus-presentation-old","23","250684","0.0-11.0-1.2","SS1618365926744","trial","","40","500","3804.3199999956414","images/stimuli/spore_stims/simple_11_A_b.gif","images/stimuli/spore_stims/simple_05_A_a.gif","forced_short","","1","simple_dissimilar","images/stimuli/spore_stims/simple_11_A_b.gif","","","","",""
"","null","html-keyboard-response","24","251833","0.0-11.0-0.3","SS1618365926744","","","null","","","","","","<p><img src= images/blank.png width =""600"" height = ""600"" style=""position:fixed;top:50%; left:50%; transform: translate(-50%, -50%); border:5px solid black"">","","","","","","","",""
"","4492.314999981318","sequential-stimulus-presentation-old","25","256831","0.0-11.0-1.3","SS1618365926744","trial","","40","500","4992.314999981318","images/stimuli/spore_stims/simple_11_A_b.gif","images/stimuli/spore_stims/simple_05_A_a.gif","forced_short","","1","simple_dissimilar","images/stimuli/spore_stims/simple_05_A_a.gif","","","","",""
"","3863.0450000055134","survey-multi-choice","26","260696","0.0-12.0","SS1618365926744","math_question","","","","","","","","","","","","{""Q0"":""10""}","[0]","10","",""
"","null","html-keyboard-response","27","261546","0.0-13.0-0.0","SS1618365926744","","","null","","","","","","<p><img src= images/blank.png width =""600"" height = ""600"" style=""position:fixed;top:50%; left:50%; transform: translate(-50%, -50%); border:5px solid black"">","","","","","","","",""
"","1070.2949999831617","sequential-stimulus-presentation-old","28","267622","0.0-13.0-1.0","SS1618365926744","trial","","40","500","1570.2949999831617","images/stimuli/spore_stims/complex_10_A_a.gif","images/stimuli/spore_stims/complex_06_A_b.gif","forced_long","","2","complex_dissimilar","images/stimuli/spore_stims/complex_06_A_b.gif","","","","",""
"","null","html-keyboard-response","29","268768","0.0-13.0-0.1","SS1618365926744","","","null","","","","","","<p><img src= images/blank.png width =""600"" height = ""600"" style=""position:fixed;top:50%; left:50%; transform: translate(-50%, -50%); border:5px solid black"">","","","","","","","",""
"","6011.044999992009","sequential-stimulus-presentation-old","30","275284","0.0-13.0-1.1","SS1618365926744","trial","","40","500","6511.044999992009","images/stimuli/spore_stims/complex_10_A_a.gif","images/stimuli/spore_stims/complex_06_A_b.gif","forced_long","","2","complex_dissimilar","images/stimuli/spore_stims/complex_10_A_a.gif","","","","",""
"","null","html-keyboard-response","31","276482","0.0-13.0-0.2","SS1618365926744","","","null","","","","","","<p><img src= images/blank.png width =""600"" height = ""600"" style=""position:fixed;top:50%; left:50%; transform: translate(-50%, -50%); border:5px solid black"">","","","","","","","",""
"","2954.515000048559","sequential-stimulus-presentation-old","32","279942","0.0-13.0-1.2","SS1618365926744","trial","","40","500","3454.515000048559","images/stimuli/spore_stims/complex_10_A_a.gif","images/stimuli/spore_stims/complex_06_A_b.gif","forced_long","","2","complex_dissimilar","images/stimuli/spore_stims/complex_10_A_a.gif","","","","",""
"","null","html-keyboard-response","33","280997","0.0-13.0-0.3","SS1618365926744","","","null","","","","","","<p><img src= images/blank.png width =""600"" height = ""600"" style=""position:fixed;top:50%; left:50%; transform: translate(-50%, -50%); border:5px solid black"">","","","","","","","",""
"","4933.215000026394","sequential-stimulus-presentation-old","34","286436","0.0-13.0-1.3","SS1618365926744","trial","","40","500","5433.215000026394","images/stimuli/spore_stims/complex_10_A_a.gif","images/stimuli/spore_stims/complex_06_A_b.gif","forced_long","","2","complex_dissimilar","images/stimuli/spore_stims/complex_06_A_b.gif","","","","",""
"","null","html-keyboard-response","35","287542","0.0-13.0-0.4","SS1618365926744","","","null","","","","","","<p><img src= images/blank.png width =""600"" height = ""600"" style=""position:fixed;top:50%; left:50%; transform: translate(-50%, -50%); border:5px solid black"">","","","","","","","",""
"","3551.6199999838136","sequential-stimulus-presentation-old","36","291599","0.0-13.0-1.4","SS1618365926744","trial","","40","500","4051.6199999838136","images/stimuli/spore_stims/complex_10_A_a.gif","images/stimuli/spore_stims/complex_06_A_b.gif","forced_long","","2","complex_dissimilar","images/stimuli/spore_stims/complex_06_A_b.gif","","","","",""
"","null","html-keyboard-response","37","292410","0.0-13.0-0.5","SS1618365926744","","","null","","","","","","<p><img src= images/blank.png width =""600"" height = ""600"" style=""position:fixed;top:50%; left:50%; transform: translate(-50%, -50%); border:5px solid black"">","","","","","","","",""
"","5512.939999985974","sequential-stimulus-presentation-old","38","298428","0.0-13.0-1.5","SS1618365926744","trial","","40","500","6012.939999985974","images/stimuli/spore_stims/complex_10_A_a.gif","images/stimuli/spore_stims/complex_06_A_b.gif","forced_long","","2","complex_dissimilar","images/stimuli/spore_stims/complex_06_A_b.gif","","","","",""
"","2666.0000000265427","survey-multi-choice","39","301096","0.0-14.0","SS1618365926744","math_question","","","","","","","","","","","","{""Q0"":""4""}","[0]","4","",""
"","null","html-keyboard-response","40","302293","0.0-15.0-0.0","SS1618365926744","","","null","","","","","","<p><img src= images/blank.png width =""600"" height = ""600"" style=""position:fixed;top:50%; left:50%; transform: translate(-50%, -50%); border:5px solid black"">","","","","","","","",""
"","4522.225000022445","sequential-stimulus-presentation-old","41","311820","0.0-15.0-1.0","SS1618365926744","trial","","40","500","5022.225000022445","images/stimuli/spore_stims/complex_16_A_a.gif","images/stimuli/spore_stims/complex_05_A_b.gif","forced_long","","3","complex_dissimilar","images/stimuli/spore_stims/complex_05_A_b.gif","","","","",""
"","null","html-keyboard-response","42","312720","0.0-15.0-0.1","SS1618365926744","","","null","","","","","","<p><img src= images/blank.png width =""600"" height = ""600"" style=""position:fixed;top:50%; left:50%; transform: translate(-50%, -50%); border:5px solid black"">","","","","","","","",""
"","2595.089999958873","sequential-stimulus-presentation-old","43","315820","0.0-15.0-1.1","SS1618365926744","trial","","40","500","3095.089999958873","images/stimuli/spore_stims/complex_16_A_a.gif","images/stimuli/spore_stims/complex_05_A_b.gif","forced_long","","3","complex_dissimilar","images/stimuli/spore_stims/complex_05_A_b.gif","","","","",""
"","null","html-keyboard-response","44","317009","0.0-15.0-0.2","SS1618365926744","","","null","","","","","","<p><img src= images/blank.png width =""600"" height = ""600"" style=""position:fixed;top:50%; left:50%; transform: translate(-50%, -50%); border:5px solid black"">","","","","","","","",""
"","5821.334999985993","sequential-stimulus-presentation-old","45","323334","0.0-15.0-1.2","SS1618365926744","trial","","40","500","6321.334999985993","images/stimuli/spore_stims/complex_16_A_a.gif","images/stimuli/spore_stims/complex_05_A_b.gif","forced_long","","3","complex_dissimilar","images/stimuli/spore_stims/complex_05_A_b.gif","","","","",""
"","null","html-keyboard-response","46","324429","0.0-15.0-0.3","SS1618365926744","","","null","","","","","","<p><img src= images/blank.png width =""600"" height = ""600"" style=""position:fixed;top:50%; left:50%; transform: translate(-50%, -50%); border:5px solid black"">","","","","","","","",""
"","5814.620000019204","sequential-stimulus-presentation-old","47","330748","0.0-15.0-1.3","SS1618365926744","trial","","40","500","6314.620000019204","images/stimuli/spore_stims/complex_16_A_a.gif","images/stimuli/spore_stims/complex_05_A_b.gif","forced_long","","3","complex_dissimilar","images/stimuli/spore_stims/complex_05_A_b.gif","","","","",""
"","null","html-keyboard-response","48","331865","0.0-15.0-0.4","SS1618365926744","","","null","","","","","","<p><img src= images/blank.png width =""600"" height = ""600"" style=""position:fixed;top:50%; left:50%; transform: translate(-50%, -50%); border:5px solid black"">","","","","","","","",""
"","4188.919999985956","sequential-stimulus-presentation-old","49","336559","0.0-15.0-1.4","SS1618365926744","trial","","40","500","4688.919999985956","images/stimuli/spore_stims/complex_16_A_a.gif","images/stimuli/spore_stims/complex_05_A_b.gif","forced_long","","3","complex_dissimilar","images/stimuli/spore_stims/complex_05_A_b.gif","","","","",""
"","null","html-keyboard-response","50","337435","0.0-15.0-0.5","SS1618365926744","","","null","","","","","","<p><img src= images/blank.png width =""600"" height = ""600"" style=""position:fixed;top:50%; left:50%; transform: translate(-50%, -50%); border:5px solid black"">","","","","","","","",""
"","4249.115000013262","sequential-stimulus-presentation-old","51","342188","0.0-15.0-1.5","SS1618365926744","trial","","40","500","4749.115000013262","images/stimuli/spore_stims/complex_16_A_a.gif","images/stimuli/spore_stims/complex_05_A_b.gif","forced_long","","3","complex_dissimilar","images/stimuli/spore_stims/complex_05_A_b.gif","","","","",""
"","3337.679999996908","survey-multi-choice","52","345529","0.0-16.0","SS1618365926744","math_question","","","","","","","","","","","","{""Q0"":""11""}","[0]","11","",""
"","null","html-keyboard-response","53","346684","0.0-17.0-0.0","SS1618365926744","","","null","","","","","","<p><img src= images/blank.png width =""600"" height = ""600"" style=""position:fixed;top:50%; left:50%; transform: translate(-50%, -50%); border:5px solid black"">","","","","","","","",""
"","3883.8749999995343","sequential-stimulus-presentation-old","54","350623","0.0-17.0-1.0","SS1618365926744","trial","","40","500","4383.874999999534","images/stimuli/spore_stims/complex_09_A_b.gif","images/stimuli/spore_stims/complex_17_A_a.gif","forced_short","","4","complex_dissimilar","images/stimuli/spore_stims/complex_17_A_a.gif","","","","",""
"","null","html-keyboard-response","55","351513","0.0-17.0-0.1","SS1618365926744","","","null","","","","","","<p><img src= images/blank.png width =""600"" height = ""600"" style=""position:fixed;top:50%; left:50%; transform: translate(-50%, -50%); border:5px solid black"">","","","","","","","",""
"","5225.819999992382","sequential-stimulus-presentation-old","56","357244","0.0-17.0-1.1","SS1618365926744","trial","","40","500","5725.819999992382","images/stimuli/spore_stims/complex_09_A_b.gif","images/stimuli/spore_stims/complex_17_A_a.gif","forced_short","","4","complex_dissimilar","images/stimuli/spore_stims/complex_09_A_b.gif","","","","",""
"","null","html-keyboard-response","57","358277","0.0-17.0-0.2","SS1618365926744","","","null","","","","","","<p><img src= images/blank.png width =""600"" height = ""600"" style=""position:fixed;top:50%; left:50%; transform: translate(-50%, -50%); border:5px solid black"">","","","","","","","",""
"","11688.529999984894","sequential-stimulus-presentation-old","58","370470","0.0-17.0-1.2","SS1618365926744","trial","","40","500","12188.529999984894","images/stimuli/spore_stims/complex_09_A_b.gif","images/stimuli/spore_stims/complex_17_A_a.gif","forced_short","","4","complex_dissimilar","images/stimuli/spore_stims/complex_09_A_b.gif","","","","",""
"","null","html-keyboard-response","59","371758","0.0-17.0-0.3","SS1618365926744","","","null","","","","","","<p><img src= images/blank.png width =""600"" height = ""600"" style=""position:fixed;top:50%; left:50%; transform: translate(-50%, -50%); border:5px solid black"">","","","","","","","",""
"","23390.220000001136","sequential-stimulus-presentation-old","60","395654","0.0-17.0-1.3","SS1618365926744","trial","","40","500","23890.220000001136","images/stimuli/spore_stims/complex_09_A_b.gif","images/stimuli/spore_stims/complex_17_A_a.gif","forced_short","","4","complex_dissimilar","images/stimuli/spore_stims/complex_17_A_a.gif","","","","",""
"","null","html-keyboard-response","61","396768","0.0-17.0-0.4","SS1618365926744","","","null","","","","","","<p><img src= images/blank.png width =""600"" height = ""600"" style=""position:fixed;top:50%; left:50%; transform: translate(-50%, -50%); border:5px solid black"">","","","","","","","",""
"","3498.8700000103563","sequential-stimulus-presentation-old","62","400771","0.0-17.0-1.4","SS1618365926744","trial","","40","500","3998.8700000103563","images/stimuli/spore_stims/complex_09_A_b.gif","images/stimuli/spore_stims/complex_17_A_a.gif","forced_short","","4","complex_dissimilar","images/stimuli/spore_stims/complex_17_A_a.gif","","","","",""
"","3434.019999986049","survey-multi-choice","63","404208","0.0-18.0","SS1618365926744","math_question","","","","","","","","","","","","{""Q0"":""13""}","[0]","13","",""
"","null","html-keyboard-response","64","405346","0.0-19.0-0.0","SS1618365926744","","","null","","","","","","<p><img src= images/blank.png width =""600"" height = ""600"" style=""position:fixed;top:50%; left:50%; transform: translate(-50%, -50%); border:5px solid black"">","","","","","","","",""
"","5259.149999998044","sequential-stimulus-presentation-old","65","411110","0.0-19.0-1.0","SS1618365926744","trial","","40","500","5759.149999998044","images/stimuli/spore_stims/simple_19_A_a.gif","images/stimuli/spore_stims/simple_09_A_b.gif","self_paced","","5","simple_dissimilar","images/stimuli/spore_stims/simple_09_A_b.gif","","","","",""
"","null","html-keyboard-response","66","412240","0.0-19.0-0.1","SS1618365926744","","","null","","","","","","<p><img src= images/blank.png width =""600"" height = ""600"" style=""position:fixed;top:50%; left:50%; transform: translate(-50%, -50%); border:5px solid black"">","","","","","","","",""
"","2393.834999995306","sequential-stimulus-presentation-old","67","415139","0.0-19.0-1.1","SS1618365926744","trial","","40","500","2893.834999995306","images/stimuli/spore_stims/simple_19_A_a.gif","images/stimuli/spore_stims/simple_09_A_b.gif","self_paced","","5","simple_dissimilar","images/stimuli/spore_stims/simple_09_A_b.gif","","","","",""
"","null","html-keyboard-response","68","416259","0.0-19.0-0.2","SS1618365926744","","","null","","","","","","<p><img src= images/blank.png width =""600"" height = ""600"" style=""position:fixed;top:50%; left:50%; transform: translate(-50%, -50%); border:5px solid black"">","","","","","","","",""
"","6294.870000041556","sequential-stimulus-presentation-old","69","423062","0.0-19.0-1.2","SS1618365926744","trial","","40","500","6794.870000041556","images/stimuli/spore_stims/simple_19_A_a.gif","images/stimuli/spore_stims/simple_09_A_b.gif","self_paced","","5","simple_dissimilar","images/stimuli/spore_stims/simple_19_A_a.gif","","","","",""
"","null","html-keyboard-response","70","424173","0.0-19.0-0.3","SS1618365926744","","","null","","","","","","<p><img src= images/blank.png width =""600"" height = ""600"" style=""position:fixed;top:50%; left:50%; transform: translate(-50%, -50%); border:5px solid black"">","","","","","","","",""
"","3180.8900000178255","sequential-stimulus-presentation-old","71","427859","0.0-19.0-1.3","SS1618365926744","trial","","40","500","3680.8900000178255","images/stimuli/spore_stims/simple_19_A_a.gif","images/stimuli/spore_stims/simple_09_A_b.gif","self_paced","","5","simple_dissimilar","images/stimuli/spore_stims/simple_09_A_b.gif","","","","",""
"","null","html-keyboard-response","72","429108","0.0-19.0-0.4","SS1618365926744","","","null","","","","","","<p><img src= images/blank.png width =""600"" height = ""600"" style=""position:fixed;top:50%; left:50%; transform: translate(-50%, -50%); border:5px solid black"">","","","","","","","",""
"","2741.4799999678507","sequential-stimulus-presentation-old","73","432355","0.0-19.0-1.4","SS1618365926744","trial","","40","500","3241.4799999678507","images/stimuli/spore_stims/simple_19_A_a.gif","images/stimuli/spore_stims/simple_09_A_b.gif","self_paced","","5","simple_dissimilar","images/stimuli/spore_stims/simple_19_A_a.gif","","","","",""
"","2528.8549999822862","survey-multi-choice","74","434888","0.0-20.0","SS1618365926744","math_question","","","","","","","","","","","","{""Q0"":""5""}","[0]","5","",""
"","null","html-keyboard-response","75","436086","0.0-21.0-0.0","SS1618365926744","","","null","","","","","","<p><img src= images/blank.png width =""600"" height = ""600"" style=""position:fixed;top:50%; left:50%; transform: translate(-50%, -50%); border:5px solid black"">","","","","","","","",""
"","800.4450000007637","sequential-stimulus-presentation-old","76","441891","0.0-21.0-1.0","SS1618365926744","trial","","40","500","1300.4450000007637","images/stimuli/spore_stims/simple_18_A_b.gif","images/stimuli/spore_stims/simple_08_A_a.gif","forced_long","","6","simple_dissimilar","images/stimuli/spore_stims/simple_08_A_a.gif","","","","",""
"","null","html-keyboard-response","77","442846","0.0-21.0-0.1","SS1618365926744","","","null","","","","","","<p><img src= images/blank.png width =""600"" height = ""600"" style=""position:fixed;top:50%; left:50%; transform: translate(-50%, -50%); border:5px solid black"">","","","","","","","",""
"","5316.384999954607","sequential-stimulus-presentation-old","78","448670","0.0-21.0-1.1","SS1618365926744","trial","","40","500","5816.384999954607","images/stimuli/spore_stims/simple_18_A_b.gif","images/stimuli/spore_stims/simple_08_A_a.gif","forced_long","","6","simple_dissimilar","images/stimuli/spore_stims/simple_08_A_a.gif","","","","",""
"","null","html-keyboard-response","79","449615","0.0-21.0-0.2","SS1618365926744","","","null","","","","","","<p><img src= images/blank.png width =""600"" height = ""600"" style=""position:fixed;top:50%; left:50%; transform: translate(-50%, -50%); border:5px solid black"">","","","","","","","",""
"","13581.435000000056","sequential-stimulus-presentation-old","80","463702","0.0-21.0-1.2","SS1618365926744","trial","","40","500","14081.435000000056","images/stimuli/spore_stims/simple_18_A_b.gif","images/stimuli/spore_stims/simple_08_A_a.gif","forced_long","","6","simple_dissimilar","images/stimuli/spore_stims/simple_18_A_b.gif","","","","",""
"","null","html-keyboard-response","81","464878","0.0-21.0-0.3","SS1618365926744","","","null","","","","","","<p><img src= images/blank.png width =""600"" height = ""600"" style=""position:fixed;top:50%; left:50%; transform: translate(-50%, -50%); border:5px solid black"">","","","","","","","",""
"","2356.374999973923","sequential-stimulus-presentation-old","82","467739","0.0-21.0-1.3","SS1618365926744","trial","","40","500","2856.374999973923","images/stimuli/spore_stims/simple_18_A_b.gif","images/stimuli/spore_stims/simple_08_A_a.gif","forced_long","","6","simple_dissimilar","images/stimuli/spore_stims/simple_08_A_a.gif","","","","",""
"","2153.6400000331923","survey-multi-choice","83","469896","0.0-22.0","SS1618365926744","math_question","","","","","","","","","","","","{""Q0"":""15""}","[0]","15","",""
"","null","html-keyboard-response","84","470887","0.0-23.0-0.0","SS1618365926744","","","null","","","","","","<p><img src= images/blank.png width =""600"" height = ""600"" style=""position:fixed;top:50%; left:50%; transform: translate(-50%, -50%); border:5px solid black"">","","","","","","","",""
"","2502.470000006724","sequential-stimulus-presentation-old","85","473443","0.0-23.0-1.0","SS1618365926744","trial","","40","500","3002.470000006724","images/stimuli/spore_stims/complex_16_A_b.gif","images/stimuli/spore_stims/complex_02_A_a.gif","forced_short","","7","complex_dissimilar","images/stimuli/spore_stims/complex_02_A_a.gif","","","","",""
"","null","html-keyboard-response","86","474334","0.0-23.0-0.1","SS1618365926744","","","null","","","","","","<p><img src= images/blank.png width =""600"" height = ""600"" style=""position:fixed;top:50%; left:50%; transform: translate(-50%, -50%); border:5px solid black"">","","","","","","","",""
"","8190.554999979213","sequential-stimulus-presentation-old","87","483030","0.0-23.0-1.1","SS1618365926744","trial","","40","500","8690.554999979213","images/stimuli/spore_stims/complex_16_A_b.gif","images/stimuli/spore_stims/complex_02_A_a.gif","forced_short","","7","complex_dissimilar","images/stimuli/spore_stims/complex_02_A_a.gif","","","","",""
"","null","html-keyboard-response","88","483980","0.0-23.0-0.2","SS1618365926744","","","null","","","","","","<p><img src= images/blank.png width =""600"" height = ""600"" style=""position:fixed;top:50%; left:50%; transform: translate(-50%, -50%); border:5px solid black"">","","","","","","","",""
"","4486.450000025798","sequential-stimulus-presentation-old","89","488971","0.0-23.0-1.2","SS1618365926744","trial","","40","500","4986.450000025798","images/stimuli/spore_stims/complex_16_A_b.gif","images/stimuli/spore_stims/complex_02_A_a.gif","forced_short","","7","complex_dissimilar","images/stimuli/spore_stims/complex_02_A_a.gif","","","","",""
"","null","html-keyboard-response","90","489959","0.0-23.0-0.3","SS1618365926744","","","null","","","","","","<p><img src= images/blank.png width =""600"" height = ""600"" style=""position:fixed;top:50%; left:50%; transform: translate(-50%, -50%); border:5px solid black"">","","","","","","","",""
"","1291.0850000334904","sequential-stimulus-presentation-old","91","491755","0.0-23.0-1.3","SS1618365926744","trial","","40","500","1791.0850000334904","images/stimuli/spore_stims/complex_16_A_b.gif","images/stimuli/spore_stims/complex_02_A_a.gif","forced_short","","7","complex_dissimilar","images/stimuli/spore_stims/complex_02_A_a.gif","","","","",""
"","2769.399999990128","survey-multi-choice","92","494528","0.0-24.0","SS1618365926744","math_question","","","","","","","","","","","","{""Q0"":""12""}","[0]","12","",""
"","null","html-keyboard-response","93","495335","0.0-25.0-0.0","SS1618365926744","","","null","","","","","","<p><img src= images/blank.png width =""600"" height = ""600"" style=""position:fixed;top:50%; left:50%; transform: translate(-50%, -50%); border:5px solid black"">","","","","","","","",""
"","1930.5150000145659","sequential-stimulus-presentation-old","94","497771","0.0-25.0-1.0","SS1618365926744","trial","","40","500","2430.515000014566","images/stimuli/spore_stims/simple_06_A_a.gif","images/stimuli/spore_stims/simple_12_A_b.gif","self_paced","","8","simple_dissimilar","images/stimuli/spore_stims/simple_12_A_b.gif","","","","",""
"","null","html-keyboard-response","95","498925","0.0-25.0-0.1","SS1618365926744","","","null","","","","","","<p><img src= images/blank.png width =""600"" height = ""600"" style=""position:fixed;top:50%; left:50%; transform: translate(-50%, -50%); border:5px solid black"">","","","","","","","",""
"","13080.09000000311","sequential-stimulus-presentation-old","96","512510","0.0-25.0-1.1","SS1618365926744","trial","","40","500","13580.09000000311","images/stimuli/spore_stims/simple_06_A_a.gif","images/stimuli/spore_stims/simple_12_A_b.gif","self_paced","","8","simple_dissimilar","images/stimuli/spore_stims/simple_12_A_b.gif","","","","",""
"","null","html-keyboard-response","97","513487","0.0-25.0-0.2","SS1618365926744","","","null","","","","","","<p><img src= images/blank.png width =""600"" height = ""600"" style=""position:fixed;top:50%; left:50%; transform: translate(-50%, -50%); border:5px solid black"">","","","","","","","",""
"","2970.300000044517","sequential-stimulus-presentation-old","98","516963","0.0-25.0-1.2","SS1618365926744","trial","","40","500","3470.300000044517","images/stimuli/spore_stims/simple_06_A_a.gif","images/stimuli/spore_stims/simple_12_A_b.gif","self_paced","","8","simple_dissimilar","images/stimuli/spore_stims/simple_12_A_b.gif","","","","",""
"","null","html-keyboard-response","99","517770","0.0-25.0-0.3","SS1618365926744","","","null","","","","","","<p><img src= images/blank.png width =""600"" height = ""600"" style=""position:fixed;top:50%; left:50%; transform: translate(-50%, -50%); border:5px solid black"">","","","","","","","",""
"","3047.5949999527074","sequential-stimulus-presentation-old","100","521323","0.0-25.0-1.3","SS1618365926744","trial","","40","500","3547.5949999527074","images/stimuli/spore_stims/simple_06_A_a.gif","images/stimuli/spore_stims/simple_12_A_b.gif","self_paced","","8","simple_dissimilar","images/stimuli/spore_stims/simple_12_A_b.gif","","","","",""
"","null","html-keyboard-response","101","522536","0.0-25.0-0.4","SS1618365926744","","","null","","","","","","<p><img src= images/blank.png width =""600"" height = ""600"" style=""position:fixed;top:50%; left:50%; transform: translate(-50%, -50%); border:5px solid black"">","","","","","","","",""
"","44.504999998025596","sequential-stimulus-presentation-old","102","523086","0.0-25.0-1.4","SS1618365926744","trial","","40","500","544.5049999980256","images/stimuli/spore_stims/simple_06_A_a.gif","images/stimuli/spore_stims/simple_12_A_b.gif","self_paced","","8","simple_dissimilar","images/stimuli/spore_stims/simple_12_A_b.gif","","","","",""
"","null","html-keyboard-response","103","524325","0.0-25.0-0.5","SS1618365926744","","","null","","","","","","<p><img src= images/blank.png width =""600"" height = ""600"" style=""position:fixed;top:50%; left:50%; transform: translate(-50%, -50%); border:5px solid black"">","","","","","","","",""
"","37.66500001074746","sequential-stimulus-presentation-old","104","524867","0.0-25.0-1.5","SS1618365926744","trial","","40","500","537.6650000107475","images/stimuli/spore_stims/simple_06_A_a.gif","images/stimuli/spore_stims/simple_12_A_b.gif","self_paced","","8","simple_dissimilar","images/stimuli/spore_stims/simple_12_A_b.gif","","","","",""
"","3096.974999993108","survey-multi-choice","105","527968","0.0-26.0","SS1618365926744","math_question","","","","","","","","","","","","{""Q0"":""7""}","[0]","7","",""
"","null","html-keyboard-response","106","528797","0.0-27.0-0.0","SS1618365926744","","","null","","","","","","<p><img src= images/blank.png width =""600"" height = ""600"" style=""position:fixed;top:50%; left:50%; transform: translate(-50%, -50%); border:5px solid black"">","","","","","","","",""
"","2268.175000033807","sequential-stimulus-presentation-old","107","531571","0.0-27.0-1.0","SS1618365926744","trial","","40","500","2768.175000033807","images/stimuli/spore_stims/complex_09_A_a.gif","images/stimuli/spore_stims/complex_14_A_b.gif","self_paced","","9","complex_dissimilar","images/stimuli/spore_stims/complex_14_A_b.gif","","","","",""
"","null","html-keyboard-response","108","532800","0.0-27.0-0.1","SS1618365926744","","","null","","","","","","<p><img src= images/blank.png width =""600"" height = ""600"" style=""position:fixed;top:50%; left:50%; transform: translate(-50%, -50%); border:5px solid black"">","","","","","","","",""
"","1196.1449999944307","sequential-stimulus-presentation-old","109","534502","0.0-27.0-1.1","SS1618365926744","trial","","40","500","1696.1449999944307","images/stimuli/spore_stims/complex_09_A_a.gif","images/stimuli/spore_stims/complex_14_A_b.gif","self_paced","","9","complex_dissimilar","images/stimuli/spore_stims/complex_14_A_b.gif","","","","",""
"","null","html-keyboard-response","110","535652","0.0-27.0-0.2","SS1618365926744","","","null","","","","","","<p><img src= images/blank.png width =""600"" height = ""600"" style=""position:fixed;top:50%; left:50%; transform: translate(-50%, -50%); border:5px solid black"">","","","","","","","",""
"","2182.420000026468","sequential-stimulus-presentation-old","111","538339","0.0-27.0-1.2","SS1618365926744","trial","","40","500","2682.420000026468","images/stimuli/spore_stims/complex_09_A_a.gif","images/stimuli/spore_stims/complex_14_A_b.gif","self_paced","","9","complex_dissimilar","images/stimuli/spore_stims/complex_14_A_b.gif","","","","",""
"","null","html-keyboard-response","112","539194","0.0-27.0-0.3","SS1618365926744","","","null","","","","","","<p><img src= images/blank.png width =""600"" height = ""600"" style=""position:fixed;top:50%; left:50%; transform: translate(-50%, -50%); border:5px solid black"">","","","","","","","",""
"","2767.389999993611","sequential-stimulus-presentation-old","113","542467","0.0-27.0-1.3","SS1618365926744","trial","","40","500","3267.389999993611","images/stimuli/spore_stims/complex_09_A_a.gif","images/stimuli/spore_stims/complex_14_A_b.gif","self_paced","","9","complex_dissimilar","images/stimuli/spore_stims/complex_14_A_b.gif","","","","",""
"","null","html-keyboard-response","114","543703","0.0-27.0-0.4","SS1618365926744","","","null","","","","","","<p><img src= images/blank.png width =""600"" height = ""600"" style=""position:fixed;top:50%; left:50%; transform: translate(-50%, -50%); border:5px solid black"">","","","","","","","",""
"","3621.930000022985","sequential-stimulus-presentation-old","115","547830","0.0-27.0-1.4","SS1618365926744","trial","","40","500","4121.930000022985","images/stimuli/spore_stims/complex_09_A_a.gif","images/stimuli/spore_stims/complex_14_A_b.gif","self_paced","","9","complex_dissimilar","images/stimuli/spore_stims/complex_14_A_b.gif","","","","",""
"","null","html-keyboard-response","116","549070","0.0-27.0-0.5","SS1618365926744","","","null","","","","","","<p><img src= images/blank.png width =""600"" height = ""600"" style=""position:fixed;top:50%; left:50%; transform: translate(-50%, -50%); border:5px solid black"">","","","","","","","",""
"","2988.7549999984913","sequential-stimulus-presentation-old","117","552563","0.0-27.0-1.5","SS1618365926744","trial","","40","500","3488.7549999984913","images/stimuli/spore_stims/complex_09_A_a.gif","images/stimuli/spore_stims/complex_14_A_b.gif","self_paced","","9","complex_dissimilar","images/stimuli/spore_stims/complex_09_A_a.gif","","","","",""
"","3680.075000040233","survey-multi-choice","118","556248","0.0-28.0","SS1618365926744","math_question","","","","","","","","","","","","{""Q0"":""11""}","[0]","11","",""
"","null","html-keyboard-response","119","557465","0.0-29.0-0.0","SS1618365926744","","","null","","","","","","<p><img src= images/blank.png width =""600"" height = ""600"" style=""position:fixed;top:50%; left:50%; transform: translate(-50%, -50%); border:5px solid black"">","","","","","","","",""
"","3339.384999999311","sequential-stimulus-presentation-old","120","561310","0.0-29.0-1.0","SS1618365926744","trial","","40","500","3839.384999999311","images/stimuli/spore_stims/complex_04_A_a.gif","images/stimuli/spore_stims/complex_20_A_b.gif","self_paced","","10","complex_dissimilar","images/stimuli/spore_stims/complex_20_A_b.gif","","","","",""
"","null","html-keyboard-response","121","562359","0.0-29.0-0.1","SS1618365926744","","","null","","","","","","<p><img src= images/blank.png width =""600"" height = ""600"" style=""position:fixed;top:50%; left:50%; transform: translate(-50%, -50%); border:5px solid black"">","","","","","","","",""
"","2465.3399999951944","sequential-stimulus-presentation-old","122","565331","0.0-29.0-1.1","SS1618365926744","trial","","40","500","2965.3399999951944","images/stimuli/spore_stims/complex_04_A_a.gif","images/stimuli/spore_stims/complex_20_A_b.gif","self_paced","","10","complex_dissimilar","images/stimuli/spore_stims/complex_04_A_a.gif","","","","",""
"","null","html-keyboard-response","123","566528","0.0-29.0-0.2","SS1618365926744","","","null","","","","","","<p><img src= images/blank.png width =""600"" height = ""600"" style=""position:fixed;top:50%; left:50%; transform: translate(-50%, -50%); border:5px solid black"">","","","","","","","",""
"","1697.905000008177","sequential-stimulus-presentation-old","124","568731","0.0-29.0-1.2","SS1618365926744","trial","","40","500","2197.905000008177","images/stimuli/spore_stims/complex_04_A_a.gif","images/stimuli/spore_stims/complex_20_A_b.gif","self_paced","","10","complex_dissimilar","images/stimuli/spore_stims/complex_20_A_b.gif","","","","",""
"","null","html-keyboard-response","125","569872","0.0-29.0-0.3","SS1618365926744","","","null","","","","","","<p><img src= images/blank.png width =""600"" height = ""600"" style=""position:fixed;top:50%; left:50%; transform: translate(-50%, -50%); border:5px solid black"">","","","","","","","",""
"","1148.0999999912456","sequential-stimulus-presentation-old","126","571526","0.0-29.0-1.3","SS1618365926744","trial","","40","500","1648.0999999912456","images/stimuli/spore_stims/complex_04_A_a.gif","images/stimuli/spore_stims/complex_20_A_b.gif","self_paced","","10","complex_dissimilar","images/stimuli/spore_stims/complex_20_A_b.gif","","","","",""
"","null","html-keyboard-response","127","572617","0.0-29.0-0.4","SS1618365926744","","","null","","","","","","<p><img src= images/blank.png width =""600"" height = ""600"" style=""position:fixed;top:50%; left:50%; transform: translate(-50%, -50%); border:5px solid black"">","","","","","","","",""
"","624.710000003688","sequential-stimulus-presentation-old","128","573747","0.0-29.0-1.4","SS1618365926744","trial","","40","500","1124.710000003688","images/stimuli/spore_stims/complex_04_A_a.gif","images/stimuli/spore_stims/complex_20_A_b.gif","self_paced","","10","complex_dissimilar","images/stimuli/spore_stims/complex_20_A_b.gif","","","","",""
"","3401.7300000414252","survey-multi-choice","129","577153","0.0-30.0","SS1618365926744","math_question","","","","","","","","","","","","{""Q0"":""11""}","[0]","11","",""
"","null","html-keyboard-response","130","578083","0.0-31.0-0.0","SS1618365926744","","","null","","","","","","<p><img src= images/blank.png width =""600"" height = ""600"" style=""position:fixed;top:50%; left:50%; transform: translate(-50%, -50%); border:5px solid black"">","","","","","","","",""
"","1273.6199999926612","sequential-stimulus-presentation-old","131","579412","0.0-31.0-1.0","SS1618365926744","trial","","40","500","1773.6199999926612","images/stimuli/spore_stims/simple_08_A_b.gif","images/stimuli/spore_stims/simple_01_A_a.gif","forced_short","","11","simple_dissimilar","images/stimuli/spore_stims/simple_01_A_a.gif","","","","",""
"","null","html-keyboard-response","132","580437","0.0-31.0-0.1","SS1618365926744","","","null","","","","","","<p><img src= images/blank.png width =""600"" height = ""600"" style=""position:fixed;top:50%; left:50%; transform: translate(-50%, -50%); border:5px solid black"">","","","","","","","",""
"","1231.4050000277348","sequential-stimulus-presentation-old","133","582174","0.0-31.0-1.1","SS1618365926744","trial","","40","500","1731.4050000277348","images/stimuli/spore_stims/simple_08_A_b.gif","images/stimuli/spore_stims/simple_01_A_a.gif","forced_short","","11","simple_dissimilar","images/stimuli/spore_stims/simple_01_A_a.gif","","","","",""
"","null","html-keyboard-response","134","583095","0.0-31.0-0.2","SS1618365926744","","","null","","","","","","<p><img src= images/blank.png width =""600"" height = ""600"" style=""position:fixed;top:50%; left:50%; transform: translate(-50%, -50%); border:5px solid black"">","","","","","","","",""
"","2531.0199999948964","sequential-stimulus-presentation-old","135","586131","0.0-31.0-1.2","SS1618365926744","trial","","40","500","3031.0199999948964","images/stimuli/spore_stims/simple_08_A_b.gif","images/stimuli/spore_stims/simple_01_A_a.gif","forced_short","","11","simple_dissimilar","images/stimuli/spore_stims/simple_08_A_b.gif","","","","",""
"","null","html-keyboard-response","136","587259","0.0-31.0-0.3","SS1618365926744","","","null","","","","","","<p><img src= images/blank.png width =""600"" height = ""600"" style=""position:fixed;top:50%; left:50%; transform: translate(-50%, -50%); border:5px solid black"">","","","","","","","",""
"","1302.4849999928847","sequential-stimulus-presentation-old","137","589067","0.0-31.0-1.3","SS1618365926744","trial","","40","500","1802.4849999928847","images/stimuli/spore_stims/simple_08_A_b.gif","images/stimuli/spore_stims/simple_01_A_a.gif","forced_short","","11","simple_dissimilar","images/stimuli/spore_stims/simple_08_A_b.gif","","","","",""
"[{""page_index"":0,""viewing_time"":6616.33999994956}]","6616.8849999667145","instructions","138","595688","0.0-32.0","SS1618365926744","instructions","","","","","","","","","","","","","","","",""
"","13979.434999986552","survey-likert","139","609673","0.0-33.0","SS1618365926744","similarity_question","","","","","","","","","","","","{""Q0"":2}","[0]","","images/stimuli/spore_stims/complex_16_A_a.gif","images/stimuli/spore_stims/complex_05_A_b.gif"
"","14482.029999955557","survey-likert","140","624161","0.0-34.0","SS1618365926744","similarity_question","","","","","","","","","","","","{""Q0"":1}","[0]","","images/stimuli/spore_stims/complex_09_A_a.gif","images/stimuli/spore_stims/complex_14_A_b.gif"
"","14497.595000022557","survey-likert","141","638664","0.0-35.0","SS1618365926744","similarity_question","","","","","","","","","","","","{""Q0"":2}","[0]","","images/stimuli/spore_stims/simple_09_A_b.gif","images/stimuli/spore_stims/simple_19_A_a.gif"
"","8634.925000020303","survey-likert","142","647304","0.0-36.0","SS1618365926744","similarity_question","","","","","","","","","","","","{""Q0"":3}","[0]","","images/stimuli/spore_stims/simple_05_A_a.gif","images/stimuli/spore_stims/simple_11_A_b.gif"
"","7889.964999980293","survey-likert","143","655200","0.0-37.0","SS1618365926744","similarity_question","","","","","","","","","","","","{""Q0"":0}","[0]","","images/stimuli/spore_stims/complex_02_A_a.gif","images/stimuli/spore_stims/complex_16_A_b.gif"
"","6314.745000039693","survey-likert","144","661520","0.0-38.0","SS1618365926744","similarity_question","","","","","","","","","","","","{""Q0"":4}","[0]","","images/stimuli/spore_stims/simple_08_A_b.gif","images/stimuli/spore_stims/simple_01_A_a.gif"
"","3234.0149999945424","survey-likert","145","664760","0.0-39.0","SS1618365926744","similarity_question","","","","","","","","","","","","{""Q0"":2}","[0]","","images/stimuli/spore_stims/simple_18_A_b.gif","images/stimuli/spore_stims/simple_08_A_a.gif"
"","3818.5449999873526","survey-likert","146","668584","0.0-40.0","SS1618365926744","similarity_question","","","","","","","","","","","","{""Q0"":5}","[0]","","images/stimuli/spore_stims/simple_12_A_b.gif","images/stimuli/spore_stims/simple_06_A_a.gif"
"","5578.310000011697","survey-likert","147","674168","0.0-41.0","SS1618365926744","similarity_question","","","","","","","","","","","","{""Q0"":4}","[0]","","images/stimuli/spore_stims/complex_09_A_b.gif","images/stimuli/spore_stims/complex_17_A_a.gif"
"","3202.549999987241","survey-likert","148","677376","0.0-42.0","SS1618365926744","similarity_question","","","","","","","","","","","","{""Q0"":5}","[0]","","images/stimuli/spore_stims/simple_15_A_a.gif","images/stimuli/spore_stims/simple_01_A_b.gif"
"","10801.394999958575","survey-likert","149","688184","0.0-43.0","SS1618365926744","similarity_question","","","","","","","","","","","","{""Q0"":2}","[0]","","images/stimuli/spore_stims/complex_04_A_a.gif","images/stimuli/spore_stims/complex_20_A_b.gif"
"","7915.235000022221","survey-likert","150","696104","0.0-44.0","SS1618365926744","similarity_question","","","","","","","","","","","","{""Q0"":1}","[0]","","images/stimuli/spore_stims/complex_10_A_a.gif","images/stimuli/spore_stims/complex_06_A_b.gif"
"[{""page_index"":0,""viewing_time"":4114.059999992605}]","4114.624999987427","instructions","151","700224","0.0-45.0","SS1618365926744","instructions","","","","","","","","","","","","","","","",""
"","7779.674999997951","survey-likert","152","708008","0.0-46.0","SS1618365926744","","","","","","","","","images/stimuli/spore_stims/complex_17_A_a.gif","","","","{""Q0"":4}","[0]","","",""
"","6593.3550000190735","survey-likert","153","714608","0.0-47.0","SS1618365926744","","","","","","","","","images/stimuli/spore_stims/complex_05_A_b.gif","","","","{""Q0"":2}","[0]","","",""
"","5794.460000004619","survey-likert","154","720408","0.0-48.0","SS1618365926744","","","","","","","","","images/stimuli/spore_stims/complex_06_A_b.gif","","","","{""Q0"":5}","[0]","","",""
"","4354.174999985844","survey-likert","155","724768","0.0-49.0","SS1618365926744","","","","","","","","","images/stimuli/spore_stims/simple_09_A_b.gif","","","","{""Q0"":0}","[0]","","",""
"","3626.040000002831","survey-likert","156","728400","0.0-50.0","SS1618365926744","","","","","","","","","images/stimuli/spore_stims/simple_01_A_a.gif","","","","{""Q0"":0}","[0]","","",""
"","4426.429999992251","survey-likert","157","732832","0.0-51.0","SS1618365926744","","","","","","","","","images/stimuli/spore_stims/simple_11_A_b.gif","","","","{""Q0"":0}","[0]","","",""
"","8578.069999988656","survey-likert","158","741416","0.0-52.0","SS1618365926744","","","","","","","","","images/stimuli/spore_stims/complex_09_A_a.gif","","","","{""Q0"":2}","[0]","","",""
"","3738.7849999940954","survey-likert","159","745160","0.0-53.0","SS1618365926744","","","","","","","","","images/stimuli/spore_stims/simple_18_A_b.gif","","","","{""Q0"":0}","[0]","","",""
"","6649.949999991804","survey-likert","160","751817","0.0-54.0","SS1618365926744","","","","","","","","","images/stimuli/spore_stims/complex_20_A_b.gif","","","","{""Q0"":4}","[0]","","",""
"","2201.5750000136904","survey-likert","161","754025","0.0-55.0","SS1618365926744","","","","","","","","","images/stimuli/spore_stims/simple_15_A_a.gif","","","","{""Q0"":0}","[0]","","",""
"","5026.330000022426","survey-likert","162","759056","0.0-56.0","SS1618365926744","","","","","","","","","images/stimuli/spore_stims/complex_16_A_b.gif","","","","{""Q0"":4}","[0]","","",""
"","3322.184999997262","survey-likert","163","762384","0.0-57.0","SS1618365926744","","","","","","","","","images/stimuli/spore_stims/simple_06_A_a.gif","","","","{""Q0"":0}","[0]","","",""
"[{""page_index"":0,""viewing_time"":2018.7049999949522}]","2019.2900000256486","instructions","164","764408","0.0-58.0","SS1618365926744","instructions","","","","","","","","","","","","","","","",""
"","2631.889999960549","demog-age","165","767048","0.0-59.0","SS1618365926744","","","","","","","","","","","","","{""age"":""27""}","","","",""
"","6616.335000027902","demog-ethnic-US","166","773673","0.0-60.0","SS1618365926744","","","","","","","","","","","","","{""ethnicity"":[""Hispanic or Latino""]}","[0]","","",""
"","23577.510000031907","demog-gender-and-education","167","797257","0.0-61.0","SS1618365926744","","","","","","","","","","","","","{""gender"":""Male"",""education"":""Bachelor's Degree""}","[0,1]","","",""
"","15030.789999989793","survey-text","168","812297","0.0-62.0","SS1618365926744","feedback","","","","","","","","","","","","{""Q0"":""no lag suffered""}","","","",""
"[{""page_index"":0,""viewing_time"":1355.054999992717}]","1355.4299999959767","instructions","169","813656","0.0-63.0","SS1618365926744","instructions","","","","","","","","","","","","","","","",""
