"view_history","rt","trial_type","trial_index","time_elapsed","internal_node_id","subject","stimulus_type","trial_stimulus","key_press","minimum_viewing_duration","trial_looking_time","block_deviant","block_background","exposure_type","stimulus","block_number","block_type","stimulus_displayed","responses","question_order","math_correct_answer","stimulus_left","stimulus_right"
"[{""page_index"":0,""viewing_time"":5869}]","5869","instructions","0","5872","0.0-0.0","SS1618435647663","","","","","","","","","","","","","","","","",""
"[{""page_index"":0,""viewing_time"":19442},{""page_index"":1,""viewing_time"":5680}]","25122","instructions","1","32997","0.0-1.0","SS1618435647663","instructions","","","","","","","","","","","","","","","",""
"","6631","sequential-stimulus-presentation-old","2","40132","0.0-2.0","SS1618435647663","","","40","500","7131","null","null","self_paced","","","","","","","","",""
"","4479","sequential-stimulus-presentation-old","3","45118","0.0-3.0","SS1618435647663","","","40","500","4979","null","null","self_paced","","","","","","","","",""
"[{""page_index"":0,""viewing_time"":35628}]","35628","instructions","4","80749","0.0-4.0","SS1618435647663","instructions","","","","","","","","","","","","","","","",""
"","1468","sequential-stimulus-presentation-old","5","87222","0.0-5.0","SS1618435647663","","","40","500","1968","null","null","forced_long","","","","","","","","",""
"","3176","sequential-stimulus-presentation-old","6","90450","0.0-6.0","SS1618435647663","","","40","50","3226","null","null","forced_long","","","","","","","","",""
"[{""page_index"":0,""viewing_time"":3662}]","3662","instructions","7","94113","0.0-7.0","SS1618435647663","instructions","","","","","","","","","","","","","","","",""
"[{""page_index"":0,""viewing_time"":7299},{""page_index"":1,""viewing_time"":7864},{""page_index"":2,""viewing_time"":10909},{""page_index"":3,""viewing_time"":1388},{""page_index"":4,""viewing_time"":1171}]","28631","instructions","8","122746","0.0-8.0","SS1618435647663","instructions","","","","","","","","","","","","","","","",""
"","null","html-keyboard-response","9","123911","0.0-9.0-0.0","SS1618435647663","","","null","","","","","","<p><img src= images/blank.png width =""600"" height = ""600"" style=""position:fixed;top:50%; left:50%; transform: translate(-50%, -50%); border:5px solid black"">","","","","","","","",""
"","3252","sequential-stimulus-presentation-old","10","127664","0.0-9.0-1.0","SS1618435647663","trial","","40","500","3752","images/stimuli/spore_stims/complex_18_A_b.gif","images/stimuli/spore_stims/complex_13_A_a.gif","self_paced","","0","complex_dissimilar","images/stimuli/spore_stims/complex_13_A_a.gif","","","","",""
"","null","html-keyboard-response","11","128627","0.0-9.0-0.1","SS1618435647663","","","null","","","","","","<p><img src= images/blank.png width =""600"" height = ""600"" style=""position:fixed;top:50%; left:50%; transform: translate(-50%, -50%); border:5px solid black"">","","","","","","","",""
"","3981","sequential-stimulus-presentation-old","12","133114","0.0-9.0-1.1","SS1618435647663","trial","","40","500","4481","images/stimuli/spore_stims/complex_18_A_b.gif","images/stimuli/spore_stims/complex_13_A_a.gif","self_paced","","0","complex_dissimilar","images/stimuli/spore_stims/complex_13_A_a.gif","","","","",""
"","null","html-keyboard-response","13","134177","0.0-9.0-0.2","SS1618435647663","","","null","","","","","","<p><img src= images/blank.png width =""600"" height = ""600"" style=""position:fixed;top:50%; left:50%; transform: translate(-50%, -50%); border:5px solid black"">","","","","","","","",""
"","3143","sequential-stimulus-presentation-old","14","137821","0.0-9.0-1.2","SS1618435647663","trial","","40","500","3643","images/stimuli/spore_stims/complex_18_A_b.gif","images/stimuli/spore_stims/complex_13_A_a.gif","self_paced","","0","complex_dissimilar","images/stimuli/spore_stims/complex_13_A_a.gif","","","","",""
"","null","html-keyboard-response","15","138835","0.0-9.0-0.3","SS1618435647663","","","null","","","","","","<p><img src= images/blank.png width =""600"" height = ""600"" style=""position:fixed;top:50%; left:50%; transform: translate(-50%, -50%); border:5px solid black"">","","","","","","","",""
"","2156","sequential-stimulus-presentation-old","16","141497","0.0-9.0-1.3","SS1618435647663","trial","","40","500","2656","images/stimuli/spore_stims/complex_18_A_b.gif","images/stimuli/spore_stims/complex_13_A_a.gif","self_paced","","0","complex_dissimilar","images/stimuli/spore_stims/complex_13_A_a.gif","","","","",""
"","null","html-keyboard-response","17","142435","0.0-9.0-0.4","SS1618435647663","","","null","","","","","","<p><img src= images/blank.png width =""600"" height = ""600"" style=""position:fixed;top:50%; left:50%; transform: translate(-50%, -50%); border:5px solid black"">","","","","","","","",""
"","2740","sequential-stimulus-presentation-old","18","145680","0.0-9.0-1.4","SS1618435647663","trial","","40","500","3240","images/stimuli/spore_stims/complex_18_A_b.gif","images/stimuli/spore_stims/complex_13_A_a.gif","self_paced","","0","complex_dissimilar","images/stimuli/spore_stims/complex_13_A_a.gif","","","","",""
"","4268","survey-multi-choice","19","149953","0.0-10.0","SS1618435647663","math_question","","","","","","","","","","","","{""Q0"":""12""}","[0]","12","",""
"","null","html-keyboard-response","20","151206","0.0-11.0-0.0","SS1618435647663","","","null","","","","","","<p><img src= images/blank.png width =""600"" height = ""600"" style=""position:fixed;top:50%; left:50%; transform: translate(-50%, -50%); border:5px solid black"">","","","","","","","",""
"","1060","sequential-stimulus-presentation-old","21","152323","0.0-11.0-1.0","SS1618435647663","trial","","40","500","1560","images/stimuli/spore_stims/simple_19_A_b.gif","images/stimuli/spore_stims/simple_03_A_a.gif","forced_short","","1","simple_dissimilar","images/stimuli/spore_stims/simple_03_A_a.gif","","","","",""
"","null","html-keyboard-response","22","153197","0.0-11.0-0.1","SS1618435647663","","","null","","","","","","<p><img src= images/blank.png width =""600"" height = ""600"" style=""position:fixed;top:50%; left:50%; transform: translate(-50%, -50%); border:5px solid black"">","","","","","","","",""
"","1768","sequential-stimulus-presentation-old","23","155471","0.0-11.0-1.1","SS1618435647663","trial","","40","500","2268","images/stimuli/spore_stims/simple_19_A_b.gif","images/stimuli/spore_stims/simple_03_A_a.gif","forced_short","","1","simple_dissimilar","images/stimuli/spore_stims/simple_03_A_a.gif","","","","",""
"","null","html-keyboard-response","24","156506","0.0-11.0-0.2","SS1618435647663","","","null","","","","","","<p><img src= images/blank.png width =""600"" height = ""600"" style=""position:fixed;top:50%; left:50%; transform: translate(-50%, -50%); border:5px solid black"">","","","","","","","",""
"","1073","sequential-stimulus-presentation-old","25","158084","0.0-11.0-1.2","SS1618435647663","trial","","40","500","1573","images/stimuli/spore_stims/simple_19_A_b.gif","images/stimuli/spore_stims/simple_03_A_a.gif","forced_short","","1","simple_dissimilar","images/stimuli/spore_stims/simple_03_A_a.gif","","","","",""
"","null","html-keyboard-response","26","159109","0.0-11.0-0.3","SS1618435647663","","","null","","","","","","<p><img src= images/blank.png width =""600"" height = ""600"" style=""position:fixed;top:50%; left:50%; transform: translate(-50%, -50%); border:5px solid black"">","","","","","","","",""
"","1229","sequential-stimulus-presentation-old","27","160842","0.0-11.0-1.3","SS1618435647663","trial","","40","500","1729","images/stimuli/spore_stims/simple_19_A_b.gif","images/stimuli/spore_stims/simple_03_A_a.gif","forced_short","","1","simple_dissimilar","images/stimuli/spore_stims/simple_03_A_a.gif","","","","",""
"","null","html-keyboard-response","28","161928","0.0-11.0-0.4","SS1618435647663","","","null","","","","","","<p><img src= images/blank.png width =""600"" height = ""600"" style=""position:fixed;top:50%; left:50%; transform: translate(-50%, -50%); border:5px solid black"">","","","","","","","",""
"","918","sequential-stimulus-presentation-old","29","163349","0.0-11.0-1.4","SS1618435647663","trial","","40","500","1418","images/stimuli/spore_stims/simple_19_A_b.gif","images/stimuli/spore_stims/simple_03_A_a.gif","forced_short","","1","simple_dissimilar","images/stimuli/spore_stims/simple_03_A_a.gif","","","","",""
"","null","html-keyboard-response","30","164174","0.0-11.0-0.5","SS1618435647663","","","null","","","","","","<p><img src= images/blank.png width =""600"" height = ""600"" style=""position:fixed;top:50%; left:50%; transform: translate(-50%, -50%); border:5px solid black"">","","","","","","","",""
"","991","sequential-stimulus-presentation-old","31","165671","0.0-11.0-1.5","SS1618435647663","trial","","40","500","1491","images/stimuli/spore_stims/simple_19_A_b.gif","images/stimuli/spore_stims/simple_03_A_a.gif","forced_short","","1","simple_dissimilar","images/stimuli/spore_stims/simple_03_A_a.gif","","","","",""
"","4126","survey-multi-choice","32","169799","0.0-12.0","SS1618435647663","math_question","","","","","","","","","","","","{""Q0"":""11""}","[0]","11","",""
"","null","html-keyboard-response","33","170946","0.0-13.0-0.0","SS1618435647663","","","null","","","","","","<p><img src= images/blank.png width =""600"" height = ""600"" style=""position:fixed;top:50%; left:50%; transform: translate(-50%, -50%); border:5px solid black"">","","","","","","","",""
"","1371","sequential-stimulus-presentation-old","34","172369","0.0-13.0-1.0","SS1618435647663","trial","","40","500","1871","images/stimuli/spore_stims/complex_19_A_a.gif","images/stimuli/spore_stims/complex_09_A_b.gif","forced_short","","2","complex_dissimilar","images/stimuli/spore_stims/complex_09_A_b.gif","","","","",""
"","null","html-keyboard-response","35","173473","0.0-13.0-0.1","SS1618435647663","","","null","","","","","","<p><img src= images/blank.png width =""600"" height = ""600"" style=""position:fixed;top:50%; left:50%; transform: translate(-50%, -50%); border:5px solid black"">","","","","","","","",""
"","2086","sequential-stimulus-presentation-old","36","176062","0.0-13.0-1.1","SS1618435647663","trial","","40","500","2586","images/stimuli/spore_stims/complex_19_A_a.gif","images/stimuli/spore_stims/complex_09_A_b.gif","forced_short","","2","complex_dissimilar","images/stimuli/spore_stims/complex_09_A_b.gif","","","","",""
"","null","html-keyboard-response","37","177244","0.0-13.0-0.2","SS1618435647663","","","null","","","","","","<p><img src= images/blank.png width =""600"" height = ""600"" style=""position:fixed;top:50%; left:50%; transform: translate(-50%, -50%); border:5px solid black"">","","","","","","","",""
"","2038","sequential-stimulus-presentation-old","38","179784","0.0-13.0-1.2","SS1618435647663","trial","","40","500","2538","images/stimuli/spore_stims/complex_19_A_a.gif","images/stimuli/spore_stims/complex_09_A_b.gif","forced_short","","2","complex_dissimilar","images/stimuli/spore_stims/complex_19_A_a.gif","","","","",""
"","null","html-keyboard-response","39","180596","0.0-13.0-0.3","SS1618435647663","","","null","","","","","","<p><img src= images/blank.png width =""600"" height = ""600"" style=""position:fixed;top:50%; left:50%; transform: translate(-50%, -50%); border:5px solid black"">","","","","","","","",""
"","2105","sequential-stimulus-presentation-old","40","183206","0.0-13.0-1.3","SS1618435647663","trial","","40","500","2605","images/stimuli/spore_stims/complex_19_A_a.gif","images/stimuli/spore_stims/complex_09_A_b.gif","forced_short","","2","complex_dissimilar","images/stimuli/spore_stims/complex_09_A_b.gif","","","","",""
"","null","html-keyboard-response","41","184417","0.0-13.0-0.4","SS1618435647663","","","null","","","","","","<p><img src= images/blank.png width =""600"" height = ""600"" style=""position:fixed;top:50%; left:50%; transform: translate(-50%, -50%); border:5px solid black"">","","","","","","","",""
"","1940","sequential-stimulus-presentation-old","42","186863","0.0-13.0-1.4","SS1618435647663","trial","","40","500","2440","images/stimuli/spore_stims/complex_19_A_a.gif","images/stimuli/spore_stims/complex_09_A_b.gif","forced_short","","2","complex_dissimilar","images/stimuli/spore_stims/complex_19_A_a.gif","","","","",""
"","3098","survey-multi-choice","43","189961","0.0-14.0","SS1618435647663","math_question","","","","","","","","","","","","{""Q0"":""9""}","[0]","9","",""
"","null","html-keyboard-response","44","191029","0.0-15.0-0.0","SS1618435647663","","","null","","","","","","<p><img src= images/blank.png width =""600"" height = ""600"" style=""position:fixed;top:50%; left:50%; transform: translate(-50%, -50%); border:5px solid black"">","","","","","","","",""
"","726","sequential-stimulus-presentation-old","45","196757","0.0-15.0-1.0","SS1618435647663","trial","","40","500","1226","images/stimuli/spore_stims/complex_04_A_a.gif","images/stimuli/spore_stims/complex_17_A_b.gif","forced_long","","3","complex_dissimilar","images/stimuli/spore_stims/complex_17_A_b.gif","","","","",""
"","null","html-keyboard-response","46","197958","0.0-15.0-0.1","SS1618435647663","","","null","","","","","","<p><img src= images/blank.png width =""600"" height = ""600"" style=""position:fixed;top:50%; left:50%; transform: translate(-50%, -50%); border:5px solid black"">","","","","","","","",""
"","1456","sequential-stimulus-presentation-old","47","199920","0.0-15.0-1.1","SS1618435647663","trial","","40","500","1956","images/stimuli/spore_stims/complex_04_A_a.gif","images/stimuli/spore_stims/complex_17_A_b.gif","forced_long","","3","complex_dissimilar","images/stimuli/spore_stims/complex_17_A_b.gif","","","","",""
"","null","html-keyboard-response","48","200986","0.0-15.0-0.2","SS1618435647663","","","null","","","","","","<p><img src= images/blank.png width =""600"" height = ""600"" style=""position:fixed;top:50%; left:50%; transform: translate(-50%, -50%); border:5px solid black"">","","","","","","","",""
"","1376","sequential-stimulus-presentation-old","49","202865","0.0-15.0-1.2","SS1618435647663","trial","","40","500","1876","images/stimuli/spore_stims/complex_04_A_a.gif","images/stimuli/spore_stims/complex_17_A_b.gif","forced_long","","3","complex_dissimilar","images/stimuli/spore_stims/complex_17_A_b.gif","","","","",""
"","null","html-keyboard-response","50","204039","0.0-15.0-0.3","SS1618435647663","","","null","","","","","","<p><img src= images/blank.png width =""600"" height = ""600"" style=""position:fixed;top:50%; left:50%; transform: translate(-50%, -50%); border:5px solid black"">","","","","","","","",""
"","3120","sequential-stimulus-presentation-old","51","207661","0.0-15.0-1.3","SS1618435647663","trial","","40","500","3620","images/stimuli/spore_stims/complex_04_A_a.gif","images/stimuli/spore_stims/complex_17_A_b.gif","forced_long","","3","complex_dissimilar","images/stimuli/spore_stims/complex_04_A_a.gif","","","","",""
"","null","html-keyboard-response","52","208631","0.0-15.0-0.4","SS1618435647663","","","null","","","","","","<p><img src= images/blank.png width =""600"" height = ""600"" style=""position:fixed;top:50%; left:50%; transform: translate(-50%, -50%); border:5px solid black"">","","","","","","","",""
"","1880","sequential-stimulus-presentation-old","53","211016","0.0-15.0-1.4","SS1618435647663","trial","","40","500","2380","images/stimuli/spore_stims/complex_04_A_a.gif","images/stimuli/spore_stims/complex_17_A_b.gif","forced_long","","3","complex_dissimilar","images/stimuli/spore_stims/complex_04_A_a.gif","","","","",""
"","2760","survey-multi-choice","54","213779","0.0-16.0","SS1618435647663","math_question","","","","","","","","","","","","{""Q0"":""7""}","[0]","7","",""
"","null","html-keyboard-response","55","215013","0.0-17.0-0.0","SS1618435647663","","","null","","","","","","<p><img src= images/blank.png width =""600"" height = ""600"" style=""position:fixed;top:50%; left:50%; transform: translate(-50%, -50%); border:5px solid black"">","","","","","","","",""
"","1799","sequential-stimulus-presentation-old","56","216865","0.0-17.0-1.0","SS1618435647663","trial","","40","500","2299","images/stimuli/spore_stims/complex_09_A_a.gif","images/stimuli/spore_stims/complex_13_A_b.gif","forced_short","","4","complex_dissimilar","images/stimuli/spore_stims/complex_13_A_b.gif","","","","",""
"","null","html-keyboard-response","57","218093","0.0-17.0-0.1","SS1618435647663","","","null","","","","","","<p><img src= images/blank.png width =""600"" height = ""600"" style=""position:fixed;top:50%; left:50%; transform: translate(-50%, -50%); border:5px solid black"">","","","","","","","",""
"","2031","sequential-stimulus-presentation-old","58","220629","0.0-17.0-1.1","SS1618435647663","trial","","40","500","2531","images/stimuli/spore_stims/complex_09_A_a.gif","images/stimuli/spore_stims/complex_13_A_b.gif","forced_short","","4","complex_dissimilar","images/stimuli/spore_stims/complex_09_A_a.gif","","","","",""
"","null","html-keyboard-response","59","221623","0.0-17.0-0.2","SS1618435647663","","","null","","","","","","<p><img src= images/blank.png width =""600"" height = ""600"" style=""position:fixed;top:50%; left:50%; transform: translate(-50%, -50%); border:5px solid black"">","","","","","","","",""
"","1759","sequential-stimulus-presentation-old","60","223886","0.0-17.0-1.2","SS1618435647663","trial","","40","500","2259","images/stimuli/spore_stims/complex_09_A_a.gif","images/stimuli/spore_stims/complex_13_A_b.gif","forced_short","","4","complex_dissimilar","images/stimuli/spore_stims/complex_13_A_b.gif","","","","",""
"","null","html-keyboard-response","61","224734","0.0-17.0-0.3","SS1618435647663","","","null","","","","","","<p><img src= images/blank.png width =""600"" height = ""600"" style=""position:fixed;top:50%; left:50%; transform: translate(-50%, -50%); border:5px solid black"">","","","","","","","",""
"","1606","sequential-stimulus-presentation-old","62","226842","0.0-17.0-1.3","SS1618435647663","trial","","40","500","2106","images/stimuli/spore_stims/complex_09_A_a.gif","images/stimuli/spore_stims/complex_13_A_b.gif","forced_short","","4","complex_dissimilar","images/stimuli/spore_stims/complex_13_A_b.gif","","","","",""
"","null","html-keyboard-response","63","227805","0.0-17.0-0.4","SS1618435647663","","","null","","","","","","<p><img src= images/blank.png width =""600"" height = ""600"" style=""position:fixed;top:50%; left:50%; transform: translate(-50%, -50%); border:5px solid black"">","","","","","","","",""
"","2037","sequential-stimulus-presentation-old","64","230347","0.0-17.0-1.4","SS1618435647663","trial","","40","500","2537","images/stimuli/spore_stims/complex_09_A_a.gif","images/stimuli/spore_stims/complex_13_A_b.gif","forced_short","","4","complex_dissimilar","images/stimuli/spore_stims/complex_13_A_b.gif","","","","",""
"","null","html-keyboard-response","65","231477","0.0-17.0-0.5","SS1618435647663","","","null","","","","","","<p><img src= images/blank.png width =""600"" height = ""600"" style=""position:fixed;top:50%; left:50%; transform: translate(-50%, -50%); border:5px solid black"">","","","","","","","",""
"","2530","sequential-stimulus-presentation-old","66","234512","0.0-17.0-1.5","SS1618435647663","trial","","40","500","3030","images/stimuli/spore_stims/complex_09_A_a.gif","images/stimuli/spore_stims/complex_13_A_b.gif","forced_short","","4","complex_dissimilar","images/stimuli/spore_stims/complex_09_A_a.gif","","","","",""
"","3273","survey-multi-choice","67","237786","0.0-18.0","SS1618435647663","math_question","","","","","","","","","","","","{""Q0"":""9""}","[0]","9","",""
"","null","html-keyboard-response","68","238802","0.0-19.0-0.0","SS1618435647663","","","null","","","","","","<p><img src= images/blank.png width =""600"" height = ""600"" style=""position:fixed;top:50%; left:50%; transform: translate(-50%, -50%); border:5px solid black"">","","","","","","","",""
"","633","sequential-stimulus-presentation-old","69","244438","0.0-19.0-1.0","SS1618435647663","trial","","40","500","1133","images/stimuli/spore_stims/simple_09_A_b.gif","images/stimuli/spore_stims/simple_13_A_a.gif","forced_long","","5","simple_dissimilar","images/stimuli/spore_stims/simple_13_A_a.gif","","","","",""
"","null","html-keyboard-response","70","245441","0.0-19.0-0.1","SS1618435647663","","","null","","","","","","<p><img src= images/blank.png width =""600"" height = ""600"" style=""position:fixed;top:50%; left:50%; transform: translate(-50%, -50%); border:5px solid black"">","","","","","","","",""
"","1439","sequential-stimulus-presentation-old","71","247383","0.0-19.0-1.1","SS1618435647663","trial","","40","500","1939","images/stimuli/spore_stims/simple_09_A_b.gif","images/stimuli/spore_stims/simple_13_A_a.gif","forced_long","","5","simple_dissimilar","images/stimuli/spore_stims/simple_09_A_b.gif","","","","",""
"","null","html-keyboard-response","72","248588","0.0-19.0-0.2","SS1618435647663","","","null","","","","","","<p><img src= images/blank.png width =""600"" height = ""600"" style=""position:fixed;top:50%; left:50%; transform: translate(-50%, -50%); border:5px solid black"">","","","","","","","",""
"","1656","sequential-stimulus-presentation-old","73","250748","0.0-19.0-1.2","SS1618435647663","trial","","40","500","2156","images/stimuli/spore_stims/simple_09_A_b.gif","images/stimuli/spore_stims/simple_13_A_a.gif","forced_long","","5","simple_dissimilar","images/stimuli/spore_stims/simple_13_A_a.gif","","","","",""
"","null","html-keyboard-response","74","251727","0.0-19.0-0.3","SS1618435647663","","","null","","","","","","<p><img src= images/blank.png width =""600"" height = ""600"" style=""position:fixed;top:50%; left:50%; transform: translate(-50%, -50%); border:5px solid black"">","","","","","","","",""
"","995","sequential-stimulus-presentation-old","75","253224","0.0-19.0-1.3","SS1618435647663","trial","","40","500","1495","images/stimuli/spore_stims/simple_09_A_b.gif","images/stimuli/spore_stims/simple_13_A_a.gif","forced_long","","5","simple_dissimilar","images/stimuli/spore_stims/simple_13_A_a.gif","","","","",""
"","null","html-keyboard-response","76","254362","0.0-19.0-0.4","SS1618435647663","","","null","","","","","","<p><img src= images/blank.png width =""600"" height = ""600"" style=""position:fixed;top:50%; left:50%; transform: translate(-50%, -50%); border:5px solid black"">","","","","","","","",""
"","954","sequential-stimulus-presentation-old","77","255820","0.0-19.0-1.4","SS1618435647663","trial","","40","500","1454","images/stimuli/spore_stims/simple_09_A_b.gif","images/stimuli/spore_stims/simple_13_A_a.gif","forced_long","","5","simple_dissimilar","images/stimuli/spore_stims/simple_13_A_a.gif","","","","",""
"","2818","survey-multi-choice","78","258641","0.0-20.0","SS1618435647663","math_question","","","","","","","","","","","","{""Q0"":""18""}","[0]","18","",""
"","null","html-keyboard-response","79","259853","0.0-21.0-0.0","SS1618435647663","","","null","","","","","","<p><img src= images/blank.png width =""600"" height = ""600"" style=""position:fixed;top:50%; left:50%; transform: translate(-50%, -50%); border:5px solid black"">","","","","","","","",""
"","1158","sequential-stimulus-presentation-old","80","266014","0.0-21.0-1.0","SS1618435647663","trial","","40","500","1658","images/stimuli/spore_stims/complex_20_A_a.gif","images/stimuli/spore_stims/complex_16_A_b.gif","forced_long","","6","complex_dissimilar","images/stimuli/spore_stims/complex_16_A_b.gif","","","","",""
"","null","html-keyboard-response","81","266853","0.0-21.0-0.1","SS1618435647663","","","null","","","","","","<p><img src= images/blank.png width =""600"" height = ""600"" style=""position:fixed;top:50%; left:50%; transform: translate(-50%, -50%); border:5px solid black"">","","","","","","","",""
"","1984","sequential-stimulus-presentation-old","82","269342","0.0-21.0-1.1","SS1618435647663","trial","","40","500","2484","images/stimuli/spore_stims/complex_20_A_a.gif","images/stimuli/spore_stims/complex_16_A_b.gif","forced_long","","6","complex_dissimilar","images/stimuli/spore_stims/complex_16_A_b.gif","","","","",""
"","null","html-keyboard-response","83","270202","0.0-21.0-0.2","SS1618435647663","","","null","","","","","","<p><img src= images/blank.png width =""600"" height = ""600"" style=""position:fixed;top:50%; left:50%; transform: translate(-50%, -50%); border:5px solid black"">","","","","","","","",""
"","1141","sequential-stimulus-presentation-old","84","271846","0.0-21.0-1.2","SS1618435647663","trial","","40","500","1641","images/stimuli/spore_stims/complex_20_A_a.gif","images/stimuli/spore_stims/complex_16_A_b.gif","forced_long","","6","complex_dissimilar","images/stimuli/spore_stims/complex_16_A_b.gif","","","","",""
"","null","html-keyboard-response","85","272997","0.0-21.0-0.3","SS1618435647663","","","null","","","","","","<p><img src= images/blank.png width =""600"" height = ""600"" style=""position:fixed;top:50%; left:50%; transform: translate(-50%, -50%); border:5px solid black"">","","","","","","","",""
"","1793","sequential-stimulus-presentation-old","86","275296","0.0-21.0-1.3","SS1618435647663","trial","","40","500","2293","images/stimuli/spore_stims/complex_20_A_a.gif","images/stimuli/spore_stims/complex_16_A_b.gif","forced_long","","6","complex_dissimilar","images/stimuli/spore_stims/complex_20_A_a.gif","","","","",""
"","2838","survey-multi-choice","87","278137","0.0-22.0","SS1618435647663","math_question","","","","","","","","","","","","{""Q0"":""4""}","[0]","4","",""
"","null","html-keyboard-response","88","279187","0.0-23.0-0.0","SS1618435647663","","","null","","","","","","<p><img src= images/blank.png width =""600"" height = ""600"" style=""position:fixed;top:50%; left:50%; transform: translate(-50%, -50%); border:5px solid black"">","","","","","","","",""
"","1230","sequential-stimulus-presentation-old","89","280920","0.0-23.0-1.0","SS1618435647663","trial","","40","500","1730","images/stimuli/spore_stims/simple_07_A_a.gif","images/stimuli/spore_stims/simple_10_A_b.gif","self_paced","","7","simple_dissimilar","images/stimuli/spore_stims/simple_10_A_b.gif","","","","",""
"","null","html-keyboard-response","90","281891","0.0-23.0-0.1","SS1618435647663","","","null","","","","","","<p><img src= images/blank.png width =""600"" height = ""600"" style=""position:fixed;top:50%; left:50%; transform: translate(-50%, -50%); border:5px solid black"">","","","","","","","",""
"","1068","sequential-stimulus-presentation-old","91","283464","0.0-23.0-1.1","SS1618435647663","trial","","40","500","1568","images/stimuli/spore_stims/simple_07_A_a.gif","images/stimuli/spore_stims/simple_10_A_b.gif","self_paced","","7","simple_dissimilar","images/stimuli/spore_stims/simple_10_A_b.gif","","","","",""
"","null","html-keyboard-response","92","284527","0.0-23.0-0.2","SS1618435647663","","","null","","","","","","<p><img src= images/blank.png width =""600"" height = ""600"" style=""position:fixed;top:50%; left:50%; transform: translate(-50%, -50%); border:5px solid black"">","","","","","","","",""
"","680","sequential-stimulus-presentation-old","93","285714","0.0-23.0-1.2","SS1618435647663","trial","","40","500","1180","images/stimuli/spore_stims/simple_07_A_a.gif","images/stimuli/spore_stims/simple_10_A_b.gif","self_paced","","7","simple_dissimilar","images/stimuli/spore_stims/simple_10_A_b.gif","","","","",""
"","null","html-keyboard-response","94","286521","0.0-23.0-0.3","SS1618435647663","","","null","","","","","","<p><img src= images/blank.png width =""600"" height = ""600"" style=""position:fixed;top:50%; left:50%; transform: translate(-50%, -50%); border:5px solid black"">","","","","","","","",""
"","606","sequential-stimulus-presentation-old","95","287629","0.0-23.0-1.3","SS1618435647663","trial","","40","500","1106","images/stimuli/spore_stims/simple_07_A_a.gif","images/stimuli/spore_stims/simple_10_A_b.gif","self_paced","","7","simple_dissimilar","images/stimuli/spore_stims/simple_10_A_b.gif","","","","",""
"","null","html-keyboard-response","96","288646","0.0-23.0-0.4","SS1618435647663","","","null","","","","","","<p><img src= images/blank.png width =""600"" height = ""600"" style=""position:fixed;top:50%; left:50%; transform: translate(-50%, -50%); border:5px solid black"">","","","","","","","",""
"","891","sequential-stimulus-presentation-old","97","290040","0.0-23.0-1.4","SS1618435647663","trial","","40","500","1391","images/stimuli/spore_stims/simple_07_A_a.gif","images/stimuli/spore_stims/simple_10_A_b.gif","self_paced","","7","simple_dissimilar","images/stimuli/spore_stims/simple_10_A_b.gif","","","","",""
"","2957","survey-multi-choice","98","292999","0.0-24.0","SS1618435647663","math_question","","","","","","","","","","","","{""Q0"":""11""}","[0]","11","",""
"","null","html-keyboard-response","99","293874","0.0-25.0-0.0","SS1618435647663","","","null","","","","","","<p><img src= images/blank.png width =""600"" height = ""600"" style=""position:fixed;top:50%; left:50%; transform: translate(-50%, -50%); border:5px solid black"">","","","","","","","",""
"","1351","sequential-stimulus-presentation-old","100","295730","0.0-25.0-1.0","SS1618435647663","trial","","40","500","1851","images/stimuli/spore_stims/complex_15_A_a.gif","images/stimuli/spore_stims/complex_06_A_b.gif","self_paced","","8","complex_dissimilar","images/stimuli/spore_stims/complex_06_A_b.gif","","","","",""
"","null","html-keyboard-response","101","296631","0.0-25.0-0.1","SS1618435647663","","","null","","","","","","<p><img src= images/blank.png width =""600"" height = ""600"" style=""position:fixed;top:50%; left:50%; transform: translate(-50%, -50%); border:5px solid black"">","","","","","","","",""
"","460","sequential-stimulus-presentation-old","102","297596","0.0-25.0-1.1","SS1618435647663","trial","","40","500","960","images/stimuli/spore_stims/complex_15_A_a.gif","images/stimuli/spore_stims/complex_06_A_b.gif","self_paced","","8","complex_dissimilar","images/stimuli/spore_stims/complex_06_A_b.gif","","","","",""
"","null","html-keyboard-response","103","298510","0.0-25.0-0.2","SS1618435647663","","","null","","","","","","<p><img src= images/blank.png width =""600"" height = ""600"" style=""position:fixed;top:50%; left:50%; transform: translate(-50%, -50%); border:5px solid black"">","","","","","","","",""
"","602","sequential-stimulus-presentation-old","104","299616","0.0-25.0-1.2","SS1618435647663","trial","","40","500","1102","images/stimuli/spore_stims/complex_15_A_a.gif","images/stimuli/spore_stims/complex_06_A_b.gif","self_paced","","8","complex_dissimilar","images/stimuli/spore_stims/complex_15_A_a.gif","","","","",""
"","null","html-keyboard-response","105","300794","0.0-25.0-0.3","SS1618435647663","","","null","","","","","","<p><img src= images/blank.png width =""600"" height = ""600"" style=""position:fixed;top:50%; left:50%; transform: translate(-50%, -50%); border:5px solid black"">","","","","","","","",""
"","942","sequential-stimulus-presentation-old","106","302240","0.0-25.0-1.3","SS1618435647663","trial","","40","500","1442","images/stimuli/spore_stims/complex_15_A_a.gif","images/stimuli/spore_stims/complex_06_A_b.gif","self_paced","","8","complex_dissimilar","images/stimuli/spore_stims/complex_06_A_b.gif","","","","",""
"","null","html-keyboard-response","107","303237","0.0-25.0-0.4","SS1618435647663","","","null","","","","","","<p><img src= images/blank.png width =""600"" height = ""600"" style=""position:fixed;top:50%; left:50%; transform: translate(-50%, -50%); border:5px solid black"">","","","","","","","",""
"","269","sequential-stimulus-presentation-old","108","304010","0.0-25.0-1.4","SS1618435647663","trial","","40","500","769","images/stimuli/spore_stims/complex_15_A_a.gif","images/stimuli/spore_stims/complex_06_A_b.gif","self_paced","","8","complex_dissimilar","images/stimuli/spore_stims/complex_06_A_b.gif","","","","",""
"","4087","survey-multi-choice","109","308100","0.0-26.0","SS1618435647663","math_question","","","","","","","","","","","","{""Q0"":""5""}","[0]","5","",""
"","null","html-keyboard-response","110","309141","0.0-27.0-0.0","SS1618435647663","","","null","","","","","","<p><img src= images/blank.png width =""600"" height = ""600"" style=""position:fixed;top:50%; left:50%; transform: translate(-50%, -50%); border:5px solid black"">","","","","","","","",""
"","425","sequential-stimulus-presentation-old","111","314570","0.0-27.0-1.0","SS1618435647663","trial","","40","500","925","images/stimuli/spore_stims/simple_04_A_a.gif","images/stimuli/spore_stims/simple_18_A_b.gif","forced_long","","9","simple_dissimilar","images/stimuli/spore_stims/simple_18_A_b.gif","","","","",""
"","null","html-keyboard-response","112","315810","0.0-27.0-0.1","SS1618435647663","","","null","","","","","","<p><img src= images/blank.png width =""600"" height = ""600"" style=""position:fixed;top:50%; left:50%; transform: translate(-50%, -50%); border:5px solid black"">","","","","","","","",""
"","407","sequential-stimulus-presentation-old","113","316723","0.0-27.0-1.1","SS1618435647663","trial","","40","500","907","images/stimuli/spore_stims/simple_04_A_a.gif","images/stimuli/spore_stims/simple_18_A_b.gif","forced_long","","9","simple_dissimilar","images/stimuli/spore_stims/simple_18_A_b.gif","","","","",""
"","null","html-keyboard-response","114","317721","0.0-27.0-0.2","SS1618435647663","","","null","","","","","","<p><img src= images/blank.png width =""600"" height = ""600"" style=""position:fixed;top:50%; left:50%; transform: translate(-50%, -50%); border:5px solid black"">","","","","","","","",""
"","846","sequential-stimulus-presentation-old","115","319072","0.0-27.0-1.2","SS1618435647663","trial","","40","500","1346","images/stimuli/spore_stims/simple_04_A_a.gif","images/stimuli/spore_stims/simple_18_A_b.gif","forced_long","","9","simple_dissimilar","images/stimuli/spore_stims/simple_18_A_b.gif","","","","",""
"","null","html-keyboard-response","116","320121","0.0-27.0-0.3","SS1618435647663","","","null","","","","","","<p><img src= images/blank.png width =""600"" height = ""600"" style=""position:fixed;top:50%; left:50%; transform: translate(-50%, -50%); border:5px solid black"">","","","","","","","",""
"","699","sequential-stimulus-presentation-old","117","321324","0.0-27.0-1.3","SS1618435647663","trial","","40","500","1199","images/stimuli/spore_stims/simple_04_A_a.gif","images/stimuli/spore_stims/simple_18_A_b.gif","forced_long","","9","simple_dissimilar","images/stimuli/spore_stims/simple_18_A_b.gif","","","","",""
"","null","html-keyboard-response","118","322432","0.0-27.0-0.4","SS1618435647663","","","null","","","","","","<p><img src= images/blank.png width =""600"" height = ""600"" style=""position:fixed;top:50%; left:50%; transform: translate(-50%, -50%); border:5px solid black"">","","","","","","","",""
"","817","sequential-stimulus-presentation-old","119","323754","0.0-27.0-1.4","SS1618435647663","trial","","40","500","1317","images/stimuli/spore_stims/simple_04_A_a.gif","images/stimuli/spore_stims/simple_18_A_b.gif","forced_long","","9","simple_dissimilar","images/stimuli/spore_stims/simple_18_A_b.gif","","","","",""
"","3220","survey-multi-choice","120","326978","0.0-28.0","SS1618435647663","math_question","","","","","","","","","","","","{""Q0"":""4""}","[0]","4","",""
"","null","html-keyboard-response","121","327868","0.0-29.0-0.0","SS1618435647663","","","null","","","","","","<p><img src= images/blank.png width =""600"" height = ""600"" style=""position:fixed;top:50%; left:50%; transform: translate(-50%, -50%); border:5px solid black"">","","","","","","","",""
"","1000","sequential-stimulus-presentation-old","122","329371","0.0-29.0-1.0","SS1618435647663","trial","","40","500","1500","images/stimuli/spore_stims/simple_08_A_a.gif","images/stimuli/spore_stims/simple_20_A_b.gif","self_paced","","10","simple_dissimilar","images/stimuli/spore_stims/simple_20_A_b.gif","","","","",""
"","null","html-keyboard-response","123","330411","0.0-29.0-0.1","SS1618435647663","","","null","","","","","","<p><img src= images/blank.png width =""600"" height = ""600"" style=""position:fixed;top:50%; left:50%; transform: translate(-50%, -50%); border:5px solid black"">","","","","","","","",""
"","510","sequential-stimulus-presentation-old","124","331428","0.0-29.0-1.1","SS1618435647663","trial","","40","500","1010","images/stimuli/spore_stims/simple_08_A_a.gif","images/stimuli/spore_stims/simple_20_A_b.gif","self_paced","","10","simple_dissimilar","images/stimuli/spore_stims/simple_20_A_b.gif","","","","",""
"","null","html-keyboard-response","125","332542","0.0-29.0-0.2","SS1618435647663","","","null","","","","","","<p><img src= images/blank.png width =""600"" height = ""600"" style=""position:fixed;top:50%; left:50%; transform: translate(-50%, -50%); border:5px solid black"">","","","","","","","",""
"","302","sequential-stimulus-presentation-old","126","333347","0.0-29.0-1.2","SS1618435647663","trial","","40","500","802","images/stimuli/spore_stims/simple_08_A_a.gif","images/stimuli/spore_stims/simple_20_A_b.gif","self_paced","","10","simple_dissimilar","images/stimuli/spore_stims/simple_20_A_b.gif","","","","",""
"","null","html-keyboard-response","127","334181","0.0-29.0-0.3","SS1618435647663","","","null","","","","","","<p><img src= images/blank.png width =""600"" height = ""600"" style=""position:fixed;top:50%; left:50%; transform: translate(-50%, -50%); border:5px solid black"">","","","","","","","",""
"","816","sequential-stimulus-presentation-old","128","335501","0.0-29.0-1.3","SS1618435647663","trial","","40","500","1316","images/stimuli/spore_stims/simple_08_A_a.gif","images/stimuli/spore_stims/simple_20_A_b.gif","self_paced","","10","simple_dissimilar","images/stimuli/spore_stims/simple_08_A_a.gif","","","","",""
"","2889","survey-multi-choice","129","338393","0.0-30.0","SS1618435647663","math_question","","","","","","","","","","","","{""Q0"":""11""}","[0]","11","",""
"","null","html-keyboard-response","130","339267","0.0-31.0-0.0","SS1618435647663","","","null","","","","","","<p><img src= images/blank.png width =""600"" height = ""600"" style=""position:fixed;top:50%; left:50%; transform: translate(-50%, -50%); border:5px solid black"">","","","","","","","",""
"","1510","sequential-stimulus-presentation-old","131","340831","0.0-31.0-1.0","SS1618435647663","trial","","40","500","2010","images/stimuli/spore_stims/simple_15_A_b.gif","images/stimuli/spore_stims/simple_20_A_a.gif","forced_short","","11","simple_dissimilar","images/stimuli/spore_stims/simple_20_A_a.gif","","","","",""
"","null","html-keyboard-response","132","341670","0.0-31.0-0.1","SS1618435647663","","","null","","","","","","<p><img src= images/blank.png width =""600"" height = ""600"" style=""position:fixed;top:50%; left:50%; transform: translate(-50%, -50%); border:5px solid black"">","","","","","","","",""
"","407","sequential-stimulus-presentation-old","133","342580","0.0-31.0-1.1","SS1618435647663","trial","","40","500","907","images/stimuli/spore_stims/simple_15_A_b.gif","images/stimuli/spore_stims/simple_20_A_a.gif","forced_short","","11","simple_dissimilar","images/stimuli/spore_stims/simple_20_A_a.gif","","","","",""
"","null","html-keyboard-response","134","343449","0.0-31.0-0.2","SS1618435647663","","","null","","","","","","<p><img src= images/blank.png width =""600"" height = ""600"" style=""position:fixed;top:50%; left:50%; transform: translate(-50%, -50%); border:5px solid black"">","","","","","","","",""
"","335","sequential-stimulus-presentation-old","135","344289","0.0-31.0-1.2","SS1618435647663","trial","","40","500","835","images/stimuli/spore_stims/simple_15_A_b.gif","images/stimuli/spore_stims/simple_20_A_a.gif","forced_short","","11","simple_dissimilar","images/stimuli/spore_stims/simple_20_A_a.gif","","","","",""
"","null","html-keyboard-response","136","345304","0.0-31.0-0.3","SS1618435647663","","","null","","","","","","<p><img src= images/blank.png width =""600"" height = ""600"" style=""position:fixed;top:50%; left:50%; transform: translate(-50%, -50%); border:5px solid black"">","","","","","","","",""
"","294","sequential-stimulus-presentation-old","137","346105","0.0-31.0-1.3","SS1618435647663","trial","","40","500","794","images/stimuli/spore_stims/simple_15_A_b.gif","images/stimuli/spore_stims/simple_20_A_a.gif","forced_short","","11","simple_dissimilar","images/stimuli/spore_stims/simple_20_A_a.gif","","","","",""
"[{""page_index"":0,""viewing_time"":3501}]","3501","instructions","138","349608","0.0-32.0","SS1618435647663","instructions","","","","","","","","","","","","","","","",""
"","5652","survey-likert","139","355264","0.0-33.0","SS1618435647663","similarity_question","","","","","","","","","","","","{""Q0"":1}","[0]","","images/stimuli/spore_stims/complex_06_A_b.gif","images/stimuli/spore_stims/complex_15_A_a.gif"
"","5971","survey-likert","140","361238","0.0-34.0","SS1618435647663","similarity_question","","","","","","","","","","","","{""Q0"":4}","[0]","","images/stimuli/spore_stims/simple_03_A_a.gif","images/stimuli/spore_stims/simple_19_A_b.gif"
"","5091","survey-likert","141","366334","0.0-35.0","SS1618435647663","similarity_question","","","","","","","","","","","","{""Q0"":2}","[0]","","images/stimuli/spore_stims/simple_07_A_a.gif","images/stimuli/spore_stims/simple_10_A_b.gif"
"","3018","survey-likert","142","369357","0.0-36.0","SS1618435647663","similarity_question","","","","","","","","","","","","{""Q0"":1}","[0]","","images/stimuli/spore_stims/complex_17_A_b.gif","images/stimuli/spore_stims/complex_04_A_a.gif"
"","6423","survey-likert","143","375785","0.0-37.0","SS1618435647663","similarity_question","","","","","","","","","","","","{""Q0"":2}","[0]","","images/stimuli/spore_stims/complex_13_A_a.gif","images/stimuli/spore_stims/complex_18_A_b.gif"
"","3038","survey-likert","144","378827","0.0-38.0","SS1618435647663","similarity_question","","","","","","","","","","","","{""Q0"":1}","[0]","","images/stimuli/spore_stims/complex_09_A_b.gif","images/stimuli/spore_stims/complex_19_A_a.gif"
"","2682","survey-likert","145","381512","0.0-39.0","SS1618435647663","similarity_question","","","","","","","","","","","","{""Q0"":5}","[0]","","images/stimuli/spore_stims/simple_08_A_a.gif","images/stimuli/spore_stims/simple_20_A_b.gif"
"","2944","survey-likert","146","384459","0.0-40.0","SS1618435647663","similarity_question","","","","","","","","","","","","{""Q0"":2}","[0]","","images/stimuli/spore_stims/simple_18_A_b.gif","images/stimuli/spore_stims/simple_04_A_a.gif"
"","3174","survey-likert","147","387636","0.0-41.0","SS1618435647663","similarity_question","","","","","","","","","","","","{""Q0"":1}","[0]","","images/stimuli/spore_stims/complex_16_A_b.gif","images/stimuli/spore_stims/complex_20_A_a.gif"
"","2750","survey-likert","148","390389","0.0-42.0","SS1618435647663","similarity_question","","","","","","","","","","","","{""Q0"":4}","[0]","","images/stimuli/spore_stims/simple_09_A_b.gif","images/stimuli/spore_stims/simple_13_A_a.gif"
"","2979","survey-likert","149","393372","0.0-43.0","SS1618435647663","similarity_question","","","","","","","","","","","","{""Q0"":5}","[0]","","images/stimuli/spore_stims/simple_15_A_b.gif","images/stimuli/spore_stims/simple_20_A_a.gif"
"","3097","survey-likert","150","396472","0.0-44.0","SS1618435647663","similarity_question","","","","","","","","","","","","{""Q0"":2}","[0]","","images/stimuli/spore_stims/complex_09_A_a.gif","images/stimuli/spore_stims/complex_13_A_b.gif"
"[{""page_index"":0,""viewing_time"":2729}]","2729","instructions","151","399204","0.0-45.0","SS1618435647663","instructions","","","","","","","","","","","","","","","",""
"","3373","survey-likert","152","402579","0.0-46.0","SS1618435647663","","","","","","","","","images/stimuli/spore_stims/simple_13_A_a.gif","","","","{""Q0"":1}","[0]","","",""
"","1963","survey-likert","153","404546","0.0-47.0","SS1618435647663","","","","","","","","","images/stimuli/spore_stims/simple_15_A_b.gif","","","","{""Q0"":1}","[0]","","",""
"","2005","survey-likert","154","406556","0.0-48.0","SS1618435647663","","","","","","","","","images/stimuli/spore_stims/complex_04_A_a.gif","","","","{""Q0"":4}","[0]","","",""
"","2318","survey-likert","155","408877","0.0-49.0","SS1618435647663","","","","","","","","","images/stimuli/spore_stims/complex_13_A_b.gif","","","","{""Q0"":5}","[0]","","",""
"","2288","survey-likert","156","411170","0.0-50.0","SS1618435647663","","","","","","","","","images/stimuli/spore_stims/simple_03_A_a.gif","","","","{""Q0"":1}","[0]","","",""
"","2617","survey-likert","157","413790","0.0-51.0","SS1618435647663","","","","","","","","","images/stimuli/spore_stims/complex_19_A_a.gif","","","","{""Q0"":4}","[0]","","",""
"","1884","survey-likert","158","415679","0.0-52.0","SS1618435647663","","","","","","","","","images/stimuli/spore_stims/complex_20_A_a.gif","","","","{""Q0"":4}","[0]","","",""
"","1986","survey-likert","159","417671","0.0-53.0","SS1618435647663","","","","","","","","","images/stimuli/spore_stims/simple_10_A_b.gif","","","","{""Q0"":1}","[0]","","",""
"","2676","survey-likert","160","420350","0.0-54.0","SS1618435647663","","","","","","","","","images/stimuli/spore_stims/complex_13_A_a.gif","","","","{""Q0"":5}","[0]","","",""
"","1858","survey-likert","161","422212","0.0-55.0","SS1618435647663","","","","","","","","","images/stimuli/spore_stims/simple_20_A_b.gif","","","","{""Q0"":1}","[0]","","",""
"","2289","survey-likert","162","424504","0.0-56.0","SS1618435647663","","","","","","","","","images/stimuli/spore_stims/complex_15_A_a.gif","","","","{""Q0"":4}","[0]","","",""
"","2832","survey-likert","163","427343","0.0-57.0","SS1618435647663","","","","","","","","","images/stimuli/spore_stims/simple_18_A_b.gif","","","","{""Q0"":1}","[0]","","",""
"[{""page_index"":0,""viewing_time"":1768}]","1768","instructions","164","429113","0.0-58.0","SS1618435647663","instructions","","","","","","","","","","","","","","","",""
"","4484","demog-age","165","433605","0.0-59.0","SS1618435647663","","","","","","","","","","","","","{""age"":""40""}","","","",""
"","2728","demog-ethnic-US","166","436340","0.0-60.0","SS1618435647663","","","","","","","","","","","","","{""ethnicity"":[""White""]}","[0]","","",""
"","4398","demog-gender-and-education","167","440744","0.0-61.0","SS1618435647663","","","","","","","","","","","","","{""gender"":""Female"",""education"":""High school diploma""}","[0,1]","","",""
"","5012","survey-text","168","445763","0.0-62.0","SS1618435647663","feedback","","","","","","","","","","","","{""Q0"":""no""}","","","",""
"[{""page_index"":0,""viewing_time"":1033}]","1033","instructions","169","446798","0.0-63.0","SS1618435647663","instructions","","","","","","","","","","","","","","","",""
