"view_history","rt","trial_type","trial_index","time_elapsed","internal_node_id","subject","stimulus_type","trial_stimulus","key_press","minimum_viewing_duration","trial_looking_time","block_deviant","block_background","exposure_type","stimulus","block_number","block_type","stimulus_displayed","responses","question_order","math_correct_answer","stimulus_left","stimulus_right"
"[{""page_index"":0,""viewing_time"":3723.6050000010437}]","3725.785000000542","instructions","0","3735","0.0-0.0","SS1618365332720","","","","","","","","","","","","","","","","",""
"[{""page_index"":0,""viewing_time"":6846.859999999651},{""page_index"":1,""viewing_time"":9969.505000000936}]","16817.245000000185","instructions","1","22571","0.0-1.0","SS1618365332720","instructions","","","","","","","","","","","","","","","",""
"","6478.839999999764","sequential-stimulus-presentation-old","2","29563","0.0-2.0","SS1618365332720","","","40","500","6978.839999999764","null","null","self_paced","","","","","","","","",""
"","1746.0250000003725","sequential-stimulus-presentation-old","3","31830","0.0-3.0","SS1618365332720","","","40","500","2246.0250000003725","null","null","self_paced","","","","","","","","",""
"[{""page_index"":0,""viewing_time"":9156.245000000126}]","9157.180000000153","instructions","4","40990","0.0-4.0","SS1618365332720","instructions","","","","","","","","","","","","","","","",""
"","1732.8249999991385","sequential-stimulus-presentation-old","5","47731","0.0-5.0","SS1618365332720","","","40","500","2232.8249999991385","null","null","forced_long","","","","","","","","",""
"","3043.840000000273","sequential-stimulus-presentation-old","6","50836","0.0-6.0","SS1618365332720","","","40","50","3093.840000000273","null","null","forced_long","","","","","","","","",""
"[{""page_index"":0,""viewing_time"":3418.5749999996915}]","3419.4399999996676","instructions","7","54260","0.0-7.0","SS1618365332720","instructions","","","","","","","","","","","","","","","",""
"[{""page_index"":0,""viewing_time"":2545.604999999341},{""page_index"":1,""viewing_time"":4313.350000000355},{""page_index"":2,""viewing_time"":4686.9200000001},{""page_index"":3,""viewing_time"":1399.7899999994843},{""page_index"":4,""viewing_time"":1299.9350000009144}]","14246.67000000045","instructions","8","68513","0.0-8.0","SS1618365332720","instructions","","","","","","","","","","","","","","","",""
"","null","html-keyboard-response","9","69706","0.0-9.0-0.0","SS1618365332720","","","null","","","","","","<p><img src= images/blank.png width =""600"" height = ""600"" style=""position:fixed;top:50%; left:50%; transform: translate(-50%, -50%); border:5px solid black"">","","","","","","","",""
"","1747.2749999997177","sequential-stimulus-presentation-old","10","71524","0.0-9.0-1.0","SS1618365332720","trial","","40","500","2247.2749999997177","images/stimuli/spore_stims/complex_05_A_a.gif","images/stimuli/spore_stims/complex_08_A_b.gif","forced_short","","0","complex_dissimilar","images/stimuli/spore_stims/complex_08_A_b.gif","","","","",""
"","null","html-keyboard-response","11","72764","0.0-9.0-0.1","SS1618365332720","","","null","","","","","","<p><img src= images/blank.png width =""600"" height = ""600"" style=""position:fixed;top:50%; left:50%; transform: translate(-50%, -50%); border:5px solid black"">","","","","","","","",""
"","10253.435000000536","sequential-stimulus-presentation-old","12","83529","0.0-9.0-1.1","SS1618365332720","trial","","40","500","10753.435000000536","images/stimuli/spore_stims/complex_05_A_a.gif","images/stimuli/spore_stims/complex_08_A_b.gif","forced_short","","0","complex_dissimilar","images/stimuli/spore_stims/complex_08_A_b.gif","","","","",""
"","null","html-keyboard-response","13","84596","0.0-9.0-0.2","SS1618365332720","","","null","","","","","","<p><img src= images/blank.png width =""600"" height = ""600"" style=""position:fixed;top:50%; left:50%; transform: translate(-50%, -50%); border:5px solid black"">","","","","","","","",""
"","233.64000000037777","sequential-stimulus-presentation-old","14","85351","0.0-9.0-1.2","SS1618365332720","trial","","40","500","733.6400000003778","images/stimuli/spore_stims/complex_05_A_a.gif","images/stimuli/spore_stims/complex_08_A_b.gif","forced_short","","0","complex_dissimilar","images/stimuli/spore_stims/complex_08_A_b.gif","","","","",""
"","null","html-keyboard-response","15","86604","0.0-9.0-0.3","SS1618365332720","","","null","","","","","","<p><img src= images/blank.png width =""600"" height = ""600"" style=""position:fixed;top:50%; left:50%; transform: translate(-50%, -50%); border:5px solid black"">","","","","","","","",""
"","699.8849999999948","sequential-stimulus-presentation-old","16","87828","0.0-9.0-1.3","SS1618365332720","trial","","40","500","1199.8849999999948","images/stimuli/spore_stims/complex_05_A_a.gif","images/stimuli/spore_stims/complex_08_A_b.gif","forced_short","","0","complex_dissimilar","images/stimuli/spore_stims/complex_08_A_b.gif","","","","",""
"","null","html-keyboard-response","17","89130","0.0-9.0-0.4","SS1618365332720","","","null","","","","","","<p><img src= images/blank.png width =""600"" height = ""600"" style=""position:fixed;top:50%; left:50%; transform: translate(-50%, -50%); border:5px solid black"">","","","","","","","",""
"","1696.9650000010006","sequential-stimulus-presentation-old","18","91349","0.0-9.0-1.4","SS1618365332720","trial","","40","500","2196.9650000010006","images/stimuli/spore_stims/complex_05_A_a.gif","images/stimuli/spore_stims/complex_08_A_b.gif","forced_short","","0","complex_dissimilar","images/stimuli/spore_stims/complex_08_A_b.gif","","","","",""
"","null","html-keyboard-response","19","92570","0.0-9.0-0.5","SS1618365332720","","","null","","","","","","<p><img src= images/blank.png width =""600"" height = ""600"" style=""position:fixed;top:50%; left:50%; transform: translate(-50%, -50%); border:5px solid black"">","","","","","","","",""
"","216.6350000006787","sequential-stimulus-presentation-old","20","93303","0.0-9.0-1.5","SS1618365332720","trial","","40","500","716.6350000006787","images/stimuli/spore_stims/complex_05_A_a.gif","images/stimuli/spore_stims/complex_08_A_b.gif","forced_short","","0","complex_dissimilar","images/stimuli/spore_stims/complex_08_A_b.gif","","","","",""
"","6267.974999998842","survey-multi-choice","21","99588","0.0-10.0","SS1618365332720","math_question","","","","","","","","","","","","{""Q0"":""10""}","[0]","10","",""
"","null","html-keyboard-response","22","100864","0.0-11.0-0.0","SS1618365332720","","","null","","","","","","<p><img src= images/blank.png width =""600"" height = ""600"" style=""position:fixed;top:50%; left:50%; transform: translate(-50%, -50%); border:5px solid black"">","","","","","","","",""
"","3487.520000000586","sequential-stimulus-presentation-old","23","104869","0.0-11.0-1.0","SS1618365332720","trial","","40","500","3987.520000000586","images/stimuli/spore_stims/complex_05_A_b.gif","images/stimuli/spore_stims/complex_18_A_a.gif","self_paced","","1","complex_dissimilar","images/stimuli/spore_stims/complex_18_A_a.gif","","","","",""
"","null","html-keyboard-response","24","106036","0.0-11.0-0.1","SS1618365332720","","","null","","","","","","<p><img src= images/blank.png width =""600"" height = ""600"" style=""position:fixed;top:50%; left:50%; transform: translate(-50%, -50%); border:5px solid black"">","","","","","","","",""
"","4030.7149999989633","sequential-stimulus-presentation-old","25","110578","0.0-11.0-1.1","SS1618365332720","trial","","40","500","4530.714999998963","images/stimuli/spore_stims/complex_05_A_b.gif","images/stimuli/spore_stims/complex_18_A_a.gif","self_paced","","1","complex_dissimilar","images/stimuli/spore_stims/complex_05_A_b.gif","","","","",""
"","null","html-keyboard-response","26","111797","0.0-11.0-0.2","SS1618365332720","","","null","","","","","","<p><img src= images/blank.png width =""600"" height = ""600"" style=""position:fixed;top:50%; left:50%; transform: translate(-50%, -50%); border:5px solid black"">","","","","","","","",""
"","552.5350000007165","sequential-stimulus-presentation-old","27","112859","0.0-11.0-1.2","SS1618365332720","trial","","40","500","1052.5350000007165","images/stimuli/spore_stims/complex_05_A_b.gif","images/stimuli/spore_stims/complex_18_A_a.gif","self_paced","","1","complex_dissimilar","images/stimuli/spore_stims/complex_18_A_a.gif","","","","",""
"","null","html-keyboard-response","28","114022","0.0-11.0-0.3","SS1618365332720","","","null","","","","","","<p><img src= images/blank.png width =""600"" height = ""600"" style=""position:fixed;top:50%; left:50%; transform: translate(-50%, -50%); border:5px solid black"">","","","","","","","",""
"","154.01999999994587","sequential-stimulus-presentation-old","29","114700","0.0-11.0-1.3","SS1618365332720","trial","","40","500","654.0199999999459","images/stimuli/spore_stims/complex_05_A_b.gif","images/stimuli/spore_stims/complex_18_A_a.gif","self_paced","","1","complex_dissimilar","images/stimuli/spore_stims/complex_18_A_a.gif","","","","",""
"","null","html-keyboard-response","30","115732","0.0-11.0-0.4","SS1618365332720","","","null","","","","","","<p><img src= images/blank.png width =""600"" height = ""600"" style=""position:fixed;top:50%; left:50%; transform: translate(-50%, -50%); border:5px solid black"">","","","","","","","",""
"","372.2200000011071","sequential-stimulus-presentation-old","31","116627","0.0-11.0-1.4","SS1618365332720","trial","","40","500","872.2200000011071","images/stimuli/spore_stims/complex_05_A_b.gif","images/stimuli/spore_stims/complex_18_A_a.gif","self_paced","","1","complex_dissimilar","images/stimuli/spore_stims/complex_05_A_b.gif","","","","",""
"","4759.275000000343","survey-multi-choice","32","121395","0.0-12.0","SS1618365332720","math_question","","","","","","","","","","","","{""Q0"":""7""}","[0]","7","",""
"","null","html-keyboard-response","33","122627","0.0-13.0-0.0","SS1618365332720","","","null","","","","","","<p><img src= images/blank.png width =""600"" height = ""600"" style=""position:fixed;top:50%; left:50%; transform: translate(-50%, -50%); border:5px solid black"">","","","","","","","",""
"","2009.3850000011735","sequential-stimulus-presentation-old","34","125154","0.0-13.0-1.0","SS1618365332720","trial","","40","500","2509.3850000011735","images/stimuli/spore_stims/simple_12_A_a.gif","images/stimuli/spore_stims/simple_10_A_b.gif","self_paced","","2","simple_dissimilar","images/stimuli/spore_stims/simple_10_A_b.gif","","","","",""
"","null","html-keyboard-response","35","126033","0.0-13.0-0.1","SS1618365332720","","","null","","","","","","<p><img src= images/blank.png width =""600"" height = ""600"" style=""position:fixed;top:50%; left:50%; transform: translate(-50%, -50%); border:5px solid black"">","","","","","","","",""
"","260.57000000035623","sequential-stimulus-presentation-old","36","126810","0.0-13.0-1.1","SS1618365332720","trial","","40","500","760.5700000003562","images/stimuli/spore_stims/simple_12_A_a.gif","images/stimuli/spore_stims/simple_10_A_b.gif","self_paced","","2","simple_dissimilar","images/stimuli/spore_stims/simple_10_A_b.gif","","","","",""
"","null","html-keyboard-response","37","128014","0.0-13.0-0.2","SS1618365332720","","","null","","","","","","<p><img src= images/blank.png width =""600"" height = ""600"" style=""position:fixed;top:50%; left:50%; transform: translate(-50%, -50%); border:5px solid black"">","","","","","","","",""
"","1010.5849999999627","sequential-stimulus-presentation-old","38","129543","0.0-13.0-1.2","SS1618365332720","trial","","40","500","1510.5849999999627","images/stimuli/spore_stims/simple_12_A_a.gif","images/stimuli/spore_stims/simple_10_A_b.gif","self_paced","","2","simple_dissimilar","images/stimuli/spore_stims/simple_12_A_a.gif","","","","",""
"","null","html-keyboard-response","39","130701","0.0-13.0-0.3","SS1618365332720","","","null","","","","","","<p><img src= images/blank.png width =""600"" height = ""600"" style=""position:fixed;top:50%; left:50%; transform: translate(-50%, -50%); border:5px solid black"">","","","","","","","",""
"","1095.3599999993457","sequential-stimulus-presentation-old","40","132306","0.0-13.0-1.3","SS1618365332720","trial","","40","500","1595.3599999993457","images/stimuli/spore_stims/simple_12_A_a.gif","images/stimuli/spore_stims/simple_10_A_b.gif","self_paced","","2","simple_dissimilar","images/stimuli/spore_stims/simple_10_A_b.gif","","","","",""
"","null","html-keyboard-response","41","133484","0.0-13.0-0.4","SS1618365332720","","","null","","","","","","<p><img src= images/blank.png width =""600"" height = ""600"" style=""position:fixed;top:50%; left:50%; transform: translate(-50%, -50%); border:5px solid black"">","","","","","","","",""
"","651.2600000005332","sequential-stimulus-presentation-old","42","134646","0.0-13.0-1.4","SS1618365332720","trial","","40","500","1151.2600000005332","images/stimuli/spore_stims/simple_12_A_a.gif","images/stimuli/spore_stims/simple_10_A_b.gif","self_paced","","2","simple_dissimilar","images/stimuli/spore_stims/simple_10_A_b.gif","","","","",""
"","null","html-keyboard-response","43","135893","0.0-13.0-0.5","SS1618365332720","","","null","","","","","","<p><img src= images/blank.png width =""600"" height = ""600"" style=""position:fixed;top:50%; left:50%; transform: translate(-50%, -50%); border:5px solid black"">","","","","","","","",""
"","856.7050000001618","sequential-stimulus-presentation-old","44","137264","0.0-13.0-1.5","SS1618365332720","trial","","40","500","1356.7050000001618","images/stimuli/spore_stims/simple_12_A_a.gif","images/stimuli/spore_stims/simple_10_A_b.gif","self_paced","","2","simple_dissimilar","images/stimuli/spore_stims/simple_12_A_a.gif","","","","",""
"","3391.52999999898","survey-multi-choice","45","140667","0.0-14.0","SS1618365332720","math_question","","","","","","","","","","","","{""Q0"":""11""}","[0]","11","",""
"","null","html-keyboard-response","46","141562","0.0-15.0-0.0","SS1618365332720","","","null","","","","","","<p><img src= images/blank.png width =""600"" height = ""600"" style=""position:fixed;top:50%; left:50%; transform: translate(-50%, -50%); border:5px solid black"">","","","","","","","",""
"","1284.7000000001572","sequential-stimulus-presentation-old","47","142917","0.0-15.0-1.0","SS1618365332720","trial","","40","500","1784.7000000001572","images/stimuli/spore_stims/simple_02_A_a.gif","images/stimuli/spore_stims/simple_04_A_b.gif","forced_short","","3","simple_dissimilar","images/stimuli/spore_stims/simple_04_A_b.gif","","","","",""
"","null","html-keyboard-response","48","143764","0.0-15.0-0.1","SS1618365332720","","","null","","","","","","<p><img src= images/blank.png width =""600"" height = ""600"" style=""position:fixed;top:50%; left:50%; transform: translate(-50%, -50%); border:5px solid black"">","","","","","","","",""
"","1363.310000000638","sequential-stimulus-presentation-old","49","145646","0.0-15.0-1.1","SS1618365332720","trial","","40","500","1863.310000000638","images/stimuli/spore_stims/simple_02_A_a.gif","images/stimuli/spore_stims/simple_04_A_b.gif","forced_short","","3","simple_dissimilar","images/stimuli/spore_stims/simple_02_A_a.gif","","","","",""
"","null","html-keyboard-response","50","146663","0.0-15.0-0.2","SS1618365332720","","","null","","","","","","<p><img src= images/blank.png width =""600"" height = ""600"" style=""position:fixed;top:50%; left:50%; transform: translate(-50%, -50%); border:5px solid black"">","","","","","","","",""
"","216.019999999844","sequential-stimulus-presentation-old","51","147389","0.0-15.0-1.2","SS1618365332720","trial","","40","500","716.019999999844","images/stimuli/spore_stims/simple_02_A_a.gif","images/stimuli/spore_stims/simple_04_A_b.gif","forced_short","","3","simple_dissimilar","images/stimuli/spore_stims/simple_04_A_b.gif","","","","",""
"","null","html-keyboard-response","52","148324","0.0-15.0-0.3","SS1618365332720","","","null","","","","","","<p><img src= images/blank.png width =""600"" height = ""600"" style=""position:fixed;top:50%; left:50%; transform: translate(-50%, -50%); border:5px solid black"">","","","","","","","",""
"","420.3400000005495","sequential-stimulus-presentation-old","53","149255","0.0-15.0-1.3","SS1618365332720","trial","","40","500","920.3400000005495","images/stimuli/spore_stims/simple_02_A_a.gif","images/stimuli/spore_stims/simple_04_A_b.gif","forced_short","","3","simple_dissimilar","images/stimuli/spore_stims/simple_04_A_b.gif","","","","",""
"","null","html-keyboard-response","54","150288","0.0-15.0-0.4","SS1618365332720","","","null","","","","","","<p><img src= images/blank.png width =""600"" height = ""600"" style=""position:fixed;top:50%; left:50%; transform: translate(-50%, -50%); border:5px solid black"">","","","","","","","",""
"","628.139999998908","sequential-stimulus-presentation-old","55","151433","0.0-15.0-1.4","SS1618365332720","trial","","40","500","1128.139999998908","images/stimuli/spore_stims/simple_02_A_a.gif","images/stimuli/spore_stims/simple_04_A_b.gif","forced_short","","3","simple_dissimilar","images/stimuli/spore_stims/simple_04_A_b.gif","","","","",""
"","null","html-keyboard-response","56","152282","0.0-15.0-0.5","SS1618365332720","","","null","","","","","","<p><img src= images/blank.png width =""600"" height = ""600"" style=""position:fixed;top:50%; left:50%; transform: translate(-50%, -50%); border:5px solid black"">","","","","","","","",""
"","547.6500000004307","sequential-stimulus-presentation-old","57","153354","0.0-15.0-1.5","SS1618365332720","trial","","40","500","1047.6500000004307","images/stimuli/spore_stims/simple_02_A_a.gif","images/stimuli/spore_stims/simple_04_A_b.gif","forced_short","","3","simple_dissimilar","images/stimuli/spore_stims/simple_04_A_b.gif","","","","",""
"","3541.3300000000163","survey-multi-choice","58","156904","0.0-16.0","SS1618365332720","math_question","","","","","","","","","","","","{""Q0"":""9""}","[0]","9","",""
"","null","html-keyboard-response","59","158065","0.0-17.0-0.0","SS1618365332720","","","null","","","","","","<p><img src= images/blank.png width =""600"" height = ""600"" style=""position:fixed;top:50%; left:50%; transform: translate(-50%, -50%); border:5px solid black"">","","","","","","","",""
"","569.4650000004913","sequential-stimulus-presentation-old","60","163657","0.0-17.0-1.0","SS1618365332720","trial","","40","500","1069.4650000004913","images/stimuli/spore_stims/complex_12_A_a.gif","images/stimuli/spore_stims/complex_20_A_b.gif","forced_long","","4","complex_dissimilar","images/stimuli/spore_stims/complex_20_A_b.gif","","","","",""
"","null","html-keyboard-response","61","164920","0.0-17.0-0.1","SS1618365332720","","","null","","","","","","<p><img src= images/blank.png width =""600"" height = ""600"" style=""position:fixed;top:50%; left:50%; transform: translate(-50%, -50%); border:5px solid black"">","","","","","","","",""
"","977.4199999992561","sequential-stimulus-presentation-old","62","166416","0.0-17.0-1.1","SS1618365332720","trial","","40","500","1477.419999999256","images/stimuli/spore_stims/complex_12_A_a.gif","images/stimuli/spore_stims/complex_20_A_b.gif","forced_long","","4","complex_dissimilar","images/stimuli/spore_stims/complex_20_A_b.gif","","","","",""
"","null","html-keyboard-response","63","167604","0.0-17.0-0.2","SS1618365332720","","","null","","","","","","<p><img src= images/blank.png width =""600"" height = ""600"" style=""position:fixed;top:50%; left:50%; transform: translate(-50%, -50%); border:5px solid black"">","","","","","","","",""
"","609.7100000006612","sequential-stimulus-presentation-old","64","168734","0.0-17.0-1.2","SS1618365332720","trial","","40","500","1109.7100000006612","images/stimuli/spore_stims/complex_12_A_a.gif","images/stimuli/spore_stims/complex_20_A_b.gif","forced_long","","4","complex_dissimilar","images/stimuli/spore_stims/complex_20_A_b.gif","","","","",""
"","null","html-keyboard-response","65","169549","0.0-17.0-0.3","SS1618365332720","","","null","","","","","","<p><img src= images/blank.png width =""600"" height = ""600"" style=""position:fixed;top:50%; left:50%; transform: translate(-50%, -50%); border:5px solid black"">","","","","","","","",""
"","1187.4399999997113","sequential-stimulus-presentation-old","66","171247","0.0-17.0-1.3","SS1618365332720","trial","","40","500","1687.4399999997113","images/stimuli/spore_stims/complex_12_A_a.gif","images/stimuli/spore_stims/complex_20_A_b.gif","forced_long","","4","complex_dissimilar","images/stimuli/spore_stims/complex_20_A_b.gif","","","","",""
"","null","html-keyboard-response","67","172326","0.0-17.0-0.4","SS1618365332720","","","null","","","","","","<p><img src= images/blank.png width =""600"" height = ""600"" style=""position:fixed;top:50%; left:50%; transform: translate(-50%, -50%); border:5px solid black"">","","","","","","","",""
"","923.0850000003702","sequential-stimulus-presentation-old","68","173787","0.0-17.0-1.4","SS1618365332720","trial","","40","500","1423.0850000003702","images/stimuli/spore_stims/complex_12_A_a.gif","images/stimuli/spore_stims/complex_20_A_b.gif","forced_long","","4","complex_dissimilar","images/stimuli/spore_stims/complex_20_A_b.gif","","","","",""
"","3619.58500000037","survey-multi-choice","69","177420","0.0-18.0","SS1618365332720","math_question","","","","","","","","","","","","{""Q0"":""11""}","[0]","11","",""
"","null","html-keyboard-response","70","178663","0.0-19.0-0.0","SS1618365332720","","","null","","","","","","<p><img src= images/blank.png width =""600"" height = ""600"" style=""position:fixed;top:50%; left:50%; transform: translate(-50%, -50%); border:5px solid black"">","","","","","","","",""
"","842.3149999998859","sequential-stimulus-presentation-old","71","184530","0.0-19.0-1.0","SS1618365332720","trial","","40","500","1342.314999999886","images/stimuli/spore_stims/simple_15_A_b.gif","images/stimuli/spore_stims/simple_13_A_a.gif","forced_long","","5","simple_dissimilar","images/stimuli/spore_stims/simple_13_A_a.gif","","","","",""
"","null","html-keyboard-response","72","185702","0.0-19.0-0.1","SS1618365332720","","","null","","","","","","<p><img src= images/blank.png width =""600"" height = ""600"" style=""position:fixed;top:50%; left:50%; transform: translate(-50%, -50%); border:5px solid black"">","","","","","","","",""
"","267.6900000005844","sequential-stimulus-presentation-old","73","186493","0.0-19.0-1.1","SS1618365332720","trial","","40","500","767.6900000005844","images/stimuli/spore_stims/simple_15_A_b.gif","images/stimuli/spore_stims/simple_13_A_a.gif","forced_long","","5","simple_dissimilar","images/stimuli/spore_stims/simple_13_A_a.gif","","","","",""
"","null","html-keyboard-response","74","187628","0.0-19.0-0.2","SS1618365332720","","","null","","","","","","<p><img src= images/blank.png width =""600"" height = ""600"" style=""position:fixed;top:50%; left:50%; transform: translate(-50%, -50%); border:5px solid black"">","","","","","","","",""
"","904.8499999989872","sequential-stimulus-presentation-old","75","189047","0.0-19.0-1.2","SS1618365332720","trial","","40","500","1404.8499999989872","images/stimuli/spore_stims/simple_15_A_b.gif","images/stimuli/spore_stims/simple_13_A_a.gif","forced_long","","5","simple_dissimilar","images/stimuli/spore_stims/simple_13_A_a.gif","","","","",""
"","null","html-keyboard-response","76","190123","0.0-19.0-0.3","SS1618365332720","","","null","","","","","","<p><img src= images/blank.png width =""600"" height = ""600"" style=""position:fixed;top:50%; left:50%; transform: translate(-50%, -50%); border:5px solid black"">","","","","","","","",""
"","4571.915000000445","sequential-stimulus-presentation-old","77","195231","0.0-19.0-1.3","SS1618365332720","trial","","40","500","5071.915000000445","images/stimuli/spore_stims/simple_15_A_b.gif","images/stimuli/spore_stims/simple_13_A_a.gif","forced_long","","5","simple_dissimilar","images/stimuli/spore_stims/simple_13_A_a.gif","","","","",""
"","null","html-keyboard-response","78","196541","0.0-19.0-0.4","SS1618365332720","","","null","","","","","","<p><img src= images/blank.png width =""600"" height = ""600"" style=""position:fixed;top:50%; left:50%; transform: translate(-50%, -50%); border:5px solid black"">","","","","","","","",""
"","958.4300000005751","sequential-stimulus-presentation-old","79","198025","0.0-19.0-1.4","SS1618365332720","trial","","40","500","1458.430000000575","images/stimuli/spore_stims/simple_15_A_b.gif","images/stimuli/spore_stims/simple_13_A_a.gif","forced_long","","5","simple_dissimilar","images/stimuli/spore_stims/simple_13_A_a.gif","","","","",""
"","null","html-keyboard-response","80","198981","0.0-19.0-0.5","SS1618365332720","","","null","","","","","","<p><img src= images/blank.png width =""600"" height = ""600"" style=""position:fixed;top:50%; left:50%; transform: translate(-50%, -50%); border:5px solid black"">","","","","","","","",""
"","618.1649999998626","sequential-stimulus-presentation-old","81","200117","0.0-19.0-1.5","SS1618365332720","trial","","40","500","1118.1649999998626","images/stimuli/spore_stims/simple_15_A_b.gif","images/stimuli/spore_stims/simple_13_A_a.gif","forced_long","","5","simple_dissimilar","images/stimuli/spore_stims/simple_15_A_b.gif","","","","",""
"","7928.445000001346","survey-multi-choice","82","208060","0.0-20.0","SS1618365332720","math_question","","","","","","","","","","","","{""Q0"":""13""}","[0]","13","",""
"","null","html-keyboard-response","83","209257","0.0-21.0-0.0","SS1618365332720","","","null","","","","","","<p><img src= images/blank.png width =""600"" height = ""600"" style=""position:fixed;top:50%; left:50%; transform: translate(-50%, -50%); border:5px solid black"">","","","","","","","",""
"","2235.5599999991828","sequential-stimulus-presentation-old","84","211575","0.0-21.0-1.0","SS1618365332720","trial","","40","500","2735.5599999991828","images/stimuli/spore_stims/complex_15_A_b.gif","images/stimuli/spore_stims/complex_08_A_a.gif","forced_short","","6","complex_dissimilar","images/stimuli/spore_stims/complex_08_A_a.gif","","","","",""
"","null","html-keyboard-response","85","212454","0.0-21.0-0.1","SS1618365332720","","","null","","","","","","<p><img src= images/blank.png width =""600"" height = ""600"" style=""position:fixed;top:50%; left:50%; transform: translate(-50%, -50%); border:5px solid black"">","","","","","","","",""
"","1874.6350000001257","sequential-stimulus-presentation-old","86","214849","0.0-21.0-1.1","SS1618365332720","trial","","40","500","2374.6350000001257","images/stimuli/spore_stims/complex_15_A_b.gif","images/stimuli/spore_stims/complex_08_A_a.gif","forced_short","","6","complex_dissimilar","images/stimuli/spore_stims/complex_08_A_a.gif","","","","",""
"","null","html-keyboard-response","87","215938","0.0-21.0-0.2","SS1618365332720","","","null","","","","","","<p><img src= images/blank.png width =""600"" height = ""600"" style=""position:fixed;top:50%; left:50%; transform: translate(-50%, -50%); border:5px solid black"">","","","","","","","",""
"","1584.9550000002491","sequential-stimulus-presentation-old","88","218044","0.0-21.0-1.2","SS1618365332720","trial","","40","500","2084.955000000249","images/stimuli/spore_stims/complex_15_A_b.gif","images/stimuli/spore_stims/complex_08_A_a.gif","forced_short","","6","complex_dissimilar","images/stimuli/spore_stims/complex_15_A_b.gif","","","","",""
"","null","html-keyboard-response","89","218982","0.0-21.0-0.3","SS1618365332720","","","null","","","","","","<p><img src= images/blank.png width =""600"" height = ""600"" style=""position:fixed;top:50%; left:50%; transform: translate(-50%, -50%); border:5px solid black"">","","","","","","","",""
"","344.93000000109896","sequential-stimulus-presentation-old","90","219854","0.0-21.0-1.3","SS1618365332720","trial","","40","500","844.930000001099","images/stimuli/spore_stims/complex_15_A_b.gif","images/stimuli/spore_stims/complex_08_A_a.gif","forced_short","","6","complex_dissimilar","images/stimuli/spore_stims/complex_08_A_a.gif","","","","",""
"","null","html-keyboard-response","91","220682","0.0-21.0-0.4","SS1618365332720","","","null","","","","","","<p><img src= images/blank.png width =""600"" height = ""600"" style=""position:fixed;top:50%; left:50%; transform: translate(-50%, -50%); border:5px solid black"">","","","","","","","",""
"","697.8199999994249","sequential-stimulus-presentation-old","92","221902","0.0-21.0-1.4","SS1618365332720","trial","","40","500","1197.819999999425","images/stimuli/spore_stims/complex_15_A_b.gif","images/stimuli/spore_stims/complex_08_A_a.gif","forced_short","","6","complex_dissimilar","images/stimuli/spore_stims/complex_08_A_a.gif","","","","",""
"","null","html-keyboard-response","93","222908","0.0-21.0-0.5","SS1618365332720","","","null","","","","","","<p><img src= images/blank.png width =""600"" height = ""600"" style=""position:fixed;top:50%; left:50%; transform: translate(-50%, -50%); border:5px solid black"">","","","","","","","",""
"","1572.280000000319","sequential-stimulus-presentation-old","94","224993","0.0-21.0-1.5","SS1618365332720","trial","","40","500","2072.280000000319","images/stimuli/spore_stims/complex_15_A_b.gif","images/stimuli/spore_stims/complex_08_A_a.gif","forced_short","","6","complex_dissimilar","images/stimuli/spore_stims/complex_15_A_b.gif","","","","",""
"","4795.154999999795","survey-multi-choice","95","229800","0.0-22.0","SS1618365332720","math_question","","","","","","","","","","","","{""Q0"":""15""}","[0]","15","",""
"","null","html-keyboard-response","96","230899","0.0-23.0-0.0","SS1618365332720","","","null","","","","","","<p><img src= images/blank.png width =""600"" height = ""600"" style=""position:fixed;top:50%; left:50%; transform: translate(-50%, -50%); border:5px solid black"">","","","","","","","",""
"","558.5099999989325","sequential-stimulus-presentation-old","97","236486","0.0-23.0-1.0","SS1618365332720","trial","","40","500","1058.5099999989325","images/stimuli/spore_stims/simple_03_A_a.gif","images/stimuli/spore_stims/simple_05_A_b.gif","forced_long","","7","simple_dissimilar","images/stimuli/spore_stims/simple_05_A_b.gif","","","","",""
"","null","html-keyboard-response","98","237474","0.0-23.0-0.1","SS1618365332720","","","null","","","","","","<p><img src= images/blank.png width =""600"" height = ""600"" style=""position:fixed;top:50%; left:50%; transform: translate(-50%, -50%); border:5px solid black"">","","","","","","","",""
"","11895.300000000134","sequential-stimulus-presentation-old","99","249904","0.0-23.0-1.1","SS1618365332720","trial","","40","500","12395.300000000134","images/stimuli/spore_stims/simple_03_A_a.gif","images/stimuli/spore_stims/simple_05_A_b.gif","forced_long","","7","simple_dissimilar","images/stimuli/spore_stims/simple_03_A_a.gif","","","","",""
"","null","html-keyboard-response","100","251129","0.0-23.0-0.2","SS1618365332720","","","null","","","","","","<p><img src= images/blank.png width =""600"" height = ""600"" style=""position:fixed;top:50%; left:50%; transform: translate(-50%, -50%); border:5px solid black"">","","","","","","","",""
"","2903.2600000009406","sequential-stimulus-presentation-old","101","254553","0.0-23.0-1.2","SS1618365332720","trial","","40","500","3403.2600000009406","images/stimuli/spore_stims/simple_03_A_a.gif","images/stimuli/spore_stims/simple_05_A_b.gif","forced_long","","7","simple_dissimilar","images/stimuli/spore_stims/simple_05_A_b.gif","","","","",""
"","null","html-keyboard-response","102","255731","0.0-23.0-0.3","SS1618365332720","","","null","","","","","","<p><img src= images/blank.png width =""600"" height = ""600"" style=""position:fixed;top:50%; left:50%; transform: translate(-50%, -50%); border:5px solid black"">","","","","","","","",""
"","7691.679999999935","sequential-stimulus-presentation-old","103","263952","0.0-23.0-1.3","SS1618365332720","trial","","40","500","8191.679999999935","images/stimuli/spore_stims/simple_03_A_a.gif","images/stimuli/spore_stims/simple_05_A_b.gif","forced_long","","7","simple_dissimilar","images/stimuli/spore_stims/simple_03_A_a.gif","","","","",""
"","null","html-keyboard-response","104","265260","0.0-23.0-0.4","SS1618365332720","","","null","","","","","","<p><img src= images/blank.png width =""600"" height = ""600"" style=""position:fixed;top:50%; left:50%; transform: translate(-50%, -50%); border:5px solid black"">","","","","","","","",""
"","213.1800000006915","sequential-stimulus-presentation-old","105","266004","0.0-23.0-1.4","SS1618365332720","trial","","40","500","713.1800000006915","images/stimuli/spore_stims/simple_03_A_a.gif","images/stimuli/spore_stims/simple_05_A_b.gif","forced_long","","7","simple_dissimilar","images/stimuli/spore_stims/simple_05_A_b.gif","","","","",""
"","null","html-keyboard-response","106","267015","0.0-23.0-0.5","SS1618365332720","","","null","","","","","","<p><img src= images/blank.png width =""600"" height = ""600"" style=""position:fixed;top:50%; left:50%; transform: translate(-50%, -50%); border:5px solid black"">","","","","","","","",""
"","795.4549999994924","sequential-stimulus-presentation-old","107","268336","0.0-23.0-1.5","SS1618365332720","trial","","40","500","1295.4549999994924","images/stimuli/spore_stims/simple_03_A_a.gif","images/stimuli/spore_stims/simple_05_A_b.gif","forced_long","","7","simple_dissimilar","images/stimuli/spore_stims/simple_05_A_b.gif","","","","",""
"","3321.4700000007288","survey-multi-choice","108","271668","0.0-24.0","SS1618365332720","math_question","","","","","","","","","","","","{""Q0"":""14""}","[0]","14","",""
"","null","html-keyboard-response","109","272740","0.0-25.0-0.0","SS1618365332720","","","null","","","","","","<p><img src= images/blank.png width =""600"" height = ""600"" style=""position:fixed;top:50%; left:50%; transform: translate(-50%, -50%); border:5px solid black"">","","","","","","","",""
"","603.8199999984354","sequential-stimulus-presentation-old","110","278370","0.0-25.0-1.0","SS1618365332720","trial","","40","500","1103.8199999984354","images/stimuli/spore_stims/complex_04_A_a.gif","images/stimuli/spore_stims/complex_16_A_b.gif","forced_long","","8","complex_dissimilar","images/stimuli/spore_stims/complex_16_A_b.gif","","","","",""
"","null","html-keyboard-response","111","279228","0.0-25.0-0.1","SS1618365332720","","","null","","","","","","<p><img src= images/blank.png width =""600"" height = ""600"" style=""position:fixed;top:50%; left:50%; transform: translate(-50%, -50%); border:5px solid black"">","","","","","","","",""
"","516.2249999993946","sequential-stimulus-presentation-old","112","280270","0.0-25.0-1.1","SS1618365332720","trial","","40","500","1016.2249999993946","images/stimuli/spore_stims/complex_04_A_a.gif","images/stimuli/spore_stims/complex_16_A_b.gif","forced_long","","8","complex_dissimilar","images/stimuli/spore_stims/complex_16_A_b.gif","","","","",""
"","null","html-keyboard-response","113","281566","0.0-25.0-0.2","SS1618365332720","","","null","","","","","","<p><img src= images/blank.png width =""600"" height = ""600"" style=""position:fixed;top:50%; left:50%; transform: translate(-50%, -50%); border:5px solid black"">","","","","","","","",""
"","772.6399999992573","sequential-stimulus-presentation-old","114","282924","0.0-25.0-1.2","SS1618365332720","trial","","40","500","1272.6399999992573","images/stimuli/spore_stims/complex_04_A_a.gif","images/stimuli/spore_stims/complex_16_A_b.gif","forced_long","","8","complex_dissimilar","images/stimuli/spore_stims/complex_16_A_b.gif","","","","",""
"","null","html-keyboard-response","115","283840","0.0-25.0-0.3","SS1618365332720","","","null","","","","","","<p><img src= images/blank.png width =""600"" height = ""600"" style=""position:fixed;top:50%; left:50%; transform: translate(-50%, -50%); border:5px solid black"">","","","","","","","",""
"","568.014999998908","sequential-stimulus-presentation-old","116","284923","0.0-25.0-1.3","SS1618365332720","trial","","40","500","1068.014999998908","images/stimuli/spore_stims/complex_04_A_a.gif","images/stimuli/spore_stims/complex_16_A_b.gif","forced_long","","8","complex_dissimilar","images/stimuli/spore_stims/complex_16_A_b.gif","","","","",""
"","null","html-keyboard-response","117","286266","0.0-25.0-0.4","SS1618365332720","","","null","","","","","","<p><img src= images/blank.png width =""600"" height = ""600"" style=""position:fixed;top:50%; left:50%; transform: translate(-50%, -50%); border:5px solid black"">","","","","","","","",""
"","1491.3450000003795","sequential-stimulus-presentation-old","118","288290","0.0-25.0-1.4","SS1618365332720","trial","","40","500","1991.3450000003795","images/stimuli/spore_stims/complex_04_A_a.gif","images/stimuli/spore_stims/complex_16_A_b.gif","forced_long","","8","complex_dissimilar","images/stimuli/spore_stims/complex_04_A_a.gif","","","","",""
"","null","html-keyboard-response","119","289265","0.0-25.0-0.5","SS1618365332720","","","null","","","","","","<p><img src= images/blank.png width =""600"" height = ""600"" style=""position:fixed;top:50%; left:50%; transform: translate(-50%, -50%); border:5px solid black"">","","","","","","","",""
"","4509.224999999802","sequential-stimulus-presentation-old","120","294298","0.0-25.0-1.5","SS1618365332720","trial","","40","500","5009.224999999802","images/stimuli/spore_stims/complex_04_A_a.gif","images/stimuli/spore_stims/complex_16_A_b.gif","forced_long","","8","complex_dissimilar","images/stimuli/spore_stims/complex_16_A_b.gif","","","","",""
"","4608.95500000153","survey-multi-choice","121","298920","0.0-26.0","SS1618365332720","math_question","","","","","","","","","","","","{""Q0"":""11""}","[0]","11","",""
"","null","html-keyboard-response","122","299839","0.0-27.0-0.0","SS1618365332720","","","null","","","","","","<p><img src= images/blank.png width =""600"" height = ""600"" style=""position:fixed;top:50%; left:50%; transform: translate(-50%, -50%); border:5px solid black"">","","","","","","","",""
"","1111.6599999986938","sequential-stimulus-presentation-old","123","301542","0.0-27.0-1.0","SS1618365332720","trial","","40","500","1611.6599999986938","images/stimuli/spore_stims/simple_15_A_a.gif","images/stimuli/spore_stims/simple_08_A_b.gif","self_paced","","9","simple_dissimilar","images/stimuli/spore_stims/simple_08_A_b.gif","","","","",""
"","null","html-keyboard-response","124","302666","0.0-27.0-0.1","SS1618365332720","","","null","","","","","","<p><img src= images/blank.png width =""600"" height = ""600"" style=""position:fixed;top:50%; left:50%; transform: translate(-50%, -50%); border:5px solid black"">","","","","","","","",""
"","482.07999999972526","sequential-stimulus-presentation-old","125","303691","0.0-27.0-1.1","SS1618365332720","trial","","40","500","982.0799999997253","images/stimuli/spore_stims/simple_15_A_a.gif","images/stimuli/spore_stims/simple_08_A_b.gif","self_paced","","9","simple_dissimilar","images/stimuli/spore_stims/simple_08_A_b.gif","","","","",""
"","null","html-keyboard-response","126","304658","0.0-27.0-0.2","SS1618365332720","","","null","","","","","","<p><img src= images/blank.png width =""600"" height = ""600"" style=""position:fixed;top:50%; left:50%; transform: translate(-50%, -50%); border:5px solid black"">","","","","","","","",""
"","936.3700000012759","sequential-stimulus-presentation-old","127","306123","0.0-27.0-1.2","SS1618365332720","trial","","40","500","1436.370000001276","images/stimuli/spore_stims/simple_15_A_a.gif","images/stimuli/spore_stims/simple_08_A_b.gif","self_paced","","9","simple_dissimilar","images/stimuli/spore_stims/simple_08_A_b.gif","","","","",""
"","null","html-keyboard-response","128","307506","0.0-27.0-0.3","SS1618365332720","","","null","","","","","","<p><img src= images/blank.png width =""600"" height = ""600"" style=""position:fixed;top:50%; left:50%; transform: translate(-50%, -50%); border:5px solid black"">","","","","","","","",""
"","378.139999998908","sequential-stimulus-presentation-old","129","308411","0.0-27.0-1.3","SS1618365332720","trial","","40","500","878.139999998908","images/stimuli/spore_stims/simple_15_A_a.gif","images/stimuli/spore_stims/simple_08_A_b.gif","self_paced","","9","simple_dissimilar","images/stimuli/spore_stims/simple_08_A_b.gif","","","","",""
"","3975.86000000051","survey-multi-choice","130","312400","0.0-28.0","SS1618365332720","math_question","","","","","","","","","","","","{""Q0"":""6""}","[0]","6","",""
"","null","html-keyboard-response","131","313232","0.0-29.0-0.0","SS1618365332720","","","null","","","","","","<p><img src= images/blank.png width =""600"" height = ""600"" style=""position:fixed;top:50%; left:50%; transform: translate(-50%, -50%); border:5px solid black"">","","","","","","","",""
"","1476.875000000291","sequential-stimulus-presentation-old","132","314774","0.0-29.0-1.0","SS1618365332720","trial","","40","500","1976.875000000291","images/stimuli/spore_stims/simple_18_A_b.gif","images/stimuli/spore_stims/simple_16_A_a.gif","forced_short","","10","simple_dissimilar","images/stimuli/spore_stims/simple_16_A_a.gif","","","","",""
"","null","html-keyboard-response","133","316064","0.0-29.0-0.1","SS1618365332720","","","null","","","","","","<p><img src= images/blank.png width =""600"" height = ""600"" style=""position:fixed;top:50%; left:50%; transform: translate(-50%, -50%); border:5px solid black"">","","","","","","","",""
"","2872.980000000098","sequential-stimulus-presentation-old","134","319487","0.0-29.0-1.1","SS1618365332720","trial","","40","500","3372.980000000098","images/stimuli/spore_stims/simple_18_A_b.gif","images/stimuli/spore_stims/simple_16_A_a.gif","forced_short","","10","simple_dissimilar","images/stimuli/spore_stims/simple_18_A_b.gif","","","","",""
"","null","html-keyboard-response","135","320367","0.0-29.0-0.2","SS1618365332720","","","null","","","","","","<p><img src= images/blank.png width =""600"" height = ""600"" style=""position:fixed;top:50%; left:50%; transform: translate(-50%, -50%); border:5px solid black"">","","","","","","","",""
"","507.9349999996484","sequential-stimulus-presentation-old","136","321405","0.0-29.0-1.2","SS1618365332720","trial","","40","500","1007.9349999996484","images/stimuli/spore_stims/simple_18_A_b.gif","images/stimuli/spore_stims/simple_16_A_a.gif","forced_short","","10","simple_dissimilar","images/stimuli/spore_stims/simple_16_A_a.gif","","","","",""
"","null","html-keyboard-response","137","322543","0.0-29.0-0.3","SS1618365332720","","","null","","","","","","<p><img src= images/blank.png width =""600"" height = ""600"" style=""position:fixed;top:50%; left:50%; transform: translate(-50%, -50%); border:5px solid black"">","","","","","","","",""
"","1196.079999999667","sequential-stimulus-presentation-old","138","324254","0.0-29.0-1.3","SS1618365332720","trial","","40","500","1696.079999999667","images/stimuli/spore_stims/simple_18_A_b.gif","images/stimuli/spore_stims/simple_16_A_a.gif","forced_short","","10","simple_dissimilar","images/stimuli/spore_stims/simple_16_A_a.gif","","","","",""
"","null","html-keyboard-response","139","325269","0.0-29.0-0.4","SS1618365332720","","","null","","","","","","<p><img src= images/blank.png width =""600"" height = ""600"" style=""position:fixed;top:50%; left:50%; transform: translate(-50%, -50%); border:5px solid black"">","","","","","","","",""
"","4113.504999999364","sequential-stimulus-presentation-old","140","329916","0.0-29.0-1.4","SS1618365332720","trial","","40","500","4613.504999999364","images/stimuli/spore_stims/simple_18_A_b.gif","images/stimuli/spore_stims/simple_16_A_a.gif","forced_short","","10","simple_dissimilar","images/stimuli/spore_stims/simple_18_A_b.gif","","","","",""
"","16277.14000000013","survey-multi-choice","141","346203","0.0-30.0","SS1618365332720","math_question","","","","","","","","","","","","{""Q0"":""13""}","[0]","13","",""
"","null","html-keyboard-response","142","347170","0.0-31.0-0.0","SS1618365332720","","","null","","","","","","<p><img src= images/blank.png width =""600"" height = ""600"" style=""position:fixed;top:50%; left:50%; transform: translate(-50%, -50%); border:5px solid black"">","","","","","","","",""
"","527.1599999996251","sequential-stimulus-presentation-old","143","348214","0.0-31.0-1.0","SS1618365332720","trial","","40","500","1027.1599999996251","images/stimuli/spore_stims/complex_04_A_b.gif","images/stimuli/spore_stims/complex_06_A_a.gif","self_paced","","11","complex_dissimilar","images/stimuli/spore_stims/complex_06_A_a.gif","","","","",""
"","null","html-keyboard-response","144","349168","0.0-31.0-0.1","SS1618365332720","","","null","","","","","","<p><img src= images/blank.png width =""600"" height = ""600"" style=""position:fixed;top:50%; left:50%; transform: translate(-50%, -50%); border:5px solid black"">","","","","","","","",""
"","517.3349999986822","sequential-stimulus-presentation-old","145","350205","0.0-31.0-1.1","SS1618365332720","trial","","40","500","1017.3349999986822","images/stimuli/spore_stims/complex_04_A_b.gif","images/stimuli/spore_stims/complex_06_A_a.gif","self_paced","","11","complex_dissimilar","images/stimuli/spore_stims/complex_06_A_a.gif","","","","",""
"","null","html-keyboard-response","146","351434","0.0-31.0-0.2","SS1618365332720","","","null","","","","","","<p><img src= images/blank.png width =""600"" height = ""600"" style=""position:fixed;top:50%; left:50%; transform: translate(-50%, -50%); border:5px solid black"">","","","","","","","",""
"","31.335000001476146","sequential-stimulus-presentation-old","147","351980","0.0-31.0-1.2","SS1618365332720","trial","","40","500","531.3350000014761","images/stimuli/spore_stims/complex_04_A_b.gif","images/stimuli/spore_stims/complex_06_A_a.gif","self_paced","","11","complex_dissimilar","images/stimuli/spore_stims/complex_04_A_b.gif","","","","",""
"","null","html-keyboard-response","148","353216","0.0-31.0-0.3","SS1618365332720","","","null","","","","","","<p><img src= images/blank.png width =""600"" height = ""600"" style=""position:fixed;top:50%; left:50%; transform: translate(-50%, -50%); border:5px solid black"">","","","","","","","",""
"","277.8300000008894","sequential-stimulus-presentation-old","149","354010","0.0-31.0-1.3","SS1618365332720","trial","","40","500","777.8300000008894","images/stimuli/spore_stims/complex_04_A_b.gif","images/stimuli/spore_stims/complex_06_A_a.gif","self_paced","","11","complex_dissimilar","images/stimuli/spore_stims/complex_06_A_a.gif","","","","",""
"","null","html-keyboard-response","150","355091","0.0-31.0-0.4","SS1618365332720","","","null","","","","","","<p><img src= images/blank.png width =""600"" height = ""600"" style=""position:fixed;top:50%; left:50%; transform: translate(-50%, -50%); border:5px solid black"">","","","","","","","",""
"","666.2850000011385","sequential-stimulus-presentation-old","151","356271","0.0-31.0-1.4","SS1618365332720","trial","","40","500","1166.2850000011385","images/stimuli/spore_stims/complex_04_A_b.gif","images/stimuli/spore_stims/complex_06_A_a.gif","self_paced","","11","complex_dissimilar","images/stimuli/spore_stims/complex_04_A_b.gif","","","","",""
"","null","html-keyboard-response","152","357560","0.0-31.0-0.5","SS1618365332720","","","null","","","","","","<p><img src= images/blank.png width =""600"" height = ""600"" style=""position:fixed;top:50%; left:50%; transform: translate(-50%, -50%); border:5px solid black"">","","","","","","","",""
"","2243.734999999986","sequential-stimulus-presentation-old","153","360318","0.0-31.0-1.5","SS1618365332720","trial","","40","500","2743.734999999986","images/stimuli/spore_stims/complex_04_A_b.gif","images/stimuli/spore_stims/complex_06_A_a.gif","self_paced","","11","complex_dissimilar","images/stimuli/spore_stims/complex_06_A_a.gif","","","","",""
"[{""page_index"":0,""viewing_time"":3135.650000000198}]","3136.5449999994016","instructions","154","363465","0.0-32.0","SS1618365332720","instructions","","","","","","","","","","","","","","","",""
"","6288.995000000752","survey-likert","155","369777","0.0-33.0","SS1618365332720","similarity_question","","","","","","","","","","","","{""Q0"":5}","[0]","","images/stimuli/spore_stims/simple_03_A_a.gif","images/stimuli/spore_stims/simple_05_A_b.gif"
"","6007.665000001027","survey-likert","156","375805","0.0-34.0","SS1618365332720","similarity_question","","","","","","","","","","","","{""Q0"":5}","[0]","","images/stimuli/spore_stims/simple_13_A_a.gif","images/stimuli/spore_stims/simple_15_A_b.gif"
"","5570.209999999846","survey-likert","157","381394","0.0-35.0","SS1618365332720","similarity_question","","","","","","","","","","","","{""Q0"":2}","[0]","","images/stimuli/spore_stims/complex_08_A_b.gif","images/stimuli/spore_stims/complex_05_A_a.gif"
"","7691.3500000010245","survey-likert","158","389107","0.0-36.0","SS1618365332720","similarity_question","","","","","","","","","","","","{""Q0"":3}","[0]","","images/stimuli/spore_stims/simple_16_A_a.gif","images/stimuli/spore_stims/simple_18_A_b.gif"
"","8049.204999999318","survey-likert","159","397175","0.0-37.0","SS1618365332720","similarity_question","","","","","","","","","","","","{""Q0"":2}","[0]","","images/stimuli/spore_stims/complex_18_A_a.gif","images/stimuli/spore_stims/complex_05_A_b.gif"
"","8734.9549999999","survey-likert","160","405936","0.0-38.0","SS1618365332720","similarity_question","","","","","","","","","","","","{""Q0"":4}","[0]","","images/stimuli/spore_stims/simple_02_A_a.gif","images/stimuli/spore_stims/simple_04_A_b.gif"
"","7374.784999999974","survey-likert","161","413332","0.0-39.0","SS1618365332720","similarity_question","","","","","","","","","","","","{""Q0"":4}","[0]","","images/stimuli/spore_stims/complex_04_A_b.gif","images/stimuli/spore_stims/complex_06_A_a.gif"
"","28685.975000000326","survey-likert","162","442037","0.0-40.0","SS1618365332720","similarity_question","","","","","","","","","","","","{""Q0"":4}","[0]","","images/stimuli/spore_stims/simple_10_A_b.gif","images/stimuli/spore_stims/simple_12_A_a.gif"
"","3242.6000000013737","survey-likert","163","445295","0.0-41.0","SS1618365332720","similarity_question","","","","","","","","","","","","{""Q0"":4}","[0]","","images/stimuli/spore_stims/complex_15_A_b.gif","images/stimuli/spore_stims/complex_08_A_a.gif"
"","4384.16000000143","survey-likert","164","449698","0.0-42.0","SS1618365332720","similarity_question","","","","","","","","","","","","{""Q0"":4}","[0]","","images/stimuli/spore_stims/complex_04_A_a.gif","images/stimuli/spore_stims/complex_16_A_b.gif"
"","4946.814999999304","survey-likert","165","454664","0.0-43.0","SS1618365332720","similarity_question","","","","","","","","","","","","{""Q0"":3}","[0]","","images/stimuli/spore_stims/complex_12_A_a.gif","images/stimuli/spore_stims/complex_20_A_b.gif"
"","5243.470000001253","survey-likert","166","459924","0.0-44.0","SS1618365332720","similarity_question","","","","","","","","","","","","{""Q0"":4}","[0]","","images/stimuli/spore_stims/simple_15_A_a.gif","images/stimuli/spore_stims/simple_08_A_b.gif"
"[{""page_index"":0,""viewing_time"":1774.5149999991409}]","1775.4499999991385","instructions","167","461716","0.0-45.0","SS1618365332720","instructions","","","","","","","","","","","","","","","",""
"","4198.660000000033","survey-likert","168","465933","0.0-46.0","SS1618365332720","","","","","","","","","images/stimuli/spore_stims/complex_05_A_b.gif","","","","{""Q0"":4}","[0]","","",""
"","4289.984999999462","survey-likert","169","470242","0.0-47.0","SS1618365332720","","","","","","","","","images/stimuli/spore_stims/simple_05_A_b.gif","","","","{""Q0"":1}","[0]","","",""
"","5054.369999999821","survey-likert","170","475315","0.0-48.0","SS1618365332720","","","","","","","","","images/stimuli/spore_stims/complex_08_A_a.gif","","","","{""Q0"":5}","[0]","","",""
"","3803.0550000003423","survey-likert","171","479135","0.0-49.0","SS1618365332720","","","","","","","","","images/stimuli/spore_stims/simple_13_A_a.gif","","","","{""Q0"":1}","[0]","","",""
"","3851.515000000305","survey-likert","172","483004","0.0-50.0","SS1618365332720","","","","","","","","","images/stimuli/spore_stims/simple_02_A_a.gif","","","","{""Q0"":1}","[0]","","",""
"","4539.0000000006985","survey-likert","173","487561","0.0-51.0","SS1618365332720","","","","","","","","","images/stimuli/spore_stims/complex_16_A_b.gif","","","","{""Q0"":4}","[0]","","",""
"","3473.944999999716","survey-likert","174","491053","0.0-52.0","SS1618365332720","","","","","","","","","images/stimuli/spore_stims/complex_20_A_b.gif","","","","{""Q0"":5}","[0]","","",""
"","3727.8100000002887","survey-likert","175","494801","0.0-53.0","SS1618365332720","","","","","","","","","images/stimuli/spore_stims/complex_06_A_a.gif","","","","{""Q0"":6}","[0]","","",""
"","6144.049999998999","survey-likert","176","500964","0.0-54.0","SS1618365332720","","","","","","","","","images/stimuli/spore_stims/simple_08_A_b.gif","","","","{""Q0"":1}","[0]","","",""
"","4066.584999998624","survey-likert","177","505048","0.0-55.0","SS1618365332720","","","","","","","","","images/stimuli/spore_stims/simple_12_A_a.gif","","","","{""Q0"":1}","[0]","","",""
"","9076.18999999977","survey-likert","178","514144","0.0-56.0","SS1618365332720","","","","","","","","","images/stimuli/spore_stims/simple_16_A_a.gif","","","","{""Q0"":1}","[0]","","",""
"","5682.095000000147","survey-likert","179","519845","0.0-57.0","SS1618365332720","","","","","","","","","images/stimuli/spore_stims/complex_08_A_b.gif","","","","{""Q0"":5}","[0]","","",""
"[{""page_index"":0,""viewing_time"":2155.0950000000885}]","2155.960000000079","instructions","180","522016","0.0-58.0","SS1618365332720","instructions","","","","","","","","","","","","","","","",""
"","2323.979999999283","demog-age","181","524396","0.0-59.0","SS1618365332720","","","","","","","","","","","","","{""age"":""32""}","","","",""
"","5206.355000000214","demog-ethnic-US","182","529652","0.0-60.0","SS1618365332720","","","","","","","","","","","","","{""ethnicity"":[""White""]}","[0]","","",""
"","12853.12499999965","demog-gender-and-education","183","542526","0.0-61.0","SS1618365332720","","","","","","","","","","","","","{""gender"":""Female"",""education"":""Master's Degree""}","[0,1]","","",""
"","7858.514999999898","survey-text","184","550503","0.0-62.0","SS1618365332720","feedback","","","","","","","","","","","","{""Q0"":""no""}","","","",""
"[{""page_index"":0,""viewing_time"":1322.0499999988824}]","1322.8799999997718","instructions","185","551847","0.0-63.0","SS1618365332720","instructions","","","","","","","","","","","","","","","",""
