"view_history","rt","trial_type","trial_index","time_elapsed","internal_node_id","subject","stimulus_type","trial_stimulus","key_press","minimum_viewing_duration","trial_looking_time","block_deviant","block_background","exposure_type","stimulus","block_number","block_type","stimulus_displayed","responses","question_order","math_correct_answer","stimulus_left","stimulus_right"
"[{""page_index"":0,""viewing_time"":1733}]","1733","instructions","0","1735","0.0-0.0","SS1618435635201","","","","","","","","","","","","","","","","",""
"[{""page_index"":0,""viewing_time"":3296.000000000002},{""page_index"":1,""viewing_time"":8873.999999999998}]","12170","instructions","1","15907","0.0-1.0","SS1618435635201","instructions","","","","","","","","","","","","","","","",""
"","14827.999999999996","sequential-stimulus-presentation-old","2","31239","0.0-2.0","SS1618435635201","","","40","500","15327.999999999996","null","null","self_paced","","","","","","","","",""
"","24396","sequential-stimulus-presentation-old","3","56139","0.0-3.0","SS1618435635201","","","40","500","24896","null","null","self_paced","","","","","","","","",""
"[{""page_index"":0,""viewing_time"":32378.999999999993}]","32379.999999999993","instructions","4","88521","0.0-4.0","SS1618435635201","instructions","","","","","","","","","","","","","","","",""
"","5793.000000000015","sequential-stimulus-presentation-old","5","99317","0.0-5.0","SS1618435635201","","","40","500","6293.000000000015","null","null","forced_long","","","","","","","","",""
"","5446","sequential-stimulus-presentation-old","6","104817","0.0-6.0","SS1618435635201","","","40","50","5496","null","null","forced_long","","","","","","","","",""
"[{""page_index"":0,""viewing_time"":6304}]","6304","instructions","7","111122","0.0-7.0","SS1618435635201","instructions","","","","","","","","","","","","","","","",""
"[{""page_index"":0,""viewing_time"":9417.000000000015},{""page_index"":1,""viewing_time"":8281.999999999985},{""page_index"":2,""viewing_time"":14062.00000000003},{""page_index"":3,""viewing_time"":1399.999999999971},{""page_index"":4,""viewing_time"":931}]","34093","instructions","8","145217","0.0-8.0","SS1618435635201","instructions","","","","","","","","","","","","","","","",""
"","null","html-keyboard-response","9","146072","0.0-9.0-0.0","SS1618435635201","","","null","","","","","","<p><img src= images/blank.png width =""600"" height = ""600"" style=""position:fixed;top:50%; left:50%; transform: translate(-50%, -50%); border:5px solid black"">","","","","","","","",""
"","3311","sequential-stimulus-presentation-old","10","149436","0.0-9.0-1.0","SS1618435635201","trial","","40","500","3811","images/stimuli/spore_stims/complex_07_A_a.gif","images/stimuli/spore_stims/complex_13_A_b.gif","forced_short","","0","complex_dissimilar","images/stimuli/spore_stims/complex_13_A_b.gif","","","","",""
"","null","html-keyboard-response","11","150391","0.0-9.0-0.1","SS1618435635201","","","null","","","","","","<p><img src= images/blank.png width =""600"" height = ""600"" style=""position:fixed;top:50%; left:50%; transform: translate(-50%, -50%); border:5px solid black"">","","","","","","","",""
"","957","sequential-stimulus-presentation-old","12","151851","0.0-9.0-1.1","SS1618435635201","trial","","40","500","1457","images/stimuli/spore_stims/complex_07_A_a.gif","images/stimuli/spore_stims/complex_13_A_b.gif","forced_short","","0","complex_dissimilar","images/stimuli/spore_stims/complex_07_A_a.gif","","","","",""
"","null","html-keyboard-response","13","152727","0.0-9.0-0.2","SS1618435635201","","","null","","","","","","<p><img src= images/blank.png width =""600"" height = ""600"" style=""position:fixed;top:50%; left:50%; transform: translate(-50%, -50%); border:5px solid black"">","","","","","","","",""
"","3866","sequential-stimulus-presentation-old","14","157094","0.0-9.0-1.2","SS1618435635201","trial","","40","500","4366","images/stimuli/spore_stims/complex_07_A_a.gif","images/stimuli/spore_stims/complex_13_A_b.gif","forced_short","","0","complex_dissimilar","images/stimuli/spore_stims/complex_13_A_b.gif","","","","",""
"","null","html-keyboard-response","15","157932","0.0-9.0-0.3","SS1618435635201","","","null","","","","","","<p><img src= images/blank.png width =""600"" height = ""600"" style=""position:fixed;top:50%; left:50%; transform: translate(-50%, -50%); border:5px solid black"">","","","","","","","",""
"","3618","sequential-stimulus-presentation-old","16","162052","0.0-9.0-1.3","SS1618435635201","trial","","40","500","4118","images/stimuli/spore_stims/complex_07_A_a.gif","images/stimuli/spore_stims/complex_13_A_b.gif","forced_short","","0","complex_dissimilar","images/stimuli/spore_stims/complex_13_A_b.gif","","","","",""
"","7370","survey-multi-choice","17","169424","0.0-10.0","SS1618435635201","math_question","","","","","","","","","","","","{""Q0"":""10""}","[0]","10","",""
"","null","html-keyboard-response","18","170540","0.0-11.0-0.0","SS1618435635201","","","null","","","","","","<p><img src= images/blank.png width =""600"" height = ""600"" style=""position:fixed;top:50%; left:50%; transform: translate(-50%, -50%); border:5px solid black"">","","","","","","","",""
"","663","sequential-stimulus-presentation-old","19","176207","0.0-11.0-1.0","SS1618435635201","trial","","40","500","1163","images/stimuli/spore_stims/simple_03_A_a.gif","images/stimuli/spore_stims/simple_08_A_b.gif","forced_long","","1","simple_dissimilar","images/stimuli/spore_stims/simple_08_A_b.gif","","","","",""
"","null","html-keyboard-response","20","177026","0.0-11.0-0.1","SS1618435635201","","","null","","","","","","<p><img src= images/blank.png width =""600"" height = ""600"" style=""position:fixed;top:50%; left:50%; transform: translate(-50%, -50%); border:5px solid black"">","","","","","","","",""
"","3726.999999999971","sequential-stimulus-presentation-old","21","181257","0.0-11.0-1.1","SS1618435635201","trial","","40","500","4226.999999999971","images/stimuli/spore_stims/simple_03_A_a.gif","images/stimuli/spore_stims/simple_08_A_b.gif","forced_long","","1","simple_dissimilar","images/stimuli/spore_stims/simple_08_A_b.gif","","","","",""
"","null","html-keyboard-response","22","182481","0.0-11.0-0.2","SS1618435635201","","","null","","","","","","<p><img src= images/blank.png width =""600"" height = ""600"" style=""position:fixed;top:50%; left:50%; transform: translate(-50%, -50%); border:5px solid black"">","","","","","","","",""
"","3280","sequential-stimulus-presentation-old","23","186265","0.0-11.0-1.2","SS1618435635201","trial","","40","500","3780","images/stimuli/spore_stims/simple_03_A_a.gif","images/stimuli/spore_stims/simple_08_A_b.gif","forced_long","","1","simple_dissimilar","images/stimuli/spore_stims/simple_08_A_b.gif","","","","",""
"","null","html-keyboard-response","24","187076","0.0-11.0-0.3","SS1618435635201","","","null","","","","","","<p><img src= images/blank.png width =""600"" height = ""600"" style=""position:fixed;top:50%; left:50%; transform: translate(-50%, -50%); border:5px solid black"">","","","","","","","",""
"","2082","sequential-stimulus-presentation-old","25","189660","0.0-11.0-1.3","SS1618435635201","trial","","40","500","2582","images/stimuli/spore_stims/simple_03_A_a.gif","images/stimuli/spore_stims/simple_08_A_b.gif","forced_long","","1","simple_dissimilar","images/stimuli/spore_stims/simple_08_A_b.gif","","","","",""
"","null","html-keyboard-response","26","190548","0.0-11.0-0.4","SS1618435635201","","","null","","","","","","<p><img src= images/blank.png width =""600"" height = ""600"" style=""position:fixed;top:50%; left:50%; transform: translate(-50%, -50%); border:5px solid black"">","","","","","","","",""
"","2597","sequential-stimulus-presentation-old","27","193648","0.0-11.0-1.4","SS1618435635201","trial","","40","500","3097","images/stimuli/spore_stims/simple_03_A_a.gif","images/stimuli/spore_stims/simple_08_A_b.gif","forced_long","","1","simple_dissimilar","images/stimuli/spore_stims/simple_08_A_b.gif","","","","",""
"","6012","survey-multi-choice","28","199662","0.0-12.0","SS1618435635201","math_question","","","","","","","","","","","","{""Q0"":""8""}","[0]","8","",""
"","null","html-keyboard-response","29","200914","0.0-13.0-0.0","SS1618435635201","","","null","","","","","","<p><img src= images/blank.png width =""600"" height = ""600"" style=""position:fixed;top:50%; left:50%; transform: translate(-50%, -50%); border:5px solid black"">","","","","","","","",""
"","2817","sequential-stimulus-presentation-old","30","203783","0.0-13.0-1.0","SS1618435635201","trial","","40","500","3317","images/stimuli/spore_stims/simple_12_A_a.gif","images/stimuli/spore_stims/simple_13_A_b.gif","forced_short","","2","simple_dissimilar","images/stimuli/spore_stims/simple_13_A_b.gif","","","","",""
"","null","html-keyboard-response","31","205037","0.0-13.0-0.1","SS1618435635201","","","null","","","","","","<p><img src= images/blank.png width =""600"" height = ""600"" style=""position:fixed;top:50%; left:50%; transform: translate(-50%, -50%); border:5px solid black"">","","","","","","","",""
"","2129","sequential-stimulus-presentation-old","32","207669","0.0-13.0-1.1","SS1618435635201","trial","","40","500","2629","images/stimuli/spore_stims/simple_12_A_a.gif","images/stimuli/spore_stims/simple_13_A_b.gif","forced_short","","2","simple_dissimilar","images/stimuli/spore_stims/simple_13_A_b.gif","","","","",""
"","null","html-keyboard-response","33","208761","0.0-13.0-0.2","SS1618435635201","","","null","","","","","","<p><img src= images/blank.png width =""600"" height = ""600"" style=""position:fixed;top:50%; left:50%; transform: translate(-50%, -50%); border:5px solid black"">","","","","","","","",""
"","3098","sequential-stimulus-presentation-old","34","212362","0.0-13.0-1.2","SS1618435635201","trial","","40","500","3598","images/stimuli/spore_stims/simple_12_A_a.gif","images/stimuli/spore_stims/simple_13_A_b.gif","forced_short","","2","simple_dissimilar","images/stimuli/spore_stims/simple_12_A_a.gif","","","","",""
"","null","html-keyboard-response","35","213395","0.0-13.0-0.3","SS1618435635201","","","null","","","","","","<p><img src= images/blank.png width =""600"" height = ""600"" style=""position:fixed;top:50%; left:50%; transform: translate(-50%, -50%); border:5px solid black"">","","","","","","","",""
"","1043.000000000029","sequential-stimulus-presentation-old","36","214941","0.0-13.0-1.3","SS1618435635201","trial","","40","500","1543.000000000029","images/stimuli/spore_stims/simple_12_A_a.gif","images/stimuli/spore_stims/simple_13_A_b.gif","forced_short","","2","simple_dissimilar","images/stimuli/spore_stims/simple_13_A_b.gif","","","","",""
"","4852","survey-multi-choice","37","219796","0.0-14.0","SS1618435635201","math_question","","","","","","","","","","","","{""Q0"":""12""}","[0]","12","",""
"","null","html-keyboard-response","38","220907","0.0-15.0-0.0","SS1618435635201","","","null","","","","","","<p><img src= images/blank.png width =""600"" height = ""600"" style=""position:fixed;top:50%; left:50%; transform: translate(-50%, -50%); border:5px solid black"">","","","","","","","",""
"","1660","sequential-stimulus-presentation-old","39","223069","0.0-15.0-1.0","SS1618435635201","trial","","40","500","2160","images/stimuli/spore_stims/simple_09_A_a.gif","images/stimuli/spore_stims/simple_04_A_b.gif","self_paced","","3","simple_dissimilar","images/stimuli/spore_stims/simple_04_A_b.gif","","","","",""
"","null","html-keyboard-response","40","223929","0.0-15.0-0.1","SS1618435635201","","","null","","","","","","<p><img src= images/blank.png width =""600"" height = ""600"" style=""position:fixed;top:50%; left:50%; transform: translate(-50%, -50%); border:5px solid black"">","","","","","","","",""
"","1005","sequential-stimulus-presentation-old","41","225437","0.0-15.0-1.1","SS1618435635201","trial","","40","500","1505","images/stimuli/spore_stims/simple_09_A_a.gif","images/stimuli/spore_stims/simple_04_A_b.gif","self_paced","","3","simple_dissimilar","images/stimuli/spore_stims/simple_09_A_a.gif","","","","",""
"","null","html-keyboard-response","42","226601","0.0-15.0-0.2","SS1618435635201","","","null","","","","","","<p><img src= images/blank.png width =""600"" height = ""600"" style=""position:fixed;top:50%; left:50%; transform: translate(-50%, -50%); border:5px solid black"">","","","","","","","",""
"","1787","sequential-stimulus-presentation-old","43","228891","0.0-15.0-1.2","SS1618435635201","trial","","40","500","2287","images/stimuli/spore_stims/simple_09_A_a.gif","images/stimuli/spore_stims/simple_04_A_b.gif","self_paced","","3","simple_dissimilar","images/stimuli/spore_stims/simple_09_A_a.gif","","","","",""
"","null","html-keyboard-response","44","229903","0.0-15.0-0.3","SS1618435635201","","","null","","","","","","<p><img src= images/blank.png width =""600"" height = ""600"" style=""position:fixed;top:50%; left:50%; transform: translate(-50%, -50%); border:5px solid black"">","","","","","","","",""
"","450.9999999999709","sequential-stimulus-presentation-old","45","230857","0.0-15.0-1.3","SS1618435635201","trial","","40","500","950.9999999999709","images/stimuli/spore_stims/simple_09_A_a.gif","images/stimuli/spore_stims/simple_04_A_b.gif","self_paced","","3","simple_dissimilar","images/stimuli/spore_stims/simple_04_A_b.gif","","","","",""
"","null","html-keyboard-response","46","231782","0.0-15.0-0.4","SS1618435635201","","","null","","","","","","<p><img src= images/blank.png width =""600"" height = ""600"" style=""position:fixed;top:50%; left:50%; transform: translate(-50%, -50%); border:5px solid black"">","","","","","","","",""
"","572","sequential-stimulus-presentation-old","47","232858","0.0-15.0-1.4","SS1618435635201","trial","","40","500","1072","images/stimuli/spore_stims/simple_09_A_a.gif","images/stimuli/spore_stims/simple_04_A_b.gif","self_paced","","3","simple_dissimilar","images/stimuli/spore_stims/simple_04_A_b.gif","","","","",""
"","null","html-keyboard-response","48","233908","0.0-15.0-0.5","SS1618435635201","","","null","","","","","","<p><img src= images/blank.png width =""600"" height = ""600"" style=""position:fixed;top:50%; left:50%; transform: translate(-50%, -50%); border:5px solid black"">","","","","","","","",""
"","1321","sequential-stimulus-presentation-old","49","235734","0.0-15.0-1.5","SS1618435635201","trial","","40","500","1821","images/stimuli/spore_stims/simple_09_A_a.gif","images/stimuli/spore_stims/simple_04_A_b.gif","self_paced","","3","simple_dissimilar","images/stimuli/spore_stims/simple_04_A_b.gif","","","","",""
"","5067","survey-multi-choice","50","240803","0.0-16.0","SS1618435635201","math_question","","","","","","","","","","","","{""Q0"":""12""}","[0]","12","",""
"","null","html-keyboard-response","51","242086","0.0-17.0-0.0","SS1618435635201","","","null","","","","","","<p><img src= images/blank.png width =""600"" height = ""600"" style=""position:fixed;top:50%; left:50%; transform: translate(-50%, -50%); border:5px solid black"">","","","","","","","",""
"","644.0000000000291","sequential-stimulus-presentation-old","52","243233","0.0-17.0-1.0","SS1618435635201","trial","","40","500","1144.000000000029","images/stimuli/spore_stims/complex_17_A_b.gif","images/stimuli/spore_stims/complex_03_A_a.gif","self_paced","","4","complex_dissimilar","images/stimuli/spore_stims/complex_03_A_a.gif","","","","",""
"","null","html-keyboard-response","53","244336","0.0-17.0-0.1","SS1618435635201","","","null","","","","","","<p><img src= images/blank.png width =""600"" height = ""600"" style=""position:fixed;top:50%; left:50%; transform: translate(-50%, -50%); border:5px solid black"">","","","","","","","",""
"","1","sequential-stimulus-presentation-old","54","244840","0.0-17.0-1.1","SS1618435635201","trial","","40","500","501","images/stimuli/spore_stims/complex_17_A_b.gif","images/stimuli/spore_stims/complex_03_A_a.gif","self_paced","","4","complex_dissimilar","images/stimuli/spore_stims/complex_03_A_a.gif","","","","",""
"","null","html-keyboard-response","55","245648","0.0-17.0-0.2","SS1618435635201","","","null","","","","","","<p><img src= images/blank.png width =""600"" height = ""600"" style=""position:fixed;top:50%; left:50%; transform: translate(-50%, -50%); border:5px solid black"">","","","","","","","",""
"","569","sequential-stimulus-presentation-old","56","246721","0.0-17.0-1.2","SS1618435635201","trial","","40","500","1069","images/stimuli/spore_stims/complex_17_A_b.gif","images/stimuli/spore_stims/complex_03_A_a.gif","self_paced","","4","complex_dissimilar","images/stimuli/spore_stims/complex_03_A_a.gif","","","","",""
"","null","html-keyboard-response","57","247572","0.0-17.0-0.3","SS1618435635201","","","null","","","","","","<p><img src= images/blank.png width =""600"" height = ""600"" style=""position:fixed;top:50%; left:50%; transform: translate(-50%, -50%); border:5px solid black"">","","","","","","","",""
"","222","sequential-stimulus-presentation-old","58","248297","0.0-17.0-1.3","SS1618435635201","trial","","40","500","722","images/stimuli/spore_stims/complex_17_A_b.gif","images/stimuli/spore_stims/complex_03_A_a.gif","self_paced","","4","complex_dissimilar","images/stimuli/spore_stims/complex_03_A_a.gif","","","","",""
"","4939.999999999971","survey-multi-choice","59","253240","0.0-18.0","SS1618435635201","math_question","","","","","","","","","","","","{""Q0"":""10""}","[0]","10","",""
"","null","html-keyboard-response","60","254225","0.0-19.0-0.0","SS1618435635201","","","null","","","","","","<p><img src= images/blank.png width =""600"" height = ""600"" style=""position:fixed;top:50%; left:50%; transform: translate(-50%, -50%); border:5px solid black"">","","","","","","","",""
"","1251.0000000000582","sequential-stimulus-presentation-old","61","255529","0.0-19.0-1.0","SS1618435635201","trial","","40","500","1751.0000000000582","images/stimuli/spore_stims/simple_02_A_b.gif","images/stimuli/spore_stims/simple_17_A_a.gif","forced_short","","5","simple_dissimilar","images/stimuli/spore_stims/simple_17_A_a.gif","","","","",""
"","null","html-keyboard-response","62","256473","0.0-19.0-0.1","SS1618435635201","","","null","","","","","","<p><img src= images/blank.png width =""600"" height = ""600"" style=""position:fixed;top:50%; left:50%; transform: translate(-50%, -50%); border:5px solid black"">","","","","","","","",""
"","343","sequential-stimulus-presentation-old","63","257320","0.0-19.0-1.1","SS1618435635201","trial","","40","500","843","images/stimuli/spore_stims/simple_02_A_b.gif","images/stimuli/spore_stims/simple_17_A_a.gif","forced_short","","5","simple_dissimilar","images/stimuli/spore_stims/simple_17_A_a.gif","","","","",""
"","null","html-keyboard-response","64","258172","0.0-19.0-0.2","SS1618435635201","","","null","","","","","","<p><img src= images/blank.png width =""600"" height = ""600"" style=""position:fixed;top:50%; left:50%; transform: translate(-50%, -50%); border:5px solid black"">","","","","","","","",""
"","355","sequential-stimulus-presentation-old","65","259030","0.0-19.0-1.2","SS1618435635201","trial","","40","500","855","images/stimuli/spore_stims/simple_02_A_b.gif","images/stimuli/spore_stims/simple_17_A_a.gif","forced_short","","5","simple_dissimilar","images/stimuli/spore_stims/simple_17_A_a.gif","","","","",""
"","null","html-keyboard-response","66","260154","0.0-19.0-0.3","SS1618435635201","","","null","","","","","","<p><img src= images/blank.png width =""600"" height = ""600"" style=""position:fixed;top:50%; left:50%; transform: translate(-50%, -50%); border:5px solid black"">","","","","","","","",""
"","1027","sequential-stimulus-presentation-old","67","261685","0.0-19.0-1.3","SS1618435635201","trial","","40","500","1527","images/stimuli/spore_stims/simple_02_A_b.gif","images/stimuli/spore_stims/simple_17_A_a.gif","forced_short","","5","simple_dissimilar","images/stimuli/spore_stims/simple_17_A_a.gif","","","","",""
"","4550","survey-multi-choice","68","266237","0.0-20.0","SS1618435635201","math_question","","","","","","","","","","","","{""Q0"":""11""}","[0]","11","",""
"","null","html-keyboard-response","69","267293","0.0-21.0-0.0","SS1618435635201","","","null","","","","","","<p><img src= images/blank.png width =""600"" height = ""600"" style=""position:fixed;top:50%; left:50%; transform: translate(-50%, -50%); border:5px solid black"">","","","","","","","",""
"","808","sequential-stimulus-presentation-old","70","273106","0.0-21.0-1.0","SS1618435635201","trial","","40","500","1308","images/stimuli/spore_stims/complex_16_A_a.gif","images/stimuli/spore_stims/complex_06_A_b.gif","forced_long","","6","complex_dissimilar","images/stimuli/spore_stims/complex_06_A_b.gif","","","","",""
"","null","html-keyboard-response","71","274368","0.0-21.0-0.1","SS1618435635201","","","null","","","","","","<p><img src= images/blank.png width =""600"" height = ""600"" style=""position:fixed;top:50%; left:50%; transform: translate(-50%, -50%); border:5px solid black"">","","","","","","","",""
"","546","sequential-stimulus-presentation-old","72","275418","0.0-21.0-1.1","SS1618435635201","trial","","40","500","1046","images/stimuli/spore_stims/complex_16_A_a.gif","images/stimuli/spore_stims/complex_06_A_b.gif","forced_long","","6","complex_dissimilar","images/stimuli/spore_stims/complex_06_A_b.gif","","","","",""
"","null","html-keyboard-response","73","276461","0.0-21.0-0.2","SS1618435635201","","","null","","","","","","<p><img src= images/blank.png width =""600"" height = ""600"" style=""position:fixed;top:50%; left:50%; transform: translate(-50%, -50%); border:5px solid black"">","","","","","","","",""
"","199","sequential-stimulus-presentation-old","74","277163","0.0-21.0-1.2","SS1618435635201","trial","","40","500","699","images/stimuli/spore_stims/complex_16_A_a.gif","images/stimuli/spore_stims/complex_06_A_b.gif","forced_long","","6","complex_dissimilar","images/stimuli/spore_stims/complex_06_A_b.gif","","","","",""
"","null","html-keyboard-response","75","278069","0.0-21.0-0.3","SS1618435635201","","","null","","","","","","<p><img src= images/blank.png width =""600"" height = ""600"" style=""position:fixed;top:50%; left:50%; transform: translate(-50%, -50%); border:5px solid black"">","","","","","","","",""
"","713","sequential-stimulus-presentation-old","76","279285","0.0-21.0-1.3","SS1618435635201","trial","","40","500","1213","images/stimuli/spore_stims/complex_16_A_a.gif","images/stimuli/spore_stims/complex_06_A_b.gif","forced_long","","6","complex_dissimilar","images/stimuli/spore_stims/complex_06_A_b.gif","","","","",""
"","null","html-keyboard-response","77","280294","0.0-21.0-0.4","SS1618435635201","","","null","","","","","","<p><img src= images/blank.png width =""600"" height = ""600"" style=""position:fixed;top:50%; left:50%; transform: translate(-50%, -50%); border:5px solid black"">","","","","","","","",""
"","1067","sequential-stimulus-presentation-old","78","281864","0.0-21.0-1.4","SS1618435635201","trial","","40","500","1567","images/stimuli/spore_stims/complex_16_A_a.gif","images/stimuli/spore_stims/complex_06_A_b.gif","forced_long","","6","complex_dissimilar","images/stimuli/spore_stims/complex_16_A_a.gif","","","","",""
"","null","html-keyboard-response","79","282779","0.0-21.0-0.5","SS1618435635201","","","null","","","","","","<p><img src= images/blank.png width =""600"" height = ""600"" style=""position:fixed;top:50%; left:50%; transform: translate(-50%, -50%); border:5px solid black"">","","","","","","","",""
"","37","sequential-stimulus-presentation-old","80","283319","0.0-21.0-1.5","SS1618435635201","trial","","40","500","537","images/stimuli/spore_stims/complex_16_A_a.gif","images/stimuli/spore_stims/complex_06_A_b.gif","forced_long","","6","complex_dissimilar","images/stimuli/spore_stims/complex_16_A_a.gif","","","","",""
"","3902","survey-multi-choice","81","287223","0.0-22.0","SS1618435635201","math_question","","","","","","","","","","","","{""Q0"":""11""}","[0]","11","",""
"","null","html-keyboard-response","82","288433","0.0-23.0-0.0","SS1618435635201","","","null","","","","","","<p><img src= images/blank.png width =""600"" height = ""600"" style=""position:fixed;top:50%; left:50%; transform: translate(-50%, -50%); border:5px solid black"">","","","","","","","",""
"","88","sequential-stimulus-presentation-old","83","293526","0.0-23.0-1.0","SS1618435635201","trial","","40","500","588","images/stimuli/spore_stims/simple_11_A_b.gif","images/stimuli/spore_stims/simple_07_A_a.gif","forced_long","","7","simple_dissimilar","images/stimuli/spore_stims/simple_07_A_a.gif","","","","",""
"","null","html-keyboard-response","84","294823","0.0-23.0-0.1","SS1618435635201","","","null","","","","","","<p><img src= images/blank.png width =""600"" height = ""600"" style=""position:fixed;top:50%; left:50%; transform: translate(-50%, -50%); border:5px solid black"">","","","","","","","",""
"","462","sequential-stimulus-presentation-old","85","295789","0.0-23.0-1.1","SS1618435635201","trial","","40","500","962","images/stimuli/spore_stims/simple_11_A_b.gif","images/stimuli/spore_stims/simple_07_A_a.gif","forced_long","","7","simple_dissimilar","images/stimuli/spore_stims/simple_07_A_a.gif","","","","",""
"","null","html-keyboard-response","86","296966","0.0-23.0-0.2","SS1618435635201","","","null","","","","","","<p><img src= images/blank.png width =""600"" height = ""600"" style=""position:fixed;top:50%; left:50%; transform: translate(-50%, -50%); border:5px solid black"">","","","","","","","",""
"","178","sequential-stimulus-presentation-old","87","297648","0.0-23.0-1.2","SS1618435635201","trial","","40","500","678","images/stimuli/spore_stims/simple_11_A_b.gif","images/stimuli/spore_stims/simple_07_A_a.gif","forced_long","","7","simple_dissimilar","images/stimuli/spore_stims/simple_07_A_a.gif","","","","",""
"","null","html-keyboard-response","88","298618","0.0-23.0-0.3","SS1618435635201","","","null","","","","","","<p><img src= images/blank.png width =""600"" height = ""600"" style=""position:fixed;top:50%; left:50%; transform: translate(-50%, -50%); border:5px solid black"">","","","","","","","",""
"","323","sequential-stimulus-presentation-old","89","299446","0.0-23.0-1.3","SS1618435635201","trial","","40","500","823","images/stimuli/spore_stims/simple_11_A_b.gif","images/stimuli/spore_stims/simple_07_A_a.gif","forced_long","","7","simple_dissimilar","images/stimuli/spore_stims/simple_11_A_b.gif","","","","",""
"","null","html-keyboard-response","90","300683","0.0-23.0-0.4","SS1618435635201","","","null","","","","","","<p><img src= images/blank.png width =""600"" height = ""600"" style=""position:fixed;top:50%; left:50%; transform: translate(-50%, -50%); border:5px solid black"">","","","","","","","",""
"","57","sequential-stimulus-presentation-old","91","301243","0.0-23.0-1.4","SS1618435635201","trial","","40","500","557","images/stimuli/spore_stims/simple_11_A_b.gif","images/stimuli/spore_stims/simple_07_A_a.gif","forced_long","","7","simple_dissimilar","images/stimuli/spore_stims/simple_07_A_a.gif","","","","",""
"","null","html-keyboard-response","92","302438","0.0-23.0-0.5","SS1618435635201","","","null","","","","","","<p><img src= images/blank.png width =""600"" height = ""600"" style=""position:fixed;top:50%; left:50%; transform: translate(-50%, -50%); border:5px solid black"">","","","","","","","",""
"","1128.9999999999418","sequential-stimulus-presentation-old","93","304070","0.0-23.0-1.5","SS1618435635201","trial","","40","500","1628.9999999999418","images/stimuli/spore_stims/simple_11_A_b.gif","images/stimuli/spore_stims/simple_07_A_a.gif","forced_long","","7","simple_dissimilar","images/stimuli/spore_stims/simple_07_A_a.gif","","","","",""
"","4319","survey-multi-choice","94","308394","0.0-24.0","SS1618435635201","math_question","","","","","","","","","","","","{""Q0"":""5""}","[0]","5","",""
"","null","html-keyboard-response","95","309314","0.0-25.0-0.0","SS1618435635201","","","null","","","","","","<p><img src= images/blank.png width =""600"" height = ""600"" style=""position:fixed;top:50%; left:50%; transform: translate(-50%, -50%); border:5px solid black"">","","","","","","","",""
"","272.0000000000582","sequential-stimulus-presentation-old","96","310091","0.0-25.0-1.0","SS1618435635201","trial","","40","500","772.0000000000582","images/stimuli/spore_stims/simple_06_A_b.gif","images/stimuli/spore_stims/simple_02_A_a.gif","self_paced","","8","simple_dissimilar","images/stimuli/spore_stims/simple_02_A_a.gif","","","","",""
"","null","html-keyboard-response","97","311282","0.0-25.0-0.1","SS1618435635201","","","null","","","","","","<p><img src= images/blank.png width =""600"" height = ""600"" style=""position:fixed;top:50%; left:50%; transform: translate(-50%, -50%); border:5px solid black"">","","","","","","","",""
"","133","sequential-stimulus-presentation-old","98","311919","0.0-25.0-1.1","SS1618435635201","trial","","40","500","633","images/stimuli/spore_stims/simple_06_A_b.gif","images/stimuli/spore_stims/simple_02_A_a.gif","self_paced","","8","simple_dissimilar","images/stimuli/spore_stims/simple_02_A_a.gif","","","","",""
"","null","html-keyboard-response","99","313220","0.0-25.0-0.2","SS1618435635201","","","null","","","","","","<p><img src= images/blank.png width =""600"" height = ""600"" style=""position:fixed;top:50%; left:50%; transform: translate(-50%, -50%); border:5px solid black"">","","","","","","","",""
"","392","sequential-stimulus-presentation-old","100","314115","0.0-25.0-1.2","SS1618435635201","trial","","40","500","892","images/stimuli/spore_stims/simple_06_A_b.gif","images/stimuli/spore_stims/simple_02_A_a.gif","self_paced","","8","simple_dissimilar","images/stimuli/spore_stims/simple_06_A_b.gif","","","","",""
"","null","html-keyboard-response","101","315163","0.0-25.0-0.3","SS1618435635201","","","null","","","","","","<p><img src= images/blank.png width =""600"" height = ""600"" style=""position:fixed;top:50%; left:50%; transform: translate(-50%, -50%); border:5px solid black"">","","","","","","","",""
"","252","sequential-stimulus-presentation-old","102","315918","0.0-25.0-1.3","SS1618435635201","trial","","40","500","752","images/stimuli/spore_stims/simple_06_A_b.gif","images/stimuli/spore_stims/simple_02_A_a.gif","self_paced","","8","simple_dissimilar","images/stimuli/spore_stims/simple_02_A_a.gif","","","","",""
"","3309","survey-multi-choice","103","319230","0.0-26.0","SS1618435635201","math_question","","","","","","","","","","","","{""Q0"":""9""}","[0]","9","",""
"","null","html-keyboard-response","104","320518","0.0-27.0-0.0","SS1618435635201","","","null","","","","","","<p><img src= images/blank.png width =""600"" height = ""600"" style=""position:fixed;top:50%; left:50%; transform: translate(-50%, -50%); border:5px solid black"">","","","","","","","",""
"","348","sequential-stimulus-presentation-old","105","321374","0.0-27.0-1.0","SS1618435635201","trial","","40","500","848","images/stimuli/spore_stims/complex_04_A_b.gif","images/stimuli/spore_stims/complex_08_A_a.gif","self_paced","","9","complex_dissimilar","images/stimuli/spore_stims/complex_08_A_a.gif","","","","",""
"","null","html-keyboard-response","106","322633","0.0-27.0-0.1","SS1618435635201","","","null","","","","","","<p><img src= images/blank.png width =""600"" height = ""600"" style=""position:fixed;top:50%; left:50%; transform: translate(-50%, -50%); border:5px solid black"">","","","","","","","",""
"","259","sequential-stimulus-presentation-old","107","323396","0.0-27.0-1.1","SS1618435635201","trial","","40","500","759","images/stimuli/spore_stims/complex_04_A_b.gif","images/stimuli/spore_stims/complex_08_A_a.gif","self_paced","","9","complex_dissimilar","images/stimuli/spore_stims/complex_08_A_a.gif","","","","",""
"","null","html-keyboard-response","108","324347","0.0-27.0-0.2","SS1618435635201","","","null","","","","","","<p><img src= images/blank.png width =""600"" height = ""600"" style=""position:fixed;top:50%; left:50%; transform: translate(-50%, -50%); border:5px solid black"">","","","","","","","",""
"","472","sequential-stimulus-presentation-old","109","325322","0.0-27.0-1.2","SS1618435635201","trial","","40","500","972","images/stimuli/spore_stims/complex_04_A_b.gif","images/stimuli/spore_stims/complex_08_A_a.gif","self_paced","","9","complex_dissimilar","images/stimuli/spore_stims/complex_08_A_a.gif","","","","",""
"","null","html-keyboard-response","110","326165","0.0-27.0-0.3","SS1618435635201","","","null","","","","","","<p><img src= images/blank.png width =""600"" height = ""600"" style=""position:fixed;top:50%; left:50%; transform: translate(-50%, -50%); border:5px solid black"">","","","","","","","",""
"","323","sequential-stimulus-presentation-old","111","326992","0.0-27.0-1.3","SS1618435635201","trial","","40","500","823","images/stimuli/spore_stims/complex_04_A_b.gif","images/stimuli/spore_stims/complex_08_A_a.gif","self_paced","","9","complex_dissimilar","images/stimuli/spore_stims/complex_08_A_a.gif","","","","",""
"","null","html-keyboard-response","112","327931","0.0-27.0-0.4","SS1618435635201","","","null","","","","","","<p><img src= images/blank.png width =""600"" height = ""600"" style=""position:fixed;top:50%; left:50%; transform: translate(-50%, -50%); border:5px solid black"">","","","","","","","",""
"","239","sequential-stimulus-presentation-old","113","328674","0.0-27.0-1.4","SS1618435635201","trial","","40","500","739","images/stimuli/spore_stims/complex_04_A_b.gif","images/stimuli/spore_stims/complex_08_A_a.gif","self_paced","","9","complex_dissimilar","images/stimuli/spore_stims/complex_08_A_a.gif","","","","",""
"","null","html-keyboard-response","114","329747","0.0-27.0-0.5","SS1618435635201","","","null","","","","","","<p><img src= images/blank.png width =""600"" height = ""600"" style=""position:fixed;top:50%; left:50%; transform: translate(-50%, -50%); border:5px solid black"">","","","","","","","",""
"","257","sequential-stimulus-presentation-old","115","330511","0.0-27.0-1.5","SS1618435635201","trial","","40","500","757","images/stimuli/spore_stims/complex_04_A_b.gif","images/stimuli/spore_stims/complex_08_A_a.gif","self_paced","","9","complex_dissimilar","images/stimuli/spore_stims/complex_04_A_b.gif","","","","",""
"","3582","survey-multi-choice","116","334095","0.0-28.0","SS1618435635201","math_question","","","","","","","","","","","","{""Q0"":""7""}","[0]","7","",""
"","null","html-keyboard-response","117","334974","0.0-29.0-0.0","SS1618435635201","","","null","","","","","","<p><img src= images/blank.png width =""600"" height = ""600"" style=""position:fixed;top:50%; left:50%; transform: translate(-50%, -50%); border:5px solid black"">","","","","","","","",""
"","1992","sequential-stimulus-presentation-old","118","337020","0.0-29.0-1.0","SS1618435635201","trial","","40","500","2492","images/stimuli/spore_stims/complex_18_A_b.gif","images/stimuli/spore_stims/complex_13_A_a.gif","forced_short","","10","complex_dissimilar","images/stimuli/spore_stims/complex_13_A_a.gif","","","","",""
"","null","html-keyboard-response","119","337908","0.0-29.0-0.1","SS1618435635201","","","null","","","","","","<p><img src= images/blank.png width =""600"" height = ""600"" style=""position:fixed;top:50%; left:50%; transform: translate(-50%, -50%); border:5px solid black"">","","","","","","","",""
"","567","sequential-stimulus-presentation-old","120","338981","0.0-29.0-1.1","SS1618435635201","trial","","40","500","1067","images/stimuli/spore_stims/complex_18_A_b.gif","images/stimuli/spore_stims/complex_13_A_a.gif","forced_short","","10","complex_dissimilar","images/stimuli/spore_stims/complex_18_A_b.gif","","","","",""
"","null","html-keyboard-response","121","339980","0.0-29.0-0.2","SS1618435635201","","","null","","","","","","<p><img src= images/blank.png width =""600"" height = ""600"" style=""position:fixed;top:50%; left:50%; transform: translate(-50%, -50%); border:5px solid black"">","","","","","","","",""
"","391","sequential-stimulus-presentation-old","122","340875","0.0-29.0-1.2","SS1618435635201","trial","","40","500","891","images/stimuli/spore_stims/complex_18_A_b.gif","images/stimuli/spore_stims/complex_13_A_a.gif","forced_short","","10","complex_dissimilar","images/stimuli/spore_stims/complex_13_A_a.gif","","","","",""
"","null","html-keyboard-response","123","341935","0.0-29.0-0.3","SS1618435635201","","","null","","","","","","<p><img src= images/blank.png width =""600"" height = ""600"" style=""position:fixed;top:50%; left:50%; transform: translate(-50%, -50%); border:5px solid black"">","","","","","","","",""
"","394","sequential-stimulus-presentation-old","124","342834","0.0-29.0-1.3","SS1618435635201","trial","","40","500","894","images/stimuli/spore_stims/complex_18_A_b.gif","images/stimuli/spore_stims/complex_13_A_a.gif","forced_short","","10","complex_dissimilar","images/stimuli/spore_stims/complex_13_A_a.gif","","","","",""
"","null","html-keyboard-response","125","343805","0.0-29.0-0.4","SS1618435635201","","","null","","","","","","<p><img src= images/blank.png width =""600"" height = ""600"" style=""position:fixed;top:50%; left:50%; transform: translate(-50%, -50%); border:5px solid black"">","","","","","","","",""
"","27","sequential-stimulus-presentation-old","126","344336","0.0-29.0-1.4","SS1618435635201","trial","","40","500","527","images/stimuli/spore_stims/complex_18_A_b.gif","images/stimuli/spore_stims/complex_13_A_a.gif","forced_short","","10","complex_dissimilar","images/stimuli/spore_stims/complex_13_A_a.gif","","","","",""
"","3566","survey-multi-choice","127","347905","0.0-30.0","SS1618435635201","math_question","","","","","","","","","","","","{""Q0"":""8""}","[0]","8","",""
"","null","html-keyboard-response","128","349069","0.0-31.0-0.0","SS1618435635201","","","null","","","","","","<p><img src= images/blank.png width =""600"" height = ""600"" style=""position:fixed;top:50%; left:50%; transform: translate(-50%, -50%); border:5px solid black"">","","","","","","","",""
"","165","sequential-stimulus-presentation-old","129","354240","0.0-31.0-1.0","SS1618435635201","trial","","40","500","665","images/stimuli/spore_stims/complex_20_A_a.gif","images/stimuli/spore_stims/complex_16_A_b.gif","forced_long","","11","complex_dissimilar","images/stimuli/spore_stims/complex_16_A_b.gif","","","","",""
"","null","html-keyboard-response","130","355239","0.0-31.0-0.1","SS1618435635201","","","null","","","","","","<p><img src= images/blank.png width =""600"" height = ""600"" style=""position:fixed;top:50%; left:50%; transform: translate(-50%, -50%); border:5px solid black"">","","","","","","","",""
"","244","sequential-stimulus-presentation-old","131","355986","0.0-31.0-1.1","SS1618435635201","trial","","40","500","744","images/stimuli/spore_stims/complex_20_A_a.gif","images/stimuli/spore_stims/complex_16_A_b.gif","forced_long","","11","complex_dissimilar","images/stimuli/spore_stims/complex_16_A_b.gif","","","","",""
"","null","html-keyboard-response","132","357227","0.0-31.0-0.2","SS1618435635201","","","null","","","","","","<p><img src= images/blank.png width =""600"" height = ""600"" style=""position:fixed;top:50%; left:50%; transform: translate(-50%, -50%); border:5px solid black"">","","","","","","","",""
"","354","sequential-stimulus-presentation-old","133","358086","0.0-31.0-1.2","SS1618435635201","trial","","40","500","854","images/stimuli/spore_stims/complex_20_A_a.gif","images/stimuli/spore_stims/complex_16_A_b.gif","forced_long","","11","complex_dissimilar","images/stimuli/spore_stims/complex_16_A_b.gif","","","","",""
"","null","html-keyboard-response","134","359255","0.0-31.0-0.3","SS1618435635201","","","null","","","","","","<p><img src= images/blank.png width =""600"" height = ""600"" style=""position:fixed;top:50%; left:50%; transform: translate(-50%, -50%); border:5px solid black"">","","","","","","","",""
"","9976","sequential-stimulus-presentation-old","135","369737","0.0-31.0-1.3","SS1618435635201","trial","","40","500","10476","images/stimuli/spore_stims/complex_20_A_a.gif","images/stimuli/spore_stims/complex_16_A_b.gif","forced_long","","11","complex_dissimilar","images/stimuli/spore_stims/complex_16_A_b.gif","","","","",""
"[{""page_index"":0,""viewing_time"":6529}]","6529","instructions","136","376269","0.0-32.0","SS1618435635201","instructions","","","","","","","","","","","","","","","",""
"","6829","survey-likert","137","383101","0.0-33.0","SS1618435635201","similarity_question","","","","","","","","","","","","{""Q0"":1}","[0]","","images/stimuli/spore_stims/complex_07_A_a.gif","images/stimuli/spore_stims/complex_13_A_b.gif"
"","4866","survey-likert","138","387970","0.0-34.0","SS1618435635201","similarity_question","","","","","","","","","","","","{""Q0"":2}","[0]","","images/stimuli/spore_stims/simple_11_A_b.gif","images/stimuli/spore_stims/simple_07_A_a.gif"
"","5216","survey-likert","139","393190","0.0-35.0","SS1618435635201","similarity_question","","","","","","","","","","","","{""Q0"":4}","[0]","","images/stimuli/spore_stims/simple_08_A_b.gif","images/stimuli/spore_stims/simple_03_A_a.gif"
"","4257.999999999942","survey-likert","140","397452","0.0-36.0","SS1618435635201","similarity_question","","","","","","","","","","","","{""Q0"":0}","[0]","","images/stimuli/spore_stims/complex_03_A_a.gif","images/stimuli/spore_stims/complex_17_A_b.gif"
"","5340.000000000058","survey-likert","141","402796","0.0-37.0","SS1618435635201","similarity_question","","","","","","","","","","","","{""Q0"":4}","[0]","","images/stimuli/spore_stims/simple_09_A_a.gif","images/stimuli/spore_stims/simple_04_A_b.gif"
"","3154","survey-likert","142","405952","0.0-38.0","SS1618435635201","similarity_question","","","","","","","","","","","","{""Q0"":4}","[0]","","images/stimuli/spore_stims/simple_17_A_a.gif","images/stimuli/spore_stims/simple_02_A_b.gif"
"","4965.000000000058","survey-likert","143","410921","0.0-39.0","SS1618435635201","similarity_question","","","","","","","","","","","","{""Q0"":2}","[0]","","images/stimuli/spore_stims/complex_04_A_b.gif","images/stimuli/spore_stims/complex_08_A_a.gif"
"","5563","survey-likert","144","416488","0.0-40.0","SS1618435635201","similarity_question","","","","","","","","","","","","{""Q0"":1}","[0]","","images/stimuli/spore_stims/complex_16_A_b.gif","images/stimuli/spore_stims/complex_20_A_a.gif"
"","4542","survey-likert","145","421033","0.0-41.0","SS1618435635201","similarity_question","","","","","","","","","","","","{""Q0"":2}","[0]","","images/stimuli/spore_stims/complex_13_A_a.gif","images/stimuli/spore_stims/complex_18_A_b.gif"
"","2473","survey-likert","146","423508","0.0-42.0","SS1618435635201","similarity_question","","","","","","","","","","","","{""Q0"":4}","[0]","","images/stimuli/spore_stims/simple_12_A_a.gif","images/stimuli/spore_stims/simple_13_A_b.gif"
"","3587","survey-likert","147","427099","0.0-43.0","SS1618435635201","similarity_question","","","","","","","","","","","","{""Q0"":3}","[0]","","images/stimuli/spore_stims/complex_16_A_a.gif","images/stimuli/spore_stims/complex_06_A_b.gif"
"","4120","survey-likert","148","431222","0.0-44.0","SS1618435635201","similarity_question","","","","","","","","","","","","{""Q0"":4}","[0]","","images/stimuli/spore_stims/simple_02_A_a.gif","images/stimuli/spore_stims/simple_06_A_b.gif"
"[{""page_index"":0,""viewing_time"":1615}]","1615","instructions","149","432840","0.0-45.0","SS1618435635201","instructions","","","","","","","","","","","","","","","",""
"","6157","survey-likert","150","439000","0.0-46.0","SS1618435635201","","","","","","","","","images/stimuli/spore_stims/complex_17_A_b.gif","","","","{""Q0"":4}","[0]","","",""
"","3886","survey-likert","151","442890","0.0-47.0","SS1618435635201","","","","","","","","","images/stimuli/spore_stims/simple_02_A_b.gif","","","","{""Q0"":0}","[0]","","",""
"","2162.999999999942","survey-likert","152","445056","0.0-48.0","SS1618435635201","","","","","","","","","images/stimuli/spore_stims/complex_04_A_b.gif","","","","{""Q0"":5}","[0]","","",""
"","3598.999999999942","survey-likert","153","448657","0.0-49.0","SS1618435635201","","","","","","","","","images/stimuli/spore_stims/complex_06_A_b.gif","","","","{""Q0"":5}","[0]","","",""
"","3059.000000000058","survey-likert","154","451720","0.0-50.0","SS1618435635201","","","","","","","","","images/stimuli/spore_stims/simple_12_A_a.gif","","","","{""Q0"":1}","[0]","","",""
"","5222","survey-likert","155","456945","0.0-51.0","SS1618435635201","","","","","","","","","images/stimuli/spore_stims/complex_18_A_b.gif","","","","{""Q0"":5}","[0]","","",""
"","3170.000000000058","survey-likert","156","460119","0.0-52.0","SS1618435635201","","","","","","","","","images/stimuli/spore_stims/complex_13_A_b.gif","","","","{""Q0"":5}","[0]","","",""
"","4555","survey-likert","157","464677","0.0-53.0","SS1618435635201","","","","","","","","","images/stimuli/spore_stims/simple_08_A_b.gif","","","","{""Q0"":1}","[0]","","",""
"","6594","survey-likert","158","471274","0.0-54.0","SS1618435635201","","","","","","","","","images/stimuli/spore_stims/simple_04_A_b.gif","","","","{""Q0"":2}","[0]","","",""
"","2951","survey-likert","159","474229","0.0-55.0","SS1618435635201","","","","","","","","","images/stimuli/spore_stims/complex_16_A_b.gif","","","","{""Q0"":6}","[0]","","",""
"","3037.999999999942","survey-likert","160","477270","0.0-56.0","SS1618435635201","","","","","","","","","images/stimuli/spore_stims/simple_06_A_b.gif","","","","{""Q0"":1}","[0]","","",""
"","2361.999999999942","survey-likert","161","479635","0.0-57.0","SS1618435635201","","","","","","","","","images/stimuli/spore_stims/simple_07_A_a.gif","","","","{""Q0"":0}","[0]","","",""
"[{""page_index"":0,""viewing_time"":2546.000000000058}]","2547","instructions","162","482185","0.0-58.0","SS1618435635201","instructions","","","","","","","","","","","","","","","",""
"","2966","demog-age","163","485162","0.0-59.0","SS1618435635201","","","","","","","","","","","","","{""age"":""21""}","","","",""
"","3798","demog-ethnic-US","164","488964","0.0-60.0","SS1618435635201","","","","","","","","","","","","","{""ethnicity"":[""White""]}","[0]","","",""
"","5857","demog-gender-and-education","165","494825","0.0-61.0","SS1618435635201","","","","","","","","","","","","","{""gender"":""Male"",""education"":""High school diploma""}","[0,1]","","",""
"","6185","survey-text","166","501020","0.0-62.0","SS1618435635201","feedback","","","","","","","","","","","","{""Q0"":""no""}","","","",""
"[{""page_index"":0,""viewing_time"":1181}]","1181","instructions","167","502203","0.0-63.0","SS1618435635201","instructions","","","","","","","","","","","","","","","",""
