"view_history","rt","trial_type","trial_index","time_elapsed","internal_node_id","subject","stimulus_type","trial_stimulus","key_press","minimum_viewing_duration","trial_looking_time","block_deviant","block_background","exposure_type","stimulus","block_number","block_type","stimulus_displayed","responses","question_order","math_correct_answer","stimulus_left","stimulus_right"
"[{""page_index"":0,""viewing_time"":71146.31999999983}]","71151.93499997258","instructions","0","71158","0.0-0.0","SS1618366080399","","","","","","","","","","","","","","","","",""
"[{""page_index"":0,""viewing_time"":2812.834999989718},{""page_index"":1,""viewing_time"":7270.734999969136}]","10084.594999963883","instructions","1","83263","0.0-1.0","SS1618366080399","instructions","","","","","","","","","","","","","","","",""
"","5209.480000019539","sequential-stimulus-presentation-old","2","88987","0.0-2.0","SS1618366080399","","","40","500","5709.480000019539","null","null","self_paced","","","","","","","","",""
"","6562.340000004042","sequential-stimulus-presentation-old","3","96072","0.0-3.0","SS1618366080399","","","40","500","7062.340000004042","null","null","self_paced","","","","","","","","",""
"[{""page_index"":0,""viewing_time"":19700.78499999363}]","19701.95999997668","instructions","4","115778","0.0-4.0","SS1618366080399","instructions","","","","","","","","","","","","","","","",""
"","2579.734999977518","sequential-stimulus-presentation-old","5","123362","0.0-5.0","SS1618366080399","","","40","500","3079.734999977518","null","null","forced_long","","","","","","","","",""
"","4977.979999966919","sequential-stimulus-presentation-old","6","128418","0.0-6.0","SS1618366080399","","","40","50","5027.979999966919","null","null","forced_long","","","","","","","","",""
"[{""page_index"":0,""viewing_time"":2595.4449999844655}]","2596.5899999719113","instructions","7","131019","0.0-7.0","SS1618366080399","instructions","","","","","","","","","","","","","","","",""
"[{""page_index"":0,""viewing_time"":7959.81499995105},{""page_index"":1,""viewing_time"":7887.92500004638},{""page_index"":2,""viewing_time"":5297.039999975823},{""page_index"":3,""viewing_time"":2183.3600000245497},{""page_index"":4,""viewing_time"":1779.674999997951}]","25108.374999952503","instructions","8","156133","0.0-8.0","SS1618366080399","instructions","","","","","","","","","","","","","","","",""
"","null","html-keyboard-response","9","157071","0.0-9.0-0.0","SS1618366080399","","","null","","","","","","<p><img src= images/blank.png width =""600"" height = ""600"" style=""position:fixed;top:50%; left:50%; transform: translate(-50%, -50%); border:5px solid black"">","","","","","","","",""
"","498.7400000100024","sequential-stimulus-presentation-old","10","162597","0.0-9.0-1.0","SS1618366080399","trial","","40","500","998.7400000100024","images/stimuli/spore_stims/complex_16_A_b.gif","images/stimuli/spore_stims/complex_13_A_a.gif","forced_long","","0","complex_dissimilar","images/stimuli/spore_stims/complex_13_A_a.gif","","","","",""
"","null","html-keyboard-response","11","163815","0.0-9.0-0.1","SS1618366080399","","","null","","","","","","<p><img src= images/blank.png width =""600"" height = ""600"" style=""position:fixed;top:50%; left:50%; transform: translate(-50%, -50%); border:5px solid black"">","","","","","","","",""
"","13735.729999956675","sequential-stimulus-presentation-old","12","178071","0.0-9.0-1.1","SS1618366080399","trial","","40","500","14235.729999956675","images/stimuli/spore_stims/complex_16_A_b.gif","images/stimuli/spore_stims/complex_13_A_a.gif","forced_long","","0","complex_dissimilar","images/stimuli/spore_stims/complex_13_A_a.gif","","","","",""
"","null","html-keyboard-response","13","179283","0.0-9.0-0.2","SS1618366080399","","","null","","","","","","<p><img src= images/blank.png width =""600"" height = ""600"" style=""position:fixed;top:50%; left:50%; transform: translate(-50%, -50%); border:5px solid black"">","","","","","","","",""
"","16664.69499998493","sequential-stimulus-presentation-old","14","196469","0.0-9.0-1.2","SS1618366080399","trial","","40","500","17164.69499998493","images/stimuli/spore_stims/complex_16_A_b.gif","images/stimuli/spore_stims/complex_13_A_a.gif","forced_long","","0","complex_dissimilar","images/stimuli/spore_stims/complex_13_A_a.gif","","","","",""
"","null","html-keyboard-response","15","197461","0.0-9.0-0.3","SS1618366080399","","","null","","","","","","<p><img src= images/blank.png width =""600"" height = ""600"" style=""position:fixed;top:50%; left:50%; transform: translate(-50%, -50%); border:5px solid black"">","","","","","","","",""
"","14751.389999990351","sequential-stimulus-presentation-old","16","212740","0.0-9.0-1.3","SS1618366080399","trial","","40","500","15251.389999990351","images/stimuli/spore_stims/complex_16_A_b.gif","images/stimuli/spore_stims/complex_13_A_a.gif","forced_long","","0","complex_dissimilar","images/stimuli/spore_stims/complex_16_A_b.gif","","","","",""
"","null","html-keyboard-response","17","213649","0.0-9.0-0.4","SS1618366080399","","","null","","","","","","<p><img src= images/blank.png width =""600"" height = ""600"" style=""position:fixed;top:50%; left:50%; transform: translate(-50%, -50%); border:5px solid black"">","","","","","","","",""
"","8320.919999969192","sequential-stimulus-presentation-old","18","222512","0.0-9.0-1.4","SS1618366080399","trial","","40","500","8820.919999969192","images/stimuli/spore_stims/complex_16_A_b.gif","images/stimuli/spore_stims/complex_13_A_a.gif","forced_long","","0","complex_dissimilar","images/stimuli/spore_stims/complex_13_A_a.gif","","","","",""
"","null","html-keyboard-response","19","223655","0.0-9.0-0.5","SS1618366080399","","","null","","","","","","<p><img src= images/blank.png width =""600"" height = ""600"" style=""position:fixed;top:50%; left:50%; transform: translate(-50%, -50%); border:5px solid black"">","","","","","","","",""
"","8845.64999997383","sequential-stimulus-presentation-old","20","233017","0.0-9.0-1.5","SS1618366080399","trial","","40","500","9345.64999997383","images/stimuli/spore_stims/complex_16_A_b.gif","images/stimuli/spore_stims/complex_13_A_a.gif","forced_long","","0","complex_dissimilar","images/stimuli/spore_stims/complex_16_A_b.gif","","","","",""
"","3859.8849999834783","survey-multi-choice","21","236903","0.0-10.0","SS1618366080399","math_question","","","","","","","","","","","","{""Q0"":""12""}","[0]","12","",""
"","null","html-keyboard-response","22","238073","0.0-11.0-0.0","SS1618366080399","","","null","","","","","","<p><img src= images/blank.png width =""600"" height = ""600"" style=""position:fixed;top:50%; left:50%; transform: translate(-50%, -50%); border:5px solid black"">","","","","","","","",""
"","1444.3200000096112","sequential-stimulus-presentation-old","23","239596","0.0-11.0-1.0","SS1618366080399","trial","","40","500","1944.3200000096112","images/stimuli/spore_stims/complex_06_A_b.gif","images/stimuli/spore_stims/complex_12_A_a.gif","forced_short","","1","complex_dissimilar","images/stimuli/spore_stims/complex_12_A_a.gif","","","","",""
"","null","html-keyboard-response","24","240561","0.0-11.0-0.1","SS1618366080399","","","null","","","","","","<p><img src= images/blank.png width =""600"" height = ""600"" style=""position:fixed;top:50%; left:50%; transform: translate(-50%, -50%); border:5px solid black"">","","","","","","","",""
"","6309.764999954496","sequential-stimulus-presentation-old","25","247401","0.0-11.0-1.1","SS1618366080399","trial","","40","500","6809.764999954496","images/stimuli/spore_stims/complex_06_A_b.gif","images/stimuli/spore_stims/complex_12_A_a.gif","forced_short","","1","complex_dissimilar","images/stimuli/spore_stims/complex_06_A_b.gif","","","","",""
"","null","html-keyboard-response","26","248596","0.0-11.0-0.2","SS1618366080399","","","null","","","","","","<p><img src= images/blank.png width =""600"" height = ""600"" style=""position:fixed;top:50%; left:50%; transform: translate(-50%, -50%); border:5px solid black"">","","","","","","","",""
"","6248.924999963492","sequential-stimulus-presentation-old","27","255367","0.0-11.0-1.2","SS1618366080399","trial","","40","500","6748.924999963492","images/stimuli/spore_stims/complex_06_A_b.gif","images/stimuli/spore_stims/complex_12_A_a.gif","forced_short","","1","complex_dissimilar","images/stimuli/spore_stims/complex_12_A_a.gif","","","","",""
"","null","html-keyboard-response","28","256648","0.0-11.0-0.3","SS1618366080399","","","null","","","","","","<p><img src= images/blank.png width =""600"" height = ""600"" style=""position:fixed;top:50%; left:50%; transform: translate(-50%, -50%); border:5px solid black"">","","","","","","","",""
"","5983.334999997169","sequential-stimulus-presentation-old","29","263165","0.0-11.0-1.3","SS1618366080399","trial","","40","500","6483.334999997169","images/stimuli/spore_stims/complex_06_A_b.gif","images/stimuli/spore_stims/complex_12_A_a.gif","forced_short","","1","complex_dissimilar","images/stimuli/spore_stims/complex_12_A_a.gif","","","","",""
"","null","html-keyboard-response","30","264047","0.0-11.0-0.4","SS1618366080399","","","null","","","","","","<p><img src= images/blank.png width =""600"" height = ""600"" style=""position:fixed;top:50%; left:50%; transform: translate(-50%, -50%); border:5px solid black"">","","","","","","","",""
"","2695.7800000091083","sequential-stimulus-presentation-old","31","267271","0.0-11.0-1.4","SS1618366080399","trial","","40","500","3195.7800000091083","images/stimuli/spore_stims/complex_06_A_b.gif","images/stimuli/spore_stims/complex_12_A_a.gif","forced_short","","1","complex_dissimilar","images/stimuli/spore_stims/complex_12_A_a.gif","","","","",""
"","3302.3299999767914","survey-multi-choice","32","270586","0.0-12.0","SS1618366080399","math_question","","","","","","","","","","","","{""Q0"":""6""}","[0]","6","",""
"","null","html-keyboard-response","33","271515","0.0-13.0-0.0","SS1618366080399","","","null","","","","","","<p><img src= images/blank.png width =""600"" height = ""600"" style=""position:fixed;top:50%; left:50%; transform: translate(-50%, -50%); border:5px solid black"">","","","","","","","",""
"","11378.994999977294","sequential-stimulus-presentation-old","34","283426","0.0-13.0-1.0","SS1618366080399","trial","","40","500","11878.994999977294","images/stimuli/spore_stims/simple_17_A_a.gif","images/stimuli/spore_stims/simple_05_A_b.gif","self_paced","","2","simple_dissimilar","images/stimuli/spore_stims/simple_05_A_b.gif","","","","",""
"","null","html-keyboard-response","35","284256","0.0-13.0-0.1","SS1618366080399","","","null","","","","","","<p><img src= images/blank.png width =""600"" height = ""600"" style=""position:fixed;top:50%; left:50%; transform: translate(-50%, -50%); border:5px solid black"">","","","","","","","",""
"","8866.450000030454","sequential-stimulus-presentation-old","36","293646","0.0-13.0-1.1","SS1618366080399","trial","","40","500","9366.450000030454","images/stimuli/spore_stims/simple_17_A_a.gif","images/stimuli/spore_stims/simple_05_A_b.gif","self_paced","","2","simple_dissimilar","images/stimuli/spore_stims/simple_05_A_b.gif","","","","",""
"","null","html-keyboard-response","37","294614","0.0-13.0-0.2","SS1618366080399","","","null","","","","","","<p><img src= images/blank.png width =""600"" height = ""600"" style=""position:fixed;top:50%; left:50%; transform: translate(-50%, -50%); border:5px solid black"">","","","","","","","",""
"","9182.059999962803","sequential-stimulus-presentation-old","38","304315","0.0-13.0-1.2","SS1618366080399","trial","","40","500","9682.059999962803","images/stimuli/spore_stims/simple_17_A_a.gif","images/stimuli/spore_stims/simple_05_A_b.gif","self_paced","","2","simple_dissimilar","images/stimuli/spore_stims/simple_05_A_b.gif","","","","",""
"","null","html-keyboard-response","39","305393","0.0-13.0-0.3","SS1618366080399","","","null","","","","","","<p><img src= images/blank.png width =""600"" height = ""600"" style=""position:fixed;top:50%; left:50%; transform: translate(-50%, -50%); border:5px solid black"">","","","","","","","",""
"","3162.735000019893","sequential-stimulus-presentation-old","40","309080","0.0-13.0-1.3","SS1618366080399","trial","","40","500","3662.735000019893","images/stimuli/spore_stims/simple_17_A_a.gif","images/stimuli/spore_stims/simple_05_A_b.gif","self_paced","","2","simple_dissimilar","images/stimuli/spore_stims/simple_05_A_b.gif","","","","",""
"","null","html-keyboard-response","41","310244","0.0-13.0-0.4","SS1618366080399","","","null","","","","","","<p><img src= images/blank.png width =""600"" height = ""600"" style=""position:fixed;top:50%; left:50%; transform: translate(-50%, -50%); border:5px solid black"">","","","","","","","",""
"","344.44499999517575","sequential-stimulus-presentation-old","42","311116","0.0-13.0-1.4","SS1618366080399","trial","","40","500","844.4449999951757","images/stimuli/spore_stims/simple_17_A_a.gif","images/stimuli/spore_stims/simple_05_A_b.gif","self_paced","","2","simple_dissimilar","images/stimuli/spore_stims/simple_05_A_b.gif","","","","",""
"","null","html-keyboard-response","43","312362","0.0-13.0-0.5","SS1618366080399","","","null","","","","","","<p><img src= images/blank.png width =""600"" height = ""600"" style=""position:fixed;top:50%; left:50%; transform: translate(-50%, -50%); border:5px solid black"">","","","","","","","",""
"","1155.8400000212714","sequential-stimulus-presentation-old","44","314047","0.0-13.0-1.5","SS1618366080399","trial","","40","500","1655.8400000212714","images/stimuli/spore_stims/simple_17_A_a.gif","images/stimuli/spore_stims/simple_05_A_b.gif","self_paced","","2","simple_dissimilar","images/stimuli/spore_stims/simple_05_A_b.gif","","","","",""
"","3022.3150000092573","survey-multi-choice","45","317083","0.0-14.0","SS1618366080399","math_question","","","","","","","","","","","","{""Q0"":""13""}","[0]","13","",""
"","null","html-keyboard-response","46","317941","0.0-15.0-0.0","SS1618366080399","","","null","","","","","","<p><img src= images/blank.png width =""600"" height = ""600"" style=""position:fixed;top:50%; left:50%; transform: translate(-50%, -50%); border:5px solid black"">","","","","","","","",""
"","8610.6499999878","sequential-stimulus-presentation-old","47","327075","0.0-15.0-1.0","SS1618366080399","trial","","40","500","9110.6499999878","images/stimuli/spore_stims/complex_03_A_a.gif","images/stimuli/spore_stims/complex_04_A_b.gif","self_paced","","3","complex_dissimilar","images/stimuli/spore_stims/complex_04_A_b.gif","","","","",""
"","null","html-keyboard-response","48","327982","0.0-15.0-0.1","SS1618366080399","","","null","","","","","","<p><img src= images/blank.png width =""600"" height = ""600"" style=""position:fixed;top:50%; left:50%; transform: translate(-50%, -50%); border:5px solid black"">","","","","","","","",""
"","6695.719999959692","sequential-stimulus-presentation-old","49","335203","0.0-15.0-1.1","SS1618366080399","trial","","40","500","7195.719999959692","images/stimuli/spore_stims/complex_03_A_a.gif","images/stimuli/spore_stims/complex_04_A_b.gif","self_paced","","3","complex_dissimilar","images/stimuli/spore_stims/complex_04_A_b.gif","","","","",""
"","null","html-keyboard-response","50","336312","0.0-15.0-0.2","SS1618366080399","","","null","","","","","","<p><img src= images/blank.png width =""600"" height = ""600"" style=""position:fixed;top:50%; left:50%; transform: translate(-50%, -50%); border:5px solid black"">","","","","","","","",""
"","16050.46499997843","sequential-stimulus-presentation-old","51","352888","0.0-15.0-1.2","SS1618366080399","trial","","40","500","16550.46499997843","images/stimuli/spore_stims/complex_03_A_a.gif","images/stimuli/spore_stims/complex_04_A_b.gif","self_paced","","3","complex_dissimilar","images/stimuli/spore_stims/complex_04_A_b.gif","","","","",""
"","null","html-keyboard-response","52","354080","0.0-15.0-0.3","SS1618366080399","","","null","","","","","","<p><img src= images/blank.png width =""600"" height = ""600"" style=""position:fixed;top:50%; left:50%; transform: translate(-50%, -50%); border:5px solid black"">","","","","","","","",""
"","6260.459999961313","sequential-stimulus-presentation-old","53","360867","0.0-15.0-1.3","SS1618366080399","trial","","40","500","6760.459999961313","images/stimuli/spore_stims/complex_03_A_a.gif","images/stimuli/spore_stims/complex_04_A_b.gif","self_paced","","3","complex_dissimilar","images/stimuli/spore_stims/complex_04_A_b.gif","","","","",""
"","null","html-keyboard-response","54","362040","0.0-15.0-0.4","SS1618366080399","","","null","","","","","","<p><img src= images/blank.png width =""600"" height = ""600"" style=""position:fixed;top:50%; left:50%; transform: translate(-50%, -50%); border:5px solid black"">","","","","","","","",""
"","755.2900000009686","sequential-stimulus-presentation-old","55","363333","0.0-15.0-1.4","SS1618366080399","trial","","40","500","1255.2900000009686","images/stimuli/spore_stims/complex_03_A_a.gif","images/stimuli/spore_stims/complex_04_A_b.gif","self_paced","","3","complex_dissimilar","images/stimuli/spore_stims/complex_04_A_b.gif","","","","",""
"","3835.4849999886937","survey-multi-choice","56","367182","0.0-16.0","SS1618366080399","math_question","","","","","","","","","","","","{""Q0"":""5""}","[0]","5","",""
"","null","html-keyboard-response","57","368379","0.0-17.0-0.0","SS1618366080399","","","null","","","","","","<p><img src= images/blank.png width =""600"" height = ""600"" style=""position:fixed;top:50%; left:50%; transform: translate(-50%, -50%); border:5px solid black"">","","","","","","","",""
"","834.7150000045076","sequential-stimulus-presentation-old","58","369292","0.0-17.0-1.0","SS1618366080399","trial","","40","500","1334.7150000045076","images/stimuli/spore_stims/simple_18_A_a.gif","images/stimuli/spore_stims/simple_06_A_b.gif","forced_short","","4","simple_dissimilar","images/stimuli/spore_stims/simple_06_A_b.gif","","","","",""
"","null","html-keyboard-response","59","370145","0.0-17.0-0.1","SS1618366080399","","","null","","","","","","<p><img src= images/blank.png width =""600"" height = ""600"" style=""position:fixed;top:50%; left:50%; transform: translate(-50%, -50%); border:5px solid black"">","","","","","","","",""
"","3433.5399999981746","sequential-stimulus-presentation-old","60","374115","0.0-17.0-1.1","SS1618366080399","trial","","40","500","3933.5399999981746","images/stimuli/spore_stims/simple_18_A_a.gif","images/stimuli/spore_stims/simple_06_A_b.gif","forced_short","","4","simple_dissimilar","images/stimuli/spore_stims/simple_18_A_a.gif","","","","",""
"","null","html-keyboard-response","61","374977","0.0-17.0-0.2","SS1618366080399","","","null","","","","","","<p><img src= images/blank.png width =""600"" height = ""600"" style=""position:fixed;top:50%; left:50%; transform: translate(-50%, -50%); border:5px solid black"">","","","","","","","",""
"","16879.079999984242","sequential-stimulus-presentation-old","62","392387","0.0-17.0-1.2","SS1618366080399","trial","","40","500","17379.079999984242","images/stimuli/spore_stims/simple_18_A_a.gif","images/stimuli/spore_stims/simple_06_A_b.gif","forced_short","","4","simple_dissimilar","images/stimuli/spore_stims/simple_06_A_b.gif","","","","",""
"","null","html-keyboard-response","63","393399","0.0-17.0-0.3","SS1618366080399","","","null","","","","","","<p><img src= images/blank.png width =""600"" height = ""600"" style=""position:fixed;top:50%; left:50%; transform: translate(-50%, -50%); border:5px solid black"">","","","","","","","",""
"","1241.2550000008196","sequential-stimulus-presentation-old","64","395174","0.0-17.0-1.3","SS1618366080399","trial","","40","500","1741.2550000008196","images/stimuli/spore_stims/simple_18_A_a.gif","images/stimuli/spore_stims/simple_06_A_b.gif","forced_short","","4","simple_dissimilar","images/stimuli/spore_stims/simple_06_A_b.gif","","","","",""
"","null","html-keyboard-response","65","396133","0.0-17.0-0.4","SS1618366080399","","","null","","","","","","<p><img src= images/blank.png width =""600"" height = ""600"" style=""position:fixed;top:50%; left:50%; transform: translate(-50%, -50%); border:5px solid black"">","","","","","","","",""
"","2522.49500004109","sequential-stimulus-presentation-old","66","399185","0.0-17.0-1.4","SS1618366080399","trial","","40","500","3022.49500004109","images/stimuli/spore_stims/simple_18_A_a.gif","images/stimuli/spore_stims/simple_06_A_b.gif","forced_short","","4","simple_dissimilar","images/stimuli/spore_stims/simple_18_A_a.gif","","","","",""
"","2949.06000001356","survey-multi-choice","67","402151","0.0-18.0","SS1618366080399","math_question","","","","","","","","","","","","{""Q0"":""3""}","[0]","3","",""
"","null","html-keyboard-response","68","403379","0.0-19.0-0.0","SS1618366080399","","","null","","","","","","<p><img src= images/blank.png width =""600"" height = ""600"" style=""position:fixed;top:50%; left:50%; transform: translate(-50%, -50%); border:5px solid black"">","","","","","","","",""
"","1299.3450000067241","sequential-stimulus-presentation-old","69","404759","0.0-19.0-1.0","SS1618366080399","trial","","40","500","1799.3450000067241","images/stimuli/spore_stims/complex_11_A_b.gif","images/stimuli/spore_stims/complex_02_A_a.gif","forced_short","","5","complex_dissimilar","images/stimuli/spore_stims/complex_02_A_a.gif","","","","",""
"","null","html-keyboard-response","70","405899","0.0-19.0-0.1","SS1618366080399","","","null","","","","","","<p><img src= images/blank.png width =""600"" height = ""600"" style=""position:fixed;top:50%; left:50%; transform: translate(-50%, -50%); border:5px solid black"">","","","","","","","",""
"","5691.710000042804","sequential-stimulus-presentation-old","71","412102","0.0-19.0-1.1","SS1618366080399","trial","","40","500","6191.710000042804","images/stimuli/spore_stims/complex_11_A_b.gif","images/stimuli/spore_stims/complex_02_A_a.gif","forced_short","","5","complex_dissimilar","images/stimuli/spore_stims/complex_02_A_a.gif","","","","",""
"","null","html-keyboard-response","72","413031","0.0-19.0-0.2","SS1618366080399","","","null","","","","","","<p><img src= images/blank.png width =""600"" height = ""600"" style=""position:fixed;top:50%; left:50%; transform: translate(-50%, -50%); border:5px solid black"">","","","","","","","",""
"","2801.0399999911897","sequential-stimulus-presentation-old","73","416378","0.0-19.0-1.2","SS1618366080399","trial","","40","500","3301.0399999911897","images/stimuli/spore_stims/complex_11_A_b.gif","images/stimuli/spore_stims/complex_02_A_a.gif","forced_short","","5","complex_dissimilar","images/stimuli/spore_stims/complex_02_A_a.gif","","","","",""
"","null","html-keyboard-response","74","417629","0.0-19.0-0.3","SS1618366080399","","","null","","","","","","<p><img src= images/blank.png width =""600"" height = ""600"" style=""position:fixed;top:50%; left:50%; transform: translate(-50%, -50%); border:5px solid black"">","","","","","","","",""
"","351.29500000039116","sequential-stimulus-presentation-old","75","418519","0.0-19.0-1.3","SS1618366080399","trial","","40","500","851.2950000003912","images/stimuli/spore_stims/complex_11_A_b.gif","images/stimuli/spore_stims/complex_02_A_a.gif","forced_short","","5","complex_dissimilar","images/stimuli/spore_stims/complex_02_A_a.gif","","","","",""
"","3440.5099999858066","survey-multi-choice","76","421987","0.0-20.0","SS1618366080399","math_question","","","","","","","","","","","","{""Q0"":""14""}","[0]","14","",""
"","null","html-keyboard-response","77","423224","0.0-21.0-0.0","SS1618366080399","","","null","","","","","","<p><img src= images/blank.png width =""600"" height = ""600"" style=""position:fixed;top:50%; left:50%; transform: translate(-50%, -50%); border:5px solid black"">","","","","","","","",""
"","4468.20999996271","sequential-stimulus-presentation-old","78","432728","0.0-21.0-1.0","SS1618366080399","trial","","40","500","4968.20999996271","images/stimuli/spore_stims/simple_14_A_b.gif","images/stimuli/spore_stims/simple_09_A_a.gif","forced_long","","6","simple_dissimilar","images/stimuli/spore_stims/simple_09_A_a.gif","","","","",""
"","null","html-keyboard-response","79","433958","0.0-21.0-0.1","SS1618366080399","","","null","","","","","","<p><img src= images/blank.png width =""600"" height = ""600"" style=""position:fixed;top:50%; left:50%; transform: translate(-50%, -50%); border:5px solid black"">","","","","","","","",""
"","14355.084999988321","sequential-stimulus-presentation-old","80","448864","0.0-21.0-1.1","SS1618366080399","trial","","40","500","14855.084999988321","images/stimuli/spore_stims/simple_14_A_b.gif","images/stimuli/spore_stims/simple_09_A_a.gif","forced_long","","6","simple_dissimilar","images/stimuli/spore_stims/simple_09_A_a.gif","","","","",""
"","null","html-keyboard-response","81","449863","0.0-21.0-0.2","SS1618366080399","","","null","","","","","","<p><img src= images/blank.png width =""600"" height = ""600"" style=""position:fixed;top:50%; left:50%; transform: translate(-50%, -50%); border:5px solid black"">","","","","","","","",""
"","7817.924999981187","sequential-stimulus-presentation-old","82","458212","0.0-21.0-1.2","SS1618366080399","trial","","40","500","8317.924999981187","images/stimuli/spore_stims/simple_14_A_b.gif","images/stimuli/spore_stims/simple_09_A_a.gif","forced_long","","6","simple_dissimilar","images/stimuli/spore_stims/simple_09_A_a.gif","","","","",""
"","null","html-keyboard-response","83","459457","0.0-21.0-0.3","SS1618366080399","","","null","","","","","","<p><img src= images/blank.png width =""600"" height = ""600"" style=""position:fixed;top:50%; left:50%; transform: translate(-50%, -50%); border:5px solid black"">","","","","","","","",""
"","8447.285000002012","sequential-stimulus-presentation-old","84","468436","0.0-21.0-1.3","SS1618366080399","trial","","40","500","8947.285000002012","images/stimuli/spore_stims/simple_14_A_b.gif","images/stimuli/spore_stims/simple_09_A_a.gif","forced_long","","6","simple_dissimilar","images/stimuli/spore_stims/simple_14_A_b.gif","","","","",""
"","null","html-keyboard-response","85","469541","0.0-21.0-0.4","SS1618366080399","","","null","","","","","","<p><img src= images/blank.png width =""600"" height = ""600"" style=""position:fixed;top:50%; left:50%; transform: translate(-50%, -50%); border:5px solid black"">","","","","","","","",""
"","15995.230000000447","sequential-stimulus-presentation-old","86","486087","0.0-21.0-1.4","SS1618366080399","trial","","40","500","16495.230000000447","images/stimuli/spore_stims/simple_14_A_b.gif","images/stimuli/spore_stims/simple_09_A_a.gif","forced_long","","6","simple_dissimilar","images/stimuli/spore_stims/simple_09_A_a.gif","","","","",""
"","null","html-keyboard-response","87","487196","0.0-21.0-0.5","SS1618366080399","","","null","","","","","","<p><img src= images/blank.png width =""600"" height = ""600"" style=""position:fixed;top:50%; left:50%; transform: translate(-50%, -50%); border:5px solid black"">","","","","","","","",""
"","4716.075000003912","sequential-stimulus-presentation-old","88","492449","0.0-21.0-1.5","SS1618366080399","trial","","40","500","5216.075000003912","images/stimuli/spore_stims/simple_14_A_b.gif","images/stimuli/spore_stims/simple_09_A_a.gif","forced_long","","6","simple_dissimilar","images/stimuli/spore_stims/simple_14_A_b.gif","","","","",""
"","2920.0050000217743","survey-multi-choice","89","495388","0.0-22.0","SS1618366080399","math_question","","","","","","","","","","","","{""Q0"":""10""}","[0]","10","",""
"","null","html-keyboard-response","90","496409","0.0-23.0-0.0","SS1618366080399","","","null","","","","","","<p><img src= images/blank.png width =""600"" height = ""600"" style=""position:fixed;top:50%; left:50%; transform: translate(-50%, -50%); border:5px solid black"">","","","","","","","",""
"","26923.139999969862","sequential-stimulus-presentation-old","91","523857","0.0-23.0-1.0","SS1618366080399","trial","","40","500","27423.139999969862","images/stimuli/spore_stims/simple_04_A_b.gif","images/stimuli/spore_stims/simple_06_A_a.gif","self_paced","","7","simple_dissimilar","images/stimuli/spore_stims/simple_06_A_a.gif","","","","",""
"","null","html-keyboard-response","92","524977","0.0-23.0-0.1","SS1618366080399","","","null","","","","","","<p><img src= images/blank.png width =""600"" height = ""600"" style=""position:fixed;top:50%; left:50%; transform: translate(-50%, -50%); border:5px solid black"">","","","","","","","",""
"","16115.204999980051","sequential-stimulus-presentation-old","93","541606","0.0-23.0-1.1","SS1618366080399","trial","","40","500","16615.20499998005","images/stimuli/spore_stims/simple_04_A_b.gif","images/stimuli/spore_stims/simple_06_A_a.gif","self_paced","","7","simple_dissimilar","images/stimuli/spore_stims/simple_06_A_a.gif","","","","",""
"","null","html-keyboard-response","94","542598","0.0-23.0-0.2","SS1618366080399","","","null","","","","","","<p><img src= images/blank.png width =""600"" height = ""600"" style=""position:fixed;top:50%; left:50%; transform: translate(-50%, -50%); border:5px solid black"">","","","","","","","",""
"","3604.094999958761","sequential-stimulus-presentation-old","95","546753","0.0-23.0-1.2","SS1618366080399","trial","","40","500","4104.094999958761","images/stimuli/spore_stims/simple_04_A_b.gif","images/stimuli/spore_stims/simple_06_A_a.gif","self_paced","","7","simple_dissimilar","images/stimuli/spore_stims/simple_06_A_a.gif","","","","",""
"","null","html-keyboard-response","96","547622","0.0-23.0-0.3","SS1618366080399","","","null","","","","","","<p><img src= images/blank.png width =""600"" height = ""600"" style=""position:fixed;top:50%; left:50%; transform: translate(-50%, -50%); border:5px solid black"">","","","","","","","",""
"","3103.9999999920838","sequential-stimulus-presentation-old","97","551265","0.0-23.0-1.3","SS1618366080399","trial","","40","500","3603.9999999920838","images/stimuli/spore_stims/simple_04_A_b.gif","images/stimuli/spore_stims/simple_06_A_a.gif","self_paced","","7","simple_dissimilar","images/stimuli/spore_stims/simple_06_A_a.gif","","","","",""
"","null","html-keyboard-response","98","552345","0.0-23.0-0.4","SS1618366080399","","","null","","","","","","<p><img src= images/blank.png width =""600"" height = ""600"" style=""position:fixed;top:50%; left:50%; transform: translate(-50%, -50%); border:5px solid black"">","","","","","","","",""
"","4985.755000030622","sequential-stimulus-presentation-old","99","557853","0.0-23.0-1.4","SS1618366080399","trial","","40","500","5485.755000030622","images/stimuli/spore_stims/simple_04_A_b.gif","images/stimuli/spore_stims/simple_06_A_a.gif","self_paced","","7","simple_dissimilar","images/stimuli/spore_stims/simple_06_A_a.gif","","","","",""
"","2941.259999992326","survey-multi-choice","100","560816","0.0-24.0","SS1618366080399","math_question","","","","","","","","","","","","{""Q0"":""11""}","[0]","11","",""
"","null","html-keyboard-response","101","561767","0.0-25.0-0.0","SS1618366080399","","","null","","","","","","<p><img src= images/blank.png width =""600"" height = ""600"" style=""position:fixed;top:50%; left:50%; transform: translate(-50%, -50%); border:5px solid black"">","","","","","","","",""
"","865.6300000147894","sequential-stimulus-presentation-old","102","562729","0.0-25.0-1.0","SS1618366080399","trial","","40","500","1365.6300000147894","images/stimuli/spore_stims/simple_14_A_a.gif","images/stimuli/spore_stims/simple_03_A_b.gif","forced_short","","8","simple_dissimilar","images/stimuli/spore_stims/simple_03_A_b.gif","","","","",""
"","null","html-keyboard-response","103","563581","0.0-25.0-0.1","SS1618366080399","","","null","","","","","","<p><img src= images/blank.png width =""600"" height = ""600"" style=""position:fixed;top:50%; left:50%; transform: translate(-50%, -50%); border:5px solid black"">","","","","","","","",""
"","2720.4449999844655","sequential-stimulus-presentation-old","104","566829","0.0-25.0-1.1","SS1618366080399","trial","","40","500","3220.4449999844655","images/stimuli/spore_stims/simple_14_A_a.gif","images/stimuli/spore_stims/simple_03_A_b.gif","forced_short","","8","simple_dissimilar","images/stimuli/spore_stims/simple_14_A_a.gif","","","","",""
"","null","html-keyboard-response","105","567713","0.0-25.0-0.2","SS1618366080399","","","null","","","","","","<p><img src= images/blank.png width =""600"" height = ""600"" style=""position:fixed;top:50%; left:50%; transform: translate(-50%, -50%); border:5px solid black"">","","","","","","","",""
"","9843.965000007302","sequential-stimulus-presentation-old","106","578095","0.0-25.0-1.2","SS1618366080399","trial","","40","500","10343.965000007302","images/stimuli/spore_stims/simple_14_A_a.gif","images/stimuli/spore_stims/simple_03_A_b.gif","forced_short","","8","simple_dissimilar","images/stimuli/spore_stims/simple_03_A_b.gif","","","","",""
"","null","html-keyboard-response","107","579096","0.0-25.0-0.3","SS1618366080399","","","null","","","","","","<p><img src= images/blank.png width =""600"" height = ""600"" style=""position:fixed;top:50%; left:50%; transform: translate(-50%, -50%); border:5px solid black"">","","","","","","","",""
"","19205.829999991693","sequential-stimulus-presentation-old","108","598836","0.0-25.0-1.3","SS1618366080399","trial","","40","500","19705.829999991693","images/stimuli/spore_stims/simple_14_A_a.gif","images/stimuli/spore_stims/simple_03_A_b.gif","forced_short","","8","simple_dissimilar","images/stimuli/spore_stims/simple_03_A_b.gif","","","","",""
"","null","html-keyboard-response","109","599930","0.0-25.0-0.4","SS1618366080399","","","null","","","","","","<p><img src= images/blank.png width =""600"" height = ""600"" style=""position:fixed;top:50%; left:50%; transform: translate(-50%, -50%); border:5px solid black"">","","","","","","","",""
"","30.51500004949048","sequential-stimulus-presentation-old","110","600484","0.0-25.0-1.4","SS1618366080399","trial","","40","500","530.5150000494905","images/stimuli/spore_stims/simple_14_A_a.gif","images/stimuli/spore_stims/simple_03_A_b.gif","forced_short","","8","simple_dissimilar","images/stimuli/spore_stims/simple_03_A_b.gif","","","","",""
"","null","html-keyboard-response","111","601512","0.0-25.0-0.5","SS1618366080399","","","null","","","","","","<p><img src= images/blank.png width =""600"" height = ""600"" style=""position:fixed;top:50%; left:50%; transform: translate(-50%, -50%); border:5px solid black"">","","","","","","","",""
"","3434.339999977965","sequential-stimulus-presentation-old","112","605477","0.0-25.0-1.5","SS1618366080399","trial","","40","500","3934.339999977965","images/stimuli/spore_stims/simple_14_A_a.gif","images/stimuli/spore_stims/simple_03_A_b.gif","forced_short","","8","simple_dissimilar","images/stimuli/spore_stims/simple_03_A_b.gif","","","","",""
"","14707.18000002671","survey-multi-choice","113","620212","0.0-26.0","SS1618366080399","math_question","","","","","","","","","","","","{""Q0"":""14""}","[0]","14","",""
"","null","html-keyboard-response","114","621230","0.0-27.0-0.0","SS1618366080399","","","null","","","","","","<p><img src= images/blank.png width =""600"" height = ""600"" style=""position:fixed;top:50%; left:50%; transform: translate(-50%, -50%); border:5px solid black"">","","","","","","","",""
"","12320.334999996703","sequential-stimulus-presentation-old","115","634082","0.0-27.0-1.0","SS1618366080399","trial","","40","500","12820.334999996703","images/stimuli/spore_stims/complex_18_A_a.gif","images/stimuli/spore_stims/complex_12_A_b.gif","self_paced","","9","complex_dissimilar","images/stimuli/spore_stims/complex_12_A_b.gif","","","","",""
"","null","html-keyboard-response","116","635346","0.0-27.0-0.1","SS1618366080399","","","null","","","","","","<p><img src= images/blank.png width =""600"" height = ""600"" style=""position:fixed;top:50%; left:50%; transform: translate(-50%, -50%); border:5px solid black"">","","","","","","","",""
"","2096.7649999656714","sequential-stimulus-presentation-old","117","637980","0.0-27.0-1.1","SS1618366080399","trial","","40","500","2596.7649999656714","images/stimuli/spore_stims/complex_18_A_a.gif","images/stimuli/spore_stims/complex_12_A_b.gif","self_paced","","9","complex_dissimilar","images/stimuli/spore_stims/complex_12_A_b.gif","","","","",""
"","null","html-keyboard-response","118","639014","0.0-27.0-0.2","SS1618366080399","","","null","","","","","","<p><img src= images/blank.png width =""600"" height = ""600"" style=""position:fixed;top:50%; left:50%; transform: translate(-50%, -50%); border:5px solid black"">","","","","","","","",""
"","1144.025000045076","sequential-stimulus-presentation-old","119","640693","0.0-27.0-1.2","SS1618366080399","trial","","40","500","1644.025000045076","images/stimuli/spore_stims/complex_18_A_a.gif","images/stimuli/spore_stims/complex_12_A_b.gif","self_paced","","9","complex_dissimilar","images/stimuli/spore_stims/complex_18_A_a.gif","","","","",""
"","null","html-keyboard-response","120","641645","0.0-27.0-0.3","SS1618366080399","","","null","","","","","","<p><img src= images/blank.png width =""600"" height = ""600"" style=""position:fixed;top:50%; left:50%; transform: translate(-50%, -50%); border:5px solid black"">","","","","","","","",""
"","314.65499999467283","sequential-stimulus-presentation-old","121","642490","0.0-27.0-1.3","SS1618366080399","trial","","40","500","814.6549999946728","images/stimuli/spore_stims/complex_18_A_a.gif","images/stimuli/spore_stims/complex_12_A_b.gif","self_paced","","9","complex_dissimilar","images/stimuli/spore_stims/complex_18_A_a.gif","","","","",""
"","2160.6949999695644","survey-multi-choice","122","644676","0.0-28.0","SS1618366080399","math_question","","","","","","","","","","","","{""Q0"":""5""}","[0]","5","",""
"","null","html-keyboard-response","123","645978","0.0-29.0-0.0","SS1618366080399","","","null","","","","","","<p><img src= images/blank.png width =""600"" height = ""600"" style=""position:fixed;top:50%; left:50%; transform: translate(-50%, -50%); border:5px solid black"">","","","","","","","",""
"","796.9450000091456","sequential-stimulus-presentation-old","124","651803","0.0-29.0-1.0","SS1618366080399","trial","","40","500","1296.9450000091456","images/stimuli/spore_stims/simple_08_A_b.gif","images/stimuli/spore_stims/simple_05_A_a.gif","forced_long","","10","simple_dissimilar","images/stimuli/spore_stims/simple_05_A_a.gif","","","","",""
"","null","html-keyboard-response","125","652651","0.0-29.0-0.1","SS1618366080399","","","null","","","","","","<p><img src= images/blank.png width =""600"" height = ""600"" style=""position:fixed;top:50%; left:50%; transform: translate(-50%, -50%); border:5px solid black"">","","","","","","","",""
"","934.1050000512041","sequential-stimulus-presentation-old","126","654129","0.0-29.0-1.1","SS1618366080399","trial","","40","500","1434.1050000512041","images/stimuli/spore_stims/simple_08_A_b.gif","images/stimuli/spore_stims/simple_05_A_a.gif","forced_long","","10","simple_dissimilar","images/stimuli/spore_stims/simple_05_A_a.gif","","","","",""
"","null","html-keyboard-response","127","655012","0.0-29.0-0.2","SS1618366080399","","","null","","","","","","<p><img src= images/blank.png width =""600"" height = ""600"" style=""position:fixed;top:50%; left:50%; transform: translate(-50%, -50%); border:5px solid black"">","","","","","","","",""
"","103.94000000087544","sequential-stimulus-presentation-old","128","655650","0.0-29.0-1.2","SS1618366080399","trial","","40","500","603.9400000008754","images/stimuli/spore_stims/simple_08_A_b.gif","images/stimuli/spore_stims/simple_05_A_a.gif","forced_long","","10","simple_dissimilar","images/stimuli/spore_stims/simple_05_A_a.gif","","","","",""
"","null","html-keyboard-response","129","656689","0.0-29.0-0.3","SS1618366080399","","","null","","","","","","<p><img src= images/blank.png width =""600"" height = ""600"" style=""position:fixed;top:50%; left:50%; transform: translate(-50%, -50%); border:5px solid black"">","","","","","","","",""
"","95.70000000530854","sequential-stimulus-presentation-old","130","657309","0.0-29.0-1.3","SS1618366080399","trial","","40","500","595.7000000053085","images/stimuli/spore_stims/simple_08_A_b.gif","images/stimuli/spore_stims/simple_05_A_a.gif","forced_long","","10","simple_dissimilar","images/stimuli/spore_stims/simple_05_A_a.gif","","","","",""
"","null","html-keyboard-response","131","658163","0.0-29.0-0.4","SS1618366080399","","","null","","","","","","<p><img src= images/blank.png width =""600"" height = ""600"" style=""position:fixed;top:50%; left:50%; transform: translate(-50%, -50%); border:5px solid black"">","","","","","","","",""
"","2902.470000030007","sequential-stimulus-presentation-old","132","661607","0.0-29.0-1.4","SS1618366080399","trial","","40","500","3402.470000030007","images/stimuli/spore_stims/simple_08_A_b.gif","images/stimuli/spore_stims/simple_05_A_a.gif","forced_long","","10","simple_dissimilar","images/stimuli/spore_stims/simple_05_A_a.gif","","","","",""
"","3441.91499997396","survey-multi-choice","133","665068","0.0-30.0","SS1618366080399","math_question","","","","","","","","","","","","{""Q0"":""8""}","[0]","8","",""
"","null","html-keyboard-response","134","666013","0.0-31.0-0.0","SS1618366080399","","","null","","","","","","<p><img src= images/blank.png width =""600"" height = ""600"" style=""position:fixed;top:50%; left:50%; transform: translate(-50%, -50%); border:5px solid black"">","","","","","","","",""
"","2501.525000028778","sequential-stimulus-presentation-old","135","673540","0.0-31.0-1.0","SS1618366080399","trial","","40","500","3001.525000028778","images/stimuli/spore_stims/complex_14_A_a.gif","images/stimuli/spore_stims/complex_08_A_b.gif","forced_long","","11","complex_dissimilar","images/stimuli/spore_stims/complex_08_A_b.gif","","","","",""
"","null","html-keyboard-response","136","674844","0.0-31.0-0.1","SS1618366080399","","","null","","","","","","<p><img src= images/blank.png width =""600"" height = ""600"" style=""position:fixed;top:50%; left:50%; transform: translate(-50%, -50%); border:5px solid black"">","","","","","","","",""
"","5890.664999955334","sequential-stimulus-presentation-old","137","681275","0.0-31.0-1.1","SS1618366080399","trial","","40","500","6390.664999955334","images/stimuli/spore_stims/complex_14_A_a.gif","images/stimuli/spore_stims/complex_08_A_b.gif","forced_long","","11","complex_dissimilar","images/stimuli/spore_stims/complex_08_A_b.gif","","","","",""
"","null","html-keyboard-response","138","682302","0.0-31.0-0.2","SS1618366080399","","","null","","","","","","<p><img src= images/blank.png width =""600"" height = ""600"" style=""position:fixed;top:50%; left:50%; transform: translate(-50%, -50%); border:5px solid black"">","","","","","","","",""
"","1695.175000000745","sequential-stimulus-presentation-old","139","684526","0.0-31.0-1.2","SS1618366080399","trial","","40","500","2195.175000000745","images/stimuli/spore_stims/complex_14_A_a.gif","images/stimuli/spore_stims/complex_08_A_b.gif","forced_long","","11","complex_dissimilar","images/stimuli/spore_stims/complex_08_A_b.gif","","","","",""
"","null","html-keyboard-response","140","685736","0.0-31.0-0.3","SS1618366080399","","","null","","","","","","<p><img src= images/blank.png width =""600"" height = ""600"" style=""position:fixed;top:50%; left:50%; transform: translate(-50%, -50%); border:5px solid black"">","","","","","","","",""
"","183.52999998023733","sequential-stimulus-presentation-old","141","686456","0.0-31.0-1.3","SS1618366080399","trial","","40","500","683.5299999802373","images/stimuli/spore_stims/complex_14_A_a.gif","images/stimuli/spore_stims/complex_08_A_b.gif","forced_long","","11","complex_dissimilar","images/stimuli/spore_stims/complex_08_A_b.gif","","","","",""
"","null","html-keyboard-response","142","687704","0.0-31.0-0.4","SS1618366080399","","","null","","","","","","<p><img src= images/blank.png width =""600"" height = ""600"" style=""position:fixed;top:50%; left:50%; transform: translate(-50%, -50%); border:5px solid black"">","","","","","","","",""
"","5749.105000053532","sequential-stimulus-presentation-old","143","694000","0.0-31.0-1.4","SS1618366080399","trial","","40","500","6249.105000053532","images/stimuli/spore_stims/complex_14_A_a.gif","images/stimuli/spore_stims/complex_08_A_b.gif","forced_long","","11","complex_dissimilar","images/stimuli/spore_stims/complex_08_A_b.gif","","","","",""
"","null","html-keyboard-response","144","695235","0.0-31.0-0.5","SS1618366080399","","","null","","","","","","<p><img src= images/blank.png width =""600"" height = ""600"" style=""position:fixed;top:50%; left:50%; transform: translate(-50%, -50%); border:5px solid black"">","","","","","","","",""
"","7093.004999973346","sequential-stimulus-presentation-old","145","702860","0.0-31.0-1.5","SS1618366080399","trial","","40","500","7593.004999973346","images/stimuli/spore_stims/complex_14_A_a.gif","images/stimuli/spore_stims/complex_08_A_b.gif","forced_long","","11","complex_dissimilar","images/stimuli/spore_stims/complex_14_A_a.gif","","","","",""
"[{""page_index"":0,""viewing_time"":8527.410000038799}]","8530.469999997877","instructions","146","711414","0.0-32.0","SS1618366080399","instructions","","","","","","","","","","","","","","","",""
"","5243.50499996217","survey-likert","147","716678","0.0-33.0","SS1618366080399","similarity_question","","","","","","","","","","","","{""Q0"":3}","[0]","","images/stimuli/spore_stims/simple_14_A_a.gif","images/stimuli/spore_stims/simple_03_A_b.gif"
"","5192.274999979418","survey-likert","148","721892","0.0-34.0","SS1618366080399","similarity_question","","","","","","","","","","","","{""Q0"":4}","[0]","","images/stimuli/spore_stims/simple_14_A_b.gif","images/stimuli/spore_stims/simple_09_A_a.gif"
"","6768.999999971129","survey-likert","149","728685","0.0-35.0","SS1618366080399","similarity_question","","","","","","","","","","","","{""Q0"":0}","[0]","","images/stimuli/spore_stims/complex_04_A_b.gif","images/stimuli/spore_stims/complex_03_A_a.gif"
"","3292.989999987185","survey-likert","150","732005","0.0-36.0","SS1618366080399","similarity_question","","","","","","","","","","","","{""Q0"":0}","[0]","","images/stimuli/spore_stims/complex_12_A_b.gif","images/stimuli/spore_stims/complex_18_A_a.gif"
"","4226.469999994151","survey-likert","151","736254","0.0-37.0","SS1618366080399","similarity_question","","","","","","","","","","","","{""Q0"":5}","[0]","","images/stimuli/spore_stims/simple_08_A_b.gif","images/stimuli/spore_stims/simple_05_A_a.gif"
"","2716.420000011567","survey-likert","152","738989","0.0-38.0","SS1618366080399","similarity_question","","","","","","","","","","","","{""Q0"":0}","[0]","","images/stimuli/spore_stims/complex_16_A_b.gif","images/stimuli/spore_stims/complex_13_A_a.gif"
"","4177.549999963958","survey-likert","153","743189","0.0-39.0","SS1618366080399","similarity_question","","","","","","","","","","","","{""Q0"":0}","[0]","","images/stimuli/spore_stims/complex_08_A_b.gif","images/stimuli/spore_stims/complex_14_A_a.gif"
"","2404.285000055097","survey-likert","154","745613","0.0-40.0","SS1618366080399","similarity_question","","","","","","","","","","","","{""Q0"":0}","[0]","","images/stimuli/spore_stims/complex_06_A_b.gif","images/stimuli/spore_stims/complex_12_A_a.gif"
"","4678.28999995254","survey-likert","155","750309","0.0-41.0","SS1618366080399","similarity_question","","","","","","","","","","","","{""Q0"":3}","[0]","","images/stimuli/spore_stims/simple_17_A_a.gif","images/stimuli/spore_stims/simple_05_A_b.gif"
"","3216.0450000083074","survey-likert","156","753541","0.0-42.0","SS1618366080399","similarity_question","","","","","","","","","","","","{""Q0"":3}","[0]","","images/stimuli/spore_stims/simple_06_A_a.gif","images/stimuli/spore_stims/simple_04_A_b.gif"
"","2775.549999962095","survey-likert","157","756336","0.0-43.0","SS1618366080399","similarity_question","","","","","","","","","","","","{""Q0"":2}","[0]","","images/stimuli/spore_stims/simple_06_A_b.gif","images/stimuli/spore_stims/simple_18_A_a.gif"
"","2344.8699999717064","survey-likert","158","758703","0.0-44.0","SS1618366080399","similarity_question","","","","","","","","","","","","{""Q0"":0}","[0]","","images/stimuli/spore_stims/complex_11_A_b.gif","images/stimuli/spore_stims/complex_02_A_a.gif"
"[{""page_index"":0,""viewing_time"":2785.020000010263}]","2786.474999971688","instructions","159","761509","0.0-45.0","SS1618366080399","instructions","","","","","","","","","","","","","","","",""
"","4583.5450000013225","survey-likert","160","766110","0.0-46.0","SS1618366080399","","","","","","","","","images/stimuli/spore_stims/simple_14_A_a.gif","","","","{""Q0"":0}","[0]","","",""
"","4805.990000022575","survey-likert","161","770936","0.0-47.0","SS1618366080399","","","","","","","","","images/stimuli/spore_stims/complex_16_A_b.gif","","","","{""Q0"":5}","[0]","","",""
"","4831.535000004806","survey-likert","162","775791","0.0-48.0","SS1618366080399","","","","","","","","","images/stimuli/spore_stims/complex_14_A_a.gif","","","","{""Q0"":5}","[0]","","",""
"","2426.9900000072084","survey-likert","163","778248","0.0-49.0","SS1618366080399","","","","","","","","","images/stimuli/spore_stims/simple_05_A_b.gif","","","","{""Q0"":0}","[0]","","",""
"","2407.184999960009","survey-likert","164","780681","0.0-50.0","SS1618366080399","","","","","","","","","images/stimuli/spore_stims/simple_05_A_a.gif","","","","{""Q0"":0}","[0]","","",""
"","3988.130000012461","survey-likert","165","784694","0.0-51.0","SS1618366080399","","","","","","","","","images/stimuli/spore_stims/complex_06_A_b.gif","","","","{""Q0"":6}","[0]","","",""
"","2415.424999955576","survey-likert","166","787126","0.0-52.0","SS1618366080399","","","","","","","","","images/stimuli/spore_stims/simple_04_A_b.gif","","","","{""Q0"":0}","[0]","","",""
"","3960.5849999934435","survey-likert","167","791110","0.0-53.0","SS1618366080399","","","","","","","","","images/stimuli/spore_stims/complex_03_A_a.gif","","","","{""Q0"":4}","[0]","","",""
"","2447.51999998698","survey-likert","168","793574","0.0-54.0","SS1618366080399","","","","","","","","","images/stimuli/spore_stims/simple_18_A_a.gif","","","","{""Q0"":0}","[0]","","",""
"","2194.6450000396","survey-likert","169","795799","0.0-55.0","SS1618366080399","","","","","","","","","images/stimuli/spore_stims/simple_09_A_a.gif","","","","{""Q0"":0}","[0]","","",""
"","2857.0049999980256","survey-likert","170","798679","0.0-56.0","SS1618366080399","","","","","","","","","images/stimuli/spore_stims/complex_02_A_a.gif","","","","{""Q0"":5}","[0]","","",""
"","3053.234999999404","survey-likert","171","801752","0.0-57.0","SS1618366080399","","","","","","","","","images/stimuli/spore_stims/complex_12_A_b.gif","","","","{""Q0"":6}","[0]","","",""
"[{""page_index"":0,""viewing_time"":2046.4900000370108}]","2047.6500000222586","instructions","172","803815","0.0-58.0","SS1618366080399","instructions","","","","","","","","","","","","","","","",""
"","3228.454999974929","demog-age","173","807071","0.0-59.0","SS1618366080399","","","","","","","","","","","","","{""age"":""20""}","","","",""
"","4433.614999987185","demog-ethnic-US","174","811551","0.0-60.0","SS1618366080399","","","","","","","","","","","","","{""ethnicity"":[""Hispanic or Latino""]}","[0]","","",""
"","13284.924999985378","demog-gender-and-education","175","824857","0.0-61.0","SS1618366080399","","","","","","","","","","","","","{""gender"":""Male"",""education"":""Associate Degree/Technical certification""}","[0,1]","","",""
"","23840.905000048224","survey-text","176","848724","0.0-62.0","SS1618366080399","feedback","","","","","","","","","","","","{""Q0"":""No. it's okay everithing ""}","","","",""
"[{""page_index"":0,""viewing_time"":1718.0600000428967}]","1719.1900000325404","instructions","177","850465","0.0-63.0","SS1618366080399","instructions","","","","","","","","","","","","","","","",""
