"view_history","rt","trial_type","trial_index","time_elapsed","internal_node_id","subject","stimulus_type","trial_stimulus","key_press","minimum_viewing_duration","trial_looking_time","block_deviant","block_background","exposure_type","stimulus","block_number","block_type","stimulus_displayed","responses","question_order","math_correct_answer","stimulus_left","stimulus_right"
"[{""page_index"":0,""viewing_time"":30962.675000017043}]","30963.730000017677","instructions","0","30966","0.0-0.0","SS1618435669292","","","","","","","","","","","","","","","","",""
"[{""page_index"":0,""viewing_time"":15702.229999995325},{""page_index"":1,""viewing_time"":6234.465000015916}]","21937.095000001136","instructions","1","54919","0.0-1.0","SS1618435669292","instructions","","","","","","","","","","","","","","","",""
"","8447.82000000123","sequential-stimulus-presentation-old","2","63872","0.0-2.0","SS1618435669292","","","40","500","8947.82000000123","null","null","self_paced","","","","","","","","",""
"","3230.020000017248","sequential-stimulus-presentation-old","3","67611","0.0-3.0","SS1618435669292","","","40","500","3730.020000017248","null","null","self_paced","","","","","","","","",""
"[{""page_index"":0,""viewing_time"":23386.449999990873}]","23386.78499998059","instructions","4","90999","0.0-4.0","SS1618435669292","instructions","","","","","","","","","","","","","","","",""
"","7848.690000013448","sequential-stimulus-presentation-old","5","103860","0.0-5.0","SS1618435669292","","","40","500","8348.690000013448","null","null","forced_long","","","","","","","","",""
"","4056.2449999852106","sequential-stimulus-presentation-old","6","107979","0.0-6.0","SS1618435669292","","","40","50","4106.244999985211","null","null","forced_long","","","","","","","","",""
"[{""page_index"":0,""viewing_time"":5347.060000000056}]","5347.479999996722","instructions","7","113328","0.0-7.0","SS1618435669292","instructions","","","","","","","","","","","","","","","",""
"[{""page_index"":0,""viewing_time"":14805.375000025379},{""page_index"":1,""viewing_time"":5560.3399999963585},{""page_index"":2,""viewing_time"":4246.364999999059},{""page_index"":3,""viewing_time"":1812.7799999783747},{""page_index"":4,""viewing_time"":1940.4600000125356}]","28365.669999999227","instructions","8","141696","0.0-8.0","SS1618435669292","instructions","","","","","","","","","","","","","","","",""
"","null","html-keyboard-response","9","142747","0.0-9.0-0.0","SS1618435669292","","","null","","","","","","<p><img src= images/blank.png width =""600"" height = ""600"" style=""position:fixed;top:50%; left:50%; transform: translate(-50%, -50%); border:5px solid black"">","","","","","","","",""
"","884.0550000022631","sequential-stimulus-presentation-old","10","148645","0.0-9.0-1.0","SS1618435669292","trial","","40","500","1384.0550000022631","images/stimuli/spore_stims/simple_16_A_a.gif","images/stimuli/spore_stims/simple_15_A_b.gif","forced_long","","0","simple_dissimilar","images/stimuli/spore_stims/simple_15_A_b.gif","","","","",""
"","null","html-keyboard-response","11","149691","0.0-9.0-0.1","SS1618435669292","","","null","","","","","","<p><img src= images/blank.png width =""600"" height = ""600"" style=""position:fixed;top:50%; left:50%; transform: translate(-50%, -50%); border:5px solid black"">","","","","","","","",""
"","14250.729999999749","sequential-stimulus-presentation-old","12","164448","0.0-9.0-1.1","SS1618435669292","trial","","40","500","14750.729999999749","images/stimuli/spore_stims/simple_16_A_a.gif","images/stimuli/spore_stims/simple_15_A_b.gif","forced_long","","0","simple_dissimilar","images/stimuli/spore_stims/simple_15_A_b.gif","","","","",""
"","null","html-keyboard-response","13","165465","0.0-9.0-0.2","SS1618435669292","","","null","","","","","","<p><img src= images/blank.png width =""600"" height = ""600"" style=""position:fixed;top:50%; left:50%; transform: translate(-50%, -50%); border:5px solid black"">","","","","","","","",""
"","3459.340000001248","sequential-stimulus-presentation-old","14","169428","0.0-9.0-1.2","SS1618435669292","trial","","40","500","3959.340000001248","images/stimuli/spore_stims/simple_16_A_a.gif","images/stimuli/spore_stims/simple_15_A_b.gif","forced_long","","0","simple_dissimilar","images/stimuli/spore_stims/simple_15_A_b.gif","","","","",""
"","null","html-keyboard-response","15","170437","0.0-9.0-0.3","SS1618435669292","","","null","","","","","","<p><img src= images/blank.png width =""600"" height = ""600"" style=""position:fixed;top:50%; left:50%; transform: translate(-50%, -50%); border:5px solid black"">","","","","","","","",""
"","2701.694999996107","sequential-stimulus-presentation-old","16","173644","0.0-9.0-1.3","SS1618435669292","trial","","40","500","3201.694999996107","images/stimuli/spore_stims/simple_16_A_a.gif","images/stimuli/spore_stims/simple_15_A_b.gif","forced_long","","0","simple_dissimilar","images/stimuli/spore_stims/simple_15_A_b.gif","","","","",""
"","null","html-keyboard-response","17","174608","0.0-9.0-0.4","SS1618435669292","","","null","","","","","","<p><img src= images/blank.png width =""600"" height = ""600"" style=""position:fixed;top:50%; left:50%; transform: translate(-50%, -50%); border:5px solid black"">","","","","","","","",""
"","4213.824999984354","sequential-stimulus-presentation-old","18","179326","0.0-9.0-1.4","SS1618435669292","trial","","40","500","4713.824999984354","images/stimuli/spore_stims/simple_16_A_a.gif","images/stimuli/spore_stims/simple_15_A_b.gif","forced_long","","0","simple_dissimilar","images/stimuli/spore_stims/simple_16_A_a.gif","","","","",""
"","null","html-keyboard-response","19","180511","0.0-9.0-0.5","SS1618435669292","","","null","","","","","","<p><img src= images/blank.png width =""600"" height = ""600"" style=""position:fixed;top:50%; left:50%; transform: translate(-50%, -50%); border:5px solid black"">","","","","","","","",""
"","2667.6750000042375","sequential-stimulus-presentation-old","20","183688","0.0-9.0-1.5","SS1618435669292","trial","","40","500","3167.6750000042375","images/stimuli/spore_stims/simple_16_A_a.gif","images/stimuli/spore_stims/simple_15_A_b.gif","forced_long","","0","simple_dissimilar","images/stimuli/spore_stims/simple_16_A_a.gif","","","","",""
"","2949.7900000133086","survey-multi-choice","21","186641","0.0-10.0","SS1618435669292","math_question","","","","","","","","","","","","{""Q0"":""6""}","[0]","6","",""
"","null","html-keyboard-response","22","187741","0.0-11.0-0.0","SS1618435669292","","","null","","","","","","<p><img src= images/blank.png width =""600"" height = ""600"" style=""position:fixed;top:50%; left:50%; transform: translate(-50%, -50%); border:5px solid black"">","","","","","","","",""
"","899.7600000002421","sequential-stimulus-presentation-old","23","193657","0.0-11.0-1.0","SS1618435669292","trial","","40","500","1399.7600000002421","images/stimuli/spore_stims/complex_20_A_b.gif","images/stimuli/spore_stims/complex_18_A_a.gif","forced_long","","1","complex_dissimilar","images/stimuli/spore_stims/complex_18_A_a.gif","","","","",""
"","null","html-keyboard-response","24","194514","0.0-11.0-0.1","SS1618435669292","","","null","","","","","","<p><img src= images/blank.png width =""600"" height = ""600"" style=""position:fixed;top:50%; left:50%; transform: translate(-50%, -50%); border:5px solid black"">","","","","","","","",""
"","2473.454999999376","sequential-stimulus-presentation-old","25","197492","0.0-11.0-1.1","SS1618435669292","trial","","40","500","2973.454999999376","images/stimuli/spore_stims/complex_20_A_b.gif","images/stimuli/spore_stims/complex_18_A_a.gif","forced_long","","1","complex_dissimilar","images/stimuli/spore_stims/complex_18_A_a.gif","","","","",""
"","null","html-keyboard-response","26","198490","0.0-11.0-0.2","SS1618435669292","","","null","","","","","","<p><img src= images/blank.png width =""600"" height = ""600"" style=""position:fixed;top:50%; left:50%; transform: translate(-50%, -50%); border:5px solid black"">","","","","","","","",""
"","3118.625000002794","sequential-stimulus-presentation-old","27","202114","0.0-11.0-1.2","SS1618435669292","trial","","40","500","3618.625000002794","images/stimuli/spore_stims/complex_20_A_b.gif","images/stimuli/spore_stims/complex_18_A_a.gif","forced_long","","1","complex_dissimilar","images/stimuli/spore_stims/complex_18_A_a.gif","","","","",""
"","null","html-keyboard-response","28","203386","0.0-11.0-0.3","SS1618435669292","","","null","","","","","","<p><img src= images/blank.png width =""600"" height = ""600"" style=""position:fixed;top:50%; left:50%; transform: translate(-50%, -50%); border:5px solid black"">","","","","","","","",""
"","2596.3300000003073","sequential-stimulus-presentation-old","29","206488","0.0-11.0-1.3","SS1618435669292","trial","","40","500","3096.3300000003073","images/stimuli/spore_stims/complex_20_A_b.gif","images/stimuli/spore_stims/complex_18_A_a.gif","forced_long","","1","complex_dissimilar","images/stimuli/spore_stims/complex_18_A_a.gif","","","","",""
"","null","html-keyboard-response","30","207565","0.0-11.0-0.4","SS1618435669292","","","null","","","","","","<p><img src= images/blank.png width =""600"" height = ""600"" style=""position:fixed;top:50%; left:50%; transform: translate(-50%, -50%); border:5px solid black"">","","","","","","","",""
"","1923.2949999859557","sequential-stimulus-presentation-old","31","209993","0.0-11.0-1.4","SS1618435669292","trial","","40","500","2423.2949999859557","images/stimuli/spore_stims/complex_20_A_b.gif","images/stimuli/spore_stims/complex_18_A_a.gif","forced_long","","1","complex_dissimilar","images/stimuli/spore_stims/complex_18_A_a.gif","","","","",""
"","3231.8099999974947","survey-multi-choice","32","213228","0.0-12.0","SS1618435669292","math_question","","","","","","","","","","","","{""Q0"":""8""}","[0]","8","",""
"","null","html-keyboard-response","33","214312","0.0-13.0-0.0","SS1618435669292","","","null","","","","","","<p><img src= images/blank.png width =""600"" height = ""600"" style=""position:fixed;top:50%; left:50%; transform: translate(-50%, -50%); border:5px solid black"">","","","","","","","",""
"","1460.415000008652","sequential-stimulus-presentation-old","34","215835","0.0-13.0-1.0","SS1618435669292","trial","","40","500","1960.415000008652","images/stimuli/spore_stims/complex_13_A_b.gif","images/stimuli/spore_stims/complex_02_A_a.gif","forced_short","","2","complex_dissimilar","images/stimuli/spore_stims/complex_02_A_a.gif","","","","",""
"","null","html-keyboard-response","35","216963","0.0-13.0-0.1","SS1618435669292","","","null","","","","","","<p><img src= images/blank.png width =""600"" height = ""600"" style=""position:fixed;top:50%; left:50%; transform: translate(-50%, -50%); border:5px solid black"">","","","","","","","",""
"","3045.9050000063144","sequential-stimulus-presentation-old","36","220514","0.0-13.0-1.1","SS1618435669292","trial","","40","500","3545.9050000063144","images/stimuli/spore_stims/complex_13_A_b.gif","images/stimuli/spore_stims/complex_02_A_a.gif","forced_short","","2","complex_dissimilar","images/stimuli/spore_stims/complex_02_A_a.gif","","","","",""
"","null","html-keyboard-response","37","221625","0.0-13.0-0.2","SS1618435669292","","","null","","","","","","<p><img src= images/blank.png width =""600"" height = ""600"" style=""position:fixed;top:50%; left:50%; transform: translate(-50%, -50%); border:5px solid black"">","","","","","","","",""
"","2066.980000003241","sequential-stimulus-presentation-old","38","224196","0.0-13.0-1.2","SS1618435669292","trial","","40","500","2566.980000003241","images/stimuli/spore_stims/complex_13_A_b.gif","images/stimuli/spore_stims/complex_02_A_a.gif","forced_short","","2","complex_dissimilar","images/stimuli/spore_stims/complex_02_A_a.gif","","","","",""
"","null","html-keyboard-response","39","225032","0.0-13.0-0.3","SS1618435669292","","","null","","","","","","<p><img src= images/blank.png width =""600"" height = ""600"" style=""position:fixed;top:50%; left:50%; transform: translate(-50%, -50%); border:5px solid black"">","","","","","","","",""
"","1674.2650000087451","sequential-stimulus-presentation-old","40","227211","0.0-13.0-1.3","SS1618435669292","trial","","40","500","2174.265000008745","images/stimuli/spore_stims/complex_13_A_b.gif","images/stimuli/spore_stims/complex_02_A_a.gif","forced_short","","2","complex_dissimilar","images/stimuli/spore_stims/complex_02_A_a.gif","","","","",""
"","3656.764999992447","survey-multi-choice","41","230870","0.0-14.0","SS1618435669292","math_question","","","","","","","","","","","","{""Q0"":""16""}","[0]","16","",""
"","null","html-keyboard-response","42","232176","0.0-15.0-0.0","SS1618435669292","","","null","","","","","","<p><img src= images/blank.png width =""600"" height = ""600"" style=""position:fixed;top:50%; left:50%; transform: translate(-50%, -50%); border:5px solid black"">","","","","","","","",""
"","2119.574999989709","sequential-stimulus-presentation-old","43","234801","0.0-15.0-1.0","SS1618435669292","trial","","40","500","2619.574999989709","images/stimuli/spore_stims/simple_13_A_a.gif","images/stimuli/spore_stims/simple_14_A_b.gif","self_paced","","3","simple_dissimilar","images/stimuli/spore_stims/simple_14_A_b.gif","","","","",""
"","null","html-keyboard-response","44","235998","0.0-15.0-0.1","SS1618435669292","","","null","","","","","","<p><img src= images/blank.png width =""600"" height = ""600"" style=""position:fixed;top:50%; left:50%; transform: translate(-50%, -50%); border:5px solid black"">","","","","","","","",""
"","1233.4649999975227","sequential-stimulus-presentation-old","45","237736","0.0-15.0-1.1","SS1618435669292","trial","","40","500","1733.4649999975227","images/stimuli/spore_stims/simple_13_A_a.gif","images/stimuli/spore_stims/simple_14_A_b.gif","self_paced","","3","simple_dissimilar","images/stimuli/spore_stims/simple_14_A_b.gif","","","","",""
"","null","html-keyboard-response","46","238582","0.0-15.0-0.2","SS1618435669292","","","null","","","","","","<p><img src= images/blank.png width =""600"" height = ""600"" style=""position:fixed;top:50%; left:50%; transform: translate(-50%, -50%); border:5px solid black"">","","","","","","","",""
"","2372.015000000829","sequential-stimulus-presentation-old","47","241458","0.0-15.0-1.2","SS1618435669292","trial","","40","500","2872.015000000829","images/stimuli/spore_stims/simple_13_A_a.gif","images/stimuli/spore_stims/simple_14_A_b.gif","self_paced","","3","simple_dissimilar","images/stimuli/spore_stims/simple_14_A_b.gif","","","","",""
"","null","html-keyboard-response","48","242647","0.0-15.0-0.3","SS1618435669292","","","null","","","","","","<p><img src= images/blank.png width =""600"" height = ""600"" style=""position:fixed;top:50%; left:50%; transform: translate(-50%, -50%); border:5px solid black"">","","","","","","","",""
"","988.5850000136998","sequential-stimulus-presentation-old","49","244141","0.0-15.0-1.3","SS1618435669292","trial","","40","500","1488.5850000136998","images/stimuli/spore_stims/simple_13_A_a.gif","images/stimuli/spore_stims/simple_14_A_b.gif","self_paced","","3","simple_dissimilar","images/stimuli/spore_stims/simple_14_A_b.gif","","","","",""
"","null","html-keyboard-response","50","245316","0.0-15.0-0.4","SS1618435669292","","","null","","","","","","<p><img src= images/blank.png width =""600"" height = ""600"" style=""position:fixed;top:50%; left:50%; transform: translate(-50%, -50%); border:5px solid black"">","","","","","","","",""
"","1597.475000016857","sequential-stimulus-presentation-old","51","247418","0.0-15.0-1.4","SS1618435669292","trial","","40","500","2097.475000016857","images/stimuli/spore_stims/simple_13_A_a.gif","images/stimuli/spore_stims/simple_14_A_b.gif","self_paced","","3","simple_dissimilar","images/stimuli/spore_stims/simple_14_A_b.gif","","","","",""
"","null","html-keyboard-response","52","248680","0.0-15.0-0.5","SS1618435669292","","","null","","","","","","<p><img src= images/blank.png width =""600"" height = ""600"" style=""position:fixed;top:50%; left:50%; transform: translate(-50%, -50%); border:5px solid black"">","","","","","","","",""
"","3404.435000004014","sequential-stimulus-presentation-old","53","252589","0.0-15.0-1.5","SS1618435669292","trial","","40","500","3904.435000004014","images/stimuli/spore_stims/simple_13_A_a.gif","images/stimuli/spore_stims/simple_14_A_b.gif","self_paced","","3","simple_dissimilar","images/stimuli/spore_stims/simple_14_A_b.gif","","","","",""
"","5507.55000000936","survey-multi-choice","54","258100","0.0-16.0","SS1618435669292","math_question","","","","","","","","","","","","{""Q0"":""8""}","[0]","8","",""
"","null","html-keyboard-response","55","259074","0.0-17.0-0.0","SS1618435669292","","","null","","","","","","<p><img src= images/blank.png width =""600"" height = ""600"" style=""position:fixed;top:50%; left:50%; transform: translate(-50%, -50%); border:5px solid black"">","","","","","","","",""
"","2202.885000006063","sequential-stimulus-presentation-old","56","261782","0.0-17.0-1.0","SS1618435669292","trial","","40","500","2702.885000006063","images/stimuli/spore_stims/simple_17_A_a.gif","images/stimuli/spore_stims/simple_13_A_b.gif","self_paced","","4","simple_dissimilar","images/stimuli/spore_stims/simple_13_A_b.gif","","","","",""
"","null","html-keyboard-response","57","262660","0.0-17.0-0.1","SS1618435669292","","","null","","","","","","<p><img src= images/blank.png width =""600"" height = ""600"" style=""position:fixed;top:50%; left:50%; transform: translate(-50%, -50%); border:5px solid black"">","","","","","","","",""
"","1962.1399999887217","sequential-stimulus-presentation-old","58","265126","0.0-17.0-1.1","SS1618435669292","trial","","40","500","2462.1399999887217","images/stimuli/spore_stims/simple_17_A_a.gif","images/stimuli/spore_stims/simple_13_A_b.gif","self_paced","","4","simple_dissimilar","images/stimuli/spore_stims/simple_13_A_b.gif","","","","",""
"","null","html-keyboard-response","59","266252","0.0-17.0-0.2","SS1618435669292","","","null","","","","","","<p><img src= images/blank.png width =""600"" height = ""600"" style=""position:fixed;top:50%; left:50%; transform: translate(-50%, -50%); border:5px solid black"">","","","","","","","",""
"","2115.990000020247","sequential-stimulus-presentation-old","60","268873","0.0-17.0-1.2","SS1618435669292","trial","","40","500","2615.990000020247","images/stimuli/spore_stims/simple_17_A_a.gif","images/stimuli/spore_stims/simple_13_A_b.gif","self_paced","","4","simple_dissimilar","images/stimuli/spore_stims/simple_13_A_b.gif","","","","",""
"","null","html-keyboard-response","61","270085","0.0-17.0-0.3","SS1618435669292","","","null","","","","","","<p><img src= images/blank.png width =""600"" height = ""600"" style=""position:fixed;top:50%; left:50%; transform: translate(-50%, -50%); border:5px solid black"">","","","","","","","",""
"","2040.4649999982212","sequential-stimulus-presentation-old","62","272631","0.0-17.0-1.3","SS1618435669292","trial","","40","500","2540.464999998221","images/stimuli/spore_stims/simple_17_A_a.gif","images/stimuli/spore_stims/simple_13_A_b.gif","self_paced","","4","simple_dissimilar","images/stimuli/spore_stims/simple_13_A_b.gif","","","","",""
"","null","html-keyboard-response","63","273751","0.0-17.0-0.4","SS1618435669292","","","null","","","","","","<p><img src= images/blank.png width =""600"" height = ""600"" style=""position:fixed;top:50%; left:50%; transform: translate(-50%, -50%); border:5px solid black"">","","","","","","","",""
"","1890.494999999646","sequential-stimulus-presentation-old","64","276146","0.0-17.0-1.4","SS1618435669292","trial","","40","500","2390.494999999646","images/stimuli/spore_stims/simple_17_A_a.gif","images/stimuli/spore_stims/simple_13_A_b.gif","self_paced","","4","simple_dissimilar","images/stimuli/spore_stims/simple_13_A_b.gif","","","","",""
"","null","html-keyboard-response","65","277127","0.0-17.0-0.5","SS1618435669292","","","null","","","","","","<p><img src= images/blank.png width =""600"" height = ""600"" style=""position:fixed;top:50%; left:50%; transform: translate(-50%, -50%); border:5px solid black"">","","","","","","","",""
"","1353.2650000124704","sequential-stimulus-presentation-old","66","278986","0.0-17.0-1.5","SS1618435669292","trial","","40","500","1853.2650000124704","images/stimuli/spore_stims/simple_17_A_a.gif","images/stimuli/spore_stims/simple_13_A_b.gif","self_paced","","4","simple_dissimilar","images/stimuli/spore_stims/simple_13_A_b.gif","","","","",""
"","3221.1799999931827","survey-multi-choice","67","282211","0.0-18.0","SS1618435669292","math_question","","","","","","","","","","","","{""Q0"":""7""}","[0]","7","",""
"","null","html-keyboard-response","68","283334","0.0-19.0-0.0","SS1618435669292","","","null","","","","","","<p><img src= images/blank.png width =""600"" height = ""600"" style=""position:fixed;top:50%; left:50%; transform: translate(-50%, -50%); border:5px solid black"">","","","","","","","",""
"","3999.9099999840837","sequential-stimulus-presentation-old","69","287842","0.0-19.0-1.0","SS1618435669292","trial","","40","500","4499.909999984084","images/stimuli/spore_stims/complex_13_A_a.gif","images/stimuli/spore_stims/complex_04_A_b.gif","self_paced","","5","complex_dissimilar","images/stimuli/spore_stims/complex_04_A_b.gif","","","","",""
"","null","html-keyboard-response","70","288874","0.0-19.0-0.1","SS1618435669292","","","null","","","","","","<p><img src= images/blank.png width =""600"" height = ""600"" style=""position:fixed;top:50%; left:50%; transform: translate(-50%, -50%); border:5px solid black"">","","","","","","","",""
"","3072.1400000038557","sequential-stimulus-presentation-old","71","292451","0.0-19.0-1.1","SS1618435669292","trial","","40","500","3572.1400000038557","images/stimuli/spore_stims/complex_13_A_a.gif","images/stimuli/spore_stims/complex_04_A_b.gif","self_paced","","5","complex_dissimilar","images/stimuli/spore_stims/complex_13_A_a.gif","","","","",""
"","null","html-keyboard-response","72","293670","0.0-19.0-0.2","SS1618435669292","","","null","","","","","","<p><img src= images/blank.png width =""600"" height = ""600"" style=""position:fixed;top:50%; left:50%; transform: translate(-50%, -50%); border:5px solid black"">","","","","","","","",""
"","3229.1750000149477","sequential-stimulus-presentation-old","73","297418","0.0-19.0-1.2","SS1618435669292","trial","","40","500","3729.1750000149477","images/stimuli/spore_stims/complex_13_A_a.gif","images/stimuli/spore_stims/complex_04_A_b.gif","self_paced","","5","complex_dissimilar","images/stimuli/spore_stims/complex_13_A_a.gif","","","","",""
"","null","html-keyboard-response","74","298655","0.0-19.0-0.3","SS1618435669292","","","null","","","","","","<p><img src= images/blank.png width =""600"" height = ""600"" style=""position:fixed;top:50%; left:50%; transform: translate(-50%, -50%); border:5px solid black"">","","","","","","","",""
"","2776.24000000651","sequential-stimulus-presentation-old","75","301936","0.0-19.0-1.3","SS1618435669292","trial","","40","500","3276.24000000651","images/stimuli/spore_stims/complex_13_A_a.gif","images/stimuli/spore_stims/complex_04_A_b.gif","self_paced","","5","complex_dissimilar","images/stimuli/spore_stims/complex_04_A_b.gif","","","","",""
"","2813.640000007581","survey-multi-choice","76","304753","0.0-20.0","SS1618435669292","math_question","","","","","","","","","","","","{""Q0"":""7""}","[0]","7","",""
"","null","html-keyboard-response","77","305767","0.0-21.0-0.0","SS1618435669292","","","null","","","","","","<p><img src= images/blank.png width =""600"" height = ""600"" style=""position:fixed;top:50%; left:50%; transform: translate(-50%, -50%); border:5px solid black"">","","","","","","","",""
"","1149.2599999764934","sequential-stimulus-presentation-old","78","311923","0.0-21.0-1.0","SS1618435669292","trial","","40","500","1649.2599999764934","images/stimuli/spore_stims/simple_04_A_b.gif","images/stimuli/spore_stims/simple_11_A_a.gif","forced_long","","6","simple_dissimilar","images/stimuli/spore_stims/simple_11_A_a.gif","","","","",""
"","null","html-keyboard-response","79","312752","0.0-21.0-0.1","SS1618435669292","","","null","","","","","","<p><img src= images/blank.png width =""600"" height = ""600"" style=""position:fixed;top:50%; left:50%; transform: translate(-50%, -50%); border:5px solid black"">","","","","","","","",""
"","1666.9750000000931","sequential-stimulus-presentation-old","80","314924","0.0-21.0-1.1","SS1618435669292","trial","","40","500","2166.975000000093","images/stimuli/spore_stims/simple_04_A_b.gif","images/stimuli/spore_stims/simple_11_A_a.gif","forced_long","","6","simple_dissimilar","images/stimuli/spore_stims/simple_11_A_a.gif","","","","",""
"","null","html-keyboard-response","81","316119","0.0-21.0-0.2","SS1618435669292","","","null","","","","","","<p><img src= images/blank.png width =""600"" height = ""600"" style=""position:fixed;top:50%; left:50%; transform: translate(-50%, -50%); border:5px solid black"">","","","","","","","",""
"","1448.9450000110082","sequential-stimulus-presentation-old","82","318074","0.0-21.0-1.2","SS1618435669292","trial","","40","500","1948.9450000110082","images/stimuli/spore_stims/simple_04_A_b.gif","images/stimuli/spore_stims/simple_11_A_a.gif","forced_long","","6","simple_dissimilar","images/stimuli/spore_stims/simple_04_A_b.gif","","","","",""
"","null","html-keyboard-response","83","319041","0.0-21.0-0.3","SS1618435669292","","","null","","","","","","<p><img src= images/blank.png width =""600"" height = ""600"" style=""position:fixed;top:50%; left:50%; transform: translate(-50%, -50%); border:5px solid black"">","","","","","","","",""
"","973.6899999843445","sequential-stimulus-presentation-old","84","320530","0.0-21.0-1.3","SS1618435669292","trial","","40","500","1473.6899999843445","images/stimuli/spore_stims/simple_04_A_b.gif","images/stimuli/spore_stims/simple_11_A_a.gif","forced_long","","6","simple_dissimilar","images/stimuli/spore_stims/simple_11_A_a.gif","","","","",""
"","null","html-keyboard-response","85","321834","0.0-21.0-0.4","SS1618435669292","","","null","","","","","","<p><img src= images/blank.png width =""600"" height = ""600"" style=""position:fixed;top:50%; left:50%; transform: translate(-50%, -50%); border:5px solid black"">","","","","","","","",""
"","826.0400000144728","sequential-stimulus-presentation-old","86","323178","0.0-21.0-1.4","SS1618435669292","trial","","40","500","1326.0400000144728","images/stimuli/spore_stims/simple_04_A_b.gif","images/stimuli/spore_stims/simple_11_A_a.gif","forced_long","","6","simple_dissimilar","images/stimuli/spore_stims/simple_11_A_a.gif","","","","",""
"","null","html-keyboard-response","87","324377","0.0-21.0-0.5","SS1618435669292","","","null","","","","","","<p><img src= images/blank.png width =""600"" height = ""600"" style=""position:fixed;top:50%; left:50%; transform: translate(-50%, -50%); border:5px solid black"">","","","","","","","",""
"","836.5749999938998","sequential-stimulus-presentation-old","88","325719","0.0-21.0-1.5","SS1618435669292","trial","","40","500","1336.5749999938998","images/stimuli/spore_stims/simple_04_A_b.gif","images/stimuli/spore_stims/simple_11_A_a.gif","forced_long","","6","simple_dissimilar","images/stimuli/spore_stims/simple_11_A_a.gif","","","","",""
"","3231.534999998985","survey-multi-choice","89","328954","0.0-22.0","SS1618435669292","math_question","","","","","","","","","","","","{""Q0"":""13""}","[0]","13","",""
"","null","html-keyboard-response","90","330048","0.0-23.0-0.0","SS1618435669292","","","null","","","","","","<p><img src= images/blank.png width =""600"" height = ""600"" style=""position:fixed;top:50%; left:50%; transform: translate(-50%, -50%); border:5px solid black"">","","","","","","","",""
"","2905.114999972284","sequential-stimulus-presentation-old","91","333460","0.0-23.0-1.0","SS1618435669292","trial","","40","500","3405.114999972284","images/stimuli/spore_stims/complex_01_A_a.gif","images/stimuli/spore_stims/complex_17_A_b.gif","self_paced","","7","complex_dissimilar","images/stimuli/spore_stims/complex_17_A_b.gif","","","","",""
"","null","html-keyboard-response","92","334685","0.0-23.0-0.1","SS1618435669292","","","null","","","","","","<p><img src= images/blank.png width =""600"" height = ""600"" style=""position:fixed;top:50%; left:50%; transform: translate(-50%, -50%); border:5px solid black"">","","","","","","","",""
"","1638.6699999857228","sequential-stimulus-presentation-old","93","336838","0.0-23.0-1.1","SS1618435669292","trial","","40","500","2138.669999985723","images/stimuli/spore_stims/complex_01_A_a.gif","images/stimuli/spore_stims/complex_17_A_b.gif","self_paced","","7","complex_dissimilar","images/stimuli/spore_stims/complex_17_A_b.gif","","","","",""
"","null","html-keyboard-response","94","338127","0.0-23.0-0.2","SS1618435669292","","","null","","","","","","<p><img src= images/blank.png width =""600"" height = ""600"" style=""position:fixed;top:50%; left:50%; transform: translate(-50%, -50%); border:5px solid black"">","","","","","","","",""
"","3256.3349999836646","sequential-stimulus-presentation-old","95","341889","0.0-23.0-1.2","SS1618435669292","trial","","40","500","3756.3349999836646","images/stimuli/spore_stims/complex_01_A_a.gif","images/stimuli/spore_stims/complex_17_A_b.gif","self_paced","","7","complex_dissimilar","images/stimuli/spore_stims/complex_01_A_a.gif","","","","",""
"","null","html-keyboard-response","96","343069","0.0-23.0-0.3","SS1618435669292","","","null","","","","","","<p><img src= images/blank.png width =""600"" height = ""600"" style=""position:fixed;top:50%; left:50%; transform: translate(-50%, -50%); border:5px solid black"">","","","","","","","",""
"","1183.3299999998417","sequential-stimulus-presentation-old","97","344759","0.0-23.0-1.3","SS1618435669292","trial","","40","500","1683.3299999998417","images/stimuli/spore_stims/complex_01_A_a.gif","images/stimuli/spore_stims/complex_17_A_b.gif","self_paced","","7","complex_dissimilar","images/stimuli/spore_stims/complex_17_A_b.gif","","","","",""
"","2992.8000000072643","survey-multi-choice","98","347757","0.0-24.0","SS1618435669292","math_question","","","","","","","","","","","","{""Q0"":""10""}","[0]","10","",""
"","null","html-keyboard-response","99","348763","0.0-25.0-0.0","SS1618435669292","","","null","","","","","","<p><img src= images/blank.png width =""600"" height = ""600"" style=""position:fixed;top:50%; left:50%; transform: translate(-50%, -50%); border:5px solid black"">","","","","","","","",""
"","1150.6800000206567","sequential-stimulus-presentation-old","100","349970","0.0-25.0-1.0","SS1618435669292","trial","","40","500","1650.6800000206567","images/stimuli/spore_stims/simple_06_A_a.gif","images/stimuli/spore_stims/simple_02_A_b.gif","forced_short","","8","simple_dissimilar","images/stimuli/spore_stims/simple_02_A_b.gif","","","","",""
"","null","html-keyboard-response","101","351050","0.0-25.0-0.1","SS1618435669292","","","null","","","","","","<p><img src= images/blank.png width =""600"" height = ""600"" style=""position:fixed;top:50%; left:50%; transform: translate(-50%, -50%); border:5px solid black"">","","","","","","","",""
"","1881.6149999911431","sequential-stimulus-presentation-old","102","353448","0.0-25.0-1.1","SS1618435669292","trial","","40","500","2381.614999991143","images/stimuli/spore_stims/simple_06_A_a.gif","images/stimuli/spore_stims/simple_02_A_b.gif","forced_short","","8","simple_dissimilar","images/stimuli/spore_stims/simple_06_A_a.gif","","","","",""
"","null","html-keyboard-response","103","354338","0.0-25.0-0.2","SS1618435669292","","","null","","","","","","<p><img src= images/blank.png width =""600"" height = ""600"" style=""position:fixed;top:50%; left:50%; transform: translate(-50%, -50%); border:5px solid black"">","","","","","","","",""
"","1666.8700000154786","sequential-stimulus-presentation-old","104","356511","0.0-25.0-1.2","SS1618435669292","trial","","40","500","2166.8700000154786","images/stimuli/spore_stims/simple_06_A_a.gif","images/stimuli/spore_stims/simple_02_A_b.gif","forced_short","","8","simple_dissimilar","images/stimuli/spore_stims/simple_06_A_a.gif","","","","",""
"","null","html-keyboard-response","105","357796","0.0-25.0-0.3","SS1618435669292","","","null","","","","","","<p><img src= images/blank.png width =""600"" height = ""600"" style=""position:fixed;top:50%; left:50%; transform: translate(-50%, -50%); border:5px solid black"">","","","","","","","",""
"","1567.8749999788124","sequential-stimulus-presentation-old","106","359869","0.0-25.0-1.3","SS1618435669292","trial","","40","500","2067.8749999788124","images/stimuli/spore_stims/simple_06_A_a.gif","images/stimuli/spore_stims/simple_02_A_b.gif","forced_short","","8","simple_dissimilar","images/stimuli/spore_stims/simple_02_A_b.gif","","","","",""
"","3860.8099999837577","survey-multi-choice","107","363734","0.0-26.0","SS1618435669292","math_question","","","","","","","","","","","","{""Q0"":""13""}","[0]","13","",""
"","null","html-keyboard-response","108","365006","0.0-27.0-0.0","SS1618435669292","","","null","","","","","","<p><img src= images/blank.png width =""600"" height = ""600"" style=""position:fixed;top:50%; left:50%; transform: translate(-50%, -50%); border:5px solid black"">","","","","","","","",""
"","994.7300000058021","sequential-stimulus-presentation-old","109","366066","0.0-27.0-1.0","SS1618435669292","trial","","40","500","1494.7300000058021","images/stimuli/spore_stims/simple_16_A_b.gif","images/stimuli/spore_stims/simple_15_A_a.gif","forced_short","","9","simple_dissimilar","images/stimuli/spore_stims/simple_15_A_a.gif","","","","",""
"","null","html-keyboard-response","110","367373","0.0-27.0-0.1","SS1618435669292","","","null","","","","","","<p><img src= images/blank.png width =""600"" height = ""600"" style=""position:fixed;top:50%; left:50%; transform: translate(-50%, -50%); border:5px solid black"">","","","","","","","",""
"","752.9150000191294","sequential-stimulus-presentation-old","111","368632","0.0-27.0-1.1","SS1618435669292","trial","","40","500","1252.9150000191294","images/stimuli/spore_stims/simple_16_A_b.gif","images/stimuli/spore_stims/simple_15_A_a.gif","forced_short","","9","simple_dissimilar","images/stimuli/spore_stims/simple_15_A_a.gif","","","","",""
"","null","html-keyboard-response","112","369698","0.0-27.0-0.2","SS1618435669292","","","null","","","","","","<p><img src= images/blank.png width =""600"" height = ""600"" style=""position:fixed;top:50%; left:50%; transform: translate(-50%, -50%); border:5px solid black"">","","","","","","","",""
"","903.310000023339","sequential-stimulus-presentation-old","113","371116","0.0-27.0-1.2","SS1618435669292","trial","","40","500","1403.310000023339","images/stimuli/spore_stims/simple_16_A_b.gif","images/stimuli/spore_stims/simple_15_A_a.gif","forced_short","","9","simple_dissimilar","images/stimuli/spore_stims/simple_15_A_a.gif","","","","",""
"","null","html-keyboard-response","114","372082","0.0-27.0-0.3","SS1618435669292","","","null","","","","","","<p><img src= images/blank.png width =""600"" height = ""600"" style=""position:fixed;top:50%; left:50%; transform: translate(-50%, -50%); border:5px solid black"">","","","","","","","",""
"","2331.9900000060443","sequential-stimulus-presentation-old","115","374920","0.0-27.0-1.3","SS1618435669292","trial","","40","500","2831.9900000060443","images/stimuli/spore_stims/simple_16_A_b.gif","images/stimuli/spore_stims/simple_15_A_a.gif","forced_short","","9","simple_dissimilar","images/stimuli/spore_stims/simple_15_A_a.gif","","","","",""
"","null","html-keyboard-response","116","376093","0.0-27.0-0.4","SS1618435669292","","","null","","","","","","<p><img src= images/blank.png width =""600"" height = ""600"" style=""position:fixed;top:50%; left:50%; transform: translate(-50%, -50%); border:5px solid black"">","","","","","","","",""
"","820.544999995036","sequential-stimulus-presentation-old","117","377432","0.0-27.0-1.4","SS1618435669292","trial","","40","500","1320.544999995036","images/stimuli/spore_stims/simple_16_A_b.gif","images/stimuli/spore_stims/simple_15_A_a.gif","forced_short","","9","simple_dissimilar","images/stimuli/spore_stims/simple_15_A_a.gif","","","","",""
"","null","html-keyboard-response","118","378681","0.0-27.0-0.5","SS1618435669292","","","null","","","","","","<p><img src= images/blank.png width =""600"" height = ""600"" style=""position:fixed;top:50%; left:50%; transform: translate(-50%, -50%); border:5px solid black"">","","","","","","","",""
"","733.8900000031572","sequential-stimulus-presentation-old","119","379920","0.0-27.0-1.5","SS1618435669292","trial","","40","500","1233.8900000031572","images/stimuli/spore_stims/simple_16_A_b.gif","images/stimuli/spore_stims/simple_15_A_a.gif","forced_short","","9","simple_dissimilar","images/stimuli/spore_stims/simple_15_A_a.gif","","","","",""
"","5828.184999991208","survey-multi-choice","120","385752","0.0-28.0","SS1618435669292","math_question","","","","","","","","","","","","{""Q0"":""12""}","[0]","12","",""
"","null","html-keyboard-response","121","386943","0.0-29.0-0.0","SS1618435669292","","","null","","","","","","<p><img src= images/blank.png width =""600"" height = ""600"" style=""position:fixed;top:50%; left:50%; transform: translate(-50%, -50%); border:5px solid black"">","","","","","","","",""
"","2676.9250000070315","sequential-stimulus-presentation-old","122","394627","0.0-29.0-1.0","SS1618435669292","trial","","40","500","3176.9250000070315","images/stimuli/spore_stims/complex_08_A_b.gif","images/stimuli/spore_stims/complex_05_A_a.gif","forced_long","","10","complex_dissimilar","images/stimuli/spore_stims/complex_05_A_a.gif","","","","",""
"","null","html-keyboard-response","123","395917","0.0-29.0-0.1","SS1618435669292","","","null","","","","","","<p><img src= images/blank.png width =""600"" height = ""600"" style=""position:fixed;top:50%; left:50%; transform: translate(-50%, -50%); border:5px solid black"">","","","","","","","",""
"","3222.394999989774","sequential-stimulus-presentation-old","124","399658","0.0-29.0-1.1","SS1618435669292","trial","","40","500","3722.394999989774","images/stimuli/spore_stims/complex_08_A_b.gif","images/stimuli/spore_stims/complex_05_A_a.gif","forced_long","","10","complex_dissimilar","images/stimuli/spore_stims/complex_08_A_b.gif","","","","",""
"","null","html-keyboard-response","125","400532","0.0-29.0-0.2","SS1618435669292","","","null","","","","","","<p><img src= images/blank.png width =""600"" height = ""600"" style=""position:fixed;top:50%; left:50%; transform: translate(-50%, -50%); border:5px solid black"">","","","","","","","",""
"","3017.0100000104867","sequential-stimulus-presentation-old","126","404058","0.0-29.0-1.2","SS1618435669292","trial","","40","500","3517.0100000104867","images/stimuli/spore_stims/complex_08_A_b.gif","images/stimuli/spore_stims/complex_05_A_a.gif","forced_long","","10","complex_dissimilar","images/stimuli/spore_stims/complex_05_A_a.gif","","","","",""
"","null","html-keyboard-response","127","404966","0.0-29.0-0.3","SS1618435669292","","","null","","","","","","<p><img src= images/blank.png width =""600"" height = ""600"" style=""position:fixed;top:50%; left:50%; transform: translate(-50%, -50%); border:5px solid black"">","","","","","","","",""
"","1313.8099999923725","sequential-stimulus-presentation-old","128","406787","0.0-29.0-1.3","SS1618435669292","trial","","40","500","1813.8099999923725","images/stimuli/spore_stims/complex_08_A_b.gif","images/stimuli/spore_stims/complex_05_A_a.gif","forced_long","","10","complex_dissimilar","images/stimuli/spore_stims/complex_05_A_a.gif","","","","",""
"","null","html-keyboard-response","129","407749","0.0-29.0-0.4","SS1618435669292","","","null","","","","","","<p><img src= images/blank.png width =""600"" height = ""600"" style=""position:fixed;top:50%; left:50%; transform: translate(-50%, -50%); border:5px solid black"">","","","","","","","",""
"","806.2949999875855","sequential-stimulus-presentation-old","130","409061","0.0-29.0-1.4","SS1618435669292","trial","","40","500","1306.2949999875855","images/stimuli/spore_stims/complex_08_A_b.gif","images/stimuli/spore_stims/complex_05_A_a.gif","forced_long","","10","complex_dissimilar","images/stimuli/spore_stims/complex_05_A_a.gif","","","","",""
"","3129.3799999984913","survey-multi-choice","131","412196","0.0-30.0","SS1618435669292","math_question","","","","","","","","","","","","{""Q0"":""11""}","[0]","11","",""
"","null","html-keyboard-response","132","413196","0.0-31.0-0.0","SS1618435669292","","","null","","","","","","<p><img src= images/blank.png width =""600"" height = ""600"" style=""position:fixed;top:50%; left:50%; transform: translate(-50%, -50%); border:5px solid black"">","","","","","","","",""
"","1152.1099999954458","sequential-stimulus-presentation-old","133","414410","0.0-31.0-1.0","SS1618435669292","trial","","40","500","1652.1099999954458","images/stimuli/spore_stims/complex_14_A_b.gif","images/stimuli/spore_stims/complex_10_A_a.gif","forced_short","","11","complex_dissimilar","images/stimuli/spore_stims/complex_10_A_a.gif","","","","",""
"","null","html-keyboard-response","134","415614","0.0-31.0-0.1","SS1618435669292","","","null","","","","","","<p><img src= images/blank.png width =""600"" height = ""600"" style=""position:fixed;top:50%; left:50%; transform: translate(-50%, -50%); border:5px solid black"">","","","","","","","",""
"","3567.734999989625","sequential-stimulus-presentation-old","135","419688","0.0-31.0-1.1","SS1618435669292","trial","","40","500","4067.734999989625","images/stimuli/spore_stims/complex_14_A_b.gif","images/stimuli/spore_stims/complex_10_A_a.gif","forced_short","","11","complex_dissimilar","images/stimuli/spore_stims/complex_14_A_b.gif","","","","",""
"","null","html-keyboard-response","136","420738","0.0-31.0-0.2","SS1618435669292","","","null","","","","","","<p><img src= images/blank.png width =""600"" height = ""600"" style=""position:fixed;top:50%; left:50%; transform: translate(-50%, -50%); border:5px solid black"">","","","","","","","",""
"","1751.300000003539","sequential-stimulus-presentation-old","137","422996","0.0-31.0-1.2","SS1618435669292","trial","","40","500","2251.300000003539","images/stimuli/spore_stims/complex_14_A_b.gif","images/stimuli/spore_stims/complex_10_A_a.gif","forced_short","","11","complex_dissimilar","images/stimuli/spore_stims/complex_10_A_a.gif","","","","",""
"","null","html-keyboard-response","138","423988","0.0-31.0-0.3","SS1618435669292","","","null","","","","","","<p><img src= images/blank.png width =""600"" height = ""600"" style=""position:fixed;top:50%; left:50%; transform: translate(-50%, -50%); border:5px solid black"">","","","","","","","",""
"","1616.6450000018813","sequential-stimulus-presentation-old","139","426112","0.0-31.0-1.3","SS1618435669292","trial","","40","500","2116.6450000018813","images/stimuli/spore_stims/complex_14_A_b.gif","images/stimuli/spore_stims/complex_10_A_a.gif","forced_short","","11","complex_dissimilar","images/stimuli/spore_stims/complex_10_A_a.gif","","","","",""
"","null","html-keyboard-response","140","427232","0.0-31.0-0.4","SS1618435669292","","","null","","","","","","<p><img src= images/blank.png width =""600"" height = ""600"" style=""position:fixed;top:50%; left:50%; transform: translate(-50%, -50%); border:5px solid black"">","","","","","","","",""
"","827.0100000081584","sequential-stimulus-presentation-old","141","428565","0.0-31.0-1.4","SS1618435669292","trial","","40","500","1327.0100000081584","images/stimuli/spore_stims/complex_14_A_b.gif","images/stimuli/spore_stims/complex_10_A_a.gif","forced_short","","11","complex_dissimilar","images/stimuli/spore_stims/complex_10_A_a.gif","","","","",""
"","null","html-keyboard-response","142","429494","0.0-31.0-0.5","SS1618435669292","","","null","","","","","","<p><img src= images/blank.png width =""600"" height = ""600"" style=""position:fixed;top:50%; left:50%; transform: translate(-50%, -50%); border:5px solid black"">","","","","","","","",""
"","1328.9999999979045","sequential-stimulus-presentation-old","143","431328","0.0-31.0-1.5","SS1618435669292","trial","","40","500","1828.9999999979045","images/stimuli/spore_stims/complex_14_A_b.gif","images/stimuli/spore_stims/complex_10_A_a.gif","forced_short","","11","complex_dissimilar","images/stimuli/spore_stims/complex_10_A_a.gif","","","","",""
"[{""page_index"":0,""viewing_time"":4992.6850000047125}]","4993.010000005597","instructions","144","436325","0.0-32.0","SS1618435669292","instructions","","","","","","","","","","","","","","","",""
"","9999.955000006594","survey-likert","145","446332","0.0-33.0","SS1618435669292","similarity_question","","","","","","","","","","","","{""Q0"":1}","[0]","","images/stimuli/spore_stims/complex_13_A_b.gif","images/stimuli/spore_stims/complex_02_A_a.gif"
"","8437.884999992093","survey-likert","146","454783","0.0-34.0","SS1618435669292","similarity_question","","","","","","","","","","","","{""Q0"":6}","[0]","","images/stimuli/spore_stims/simple_16_A_b.gif","images/stimuli/spore_stims/simple_15_A_a.gif"
"","3807.4650000198744","survey-likert","147","458605","0.0-35.0","SS1618435669292","similarity_question","","","","","","","","","","","","{""Q0"":6}","[0]","","images/stimuli/spore_stims/simple_14_A_b.gif","images/stimuli/spore_stims/simple_13_A_a.gif"
"","3348.440000001574","survey-likert","148","461966","0.0-36.0","SS1618435669292","similarity_question","","","","","","","","","","","","{""Q0"":4}","[0]","","images/stimuli/spore_stims/simple_11_A_a.gif","images/stimuli/spore_stims/simple_04_A_b.gif"
"","4130.830000009155","survey-likert","149","466113","0.0-37.0","SS1618435669292","similarity_question","","","","","","","","","","","","{""Q0"":5}","[0]","","images/stimuli/spore_stims/simple_02_A_b.gif","images/stimuli/spore_stims/simple_06_A_a.gif"
"","3145.409999997355","survey-likert","150","469273","0.0-38.0","SS1618435669292","similarity_question","","","","","","","","","","","","{""Q0"":4}","[0]","","images/stimuli/spore_stims/simple_13_A_b.gif","images/stimuli/spore_stims/simple_17_A_a.gif"
"","6404.360000015004","survey-likert","151","475693","0.0-39.0","SS1618435669292","similarity_question","","","","","","","","","","","","{""Q0"":2}","[0]","","images/stimuli/spore_stims/complex_13_A_a.gif","images/stimuli/spore_stims/complex_04_A_b.gif"
"","12719.54999997979","survey-likert","152","488422","0.0-40.0","SS1618435669292","similarity_question","","","","","","","","","","","","{""Q0"":0}","[0]","","images/stimuli/spore_stims/complex_01_A_a.gif","images/stimuli/spore_stims/complex_17_A_b.gif"
"","9396.345000015572","survey-likert","153","497831","0.0-41.0","SS1618435669292","similarity_question","","","","","","","","","","","","{""Q0"":3}","[0]","","images/stimuli/spore_stims/simple_16_A_a.gif","images/stimuli/spore_stims/simple_15_A_b.gif"
"","5463.450000010198","survey-likert","154","503308","0.0-42.0","SS1618435669292","similarity_question","","","","","","","","","","","","{""Q0"":2}","[0]","","images/stimuli/spore_stims/complex_10_A_a.gif","images/stimuli/spore_stims/complex_14_A_b.gif"
"","7054.434999998193","survey-likert","155","510376","0.0-43.0","SS1618435669292","similarity_question","","","","","","","","","","","","{""Q0"":0}","[0]","","images/stimuli/spore_stims/complex_20_A_b.gif","images/stimuli/spore_stims/complex_18_A_a.gif"
"","5048.260000010487","survey-likert","156","515437","0.0-44.0","SS1618435669292","similarity_question","","","","","","","","","","","","{""Q0"":0}","[0]","","images/stimuli/spore_stims/complex_05_A_a.gif","images/stimuli/spore_stims/complex_08_A_b.gif"
"[{""page_index"":0,""viewing_time"":5335.80499998061}]","5336.194999981672","instructions","157","520785","0.0-45.0","SS1618435669292","instructions","","","","","","","","","","","","","","","",""
"","5133.065000001807","survey-likert","158","525925","0.0-46.0","SS1618435669292","","","","","","","","","images/stimuli/spore_stims/simple_04_A_b.gif","","","","{""Q0"":0}","[0]","","",""
"","3628.770000010263","survey-likert","159","529568","0.0-47.0","SS1618435669292","","","","","","","","","images/stimuli/spore_stims/simple_06_A_a.gif","","","","{""Q0"":0}","[0]","","",""
"","2568.924999999581","survey-likert","160","532150","0.0-48.0","SS1618435669292","","","","","","","","","images/stimuli/spore_stims/simple_14_A_b.gif","","","","{""Q0"":1}","[0]","","",""
"","3386.564999993425","survey-likert","161","535550","0.0-49.0","SS1618435669292","","","","","","","","","images/stimuli/spore_stims/simple_16_A_a.gif","","","","{""Q0"":2}","[0]","","",""
"","2243.370000011055","survey-likert","162","537807","0.0-50.0","SS1618435669292","","","","","","","","","images/stimuli/spore_stims/simple_16_A_b.gif","","","","{""Q0"":2}","[0]","","",""
"","5128.619999974035","survey-likert","163","542948","0.0-51.0","SS1618435669292","","","","","","","","","images/stimuli/spore_stims/complex_01_A_a.gif","","","","{""Q0"":4}","[0]","","",""
"","4713.825000013458","survey-likert","164","547676","0.0-52.0","SS1618435669292","","","","","","","","","images/stimuli/spore_stims/complex_18_A_a.gif","","","","{""Q0"":5}","[0]","","",""
"","7642.584999994142","survey-likert","165","555332","0.0-53.0","SS1618435669292","","","","","","","","","images/stimuli/spore_stims/complex_13_A_b.gif","","","","{""Q0"":6}","[0]","","",""
"","4036.660000012489","survey-likert","166","559382","0.0-54.0","SS1618435669292","","","","","","","","","images/stimuli/spore_stims/complex_13_A_a.gif","","","","{""Q0"":6}","[0]","","",""
"","3319.969999982277","survey-likert","167","562717","0.0-55.0","SS1618435669292","","","","","","","","","images/stimuli/spore_stims/complex_14_A_b.gif","","","","{""Q0"":5}","[0]","","",""
"","3700.700000015786","survey-likert","168","566433","0.0-56.0","SS1618435669292","","","","","","","","","images/stimuli/spore_stims/simple_17_A_a.gif","","","","{""Q0"":2}","[0]","","",""
"","3865.0849999976344","survey-likert","169","570312","0.0-57.0","SS1618435669292","","","","","","","","","images/stimuli/spore_stims/complex_05_A_a.gif","","","","{""Q0"":4}","[0]","","",""
"[{""page_index"":0,""viewing_time"":2393.0450000043493}]","2393.4400000143796","instructions","170","572717","0.0-58.0","SS1618435669292","instructions","","","","","","","","","","","","","","","",""
"","4317.394999990938","demog-age","171","577046","0.0-59.0","SS1618435669292","","","","","","","","","","","","","{""age"":""27""}","","","",""
"","4357.989999989513","demog-ethnic-US","172","581415","0.0-60.0","SS1618435669292","","","","","","","","","","","","","{""ethnicity"":[""Hispanic or Latino""]}","[0]","","",""
"","6909.870000003139","demog-gender-and-education","173","588340","0.0-61.0","SS1618435669292","","","","","","","","","","","","","{""gender"":""Male"",""education"":""Bachelor's Degree""}","[0,1]","","",""
"","16737.83500000718","survey-text","174","605093","0.0-62.0","SS1618435669292","feedback","","","","","","","","","","","","{""Q0"":""No, the animation was smooth""}","","","",""
"[{""page_index"":0,""viewing_time"":2099.5200000179466}]","2099.835000000894","instructions","175","607199","0.0-63.0","SS1618435669292","instructions","","","","","","","","","","","","","","","",""
