"view_history","rt","trial_type","trial_index","time_elapsed","internal_node_id","subject","stimulus_type","trial_stimulus","key_press","minimum_viewing_duration","trial_looking_time","block_deviant","block_background","exposure_type","stimulus","block_number","block_type","stimulus_displayed","responses","question_order","math_correct_answer","stimulus_left","stimulus_right"
"[{""page_index"":0,""viewing_time"":15846.829999994952}]","15848.079999967013","instructions","0","15861","0.0-0.0","SS1618365952384","","","","","","","","","","","","","","","","",""
"[{""page_index"":0,""viewing_time"":18305.5549999699},{""page_index"":1,""viewing_time"":7558.614999987185}]","25864.949999959208","instructions","1","43736","0.0-1.0","SS1618365952384","instructions","","","","","","","","","","","","","","","",""
"","11254.910000017844","sequential-stimulus-presentation-old","2","55512","0.0-2.0","SS1618365952384","","","40","500","11754.910000017844","null","null","self_paced","","","","","","","","",""
"","6573.615000001155","sequential-stimulus-presentation-old","3","62598","0.0-3.0","SS1618365952384","","","40","500","7073.615000001155","null","null","self_paced","","","","","","","","",""
"[{""page_index"":0,""viewing_time"":21371.954999980517}]","21372.899999958463","instructions","4","83978","0.0-4.0","SS1618365952384","instructions","","","","","","","","","","","","","","","",""
"","8793.689999962226","sequential-stimulus-presentation-old","5","97781","0.0-5.0","SS1618365952384","","","40","500","9293.689999962226","null","null","forced_long","","","","","","","","",""
"","11536.18999995524","sequential-stimulus-presentation-old","6","109382","0.0-6.0","SS1618365952384","","","40","50","11586.18999995524","null","null","forced_long","","","","","","","","",""
"[{""page_index"":0,""viewing_time"":5078.860000008717}]","5079.810000024736","instructions","7","114465","0.0-7.0","SS1618365952384","instructions","","","","","","","","","","","","","","","",""
"[{""page_index"":0,""viewing_time"":15123.424999997951},{""page_index"":1,""viewing_time"":14911.834999977145},{""page_index"":2,""viewing_time"":6294.340000022203},{""page_index"":3,""viewing_time"":2197.089999972377},{""page_index"":4,""viewing_time"":6511.225000023842}]","45038.84499997366","instructions","8","159506","0.0-8.0","SS1618365952384","instructions","","","","","","","","","","","","","","","",""
"","null","html-keyboard-response","9","160665","0.0-9.0-0.0","SS1618365952384","","","null","","","","","","<p><img src= images/blank.png width =""600"" height = ""600"" style=""position:fixed;top:50%; left:50%; transform: translate(-50%, -50%); border:5px solid black"">","","","","","","","",""
"","2089.0849999850616","sequential-stimulus-presentation-old","10","162832","0.0-9.0-1.0","SS1618365952384","trial","","40","500","2589.0849999850616","images/stimuli/spore_stims/simple_06_A_b.gif","images/stimuli/spore_stims/simple_15_A_a.gif","forced_short","","0","simple_dissimilar","images/stimuli/spore_stims/simple_15_A_a.gif","","","","",""
"","null","html-keyboard-response","11","164143","0.0-9.0-0.1","SS1618365952384","","","null","","","","","","<p><img src= images/blank.png width =""600"" height = ""600"" style=""position:fixed;top:50%; left:50%; transform: translate(-50%, -50%); border:5px solid black"">","","","","","","","",""
"","17982.305000012275","sequential-stimulus-presentation-old","12","182645","0.0-9.0-1.1","SS1618365952384","trial","","40","500","18482.305000012275","images/stimuli/spore_stims/simple_06_A_b.gif","images/stimuli/spore_stims/simple_15_A_a.gif","forced_short","","0","simple_dissimilar","images/stimuli/spore_stims/simple_06_A_b.gif","","","","",""
"","null","html-keyboard-response","13","183903","0.0-9.0-0.2","SS1618365952384","","","null","","","","","","<p><img src= images/blank.png width =""600"" height = ""600"" style=""position:fixed;top:50%; left:50%; transform: translate(-50%, -50%); border:5px solid black"">","","","","","","","",""
"","23152.289999998175","sequential-stimulus-presentation-old","14","207578","0.0-9.0-1.2","SS1618365952384","trial","","40","500","23652.289999998175","images/stimuli/spore_stims/simple_06_A_b.gif","images/stimuli/spore_stims/simple_15_A_a.gif","forced_short","","0","simple_dissimilar","images/stimuli/spore_stims/simple_15_A_a.gif","","","","",""
"","null","html-keyboard-response","15","208677","0.0-9.0-0.3","SS1618365952384","","","null","","","","","","<p><img src= images/blank.png width =""600"" height = ""600"" style=""position:fixed;top:50%; left:50%; transform: translate(-50%, -50%); border:5px solid black"">","","","","","","","",""
"","8778.23499997612","sequential-stimulus-presentation-old","16","217977","0.0-9.0-1.3","SS1618365952384","trial","","40","500","9278.23499997612","images/stimuli/spore_stims/simple_06_A_b.gif","images/stimuli/spore_stims/simple_15_A_a.gif","forced_short","","0","simple_dissimilar","images/stimuli/spore_stims/simple_15_A_a.gif","","","","",""
"","null","html-keyboard-response","17","218924","0.0-9.0-0.4","SS1618365952384","","","null","","","","","","<p><img src= images/blank.png width =""600"" height = ""600"" style=""position:fixed;top:50%; left:50%; transform: translate(-50%, -50%); border:5px solid black"">","","","","","","","",""
"","23855.179999955","sequential-stimulus-presentation-old","18","243306","0.0-9.0-1.4","SS1618365952384","trial","","40","500","24355.179999955","images/stimuli/spore_stims/simple_06_A_b.gif","images/stimuli/spore_stims/simple_15_A_a.gif","forced_short","","0","simple_dissimilar","images/stimuli/spore_stims/simple_15_A_a.gif","","","","",""
"","null","html-keyboard-response","19","244341","0.0-9.0-0.5","SS1618365952384","","","null","","","","","","<p><img src= images/blank.png width =""600"" height = ""600"" style=""position:fixed;top:50%; left:50%; transform: translate(-50%, -50%); border:5px solid black"">","","","","","","","",""
"","7825.920000032056","sequential-stimulus-presentation-old","20","252675","0.0-9.0-1.5","SS1618365952384","trial","","40","500","8325.920000032056","images/stimuli/spore_stims/simple_06_A_b.gif","images/stimuli/spore_stims/simple_15_A_a.gif","forced_short","","0","simple_dissimilar","images/stimuli/spore_stims/simple_15_A_a.gif","","","","",""
"","5500.120000040624","survey-multi-choice","21","258185","0.0-10.0","SS1618365952384","math_question","","","","","","","","","","","","{""Q0"":""8""}","[0]","8","",""
"","null","html-keyboard-response","22","259316","0.0-11.0-0.0","SS1618365952384","","","null","","","","","","<p><img src= images/blank.png width =""600"" height = ""600"" style=""position:fixed;top:50%; left:50%; transform: translate(-50%, -50%); border:5px solid black"">","","","","","","","",""
"","19772.134999977425","sequential-stimulus-presentation-old","23","279598","0.0-11.0-1.0","SS1618365952384","trial","","40","500","20272.134999977425","images/stimuli/spore_stims/simple_18_A_b.gif","images/stimuli/spore_stims/simple_17_A_a.gif","self_paced","","1","simple_dissimilar","images/stimuli/spore_stims/simple_17_A_a.gif","","","","",""
"","null","html-keyboard-response","24","280895","0.0-11.0-0.1","SS1618365952384","","","null","","","","","","<p><img src= images/blank.png width =""600"" height = ""600"" style=""position:fixed;top:50%; left:50%; transform: translate(-50%, -50%); border:5px solid black"">","","","","","","","",""
"","12501.484999957029","sequential-stimulus-presentation-old","25","293919","0.0-11.0-1.1","SS1618365952384","trial","","40","500","13001.484999957029","images/stimuli/spore_stims/simple_18_A_b.gif","images/stimuli/spore_stims/simple_17_A_a.gif","self_paced","","1","simple_dissimilar","images/stimuli/spore_stims/simple_17_A_a.gif","","","","",""
"","null","html-keyboard-response","26","295001","0.0-11.0-0.2","SS1618365952384","","","null","","","","","","<p><img src= images/blank.png width =""600"" height = ""600"" style=""position:fixed;top:50%; left:50%; transform: translate(-50%, -50%); border:5px solid black"">","","","","","","","",""
"","16193.604999978561","sequential-stimulus-presentation-old","27","311719","0.0-11.0-1.2","SS1618365952384","trial","","40","500","16693.60499997856","images/stimuli/spore_stims/simple_18_A_b.gif","images/stimuli/spore_stims/simple_17_A_a.gif","self_paced","","1","simple_dissimilar","images/stimuli/spore_stims/simple_17_A_a.gif","","","","",""
"","null","html-keyboard-response","28","312654","0.0-11.0-0.3","SS1618365952384","","","null","","","","","","<p><img src= images/blank.png width =""600"" height = ""600"" style=""position:fixed;top:50%; left:50%; transform: translate(-50%, -50%); border:5px solid black"">","","","","","","","",""
"","9712.31999999145","sequential-stimulus-presentation-old","29","322888","0.0-11.0-1.3","SS1618365952384","trial","","40","500","10212.31999999145","images/stimuli/spore_stims/simple_18_A_b.gif","images/stimuli/spore_stims/simple_17_A_a.gif","self_paced","","1","simple_dissimilar","images/stimuli/spore_stims/simple_17_A_a.gif","","","","",""
"","null","html-keyboard-response","30","323777","0.0-11.0-0.4","SS1618365952384","","","null","","","","","","<p><img src= images/blank.png width =""600"" height = ""600"" style=""position:fixed;top:50%; left:50%; transform: translate(-50%, -50%); border:5px solid black"">","","","","","","","",""
"","6823.414999991655","sequential-stimulus-presentation-old","31","331127","0.0-11.0-1.4","SS1618365952384","trial","","40","500","7323.414999991655","images/stimuli/spore_stims/simple_18_A_b.gif","images/stimuli/spore_stims/simple_17_A_a.gif","self_paced","","1","simple_dissimilar","images/stimuli/spore_stims/simple_17_A_a.gif","","","","",""
"","4551.2150000431575","survey-multi-choice","32","335693","0.0-12.0","SS1618365952384","math_question","","","","","","","","","","","","{""Q0"":""6""}","[0]","6","",""
"","null","html-keyboard-response","33","336964","0.0-13.0-0.0","SS1618365952384","","","null","","","","","","<p><img src= images/blank.png width =""600"" height = ""600"" style=""position:fixed;top:50%; left:50%; transform: translate(-50%, -50%); border:5px solid black"">","","","","","","","",""
"","16572.259999986272","sequential-stimulus-presentation-old","34","354063","0.0-13.0-1.0","SS1618365952384","trial","","40","500","17072.259999986272","images/stimuli/spore_stims/complex_06_A_a.gif","images/stimuli/spore_stims/complex_01_A_b.gif","self_paced","","2","complex_dissimilar","images/stimuli/spore_stims/complex_01_A_b.gif","","","","",""
"","null","html-keyboard-response","35","355351","0.0-13.0-0.1","SS1618365952384","","","null","","","","","","<p><img src= images/blank.png width =""600"" height = ""600"" style=""position:fixed;top:50%; left:50%; transform: translate(-50%, -50%); border:5px solid black"">","","","","","","","",""
"","17447.424999962095","sequential-stimulus-presentation-old","36","373311","0.0-13.0-1.1","SS1618365952384","trial","","40","500","17947.424999962095","images/stimuli/spore_stims/complex_06_A_a.gif","images/stimuli/spore_stims/complex_01_A_b.gif","self_paced","","2","complex_dissimilar","images/stimuli/spore_stims/complex_01_A_b.gif","","","","",""
"","null","html-keyboard-response","37","374224","0.0-13.0-0.2","SS1618365952384","","","null","","","","","","<p><img src= images/blank.png width =""600"" height = ""600"" style=""position:fixed;top:50%; left:50%; transform: translate(-50%, -50%); border:5px solid black"">","","","","","","","",""
"","5683.7049999739975","sequential-stimulus-presentation-old","38","380433","0.0-13.0-1.2","SS1618365952384","trial","","40","500","6183.7049999739975","images/stimuli/spore_stims/complex_06_A_a.gif","images/stimuli/spore_stims/complex_01_A_b.gif","self_paced","","2","complex_dissimilar","images/stimuli/spore_stims/complex_01_A_b.gif","","","","",""
"","null","html-keyboard-response","39","381589","0.0-13.0-0.3","SS1618365952384","","","null","","","","","","<p><img src= images/blank.png width =""600"" height = ""600"" style=""position:fixed;top:50%; left:50%; transform: translate(-50%, -50%); border:5px solid black"">","","","","","","","",""
"","7710.350000008475","sequential-stimulus-presentation-old","40","389825","0.0-13.0-1.3","SS1618365952384","trial","","40","500","8210.350000008475","images/stimuli/spore_stims/complex_06_A_a.gif","images/stimuli/spore_stims/complex_01_A_b.gif","self_paced","","2","complex_dissimilar","images/stimuli/spore_stims/complex_06_A_a.gif","","","","",""
"","null","html-keyboard-response","41","390775","0.0-13.0-0.4","SS1618365952384","","","null","","","","","","<p><img src= images/blank.png width =""600"" height = ""600"" style=""position:fixed;top:50%; left:50%; transform: translate(-50%, -50%); border:5px solid black"">","","","","","","","",""
"","5542.5600000307895","sequential-stimulus-presentation-old","42","396846","0.0-13.0-1.4","SS1618365952384","trial","","40","500","6042.5600000307895","images/stimuli/spore_stims/complex_06_A_a.gif","images/stimuli/spore_stims/complex_01_A_b.gif","self_paced","","2","complex_dissimilar","images/stimuli/spore_stims/complex_06_A_a.gif","","","","",""
"","null","html-keyboard-response","43","397742","0.0-13.0-0.5","SS1618365952384","","","null","","","","","","<p><img src= images/blank.png width =""600"" height = ""600"" style=""position:fixed;top:50%; left:50%; transform: translate(-50%, -50%); border:5px solid black"">","","","","","","","",""
"","5295.335000031628","sequential-stimulus-presentation-old","44","403562","0.0-13.0-1.5","SS1618365952384","trial","","40","500","5795.335000031628","images/stimuli/spore_stims/complex_06_A_a.gif","images/stimuli/spore_stims/complex_01_A_b.gif","self_paced","","2","complex_dissimilar","images/stimuli/spore_stims/complex_01_A_b.gif","","","","",""
"","3651.9500000285916","survey-multi-choice","45","407220","0.0-14.0","SS1618365952384","math_question","","","","","","","","","","","","{""Q0"":""8""}","[0]","8","",""
"","null","html-keyboard-response","46","408464","0.0-15.0-0.0","SS1618365952384","","","null","","","","","","<p><img src= images/blank.png width =""600"" height = ""600"" style=""position:fixed;top:50%; left:50%; transform: translate(-50%, -50%); border:5px solid black"">","","","","","","","",""
"","1220.1449999702163","sequential-stimulus-presentation-old","47","414712","0.0-15.0-1.0","SS1618365952384","trial","","40","500","1720.1449999702163","images/stimuli/spore_stims/simple_02_A_a.gif","images/stimuli/spore_stims/simple_12_A_b.gif","forced_long","","3","simple_dissimilar","images/stimuli/spore_stims/simple_12_A_b.gif","","","","",""
"","null","html-keyboard-response","48","415883","0.0-15.0-0.1","SS1618365952384","","","null","","","","","","<p><img src= images/blank.png width =""600"" height = ""600"" style=""position:fixed;top:50%; left:50%; transform: translate(-50%, -50%); border:5px solid black"">","","","","","","","",""
"","12414.92000001017","sequential-stimulus-presentation-old","49","428824","0.0-15.0-1.1","SS1618365952384","trial","","40","500","12914.92000001017","images/stimuli/spore_stims/simple_02_A_a.gif","images/stimuli/spore_stims/simple_12_A_b.gif","forced_long","","3","simple_dissimilar","images/stimuli/spore_stims/simple_02_A_a.gif","","","","",""
"","null","html-keyboard-response","50","430059","0.0-15.0-0.2","SS1618365952384","","","null","","","","","","<p><img src= images/blank.png width =""600"" height = ""600"" style=""position:fixed;top:50%; left:50%; transform: translate(-50%, -50%); border:5px solid black"">","","","","","","","",""
"","11705.629999982193","sequential-stimulus-presentation-old","51","442293","0.0-15.0-1.2","SS1618365952384","trial","","40","500","12205.629999982193","images/stimuli/spore_stims/simple_02_A_a.gif","images/stimuli/spore_stims/simple_12_A_b.gif","forced_long","","3","simple_dissimilar","images/stimuli/spore_stims/simple_12_A_b.gif","","","","",""
"","null","html-keyboard-response","52","443513","0.0-15.0-0.3","SS1618365952384","","","null","","","","","","<p><img src= images/blank.png width =""600"" height = ""600"" style=""position:fixed;top:50%; left:50%; transform: translate(-50%, -50%); border:5px solid black"">","","","","","","","",""
"","5109.635000000708","sequential-stimulus-presentation-old","53","449153","0.0-15.0-1.3","SS1618365952384","trial","","40","500","5609.635000000708","images/stimuli/spore_stims/simple_02_A_a.gif","images/stimuli/spore_stims/simple_12_A_b.gif","forced_long","","3","simple_dissimilar","images/stimuli/spore_stims/simple_12_A_b.gif","","","","",""
"","7988.684999989346","survey-multi-choice","54","457162","0.0-16.0","SS1618365952384","math_question","","","","","","","","","","","","{""Q0"":""13""}","[0]","13","",""
"","null","html-keyboard-response","55","458156","0.0-17.0-0.0","SS1618365952384","","","null","","","","","","<p><img src= images/blank.png width =""600"" height = ""600"" style=""position:fixed;top:50%; left:50%; transform: translate(-50%, -50%); border:5px solid black"">","","","","","","","",""
"","1548.244999954477","sequential-stimulus-presentation-old","56","459784","0.0-17.0-1.0","SS1618365952384","trial","","40","500","2048.244999954477","images/stimuli/spore_stims/simple_19_A_a.gif","images/stimuli/spore_stims/simple_05_A_b.gif","forced_short","","4","simple_dissimilar","images/stimuli/spore_stims/simple_05_A_b.gif","","","","",""
"","null","html-keyboard-response","57","461013","0.0-17.0-0.1","SS1618365952384","","","null","","","","","","<p><img src= images/blank.png width =""600"" height = ""600"" style=""position:fixed;top:50%; left:50%; transform: translate(-50%, -50%); border:5px solid black"">","","","","","","","",""
"","6883.205000020098","sequential-stimulus-presentation-old","58","468419","0.0-17.0-1.1","SS1618365952384","trial","","40","500","7383.205000020098","images/stimuli/spore_stims/simple_19_A_a.gif","images/stimuli/spore_stims/simple_05_A_b.gif","forced_short","","4","simple_dissimilar","images/stimuli/spore_stims/simple_05_A_b.gif","","","","",""
"","null","html-keyboard-response","59","469565","0.0-17.0-0.2","SS1618365952384","","","null","","","","","","<p><img src= images/blank.png width =""600"" height = ""600"" style=""position:fixed;top:50%; left:50%; transform: translate(-50%, -50%); border:5px solid black"">","","","","","","","",""
"","4279.440000012983","sequential-stimulus-presentation-old","60","474370","0.0-17.0-1.2","SS1618365952384","trial","","40","500","4779.440000012983","images/stimuli/spore_stims/simple_19_A_a.gif","images/stimuli/spore_stims/simple_05_A_b.gif","forced_short","","4","simple_dissimilar","images/stimuli/spore_stims/simple_05_A_b.gif","","","","",""
"","null","html-keyboard-response","61","475405","0.0-17.0-0.3","SS1618365952384","","","null","","","","","","<p><img src= images/blank.png width =""600"" height = ""600"" style=""position:fixed;top:50%; left:50%; transform: translate(-50%, -50%); border:5px solid black"">","","","","","","","",""
"","2428.2250000396743","sequential-stimulus-presentation-old","62","478362","0.0-17.0-1.3","SS1618365952384","trial","","40","500","2928.2250000396743","images/stimuli/spore_stims/simple_19_A_a.gif","images/stimuli/spore_stims/simple_05_A_b.gif","forced_short","","4","simple_dissimilar","images/stimuli/spore_stims/simple_05_A_b.gif","","","","",""
"","null","html-keyboard-response","63","479273","0.0-17.0-0.4","SS1618365952384","","","null","","","","","","<p><img src= images/blank.png width =""600"" height = ""600"" style=""position:fixed;top:50%; left:50%; transform: translate(-50%, -50%); border:5px solid black"">","","","","","","","",""
"","422.56999999517575","sequential-stimulus-presentation-old","64","480224","0.0-17.0-1.4","SS1618365952384","trial","","40","500","922.5699999951757","images/stimuli/spore_stims/simple_19_A_a.gif","images/stimuli/spore_stims/simple_05_A_b.gif","forced_short","","4","simple_dissimilar","images/stimuli/spore_stims/simple_05_A_b.gif","","","","",""
"","null","html-keyboard-response","65","481301","0.0-17.0-0.5","SS1618365952384","","","null","","","","","","<p><img src= images/blank.png width =""600"" height = ""600"" style=""position:fixed;top:50%; left:50%; transform: translate(-50%, -50%); border:5px solid black"">","","","","","","","",""
"","1768.3100000140257","sequential-stimulus-presentation-old","66","483595","0.0-17.0-1.5","SS1618365952384","trial","","40","500","2268.3100000140257","images/stimuli/spore_stims/simple_19_A_a.gif","images/stimuli/spore_stims/simple_05_A_b.gif","forced_short","","4","simple_dissimilar","images/stimuli/spore_stims/simple_05_A_b.gif","","","","",""
"","4237.599999993108","survey-multi-choice","67","487853","0.0-18.0","SS1618365952384","math_question","","","","","","","","","","","","{""Q0"":""12""}","[0]","12","",""
"","null","html-keyboard-response","68","489101","0.0-19.0-0.0","SS1618365952384","","","null","","","","","","<p><img src= images/blank.png width =""600"" height = ""600"" style=""position:fixed;top:50%; left:50%; transform: translate(-50%, -50%); border:5px solid black"">","","","","","","","",""
"","1434.995000017807","sequential-stimulus-presentation-old","69","490634","0.0-19.0-1.0","SS1618365952384","trial","","40","500","1934.995000017807","images/stimuli/spore_stims/complex_10_A_a.gif","images/stimuli/spore_stims/complex_03_A_b.gif","forced_short","","5","complex_dissimilar","images/stimuli/spore_stims/complex_03_A_b.gif","","","","",""
"","null","html-keyboard-response","70","491896","0.0-19.0-0.1","SS1618365952384","","","null","","","","","","<p><img src= images/blank.png width =""600"" height = ""600"" style=""position:fixed;top:50%; left:50%; transform: translate(-50%, -50%); border:5px solid black"">","","","","","","","",""
"","5707.040000008419","sequential-stimulus-presentation-old","71","498134","0.0-19.0-1.1","SS1618365952384","trial","","40","500","6207.040000008419","images/stimuli/spore_stims/complex_10_A_a.gif","images/stimuli/spore_stims/complex_03_A_b.gif","forced_short","","5","complex_dissimilar","images/stimuli/spore_stims/complex_10_A_a.gif","","","","",""
"","null","html-keyboard-response","72","499449","0.0-19.0-0.2","SS1618365952384","","","null","","","","","","<p><img src= images/blank.png width =""600"" height = ""600"" style=""position:fixed;top:50%; left:50%; transform: translate(-50%, -50%); border:5px solid black"">","","","","","","","",""
"","7912.899999995716","sequential-stimulus-presentation-old","73","507889","0.0-19.0-1.2","SS1618365952384","trial","","40","500","8412.899999995716","images/stimuli/spore_stims/complex_10_A_a.gif","images/stimuli/spore_stims/complex_03_A_b.gif","forced_short","","5","complex_dissimilar","images/stimuli/spore_stims/complex_03_A_b.gif","","","","",""
"","null","html-keyboard-response","74","509033","0.0-19.0-0.3","SS1618365952384","","","null","","","","","","<p><img src= images/blank.png width =""600"" height = ""600"" style=""position:fixed;top:50%; left:50%; transform: translate(-50%, -50%); border:5px solid black"">","","","","","","","",""
"","4419.675000011921","sequential-stimulus-presentation-old","75","513981","0.0-19.0-1.3","SS1618365952384","trial","","40","500","4919.675000011921","images/stimuli/spore_stims/complex_10_A_a.gif","images/stimuli/spore_stims/complex_03_A_b.gif","forced_short","","5","complex_dissimilar","images/stimuli/spore_stims/complex_10_A_a.gif","","","","",""
"","null","html-keyboard-response","76","515235","0.0-19.0-0.4","SS1618365952384","","","null","","","","","","<p><img src= images/blank.png width =""600"" height = ""600"" style=""position:fixed;top:50%; left:50%; transform: translate(-50%, -50%); border:5px solid black"">","","","","","","","",""
"","2321.0049999761395","sequential-stimulus-presentation-old","77","518088","0.0-19.0-1.4","SS1618365952384","trial","","40","500","2821.0049999761395","images/stimuli/spore_stims/complex_10_A_a.gif","images/stimuli/spore_stims/complex_03_A_b.gif","forced_short","","5","complex_dissimilar","images/stimuli/spore_stims/complex_03_A_b.gif","","","","",""
"","null","html-keyboard-response","78","519050","0.0-19.0-0.5","SS1618365952384","","","null","","","","","","<p><img src= images/blank.png width =""600"" height = ""600"" style=""position:fixed;top:50%; left:50%; transform: translate(-50%, -50%); border:5px solid black"">","","","","","","","",""
"","2700.1499999896623","sequential-stimulus-presentation-old","79","522281","0.0-19.0-1.5","SS1618365952384","trial","","40","500","3200.1499999896623","images/stimuli/spore_stims/complex_10_A_a.gif","images/stimuli/spore_stims/complex_03_A_b.gif","forced_short","","5","complex_dissimilar","images/stimuli/spore_stims/complex_03_A_b.gif","","","","",""
"","3093.585000024177","survey-multi-choice","80","525395","0.0-20.0","SS1618365952384","math_question","","","","","","","","","","","","{""Q0"":""9""}","[0]","9","",""
"","null","html-keyboard-response","81","526248","0.0-21.0-0.0","SS1618365952384","","","null","","","","","","<p><img src= images/blank.png width =""600"" height = ""600"" style=""position:fixed;top:50%; left:50%; transform: translate(-50%, -50%); border:5px solid black"">","","","","","","","",""
"","743.2350000017323","sequential-stimulus-presentation-old","82","532027","0.0-21.0-1.0","SS1618365952384","trial","","40","500","1243.2350000017323","images/stimuli/spore_stims/complex_13_A_a.gif","images/stimuli/spore_stims/complex_11_A_b.gif","forced_long","","6","complex_dissimilar","images/stimuli/spore_stims/complex_11_A_b.gif","","","","",""
"","null","html-keyboard-response","83","533312","0.0-21.0-0.1","SS1618365952384","","","null","","","","","","<p><img src= images/blank.png width =""600"" height = ""600"" style=""position:fixed;top:50%; left:50%; transform: translate(-50%, -50%); border:5px solid black"">","","","","","","","",""
"","6188.179999997374","sequential-stimulus-presentation-old","84","540025","0.0-21.0-1.1","SS1618365952384","trial","","40","500","6688.179999997374","images/stimuli/spore_stims/complex_13_A_a.gif","images/stimuli/spore_stims/complex_11_A_b.gif","forced_long","","6","complex_dissimilar","images/stimuli/spore_stims/complex_11_A_b.gif","","","","",""
"","null","html-keyboard-response","85","541211","0.0-21.0-0.2","SS1618365952384","","","null","","","","","","<p><img src= images/blank.png width =""600"" height = ""600"" style=""position:fixed;top:50%; left:50%; transform: translate(-50%, -50%); border:5px solid black"">","","","","","","","",""
"","4525.6099999533035","sequential-stimulus-presentation-old","86","546268","0.0-21.0-1.2","SS1618365952384","trial","","40","500","5025.6099999533035","images/stimuli/spore_stims/complex_13_A_a.gif","images/stimuli/spore_stims/complex_11_A_b.gif","forced_long","","6","complex_dissimilar","images/stimuli/spore_stims/complex_11_A_b.gif","","","","",""
"","null","html-keyboard-response","87","547330","0.0-21.0-0.3","SS1618365952384","","","null","","","","","","<p><img src= images/blank.png width =""600"" height = ""600"" style=""position:fixed;top:50%; left:50%; transform: translate(-50%, -50%); border:5px solid black"">","","","","","","","",""
"","5652.844999975059","sequential-stimulus-presentation-old","88","553506","0.0-21.0-1.3","SS1618365952384","trial","","40","500","6152.844999975059","images/stimuli/spore_stims/complex_13_A_a.gif","images/stimuli/spore_stims/complex_11_A_b.gif","forced_long","","6","complex_dissimilar","images/stimuli/spore_stims/complex_11_A_b.gif","","","","",""
"","null","html-keyboard-response","89","554467","0.0-21.0-0.4","SS1618365952384","","","null","","","","","","<p><img src= images/blank.png width =""600"" height = ""600"" style=""position:fixed;top:50%; left:50%; transform: translate(-50%, -50%); border:5px solid black"">","","","","","","","",""
"","1873.3300000312738","sequential-stimulus-presentation-old","90","556871","0.0-21.0-1.4","SS1618365952384","trial","","40","500","2373.330000031274","images/stimuli/spore_stims/complex_13_A_a.gif","images/stimuli/spore_stims/complex_11_A_b.gif","forced_long","","6","complex_dissimilar","images/stimuli/spore_stims/complex_11_A_b.gif","","","","",""
"","null","html-keyboard-response","91","558172","0.0-21.0-0.5","SS1618365952384","","","null","","","","","","<p><img src= images/blank.png width =""600"" height = ""600"" style=""position:fixed;top:50%; left:50%; transform: translate(-50%, -50%); border:5px solid black"">","","","","","","","",""
"","8026.234999997541","sequential-stimulus-presentation-old","92","566732","0.0-21.0-1.5","SS1618365952384","trial","","40","500","8526.234999997541","images/stimuli/spore_stims/complex_13_A_a.gif","images/stimuli/spore_stims/complex_11_A_b.gif","forced_long","","6","complex_dissimilar","images/stimuli/spore_stims/complex_13_A_a.gif","","","","",""
"","3738.3100000442937","survey-multi-choice","93","570493","0.0-22.0","SS1618365952384","math_question","","","","","","","","","","","","{""Q0"":""11""}","[0]","11","",""
"","null","html-keyboard-response","94","571379","0.0-23.0-0.0","SS1618365952384","","","null","","","","","","<p><img src= images/blank.png width =""600"" height = ""600"" style=""position:fixed;top:50%; left:50%; transform: translate(-50%, -50%); border:5px solid black"">","","","","","","","",""
"","1030.6649999693036","sequential-stimulus-presentation-old","95","577441","0.0-23.0-1.0","SS1618365952384","trial","","40","500","1530.6649999693036","images/stimuli/spore_stims/simple_07_A_b.gif","images/stimuli/spore_stims/simple_16_A_a.gif","forced_long","","7","simple_dissimilar","images/stimuli/spore_stims/simple_16_A_a.gif","","","","",""
"","null","html-keyboard-response","96","578590","0.0-23.0-0.1","SS1618365952384","","","null","","","","","","<p><img src= images/blank.png width =""600"" height = ""600"" style=""position:fixed;top:50%; left:50%; transform: translate(-50%, -50%); border:5px solid black"">","","","","","","","",""
"","6932.860000000801","sequential-stimulus-presentation-old","97","586058","0.0-23.0-1.1","SS1618365952384","trial","","40","500","7432.860000000801","images/stimuli/spore_stims/simple_07_A_b.gif","images/stimuli/spore_stims/simple_16_A_a.gif","forced_long","","7","simple_dissimilar","images/stimuli/spore_stims/simple_16_A_a.gif","","","","",""
"","null","html-keyboard-response","98","587035","0.0-23.0-0.2","SS1618365952384","","","null","","","","","","<p><img src= images/blank.png width =""600"" height = ""600"" style=""position:fixed;top:50%; left:50%; transform: translate(-50%, -50%); border:5px solid black"">","","","","","","","",""
"","3214.040000049863","sequential-stimulus-presentation-old","99","590781","0.0-23.0-1.2","SS1618365952384","trial","","40","500","3714.040000049863","images/stimuli/spore_stims/simple_07_A_b.gif","images/stimuli/spore_stims/simple_16_A_a.gif","forced_long","","7","simple_dissimilar","images/stimuli/spore_stims/simple_16_A_a.gif","","","","",""
"","null","html-keyboard-response","100","592106","0.0-23.0-0.3","SS1618365952384","","","null","","","","","","<p><img src= images/blank.png width =""600"" height = ""600"" style=""position:fixed;top:50%; left:50%; transform: translate(-50%, -50%); border:5px solid black"">","","","","","","","",""
"","2482.75000002468","sequential-stimulus-presentation-old","101","595120","0.0-23.0-1.3","SS1618365952384","trial","","40","500","2982.75000002468","images/stimuli/spore_stims/simple_07_A_b.gif","images/stimuli/spore_stims/simple_16_A_a.gif","forced_long","","7","simple_dissimilar","images/stimuli/spore_stims/simple_16_A_a.gif","","","","",""
"","null","html-keyboard-response","102","596238","0.0-23.0-0.4","SS1618365952384","","","null","","","","","","<p><img src= images/blank.png width =""600"" height = ""600"" style=""position:fixed;top:50%; left:50%; transform: translate(-50%, -50%); border:5px solid black"">","","","","","","","",""
"","6661.5250000031665","sequential-stimulus-presentation-old","103","603433","0.0-23.0-1.4","SS1618365952384","trial","","40","500","7161.5250000031665","images/stimuli/spore_stims/simple_07_A_b.gif","images/stimuli/spore_stims/simple_16_A_a.gif","forced_long","","7","simple_dissimilar","images/stimuli/spore_stims/simple_07_A_b.gif","","","","",""
"","3076.450000051409","survey-multi-choice","104","606524","0.0-24.0","SS1618365952384","math_question","","","","","","","","","","","","{""Q0"":""6""}","[0]","6","",""
"","null","html-keyboard-response","105","607446","0.0-25.0-0.0","SS1618365952384","","","null","","","","","","<p><img src= images/blank.png width =""600"" height = ""600"" style=""position:fixed;top:50%; left:50%; transform: translate(-50%, -50%); border:5px solid black"">","","","","","","","",""
"","1617.6650000270456","sequential-stimulus-presentation-old","106","609144","0.0-25.0-1.0","SS1618365952384","trial","","40","500","2117.6650000270456","images/stimuli/spore_stims/complex_06_A_b.gif","images/stimuli/spore_stims/complex_04_A_a.gif","forced_short","","8","complex_dissimilar","images/stimuli/spore_stims/complex_04_A_a.gif","","","","",""
"","null","html-keyboard-response","107","610342","0.0-25.0-0.1","SS1618365952384","","","null","","","","","","<p><img src= images/blank.png width =""600"" height = ""600"" style=""position:fixed;top:50%; left:50%; transform: translate(-50%, -50%); border:5px solid black"">","","","","","","","",""
"","9239.010000019334","sequential-stimulus-presentation-old","108","620098","0.0-25.0-1.1","SS1618365952384","trial","","40","500","9739.010000019334","images/stimuli/spore_stims/complex_06_A_b.gif","images/stimuli/spore_stims/complex_04_A_a.gif","forced_short","","8","complex_dissimilar","images/stimuli/spore_stims/complex_04_A_a.gif","","","","",""
"","null","html-keyboard-response","109","621184","0.0-25.0-0.2","SS1618365952384","","","null","","","","","","<p><img src= images/blank.png width =""600"" height = ""600"" style=""position:fixed;top:50%; left:50%; transform: translate(-50%, -50%); border:5px solid black"">","","","","","","","",""
"","5147.330000007059","sequential-stimulus-presentation-old","110","626870","0.0-25.0-1.2","SS1618365952384","trial","","40","500","5647.330000007059","images/stimuli/spore_stims/complex_06_A_b.gif","images/stimuli/spore_stims/complex_04_A_a.gif","forced_short","","8","complex_dissimilar","images/stimuli/spore_stims/complex_04_A_a.gif","","","","",""
"","null","html-keyboard-response","111","628064","0.0-25.0-0.3","SS1618365952384","","","null","","","","","","<p><img src= images/blank.png width =""600"" height = ""600"" style=""position:fixed;top:50%; left:50%; transform: translate(-50%, -50%); border:5px solid black"">","","","","","","","",""
"","5507.449999975506","sequential-stimulus-presentation-old","112","634106","0.0-25.0-1.3","SS1618365952384","trial","","40","500","6007.449999975506","images/stimuli/spore_stims/complex_06_A_b.gif","images/stimuli/spore_stims/complex_04_A_a.gif","forced_short","","8","complex_dissimilar","images/stimuli/spore_stims/complex_04_A_a.gif","","","","",""
"","null","html-keyboard-response","113","635131","0.0-25.0-0.4","SS1618365952384","","","null","","","","","","<p><img src= images/blank.png width =""600"" height = ""600"" style=""position:fixed;top:50%; left:50%; transform: translate(-50%, -50%); border:5px solid black"">","","","","","","","",""
"","3606.809999968391","sequential-stimulus-presentation-old","114","639273","0.0-25.0-1.4","SS1618365952384","trial","","40","500","4106.809999968391","images/stimuli/spore_stims/complex_06_A_b.gif","images/stimuli/spore_stims/complex_04_A_a.gif","forced_short","","8","complex_dissimilar","images/stimuli/spore_stims/complex_04_A_a.gif","","","","",""
"","7773.364999971818","survey-multi-choice","115","647071","0.0-26.0","SS1618365952384","math_question","","","","","","","","","","","","{""Q0"":""12""}","[0]","12","",""
"","null","html-keyboard-response","116","648047","0.0-27.0-0.0","SS1618365952384","","","null","","","","","","<p><img src= images/blank.png width =""600"" height = ""600"" style=""position:fixed;top:50%; left:50%; transform: translate(-50%, -50%); border:5px solid black"">","","","","","","","",""
"","2562.5400000135414","sequential-stimulus-presentation-old","117","651144","0.0-27.0-1.0","SS1618365952384","trial","","40","500","3062.5400000135414","images/stimuli/spore_stims/simple_20_A_a.gif","images/stimuli/spore_stims/simple_11_A_b.gif","self_paced","","9","simple_dissimilar","images/stimuli/spore_stims/simple_11_A_b.gif","","","","",""
"","null","html-keyboard-response","118","652018","0.0-27.0-0.1","SS1618365952384","","","null","","","","","","<p><img src= images/blank.png width =""600"" height = ""600"" style=""position:fixed;top:50%; left:50%; transform: translate(-50%, -50%); border:5px solid black"">","","","","","","","",""
"","2074.2849999805912","sequential-stimulus-presentation-old","119","654623","0.0-27.0-1.1","SS1618365952384","trial","","40","500","2574.2849999805912","images/stimuli/spore_stims/simple_20_A_a.gif","images/stimuli/spore_stims/simple_11_A_b.gif","self_paced","","9","simple_dissimilar","images/stimuli/spore_stims/simple_11_A_b.gif","","","","",""
"","null","html-keyboard-response","120","655657","0.0-27.0-0.2","SS1618365952384","","","null","","","","","","<p><img src= images/blank.png width =""600"" height = ""600"" style=""position:fixed;top:50%; left:50%; transform: translate(-50%, -50%); border:5px solid black"">","","","","","","","",""
"","3350.269999995362","sequential-stimulus-presentation-old","121","659538","0.0-27.0-1.2","SS1618365952384","trial","","40","500","3850.269999995362","images/stimuli/spore_stims/simple_20_A_a.gif","images/stimuli/spore_stims/simple_11_A_b.gif","self_paced","","9","simple_dissimilar","images/stimuli/spore_stims/simple_11_A_b.gif","","","","",""
"","null","html-keyboard-response","122","660502","0.0-27.0-0.3","SS1618365952384","","","null","","","","","","<p><img src= images/blank.png width =""600"" height = ""600"" style=""position:fixed;top:50%; left:50%; transform: translate(-50%, -50%); border:5px solid black"">","","","","","","","",""
"","4039.679999987129","sequential-stimulus-presentation-old","123","665078","0.0-27.0-1.3","SS1618365952384","trial","","40","500","4539.679999987129","images/stimuli/spore_stims/simple_20_A_a.gif","images/stimuli/spore_stims/simple_11_A_b.gif","self_paced","","9","simple_dissimilar","images/stimuli/spore_stims/simple_11_A_b.gif","","","","",""
"","null","html-keyboard-response","124","666310","0.0-27.0-0.4","SS1618365952384","","","null","","","","","","<p><img src= images/blank.png width =""600"" height = ""600"" style=""position:fixed;top:50%; left:50%; transform: translate(-50%, -50%); border:5px solid black"">","","","","","","","",""
"","2280.109999992419","sequential-stimulus-presentation-old","125","669132","0.0-27.0-1.4","SS1618365952384","trial","","40","500","2780.109999992419","images/stimuli/spore_stims/simple_20_A_a.gif","images/stimuli/spore_stims/simple_11_A_b.gif","self_paced","","9","simple_dissimilar","images/stimuli/spore_stims/simple_11_A_b.gif","","","","",""
"","5024.039999989327","survey-multi-choice","126","674185","0.0-28.0","SS1618365952384","math_question","","","","","","","","","","","","{""Q0"":""15""}","[0]","15","",""
"","null","html-keyboard-response","127","675359","0.0-29.0-0.0","SS1618365952384","","","null","","","","","","<p><img src= images/blank.png width =""600"" height = ""600"" style=""position:fixed;top:50%; left:50%; transform: translate(-50%, -50%); border:5px solid black"">","","","","","","","",""
"","7595.420000026934","sequential-stimulus-presentation-old","128","683482","0.0-29.0-1.0","SS1618365952384","trial","","40","500","8095.420000026934","images/stimuli/spore_stims/complex_19_A_a.gif","images/stimuli/spore_stims/complex_16_A_b.gif","self_paced","","10","complex_dissimilar","images/stimuli/spore_stims/complex_16_A_b.gif","","","","",""
"","null","html-keyboard-response","129","684418","0.0-29.0-0.1","SS1618365952384","","","null","","","","","","<p><img src= images/blank.png width =""600"" height = ""600"" style=""position:fixed;top:50%; left:50%; transform: translate(-50%, -50%); border:5px solid black"">","","","","","","","",""
"","6318.469999998342","sequential-stimulus-presentation-old","130","691246","0.0-29.0-1.1","SS1618365952384","trial","","40","500","6818.469999998342","images/stimuli/spore_stims/complex_19_A_a.gif","images/stimuli/spore_stims/complex_16_A_b.gif","self_paced","","10","complex_dissimilar","images/stimuli/spore_stims/complex_19_A_a.gif","","","","",""
"","null","html-keyboard-response","131","692088","0.0-29.0-0.2","SS1618365952384","","","null","","","","","","<p><img src= images/blank.png width =""600"" height = ""600"" style=""position:fixed;top:50%; left:50%; transform: translate(-50%, -50%); border:5px solid black"">","","","","","","","",""
"","6731.31000000285","sequential-stimulus-presentation-old","132","699356","0.0-29.0-1.2","SS1618365952384","trial","","40","500","7231.31000000285","images/stimuli/spore_stims/complex_19_A_a.gif","images/stimuli/spore_stims/complex_16_A_b.gif","self_paced","","10","complex_dissimilar","images/stimuli/spore_stims/complex_16_A_b.gif","","","","",""
"","null","html-keyboard-response","133","700450","0.0-29.0-0.3","SS1618365952384","","","null","","","","","","<p><img src= images/blank.png width =""600"" height = ""600"" style=""position:fixed;top:50%; left:50%; transform: translate(-50%, -50%); border:5px solid black"">","","","","","","","",""
"","4725.0200000125915","sequential-stimulus-presentation-old","134","705713","0.0-29.0-1.3","SS1618365952384","trial","","40","500","5225.0200000125915","images/stimuli/spore_stims/complex_19_A_a.gif","images/stimuli/spore_stims/complex_16_A_b.gif","self_paced","","10","complex_dissimilar","images/stimuli/spore_stims/complex_19_A_a.gif","","","","",""
"","null","html-keyboard-response","135","706620","0.0-29.0-0.4","SS1618365952384","","","null","","","","","","<p><img src= images/blank.png width =""600"" height = ""600"" style=""position:fixed;top:50%; left:50%; transform: translate(-50%, -50%); border:5px solid black"">","","","","","","","",""
"","2470.1000000350177","sequential-stimulus-presentation-old","136","709621","0.0-29.0-1.4","SS1618365952384","trial","","40","500","2970.1000000350177","images/stimuli/spore_stims/complex_19_A_a.gif","images/stimuli/spore_stims/complex_16_A_b.gif","self_paced","","10","complex_dissimilar","images/stimuli/spore_stims/complex_16_A_b.gif","","","","",""
"","null","html-keyboard-response","137","710930","0.0-29.0-0.5","SS1618365952384","","","null","","","","","","<p><img src= images/blank.png width =""600"" height = ""600"" style=""position:fixed;top:50%; left:50%; transform: translate(-50%, -50%); border:5px solid black"">","","","","","","","",""
"","2976.8499999772757","sequential-stimulus-presentation-old","138","714442","0.0-29.0-1.5","SS1618365952384","trial","","40","500","3476.8499999772757","images/stimuli/spore_stims/complex_19_A_a.gif","images/stimuli/spore_stims/complex_16_A_b.gif","self_paced","","10","complex_dissimilar","images/stimuli/spore_stims/complex_16_A_b.gif","","","","",""
"","3039.3150000018068","survey-multi-choice","139","717500","0.0-30.0","SS1618365952384","math_question","","","","","","","","","","","","{""Q0"":""4""}","[0]","4","",""
"","null","html-keyboard-response","140","718629","0.0-31.0-0.0","SS1618365952384","","","null","","","","","","<p><img src= images/blank.png width =""600"" height = ""600"" style=""position:fixed;top:50%; left:50%; transform: translate(-50%, -50%); border:5px solid black"">","","","","","","","",""
"","1130.2499999874271","sequential-stimulus-presentation-old","141","724799","0.0-31.0-1.0","SS1618365952384","trial","","40","500","1630.2499999874271","images/stimuli/spore_stims/complex_18_A_a.gif","images/stimuli/spore_stims/complex_09_A_b.gif","forced_long","","11","complex_dissimilar","images/stimuli/spore_stims/complex_09_A_b.gif","","","","",""
"","null","html-keyboard-response","142","726007","0.0-31.0-0.1","SS1618365952384","","","null","","","","","","<p><img src= images/blank.png width =""600"" height = ""600"" style=""position:fixed;top:50%; left:50%; transform: translate(-50%, -50%); border:5px solid black"">","","","","","","","",""
"","2908.370000019204","sequential-stimulus-presentation-old","143","729444","0.0-31.0-1.1","SS1618365952384","trial","","40","500","3408.370000019204","images/stimuli/spore_stims/complex_18_A_a.gif","images/stimuli/spore_stims/complex_09_A_b.gif","forced_long","","11","complex_dissimilar","images/stimuli/spore_stims/complex_09_A_b.gif","","","","",""
"","null","html-keyboard-response","144","730566","0.0-31.0-0.2","SS1618365952384","","","null","","","","","","<p><img src= images/blank.png width =""600"" height = ""600"" style=""position:fixed;top:50%; left:50%; transform: translate(-50%, -50%); border:5px solid black"">","","","","","","","",""
"","3951.8950000056066","sequential-stimulus-presentation-old","145","735058","0.0-31.0-1.2","SS1618365952384","trial","","40","500","4451.895000005607","images/stimuli/spore_stims/complex_18_A_a.gif","images/stimuli/spore_stims/complex_09_A_b.gif","forced_long","","11","complex_dissimilar","images/stimuli/spore_stims/complex_18_A_a.gif","","","","",""
"","null","html-keyboard-response","146","736346","0.0-31.0-0.3","SS1618365952384","","","null","","","","","","<p><img src= images/blank.png width =""600"" height = ""600"" style=""position:fixed;top:50%; left:50%; transform: translate(-50%, -50%); border:5px solid black"">","","","","","","","",""
"","2820.0250000227243","sequential-stimulus-presentation-old","147","739689","0.0-31.0-1.3","SS1618365952384","trial","","40","500","3320.0250000227243","images/stimuli/spore_stims/complex_18_A_a.gif","images/stimuli/spore_stims/complex_09_A_b.gif","forced_long","","11","complex_dissimilar","images/stimuli/spore_stims/complex_09_A_b.gif","","","","",""
"","null","html-keyboard-response","148","740820","0.0-31.0-0.4","SS1618365952384","","","null","","","","","","<p><img src= images/blank.png width =""600"" height = ""600"" style=""position:fixed;top:50%; left:50%; transform: translate(-50%, -50%); border:5px solid black"">","","","","","","","",""
"","2727.909999957774","sequential-stimulus-presentation-old","149","744093","0.0-31.0-1.4","SS1618365952384","trial","","40","500","3227.909999957774","images/stimuli/spore_stims/complex_18_A_a.gif","images/stimuli/spore_stims/complex_09_A_b.gif","forced_long","","11","complex_dissimilar","images/stimuli/spore_stims/complex_18_A_a.gif","","","","",""
"","null","html-keyboard-response","150","745065","0.0-31.0-0.5","SS1618365952384","","","null","","","","","","<p><img src= images/blank.png width =""600"" height = ""600"" style=""position:fixed;top:50%; left:50%; transform: translate(-50%, -50%); border:5px solid black"">","","","","","","","",""
"","2483.955000003334","sequential-stimulus-presentation-old","151","748088","0.0-31.0-1.5","SS1618365952384","trial","","40","500","2983.955000003334","images/stimuli/spore_stims/complex_18_A_a.gif","images/stimuli/spore_stims/complex_09_A_b.gif","forced_long","","11","complex_dissimilar","images/stimuli/spore_stims/complex_09_A_b.gif","","","","",""
"[{""page_index"":0,""viewing_time"":8158.31500000786}]","8159.2149999924","instructions","152","756279","0.0-32.0","SS1618365952384","instructions","","","","","","","","","","","","","","","",""
"","13942.845000012312","survey-likert","153","770236","0.0-33.0","SS1618365952384","similarity_question","","","","","","","","","","","","{""Q0"":2}","[0]","","images/stimuli/spore_stims/complex_06_A_a.gif","images/stimuli/spore_stims/complex_01_A_b.gif"
"","6423.994999960996","survey-likert","154","776676","0.0-34.0","SS1618365952384","similarity_question","","","","","","","","","","","","{""Q0"":2}","[0]","","images/stimuli/spore_stims/simple_07_A_b.gif","images/stimuli/spore_stims/simple_16_A_a.gif"
"","11205.220000003465","survey-likert","155","787898","0.0-35.0","SS1618365952384","similarity_question","","","","","","","","","","","","{""Q0"":4}","[0]","","images/stimuli/spore_stims/complex_04_A_a.gif","images/stimuli/spore_stims/complex_06_A_b.gif"
"","9801.24000000069","survey-likert","156","797715","0.0-36.0","SS1618365952384","similarity_question","","","","","","","","","","","","{""Q0"":4}","[0]","","images/stimuli/spore_stims/simple_11_A_b.gif","images/stimuli/spore_stims/simple_20_A_a.gif"
"","7518.489999987651","survey-likert","157","805249","0.0-37.0","SS1618365952384","similarity_question","","","","","","","","","","","","{""Q0"":1}","[0]","","images/stimuli/spore_stims/complex_16_A_b.gif","images/stimuli/spore_stims/complex_19_A_a.gif"
"","6393.134999962058","survey-likert","158","811657","0.0-38.0","SS1618365952384","similarity_question","","","","","","","","","","","","{""Q0"":5}","[0]","","images/stimuli/spore_stims/simple_02_A_a.gif","images/stimuli/spore_stims/simple_12_A_b.gif"
"","7580.045000009704","survey-likert","159","819252","0.0-39.0","SS1618365952384","similarity_question","","","","","","","","","","","","{""Q0"":1}","[0]","","images/stimuli/spore_stims/complex_03_A_b.gif","images/stimuli/spore_stims/complex_10_A_a.gif"
"","5914.779999991879","survey-likert","160","825181","0.0-40.0","SS1618365952384","similarity_question","","","","","","","","","","","","{""Q0"":0}","[0]","","images/stimuli/spore_stims/complex_13_A_a.gif","images/stimuli/spore_stims/complex_11_A_b.gif"
"","6226.224999991246","survey-likert","161","831421","0.0-41.0","SS1618365952384","similarity_question","","","","","","","","","","","","{""Q0"":4}","[0]","","images/stimuli/spore_stims/complex_09_A_b.gif","images/stimuli/spore_stims/complex_18_A_a.gif"
"","4660.629999998491","survey-likert","162","836097","0.0-42.0","SS1618365952384","similarity_question","","","","","","","","","","","","{""Q0"":6}","[0]","","images/stimuli/spore_stims/simple_06_A_b.gif","images/stimuli/spore_stims/simple_15_A_a.gif"
"","5909.805000002962","survey-likert","163","842023","0.0-43.0","SS1618365952384","similarity_question","","","","","","","","","","","","{""Q0"":2}","[0]","","images/stimuli/spore_stims/simple_19_A_a.gif","images/stimuli/spore_stims/simple_05_A_b.gif"
"","6026.899999997113","survey-likert","164","848064","0.0-44.0","SS1618365952384","similarity_question","","","","","","","","","","","","{""Q0"":4}","[0]","","images/stimuli/spore_stims/simple_18_A_b.gif","images/stimuli/spore_stims/simple_17_A_a.gif"
"[{""page_index"":0,""viewing_time"":8137.104999972507}]","8138.079999946058","instructions","165","856215","0.0-45.0","SS1618365952384","instructions","","","","","","","","","","","","","","","",""
"","5192.344999988563","survey-likert","166","861422","0.0-46.0","SS1618365952384","","","","","","","","","images/stimuli/spore_stims/simple_15_A_a.gif","","","","{""Q0"":1}","[0]","","",""
"","2476.4699999941513","survey-likert","167","863913","0.0-47.0","SS1618365952384","","","","","","","","","images/stimuli/spore_stims/simple_12_A_b.gif","","","","{""Q0"":1}","[0]","","",""
"","4784.619999991264","survey-likert","168","868713","0.0-48.0","SS1618365952384","","","","","","","","","images/stimuli/spore_stims/complex_06_A_a.gif","","","","{""Q0"":5}","[0]","","",""
"","5313.154999981634","survey-likert","169","874041","0.0-49.0","SS1618365952384","","","","","","","","","images/stimuli/spore_stims/simple_16_A_a.gif","","","","{""Q0"":1}","[0]","","",""
"","6230.380000022706","survey-likert","170","880288","0.0-50.0","SS1618365952384","","","","","","","","","images/stimuli/spore_stims/complex_03_A_b.gif","","","","{""Q0"":4}","[0]","","",""
"","3961.539999989327","survey-likert","171","884263","0.0-51.0","SS1618365952384","","","","","","","","","images/stimuli/spore_stims/complex_18_A_a.gif","","","","{""Q0"":5}","[0]","","",""
"","3336.3699999754317","survey-likert","172","887614","0.0-52.0","SS1618365952384","","","","","","","","","images/stimuli/spore_stims/simple_05_A_b.gif","","","","{""Q0"":0}","[0]","","",""
"","3954.2699999874458","survey-likert","173","891583","0.0-53.0","SS1618365952384","","","","","","","","","images/stimuli/spore_stims/complex_06_A_b.gif","","","","{""Q0"":5}","[0]","","",""
"","4081.449999997858","survey-likert","174","895680","0.0-54.0","SS1618365952384","","","","","","","","","images/stimuli/spore_stims/simple_17_A_a.gif","","","","{""Q0"":1}","[0]","","",""
"","5040.800000017043","survey-likert","175","900736","0.0-55.0","SS1618365952384","","","","","","","","","images/stimuli/spore_stims/complex_19_A_a.gif","","","","{""Q0"":6}","[0]","","",""
"","3988.4900000179186","survey-likert","176","904740","0.0-56.0","SS1618365952384","","","","","","","","","images/stimuli/spore_stims/complex_11_A_b.gif","","","","{""Q0"":6}","[0]","","",""
"","3003.96499998169","survey-likert","177","907759","0.0-57.0","SS1618365952384","","","","","","","","","images/stimuli/spore_stims/simple_11_A_b.gif","","","","{""Q0"":1}","[0]","","",""
"[{""page_index"":0,""viewing_time"":2625.0899999868125}]","2625.880000006873","instructions","178","910397","0.0-58.0","SS1618365952384","instructions","","","","","","","","","","","","","","","",""
"","3358.0049999873154","demog-age","179","913773","0.0-59.0","SS1618365952384","","","","","","","","","","","","","{""age"":""36""}","","","",""
"","3047.8449999936856","demog-ethnic-US","180","916847","0.0-60.0","SS1618365952384","","","","","","","","","","","","","{""ethnicity"":[""Hispanic or Latino""]}","[0]","","",""
"","7640.610000002198","demog-gender-and-education","181","924505","0.0-61.0","SS1618365952384","","","","","","","","","","","","","{""gender"":""Female"",""education"":""Master's Degree""}","[0,1]","","",""
"","17856.045000022277","survey-text","182","942382","0.0-62.0","SS1618365952384","feedback","","","","","","","","","","","","{""Q0"":""no this it was fun! ""}","","","",""
"[{""page_index"":0,""viewing_time"":3020.2749999589287}]","3020.9499999764375","instructions","183","945414","0.0-63.0","SS1618365952384","instructions","","","","","","","","","","","","","","","",""
