"view_history","rt","trial_type","trial_index","time_elapsed","internal_node_id","subject","stimulus_type","trial_stimulus","key_press","minimum_viewing_duration","trial_looking_time","block_deviant","block_background","exposure_type","stimulus","block_number","block_type","stimulus_displayed","responses","question_order","math_correct_answer","stimulus_left","stimulus_right"
"[{""page_index"":0,""viewing_time"":349659}]","349660","instructions","0","349661","0.0-0.0","SS1618365891715","","","","","","","","","","","","","","","","",""
"[{""page_index"":0,""viewing_time"":21054},{""page_index"":1,""viewing_time"":11498}]","32552","instructions","1","384221","0.0-1.0","SS1618365891715","instructions","","","","","","","","","","","","","","","",""
"","6251","sequential-stimulus-presentation-old","2","390979","0.0-2.0","SS1618365891715","","","40","500","6751","null","null","self_paced","","","","","","","","",""
"","9994","sequential-stimulus-presentation-old","3","401481","0.0-3.0","SS1618365891715","","","40","500","10494","null","null","self_paced","","","","","","","","",""
"[{""page_index"":0,""viewing_time"":27980}]","27980","instructions","4","429462","0.0-4.0","SS1618365891715","instructions","","","","","","","","","","","","","","","",""
"","885","sequential-stimulus-presentation-old","5","435361","0.0-5.0","SS1618365891715","","","40","500","1385","null","null","forced_long","","","","","","","","",""
"","4457","sequential-stimulus-presentation-old","6","439874","0.0-6.0","SS1618365891715","","","40","50","4507","null","null","forced_long","","","","","","","","",""
"[{""page_index"":0,""viewing_time"":8454}]","8454","instructions","7","448328","0.0-7.0","SS1618365891715","instructions","","","","","","","","","","","","","","","",""
"[{""page_index"":0,""viewing_time"":6947},{""page_index"":1,""viewing_time"":7110},{""page_index"":2,""viewing_time"":5330},{""page_index"":3,""viewing_time"":1467},{""page_index"":4,""viewing_time"":1873}]","22728","instructions","8","471056","0.0-8.0","SS1618365891715","instructions","","","","","","","","","","","","","","","",""
"","null","html-keyboard-response","9","472347","0.0-9.0-0.0","SS1618365891715","","","null","","","","","","<p><img src= images/blank.png width =""600"" height = ""600"" style=""position:fixed;top:50%; left:50%; transform: translate(-50%, -50%); border:5px solid black"">","","","","","","","",""
"","1555","sequential-stimulus-presentation-old","10","473961","0.0-9.0-1.0","SS1618365891715","trial","","40","500","2055","images/stimuli/spore_stims/simple_03_A_b.gif","images/stimuli/spore_stims/simple_19_A_a.gif","forced_short","","0","simple_dissimilar","images/stimuli/spore_stims/simple_19_A_a.gif","","","","",""
"","null","html-keyboard-response","11","474987","0.0-9.0-0.1","SS1618365891715","","","null","","","","","","<p><img src= images/blank.png width =""600"" height = ""600"" style=""position:fixed;top:50%; left:50%; transform: translate(-50%, -50%); border:5px solid black"">","","","","","","","",""
"","10423","sequential-stimulus-presentation-old","12","485930","0.0-9.0-1.1","SS1618365891715","trial","","40","500","10923","images/stimuli/spore_stims/simple_03_A_b.gif","images/stimuli/spore_stims/simple_19_A_a.gif","forced_short","","0","simple_dissimilar","images/stimuli/spore_stims/simple_19_A_a.gif","","","","",""
"","null","html-keyboard-response","13","486967","0.0-9.0-0.2","SS1618365891715","","","null","","","","","","<p><img src= images/blank.png width =""600"" height = ""600"" style=""position:fixed;top:50%; left:50%; transform: translate(-50%, -50%); border:5px solid black"">","","","","","","","",""
"","6603","sequential-stimulus-presentation-old","14","494090","0.0-9.0-1.2","SS1618365891715","trial","","40","500","7103","images/stimuli/spore_stims/simple_03_A_b.gif","images/stimuli/spore_stims/simple_19_A_a.gif","forced_short","","0","simple_dissimilar","images/stimuli/spore_stims/simple_19_A_a.gif","","","","",""
"","null","html-keyboard-response","15","494918","0.0-9.0-0.3","SS1618365891715","","","null","","","","","","<p><img src= images/blank.png width =""600"" height = ""600"" style=""position:fixed;top:50%; left:50%; transform: translate(-50%, -50%); border:5px solid black"">","","","","","","","",""
"","7669","sequential-stimulus-presentation-old","16","503106","0.0-9.0-1.3","SS1618365891715","trial","","40","500","8169","images/stimuli/spore_stims/simple_03_A_b.gif","images/stimuli/spore_stims/simple_19_A_a.gif","forced_short","","0","simple_dissimilar","images/stimuli/spore_stims/simple_19_A_a.gif","","","","",""
"","null","html-keyboard-response","17","504337","0.0-9.0-0.4","SS1618365891715","","","null","","","","","","<p><img src= images/blank.png width =""600"" height = ""600"" style=""position:fixed;top:50%; left:50%; transform: translate(-50%, -50%); border:5px solid black"">","","","","","","","",""
"","4833","sequential-stimulus-presentation-old","18","509690","0.0-9.0-1.4","SS1618365891715","trial","","40","500","5333","images/stimuli/spore_stims/simple_03_A_b.gif","images/stimuli/spore_stims/simple_19_A_a.gif","forced_short","","0","simple_dissimilar","images/stimuli/spore_stims/simple_19_A_a.gif","","","","",""
"","null","html-keyboard-response","19","510758","0.0-9.0-0.5","SS1618365891715","","","null","","","","","","<p><img src= images/blank.png width =""600"" height = ""600"" style=""position:fixed;top:50%; left:50%; transform: translate(-50%, -50%); border:5px solid black"">","","","","","","","",""
"","2332","sequential-stimulus-presentation-old","20","513610","0.0-9.0-1.5","SS1618365891715","trial","","40","500","2832","images/stimuli/spore_stims/simple_03_A_b.gif","images/stimuli/spore_stims/simple_19_A_a.gif","forced_short","","0","simple_dissimilar","images/stimuli/spore_stims/simple_19_A_a.gif","","","","",""
"","6434","survey-multi-choice","21","520046","0.0-10.0","SS1618365891715","math_question","","","","","","","","","","","","{""Q0"":""18""}","[0]","18","",""
"","null","html-keyboard-response","22","521017","0.0-11.0-0.0","SS1618365891715","","","null","","","","","","<p><img src= images/blank.png width =""600"" height = ""600"" style=""position:fixed;top:50%; left:50%; transform: translate(-50%, -50%); border:5px solid black"">","","","","","","","",""
"","353","sequential-stimulus-presentation-old","23","526386","0.0-11.0-1.0","SS1618365891715","trial","","40","500","853","images/stimuli/spore_stims/complex_16_A_b.gif","images/stimuli/spore_stims/complex_18_A_a.gif","forced_long","","1","complex_dissimilar","images/stimuli/spore_stims/complex_18_A_a.gif","","","","",""
"","null","html-keyboard-response","24","527608","0.0-11.0-0.1","SS1618365891715","","","null","","","","","","<p><img src= images/blank.png width =""600"" height = ""600"" style=""position:fixed;top:50%; left:50%; transform: translate(-50%, -50%); border:5px solid black"">","","","","","","","",""
"","6402","sequential-stimulus-presentation-old","25","534530","0.0-11.0-1.1","SS1618365891715","trial","","40","500","6902","images/stimuli/spore_stims/complex_16_A_b.gif","images/stimuli/spore_stims/complex_18_A_a.gif","forced_long","","1","complex_dissimilar","images/stimuli/spore_stims/complex_18_A_a.gif","","","","",""
"","null","html-keyboard-response","26","535387","0.0-11.0-0.2","SS1618365891715","","","null","","","","","","<p><img src= images/blank.png width =""600"" height = ""600"" style=""position:fixed;top:50%; left:50%; transform: translate(-50%, -50%); border:5px solid black"">","","","","","","","",""
"","3087","sequential-stimulus-presentation-old","27","538994","0.0-11.0-1.2","SS1618365891715","trial","","40","500","3587","images/stimuli/spore_stims/complex_16_A_b.gif","images/stimuli/spore_stims/complex_18_A_a.gif","forced_long","","1","complex_dissimilar","images/stimuli/spore_stims/complex_18_A_a.gif","","","","",""
"","null","html-keyboard-response","28","540207","0.0-11.0-0.3","SS1618365891715","","","null","","","","","","<p><img src= images/blank.png width =""600"" height = ""600"" style=""position:fixed;top:50%; left:50%; transform: translate(-50%, -50%); border:5px solid black"">","","","","","","","",""
"","2946","sequential-stimulus-presentation-old","29","543674","0.0-11.0-1.3","SS1618365891715","trial","","40","500","3446","images/stimuli/spore_stims/complex_16_A_b.gif","images/stimuli/spore_stims/complex_18_A_a.gif","forced_long","","1","complex_dissimilar","images/stimuli/spore_stims/complex_18_A_a.gif","","","","",""
"","null","html-keyboard-response","30","544507","0.0-11.0-0.4","SS1618365891715","","","null","","","","","","<p><img src= images/blank.png width =""600"" height = ""600"" style=""position:fixed;top:50%; left:50%; transform: translate(-50%, -50%); border:5px solid black"">","","","","","","","",""
"","4766","sequential-stimulus-presentation-old","31","549794","0.0-11.0-1.4","SS1618365891715","trial","","40","500","5266","images/stimuli/spore_stims/complex_16_A_b.gif","images/stimuli/spore_stims/complex_18_A_a.gif","forced_long","","1","complex_dissimilar","images/stimuli/spore_stims/complex_18_A_a.gif","","","","",""
"","3953","survey-multi-choice","32","553749","0.0-12.0","SS1618365891715","math_question","","","","","","","","","","","","{""Q0"":""8""}","[0]","8","",""
"","null","html-keyboard-response","33","555007","0.0-13.0-0.0","SS1618365891715","","","null","","","","","","<p><img src= images/blank.png width =""600"" height = ""600"" style=""position:fixed;top:50%; left:50%; transform: translate(-50%, -50%); border:5px solid black"">","","","","","","","",""
"","4450","sequential-stimulus-presentation-old","34","559978","0.0-13.0-1.0","SS1618365891715","trial","","40","500","4950","images/stimuli/spore_stims/complex_10_A_b.gif","images/stimuli/spore_stims/complex_09_A_a.gif","self_paced","","2","complex_dissimilar","images/stimuli/spore_stims/complex_09_A_a.gif","","","","",""
"","null","html-keyboard-response","35","560844","0.0-13.0-0.1","SS1618365891715","","","null","","","","","","<p><img src= images/blank.png width =""600"" height = ""600"" style=""position:fixed;top:50%; left:50%; transform: translate(-50%, -50%); border:5px solid black"">","","","","","","","",""
"","2716","sequential-stimulus-presentation-old","36","564074","0.0-13.0-1.1","SS1618365891715","trial","","40","500","3216","images/stimuli/spore_stims/complex_10_A_b.gif","images/stimuli/spore_stims/complex_09_A_a.gif","self_paced","","2","complex_dissimilar","images/stimuli/spore_stims/complex_10_A_b.gif","","","","",""
"","null","html-keyboard-response","37","565118","0.0-13.0-0.2","SS1618365891715","","","null","","","","","","<p><img src= images/blank.png width =""600"" height = ""600"" style=""position:fixed;top:50%; left:50%; transform: translate(-50%, -50%); border:5px solid black"">","","","","","","","",""
"","3308","sequential-stimulus-presentation-old","38","568946","0.0-13.0-1.2","SS1618365891715","trial","","40","500","3808","images/stimuli/spore_stims/complex_10_A_b.gif","images/stimuli/spore_stims/complex_09_A_a.gif","self_paced","","2","complex_dissimilar","images/stimuli/spore_stims/complex_09_A_a.gif","","","","",""
"","null","html-keyboard-response","39","569937","0.0-13.0-0.3","SS1618365891715","","","null","","","","","","<p><img src= images/blank.png width =""600"" height = ""600"" style=""position:fixed;top:50%; left:50%; transform: translate(-50%, -50%); border:5px solid black"">","","","","","","","",""
"","4993","sequential-stimulus-presentation-old","40","575450","0.0-13.0-1.3","SS1618365891715","trial","","40","500","5493","images/stimuli/spore_stims/complex_10_A_b.gif","images/stimuli/spore_stims/complex_09_A_a.gif","self_paced","","2","complex_dissimilar","images/stimuli/spore_stims/complex_09_A_a.gif","","","","",""
"","null","html-keyboard-response","41","576617","0.0-13.0-0.4","SS1618365891715","","","null","","","","","","<p><img src= images/blank.png width =""600"" height = ""600"" style=""position:fixed;top:50%; left:50%; transform: translate(-50%, -50%); border:5px solid black"">","","","","","","","",""
"","4168","sequential-stimulus-presentation-old","42","581306","0.0-13.0-1.4","SS1618365891715","trial","","40","500","4668","images/stimuli/spore_stims/complex_10_A_b.gif","images/stimuli/spore_stims/complex_09_A_a.gif","self_paced","","2","complex_dissimilar","images/stimuli/spore_stims/complex_09_A_a.gif","","","","",""
"","5331","survey-multi-choice","43","586638","0.0-14.0","SS1618365891715","math_question","","","","","","","","","","","","{""Q0"":""7""}","[0]","7","",""
"","null","html-keyboard-response","44","587827","0.0-15.0-0.0","SS1618365891715","","","null","","","","","","<p><img src= images/blank.png width =""600"" height = ""600"" style=""position:fixed;top:50%; left:50%; transform: translate(-50%, -50%); border:5px solid black"">","","","","","","","",""
"","7779","sequential-stimulus-presentation-old","45","600626","0.0-15.0-1.0","SS1618365891715","trial","","40","500","8279","images/stimuli/spore_stims/simple_05_A_b.gif","images/stimuli/spore_stims/simple_15_A_a.gif","forced_long","","3","simple_dissimilar","images/stimuli/spore_stims/simple_15_A_a.gif","","","","",""
"","null","html-keyboard-response","46","601687","0.0-15.0-0.1","SS1618365891715","","","null","","","","","","<p><img src= images/blank.png width =""600"" height = ""600"" style=""position:fixed;top:50%; left:50%; transform: translate(-50%, -50%); border:5px solid black"">","","","","","","","",""
"","3986","sequential-stimulus-presentation-old","47","606194","0.0-15.0-1.1","SS1618365891715","trial","","40","500","4486","images/stimuli/spore_stims/simple_05_A_b.gif","images/stimuli/spore_stims/simple_15_A_a.gif","forced_long","","3","simple_dissimilar","images/stimuli/spore_stims/simple_15_A_a.gif","","","","",""
"","null","html-keyboard-response","48","607488","0.0-15.0-0.2","SS1618365891715","","","null","","","","","","<p><img src= images/blank.png width =""600"" height = ""600"" style=""position:fixed;top:50%; left:50%; transform: translate(-50%, -50%); border:5px solid black"">","","","","","","","",""
"","2826","sequential-stimulus-presentation-old","49","610834","0.0-15.0-1.2","SS1618365891715","trial","","40","500","3326","images/stimuli/spore_stims/simple_05_A_b.gif","images/stimuli/spore_stims/simple_15_A_a.gif","forced_long","","3","simple_dissimilar","images/stimuli/spore_stims/simple_15_A_a.gif","","","","",""
"","null","html-keyboard-response","50","611788","0.0-15.0-0.3","SS1618365891715","","","null","","","","","","<p><img src= images/blank.png width =""600"" height = ""600"" style=""position:fixed;top:50%; left:50%; transform: translate(-50%, -50%); border:5px solid black"">","","","","","","","",""
"","2095","sequential-stimulus-presentation-old","51","614402","0.0-15.0-1.3","SS1618365891715","trial","","40","500","2595","images/stimuli/spore_stims/simple_05_A_b.gif","images/stimuli/spore_stims/simple_15_A_a.gif","forced_long","","3","simple_dissimilar","images/stimuli/spore_stims/simple_15_A_a.gif","","","","",""
"","null","html-keyboard-response","52","615408","0.0-15.0-0.4","SS1618365891715","","","null","","","","","","<p><img src= images/blank.png width =""600"" height = ""600"" style=""position:fixed;top:50%; left:50%; transform: translate(-50%, -50%); border:5px solid black"">","","","","","","","",""
"","2634","sequential-stimulus-presentation-old","53","618562","0.0-15.0-1.4","SS1618365891715","trial","","40","500","3134","images/stimuli/spore_stims/simple_05_A_b.gif","images/stimuli/spore_stims/simple_15_A_a.gif","forced_long","","3","simple_dissimilar","images/stimuli/spore_stims/simple_05_A_b.gif","","","","",""
"","null","html-keyboard-response","54","619647","0.0-15.0-0.5","SS1618365891715","","","null","","","","","","<p><img src= images/blank.png width =""600"" height = ""600"" style=""position:fixed;top:50%; left:50%; transform: translate(-50%, -50%); border:5px solid black"">","","","","","","","",""
"","5763","sequential-stimulus-presentation-old","55","625930","0.0-15.0-1.5","SS1618365891715","trial","","40","500","6263","images/stimuli/spore_stims/simple_05_A_b.gif","images/stimuli/spore_stims/simple_15_A_a.gif","forced_long","","3","simple_dissimilar","images/stimuli/spore_stims/simple_05_A_b.gif","","","","",""
"","3352","survey-multi-choice","56","629283","0.0-16.0","SS1618365891715","math_question","","","","","","","","","","","","{""Q0"":""15""}","[0]","15","",""
"","null","html-keyboard-response","57","630182","0.0-17.0-0.0","SS1618365891715","","","null","","","","","","<p><img src= images/blank.png width =""600"" height = ""600"" style=""position:fixed;top:50%; left:50%; transform: translate(-50%, -50%); border:5px solid black"">","","","","","","","",""
"","3578","sequential-stimulus-presentation-old","58","634266","0.0-17.0-1.0","SS1618365891715","trial","","40","500","4078","images/stimuli/spore_stims/simple_03_A_a.gif","images/stimuli/spore_stims/simple_08_A_b.gif","self_paced","","4","simple_dissimilar","images/stimuli/spore_stims/simple_08_A_b.gif","","","","",""
"","null","html-keyboard-response","59","635347","0.0-17.0-0.1","SS1618365891715","","","null","","","","","","<p><img src= images/blank.png width =""600"" height = ""600"" style=""position:fixed;top:50%; left:50%; transform: translate(-50%, -50%); border:5px solid black"">","","","","","","","",""
"","543","sequential-stimulus-presentation-old","60","636410","0.0-17.0-1.1","SS1618365891715","trial","","40","500","1043","images/stimuli/spore_stims/simple_03_A_a.gif","images/stimuli/spore_stims/simple_08_A_b.gif","self_paced","","4","simple_dissimilar","images/stimuli/spore_stims/simple_08_A_b.gif","","","","",""
"","null","html-keyboard-response","61","637417","0.0-17.0-0.2","SS1618365891715","","","null","","","","","","<p><img src= images/blank.png width =""600"" height = ""600"" style=""position:fixed;top:50%; left:50%; transform: translate(-50%, -50%); border:5px solid black"">","","","","","","","",""
"","873","sequential-stimulus-presentation-old","62","638810","0.0-17.0-1.2","SS1618365891715","trial","","40","500","1373","images/stimuli/spore_stims/simple_03_A_a.gif","images/stimuli/spore_stims/simple_08_A_b.gif","self_paced","","4","simple_dissimilar","images/stimuli/spore_stims/simple_08_A_b.gif","","","","",""
"","null","html-keyboard-response","63","639858","0.0-17.0-0.3","SS1618365891715","","","null","","","","","","<p><img src= images/blank.png width =""600"" height = ""600"" style=""position:fixed;top:50%; left:50%; transform: translate(-50%, -50%); border:5px solid black"">","","","","","","","",""
"","1281","sequential-stimulus-presentation-old","64","641658","0.0-17.0-1.3","SS1618365891715","trial","","40","500","1781","images/stimuli/spore_stims/simple_03_A_a.gif","images/stimuli/spore_stims/simple_08_A_b.gif","self_paced","","4","simple_dissimilar","images/stimuli/spore_stims/simple_08_A_b.gif","","","","",""
"","null","html-keyboard-response","65","642898","0.0-17.0-0.4","SS1618365891715","","","null","","","","","","<p><img src= images/blank.png width =""600"" height = ""600"" style=""position:fixed;top:50%; left:50%; transform: translate(-50%, -50%); border:5px solid black"">","","","","","","","",""
"","2272","sequential-stimulus-presentation-old","66","645690","0.0-17.0-1.4","SS1618365891715","trial","","40","500","2772","images/stimuli/spore_stims/simple_03_A_a.gif","images/stimuli/spore_stims/simple_08_A_b.gif","self_paced","","4","simple_dissimilar","images/stimuli/spore_stims/simple_03_A_a.gif","","","","",""
"","4622","survey-multi-choice","67","650314","0.0-18.0","SS1618365891715","math_question","","","","","","","","","","","","{""Q0"":""11""}","[0]","11","",""
"","null","html-keyboard-response","68","651357","0.0-19.0-0.0","SS1618365891715","","","null","","","","","","<p><img src= images/blank.png width =""600"" height = ""600"" style=""position:fixed;top:50%; left:50%; transform: translate(-50%, -50%); border:5px solid black"">","","","","","","","",""
"","2773","sequential-stimulus-presentation-old","69","654650","0.0-19.0-1.0","SS1618365891715","trial","","40","500","3273","images/stimuli/spore_stims/simple_08_A_a.gif","images/stimuli/spore_stims/simple_18_A_b.gif","self_paced","","5","simple_dissimilar","images/stimuli/spore_stims/simple_18_A_b.gif","","","","",""
"","null","html-keyboard-response","70","655897","0.0-19.0-0.1","SS1618365891715","","","null","","","","","","<p><img src= images/blank.png width =""600"" height = ""600"" style=""position:fixed;top:50%; left:50%; transform: translate(-50%, -50%); border:5px solid black"">","","","","","","","",""
"","2968","sequential-stimulus-presentation-old","71","659386","0.0-19.0-1.1","SS1618365891715","trial","","40","500","3468","images/stimuli/spore_stims/simple_08_A_a.gif","images/stimuli/spore_stims/simple_18_A_b.gif","self_paced","","5","simple_dissimilar","images/stimuli/spore_stims/simple_08_A_a.gif","","","","",""
"","null","html-keyboard-response","72","660577","0.0-19.0-0.2","SS1618365891715","","","null","","","","","","<p><img src= images/blank.png width =""600"" height = ""600"" style=""position:fixed;top:50%; left:50%; transform: translate(-50%, -50%); border:5px solid black"">","","","","","","","",""
"","1841","sequential-stimulus-presentation-old","73","662938","0.0-19.0-1.2","SS1618365891715","trial","","40","500","2341","images/stimuli/spore_stims/simple_08_A_a.gif","images/stimuli/spore_stims/simple_18_A_b.gif","self_paced","","5","simple_dissimilar","images/stimuli/spore_stims/simple_18_A_b.gif","","","","",""
"","null","html-keyboard-response","74","664157","0.0-19.0-0.3","SS1618365891715","","","null","","","","","","<p><img src= images/blank.png width =""600"" height = ""600"" style=""position:fixed;top:50%; left:50%; transform: translate(-50%, -50%); border:5px solid black"">","","","","","","","",""
"","2293","sequential-stimulus-presentation-old","75","666970","0.0-19.0-1.3","SS1618365891715","trial","","40","500","2793","images/stimuli/spore_stims/simple_08_A_a.gif","images/stimuli/spore_stims/simple_18_A_b.gif","self_paced","","5","simple_dissimilar","images/stimuli/spore_stims/simple_08_A_a.gif","","","","",""
"","null","html-keyboard-response","76","667957","0.0-19.0-0.4","SS1618365891715","","","null","","","","","","<p><img src= images/blank.png width =""600"" height = ""600"" style=""position:fixed;top:50%; left:50%; transform: translate(-50%, -50%); border:5px solid black"">","","","","","","","",""
"","1413","sequential-stimulus-presentation-old","77","669890","0.0-19.0-1.4","SS1618365891715","trial","","40","500","1913","images/stimuli/spore_stims/simple_08_A_a.gif","images/stimuli/spore_stims/simple_18_A_b.gif","self_paced","","5","simple_dissimilar","images/stimuli/spore_stims/simple_18_A_b.gif","","","","",""
"","2735","survey-multi-choice","78","672627","0.0-20.0","SS1618365891715","math_question","","","","","","","","","","","","{""Q0"":""4""}","[0]","4","",""
"","null","html-keyboard-response","79","673638","0.0-21.0-0.0","SS1618365891715","","","null","","","","","","<p><img src= images/blank.png width =""600"" height = ""600"" style=""position:fixed;top:50%; left:50%; transform: translate(-50%, -50%); border:5px solid black"">","","","","","","","",""
"","3089","sequential-stimulus-presentation-old","80","681738","0.0-21.0-1.0","SS1618365891715","trial","","40","500","3589","images/stimuli/spore_stims/simple_06_A_b.gif","images/stimuli/spore_stims/simple_14_A_a.gif","forced_long","","6","simple_dissimilar","images/stimuli/spore_stims/simple_14_A_a.gif","","","","",""
"","null","html-keyboard-response","81","682828","0.0-21.0-0.1","SS1618365891715","","","null","","","","","","<p><img src= images/blank.png width =""600"" height = ""600"" style=""position:fixed;top:50%; left:50%; transform: translate(-50%, -50%); border:5px solid black"">","","","","","","","",""
"","2383","sequential-stimulus-presentation-old","82","685730","0.0-21.0-1.1","SS1618365891715","trial","","40","500","2883","images/stimuli/spore_stims/simple_06_A_b.gif","images/stimuli/spore_stims/simple_14_A_a.gif","forced_long","","6","simple_dissimilar","images/stimuli/spore_stims/simple_14_A_a.gif","","","","",""
"","null","html-keyboard-response","83","686708","0.0-21.0-0.2","SS1618365891715","","","null","","","","","","<p><img src= images/blank.png width =""600"" height = ""600"" style=""position:fixed;top:50%; left:50%; transform: translate(-50%, -50%); border:5px solid black"">","","","","","","","",""
"","2526","sequential-stimulus-presentation-old","84","689754","0.0-21.0-1.2","SS1618365891715","trial","","40","500","3026","images/stimuli/spore_stims/simple_06_A_b.gif","images/stimuli/spore_stims/simple_14_A_a.gif","forced_long","","6","simple_dissimilar","images/stimuli/spore_stims/simple_14_A_a.gif","","","","",""
"","null","html-keyboard-response","85","690728","0.0-21.0-0.3","SS1618365891715","","","null","","","","","","<p><img src= images/blank.png width =""600"" height = ""600"" style=""position:fixed;top:50%; left:50%; transform: translate(-50%, -50%); border:5px solid black"">","","","","","","","",""
"","1867","sequential-stimulus-presentation-old","86","693114","0.0-21.0-1.3","SS1618365891715","trial","","40","500","2367","images/stimuli/spore_stims/simple_06_A_b.gif","images/stimuli/spore_stims/simple_14_A_a.gif","forced_long","","6","simple_dissimilar","images/stimuli/spore_stims/simple_14_A_a.gif","","","","",""
"","null","html-keyboard-response","87","694288","0.0-21.0-0.4","SS1618365891715","","","null","","","","","","<p><img src= images/blank.png width =""600"" height = ""600"" style=""position:fixed;top:50%; left:50%; transform: translate(-50%, -50%); border:5px solid black"">","","","","","","","",""
"","2922","sequential-stimulus-presentation-old","88","697730","0.0-21.0-1.4","SS1618365891715","trial","","40","500","3422","images/stimuli/spore_stims/simple_06_A_b.gif","images/stimuli/spore_stims/simple_14_A_a.gif","forced_long","","6","simple_dissimilar","images/stimuli/spore_stims/simple_06_A_b.gif","","","","",""
"","3174","survey-multi-choice","89","700906","0.0-22.0","SS1618365891715","math_question","","","","","","","","","","","","{""Q0"":""11""}","[0]","11","",""
"","null","html-keyboard-response","90","701948","0.0-23.0-0.0","SS1618365891715","","","null","","","","","","<p><img src= images/blank.png width =""600"" height = ""600"" style=""position:fixed;top:50%; left:50%; transform: translate(-50%, -50%); border:5px solid black"">","","","","","","","",""
"","1395","sequential-stimulus-presentation-old","91","708362","0.0-23.0-1.0","SS1618365891715","trial","","40","500","1895","images/stimuli/spore_stims/complex_05_A_b.gif","images/stimuli/spore_stims/complex_12_A_a.gif","forced_long","","7","complex_dissimilar","images/stimuli/spore_stims/complex_12_A_a.gif","","","","",""
"","null","html-keyboard-response","92","709588","0.0-23.0-0.1","SS1618365891715","","","null","","","","","","<p><img src= images/blank.png width =""600"" height = ""600"" style=""position:fixed;top:50%; left:50%; transform: translate(-50%, -50%); border:5px solid black"">","","","","","","","",""
"","5695","sequential-stimulus-presentation-old","93","715802","0.0-23.0-1.1","SS1618365891715","trial","","40","500","6195","images/stimuli/spore_stims/complex_05_A_b.gif","images/stimuli/spore_stims/complex_12_A_a.gif","forced_long","","7","complex_dissimilar","images/stimuli/spore_stims/complex_12_A_a.gif","","","","",""
"","null","html-keyboard-response","94","716847","0.0-23.0-0.2","SS1618365891715","","","null","","","","","","<p><img src= images/blank.png width =""600"" height = ""600"" style=""position:fixed;top:50%; left:50%; transform: translate(-50%, -50%); border:5px solid black"">","","","","","","","",""
"","3523","sequential-stimulus-presentation-old","95","720890","0.0-23.0-1.2","SS1618365891715","trial","","40","500","4023","images/stimuli/spore_stims/complex_05_A_b.gif","images/stimuli/spore_stims/complex_12_A_a.gif","forced_long","","7","complex_dissimilar","images/stimuli/spore_stims/complex_12_A_a.gif","","","","",""
"","null","html-keyboard-response","96","722107","0.0-23.0-0.3","SS1618365891715","","","null","","","","","","<p><img src= images/blank.png width =""600"" height = ""600"" style=""position:fixed;top:50%; left:50%; transform: translate(-50%, -50%); border:5px solid black"">","","","","","","","",""
"","622","sequential-stimulus-presentation-old","97","723250","0.0-23.0-1.3","SS1618365891715","trial","","40","500","1122","images/stimuli/spore_stims/complex_05_A_b.gif","images/stimuli/spore_stims/complex_12_A_a.gif","forced_long","","7","complex_dissimilar","images/stimuli/spore_stims/complex_12_A_a.gif","","","","",""
"","null","html-keyboard-response","98","724128","0.0-23.0-0.4","SS1618365891715","","","null","","","","","","<p><img src= images/blank.png width =""600"" height = ""600"" style=""position:fixed;top:50%; left:50%; transform: translate(-50%, -50%); border:5px solid black"">","","","","","","","",""
"","1074","sequential-stimulus-presentation-old","99","725722","0.0-23.0-1.4","SS1618365891715","trial","","40","500","1574","images/stimuli/spore_stims/complex_05_A_b.gif","images/stimuli/spore_stims/complex_12_A_a.gif","forced_long","","7","complex_dissimilar","images/stimuli/spore_stims/complex_12_A_a.gif","","","","",""
"","null","html-keyboard-response","100","726748","0.0-23.0-0.5","SS1618365891715","","","null","","","","","","<p><img src= images/blank.png width =""600"" height = ""600"" style=""position:fixed;top:50%; left:50%; transform: translate(-50%, -50%); border:5px solid black"">","","","","","","","",""
"","1183","sequential-stimulus-presentation-old","101","728450","0.0-23.0-1.5","SS1618365891715","trial","","40","500","1683","images/stimuli/spore_stims/complex_05_A_b.gif","images/stimuli/spore_stims/complex_12_A_a.gif","forced_long","","7","complex_dissimilar","images/stimuli/spore_stims/complex_12_A_a.gif","","","","",""
"","4246","survey-multi-choice","102","732699","0.0-24.0","SS1618365891715","math_question","","","","","","","","","","","","{""Q0"":""17""}","[0]","17","",""
"","null","html-keyboard-response","103","733808","0.0-25.0-0.0","SS1618365891715","","","null","","","","","","<p><img src= images/blank.png width =""600"" height = ""600"" style=""position:fixed;top:50%; left:50%; transform: translate(-50%, -50%); border:5px solid black"">","","","","","","","",""
"","1110","sequential-stimulus-presentation-old","104","734978","0.0-25.0-1.0","SS1618365891715","trial","","40","500","1610","images/stimuli/spore_stims/simple_09_A_b.gif","images/stimuli/spore_stims/simple_20_A_a.gif","forced_short","","8","simple_dissimilar","images/stimuli/spore_stims/simple_20_A_a.gif","","","","",""
"","null","html-keyboard-response","105","736168","0.0-25.0-0.1","SS1618365891715","","","null","","","","","","<p><img src= images/blank.png width =""600"" height = ""600"" style=""position:fixed;top:50%; left:50%; transform: translate(-50%, -50%); border:5px solid black"">","","","","","","","",""
"","1964","sequential-stimulus-presentation-old","106","738650","0.0-25.0-1.1","SS1618365891715","trial","","40","500","2464","images/stimuli/spore_stims/simple_09_A_b.gif","images/stimuli/spore_stims/simple_20_A_a.gif","forced_short","","8","simple_dissimilar","images/stimuli/spore_stims/simple_20_A_a.gif","","","","",""
"","null","html-keyboard-response","107","739588","0.0-25.0-0.2","SS1618365891715","","","null","","","","","","<p><img src= images/blank.png width =""600"" height = ""600"" style=""position:fixed;top:50%; left:50%; transform: translate(-50%, -50%); border:5px solid black"">","","","","","","","",""
"","231","sequential-stimulus-presentation-old","108","740338","0.0-25.0-1.2","SS1618365891715","trial","","40","500","731","images/stimuli/spore_stims/simple_09_A_b.gif","images/stimuli/spore_stims/simple_20_A_a.gif","forced_short","","8","simple_dissimilar","images/stimuli/spore_stims/simple_20_A_a.gif","","","","",""
"","null","html-keyboard-response","109","741367","0.0-25.0-0.3","SS1618365891715","","","null","","","","","","<p><img src= images/blank.png width =""600"" height = ""600"" style=""position:fixed;top:50%; left:50%; transform: translate(-50%, -50%); border:5px solid black"">","","","","","","","",""
"","1603","sequential-stimulus-presentation-old","110","743490","0.0-25.0-1.3","SS1618365891715","trial","","40","500","2103","images/stimuli/spore_stims/simple_09_A_b.gif","images/stimuli/spore_stims/simple_20_A_a.gif","forced_short","","8","simple_dissimilar","images/stimuli/spore_stims/simple_09_A_b.gif","","","","",""
"","null","html-keyboard-response","111","744528","0.0-25.0-0.4","SS1618365891715","","","null","","","","","","<p><img src= images/blank.png width =""600"" height = ""600"" style=""position:fixed;top:50%; left:50%; transform: translate(-50%, -50%); border:5px solid black"">","","","","","","","",""
"","1570","sequential-stimulus-presentation-old","112","746618","0.0-25.0-1.4","SS1618365891715","trial","","40","500","2070","images/stimuli/spore_stims/simple_09_A_b.gif","images/stimuli/spore_stims/simple_20_A_a.gif","forced_short","","8","simple_dissimilar","images/stimuli/spore_stims/simple_20_A_a.gif","","","","",""
"","null","html-keyboard-response","113","747928","0.0-25.0-0.5","SS1618365891715","","","null","","","","","","<p><img src= images/blank.png width =""600"" height = ""600"" style=""position:fixed;top:50%; left:50%; transform: translate(-50%, -50%); border:5px solid black"">","","","","","","","",""
"","619","sequential-stimulus-presentation-old","114","749067","0.0-25.0-1.5","SS1618365891715","trial","","40","500","1119","images/stimuli/spore_stims/simple_09_A_b.gif","images/stimuli/spore_stims/simple_20_A_a.gif","forced_short","","8","simple_dissimilar","images/stimuli/spore_stims/simple_20_A_a.gif","","","","",""
"","4040","survey-multi-choice","115","753109","0.0-26.0","SS1618365891715","math_question","","","","","","","","","","","","{""Q0"":""4""}","[0]","4","",""
"","null","html-keyboard-response","116","754268","0.0-27.0-0.0","SS1618365891715","","","null","","","","","","<p><img src= images/blank.png width =""600"" height = ""600"" style=""position:fixed;top:50%; left:50%; transform: translate(-50%, -50%); border:5px solid black"">","","","","","","","",""
"","3198","sequential-stimulus-presentation-old","117","757986","0.0-27.0-1.0","SS1618365891715","trial","","40","500","3698","images/stimuli/spore_stims/complex_01_A_a.gif","images/stimuli/spore_stims/complex_06_A_b.gif","self_paced","","9","complex_dissimilar","images/stimuli/spore_stims/complex_06_A_b.gif","","","","",""
"","null","html-keyboard-response","118","759277","0.0-27.0-0.1","SS1618365891715","","","null","","","","","","<p><img src= images/blank.png width =""600"" height = ""600"" style=""position:fixed;top:50%; left:50%; transform: translate(-50%, -50%); border:5px solid black"">","","","","","","","",""
"","5326","sequential-stimulus-presentation-old","119","765122","0.0-27.0-1.1","SS1618365891715","trial","","40","500","5826","images/stimuli/spore_stims/complex_01_A_a.gif","images/stimuli/spore_stims/complex_06_A_b.gif","self_paced","","9","complex_dissimilar","images/stimuli/spore_stims/complex_06_A_b.gif","","","","",""
"","null","html-keyboard-response","120","766037","0.0-27.0-0.2","SS1618365891715","","","null","","","","","","<p><img src= images/blank.png width =""600"" height = ""600"" style=""position:fixed;top:50%; left:50%; transform: translate(-50%, -50%); border:5px solid black"">","","","","","","","",""
"","3596","sequential-stimulus-presentation-old","121","770154","0.0-27.0-1.2","SS1618365891715","trial","","40","500","4096","images/stimuli/spore_stims/complex_01_A_a.gif","images/stimuli/spore_stims/complex_06_A_b.gif","self_paced","","9","complex_dissimilar","images/stimuli/spore_stims/complex_06_A_b.gif","","","","",""
"","null","html-keyboard-response","122","771158","0.0-27.0-0.3","SS1618365891715","","","null","","","","","","<p><img src= images/blank.png width =""600"" height = ""600"" style=""position:fixed;top:50%; left:50%; transform: translate(-50%, -50%); border:5px solid black"">","","","","","","","",""
"","1413","sequential-stimulus-presentation-old","123","773090","0.0-27.0-1.3","SS1618365891715","trial","","40","500","1913","images/stimuli/spore_stims/complex_01_A_a.gif","images/stimuli/spore_stims/complex_06_A_b.gif","self_paced","","9","complex_dissimilar","images/stimuli/spore_stims/complex_06_A_b.gif","","","","",""
"","null","html-keyboard-response","124","774117","0.0-27.0-0.4","SS1618365891715","","","null","","","","","","<p><img src= images/blank.png width =""600"" height = ""600"" style=""position:fixed;top:50%; left:50%; transform: translate(-50%, -50%); border:5px solid black"">","","","","","","","",""
"","2781","sequential-stimulus-presentation-old","125","777418","0.0-27.0-1.4","SS1618365891715","trial","","40","500","3281","images/stimuli/spore_stims/complex_01_A_a.gif","images/stimuli/spore_stims/complex_06_A_b.gif","self_paced","","9","complex_dissimilar","images/stimuli/spore_stims/complex_06_A_b.gif","","","","",""
"","null","html-keyboard-response","126","778518","0.0-27.0-0.5","SS1618365891715","","","null","","","","","","<p><img src= images/blank.png width =""600"" height = ""600"" style=""position:fixed;top:50%; left:50%; transform: translate(-50%, -50%); border:5px solid black"">","","","","","","","",""
"","1869","sequential-stimulus-presentation-old","127","780906","0.0-27.0-1.5","SS1618365891715","trial","","40","500","2369","images/stimuli/spore_stims/complex_01_A_a.gif","images/stimuli/spore_stims/complex_06_A_b.gif","self_paced","","9","complex_dissimilar","images/stimuli/spore_stims/complex_01_A_a.gif","","","","",""
"","2411","survey-multi-choice","128","783319","0.0-28.0","SS1618365891715","math_question","","","","","","","","","","","","{""Q0"":""7""}","[0]","7","",""
"","null","html-keyboard-response","129","784177","0.0-29.0-0.0","SS1618365891715","","","null","","","","","","<p><img src= images/blank.png width =""600"" height = ""600"" style=""position:fixed;top:50%; left:50%; transform: translate(-50%, -50%); border:5px solid black"">","","","","","","","",""
"","866","sequential-stimulus-presentation-old","130","785105","0.0-29.0-1.0","SS1618365891715","trial","","40","500","1366","images/stimuli/spore_stims/complex_18_A_b.gif","images/stimuli/spore_stims/complex_11_A_a.gif","forced_short","","10","complex_dissimilar","images/stimuli/spore_stims/complex_11_A_a.gif","","","","",""
"","null","html-keyboard-response","131","786138","0.0-29.0-0.1","SS1618365891715","","","null","","","","","","<p><img src= images/blank.png width =""600"" height = ""600"" style=""position:fixed;top:50%; left:50%; transform: translate(-50%, -50%); border:5px solid black"">","","","","","","","",""
"","2953","sequential-stimulus-presentation-old","132","789610","0.0-29.0-1.1","SS1618365891715","trial","","40","500","3453","images/stimuli/spore_stims/complex_18_A_b.gif","images/stimuli/spore_stims/complex_11_A_a.gif","forced_short","","10","complex_dissimilar","images/stimuli/spore_stims/complex_11_A_a.gif","","","","",""
"","null","html-keyboard-response","133","790677","0.0-29.0-0.2","SS1618365891715","","","null","","","","","","<p><img src= images/blank.png width =""600"" height = ""600"" style=""position:fixed;top:50%; left:50%; transform: translate(-50%, -50%); border:5px solid black"">","","","","","","","",""
"","1004","sequential-stimulus-presentation-old","134","792203","0.0-29.0-1.2","SS1618365891715","trial","","40","500","1504","images/stimuli/spore_stims/complex_18_A_b.gif","images/stimuli/spore_stims/complex_11_A_a.gif","forced_short","","10","complex_dissimilar","images/stimuli/spore_stims/complex_11_A_a.gif","","","","",""
"","null","html-keyboard-response","135","793058","0.0-29.0-0.3","SS1618365891715","","","null","","","","","","<p><img src= images/blank.png width =""600"" height = ""600"" style=""position:fixed;top:50%; left:50%; transform: translate(-50%, -50%); border:5px solid black"">","","","","","","","",""
"","113","sequential-stimulus-presentation-old","136","793691","0.0-29.0-1.3","SS1618365891715","trial","","40","500","613","images/stimuli/spore_stims/complex_18_A_b.gif","images/stimuli/spore_stims/complex_11_A_a.gif","forced_short","","10","complex_dissimilar","images/stimuli/spore_stims/complex_11_A_a.gif","","","","",""
"","null","html-keyboard-response","137","794938","0.0-29.0-0.4","SS1618365891715","","","null","","","","","","<p><img src= images/blank.png width =""600"" height = ""600"" style=""position:fixed;top:50%; left:50%; transform: translate(-50%, -50%); border:5px solid black"">","","","","","","","",""
"","680","sequential-stimulus-presentation-old","138","796138","0.0-29.0-1.4","SS1618365891715","trial","","40","500","1180","images/stimuli/spore_stims/complex_18_A_b.gif","images/stimuli/spore_stims/complex_11_A_a.gif","forced_short","","10","complex_dissimilar","images/stimuli/spore_stims/complex_11_A_a.gif","","","","",""
"","3242","survey-multi-choice","139","799382","0.0-30.0","SS1618365891715","math_question","","","","","","","","","","","","{""Q0"":""2""}","[0]","2","",""
"","null","html-keyboard-response","140","800437","0.0-31.0-0.0","SS1618365891715","","","null","","","","","","<p><img src= images/blank.png width =""600"" height = ""600"" style=""position:fixed;top:50%; left:50%; transform: translate(-50%, -50%); border:5px solid black"">","","","","","","","",""
"","872","sequential-stimulus-presentation-old","141","801370","0.0-31.0-1.0","SS1618365891715","trial","","40","500","1372","images/stimuli/spore_stims/complex_19_A_b.gif","images/stimuli/spore_stims/complex_07_A_a.gif","forced_short","","11","complex_dissimilar","images/stimuli/spore_stims/complex_07_A_a.gif","","","","",""
"","null","html-keyboard-response","142","802478","0.0-31.0-0.1","SS1618365891715","","","null","","","","","","<p><img src= images/blank.png width =""600"" height = ""600"" style=""position:fixed;top:50%; left:50%; transform: translate(-50%, -50%); border:5px solid black"">","","","","","","","",""
"","2269","sequential-stimulus-presentation-old","143","805266","0.0-31.0-1.1","SS1618365891715","trial","","40","500","2769","images/stimuli/spore_stims/complex_19_A_b.gif","images/stimuli/spore_stims/complex_07_A_a.gif","forced_short","","11","complex_dissimilar","images/stimuli/spore_stims/complex_07_A_a.gif","","","","",""
"","null","html-keyboard-response","144","806237","0.0-31.0-0.2","SS1618365891715","","","null","","","","","","<p><img src= images/blank.png width =""600"" height = ""600"" style=""position:fixed;top:50%; left:50%; transform: translate(-50%, -50%); border:5px solid black"">","","","","","","","",""
"","1349","sequential-stimulus-presentation-old","145","808106","0.0-31.0-1.2","SS1618365891715","trial","","40","500","1849","images/stimuli/spore_stims/complex_19_A_b.gif","images/stimuli/spore_stims/complex_07_A_a.gif","forced_short","","11","complex_dissimilar","images/stimuli/spore_stims/complex_07_A_a.gif","","","","",""
"","null","html-keyboard-response","146","809197","0.0-31.0-0.3","SS1618365891715","","","null","","","","","","<p><img src= images/blank.png width =""600"" height = ""600"" style=""position:fixed;top:50%; left:50%; transform: translate(-50%, -50%); border:5px solid black"">","","","","","","","",""
"","141","sequential-stimulus-presentation-old","147","809858","0.0-31.0-1.3","SS1618365891715","trial","","40","500","641","images/stimuli/spore_stims/complex_19_A_b.gif","images/stimuli/spore_stims/complex_07_A_a.gif","forced_short","","11","complex_dissimilar","images/stimuli/spore_stims/complex_07_A_a.gif","","","","",""
"[{""page_index"":0,""viewing_time"":7844}]","7844","instructions","148","817704","0.0-32.0","SS1618365891715","instructions","","","","","","","","","","","","","","","",""
"","6151","survey-likert","149","823859","0.0-33.0","SS1618365891715","similarity_question","","","","","","","","","","","","{""Q0"":1}","[0]","","images/stimuli/spore_stims/simple_14_A_a.gif","images/stimuli/spore_stims/simple_06_A_b.gif"
"","4309","survey-likert","150","828172","0.0-34.0","SS1618365891715","similarity_question","","","","","","","","","","","","{""Q0"":1}","[0]","","images/stimuli/spore_stims/simple_20_A_a.gif","images/stimuli/spore_stims/simple_09_A_b.gif"
"","5538","survey-likert","151","833715","0.0-35.0","SS1618365891715","similarity_question","","","","","","","","","","","","{""Q0"":5}","[0]","","images/stimuli/spore_stims/simple_19_A_a.gif","images/stimuli/spore_stims/simple_03_A_b.gif"
"","4255","survey-likert","152","837974","0.0-36.0","SS1618365891715","similarity_question","","","","","","","","","","","","{""Q0"":5}","[0]","","images/stimuli/spore_stims/simple_05_A_b.gif","images/stimuli/spore_stims/simple_15_A_a.gif"
"","3924","survey-likert","153","841903","0.0-37.0","SS1618365891715","similarity_question","","","","","","","","","","","","{""Q0"":4}","[0]","","images/stimuli/spore_stims/complex_18_A_b.gif","images/stimuli/spore_stims/complex_11_A_a.gif"
"","3840","survey-likert","154","845747","0.0-38.0","SS1618365891715","similarity_question","","","","","","","","","","","","{""Q0"":1}","[0]","","images/stimuli/spore_stims/complex_07_A_a.gif","images/stimuli/spore_stims/complex_19_A_b.gif"
"","9320","survey-likert","155","855071","0.0-39.0","SS1618365891715","similarity_question","","","","","","","","","","","","{""Q0"":2}","[0]","","images/stimuli/spore_stims/complex_18_A_a.gif","images/stimuli/spore_stims/complex_16_A_b.gif"
"","4078","survey-likert","156","859153","0.0-40.0","SS1618365891715","similarity_question","","","","","","","","","","","","{""Q0"":5}","[0]","","images/stimuli/spore_stims/simple_03_A_a.gif","images/stimuli/spore_stims/simple_08_A_b.gif"
"","2320","survey-likert","157","861476","0.0-41.0","SS1618365891715","similarity_question","","","","","","","","","","","","{""Q0"":5}","[0]","","images/stimuli/spore_stims/simple_08_A_a.gif","images/stimuli/spore_stims/simple_18_A_b.gif"
"","4786","survey-likert","158","866267","0.0-42.0","SS1618365891715","similarity_question","","","","","","","","","","","","{""Q0"":2}","[0]","","images/stimuli/spore_stims/complex_10_A_b.gif","images/stimuli/spore_stims/complex_09_A_a.gif"
"","4653","survey-likert","159","870924","0.0-43.0","SS1618365891715","similarity_question","","","","","","","","","","","","{""Q0"":1}","[0]","","images/stimuli/spore_stims/complex_06_A_b.gif","images/stimuli/spore_stims/complex_01_A_a.gif"
"","2902","survey-likert","160","873830","0.0-44.0","SS1618365891715","similarity_question","","","","","","","","","","","","{""Q0"":1}","[0]","","images/stimuli/spore_stims/complex_12_A_a.gif","images/stimuli/spore_stims/complex_05_A_b.gif"
"[{""page_index"":0,""viewing_time"":2931}]","2931","instructions","161","876763","0.0-45.0","SS1618365891715","instructions","","","","","","","","","","","","","","","",""
"","3819","survey-likert","162","880585","0.0-46.0","SS1618365891715","","","","","","","","","images/stimuli/spore_stims/complex_09_A_a.gif","","","","{""Q0"":5}","[0]","","",""
"","2456","survey-likert","163","883046","0.0-47.0","SS1618365891715","","","","","","","","","images/stimuli/spore_stims/complex_05_A_b.gif","","","","{""Q0"":5}","[0]","","",""
"","1914","survey-likert","164","884965","0.0-48.0","SS1618365891715","","","","","","","","","images/stimuli/spore_stims/simple_06_A_b.gif","","","","{""Q0"":0}","[0]","","",""
"","5461","survey-likert","165","890429","0.0-49.0","SS1618365891715","","","","","","","","","images/stimuli/spore_stims/complex_07_A_a.gif","","","","{""Q0"":6}","[0]","","",""
"","4462","survey-likert","166","894895","0.0-50.0","SS1618365891715","","","","","","","","","images/stimuli/spore_stims/simple_03_A_a.gif","","","","{""Q0"":0}","[0]","","",""
"","2439","survey-likert","167","897340","0.0-51.0","SS1618365891715","","","","","","","","","images/stimuli/spore_stims/simple_19_A_a.gif","","","","{""Q0"":0}","[0]","","",""
"","3279","survey-likert","168","900624","0.0-52.0","SS1618365891715","","","","","","","","","images/stimuli/spore_stims/complex_06_A_b.gif","","","","{""Q0"":5}","[0]","","",""
"","2072","survey-likert","169","902699","0.0-53.0","SS1618365891715","","","","","","","","","images/stimuli/spore_stims/complex_16_A_b.gif","","","","{""Q0"":6}","[0]","","",""
"","2508","survey-likert","170","905212","0.0-54.0","SS1618365891715","","","","","","","","","images/stimuli/spore_stims/complex_11_A_a.gif","","","","{""Q0"":4}","[0]","","",""
"","3182","survey-likert","171","908398","0.0-55.0","SS1618365891715","","","","","","","","","images/stimuli/spore_stims/simple_15_A_a.gif","","","","{""Q0"":0}","[0]","","",""
"","2513","survey-likert","172","910915","0.0-56.0","SS1618365891715","","","","","","","","","images/stimuli/spore_stims/simple_20_A_a.gif","","","","{""Q0"":1}","[0]","","",""
"","1940","survey-likert","173","912858","0.0-57.0","SS1618365891715","","","","","","","","","images/stimuli/spore_stims/simple_18_A_b.gif","","","","{""Q0"":1}","[0]","","",""
"[{""page_index"":0,""viewing_time"":967}]","967","instructions","174","913827","0.0-58.0","SS1618365891715","instructions","","","","","","","","","","","","","","","",""
"","3173","demog-age","175","917006","0.0-59.0","SS1618365891715","","","","","","","","","","","","","{""age"":""21""}","","","",""
"","2549","demog-ethnic-US","176","919560","0.0-60.0","SS1618365891715","","","","","","","","","","","","","{""ethnicity"":[""Hispanic or Latino""]}","[0]","","",""
"","12082","demog-gender-and-education","177","931646","0.0-61.0","SS1618365891715","","","","","","","","","","","","","{""gender"":""Male"",""education"":""High school diploma""}","[0,1]","","",""
"","11294","survey-text","178","942945","0.0-62.0","SS1618365891715","feedback","","","","","","","","","","","","{""Q0"":""no""}","","","",""
"[{""page_index"":0,""viewing_time"":1943}]","1943","instructions","179","944891","0.0-63.0","SS1618365891715","instructions","","","","","","","","","","","","","","","",""
