"view_history","rt","trial_type","trial_index","time_elapsed","internal_node_id","subject","stimulus_type","trial_stimulus","key_press","minimum_viewing_duration","trial_looking_time","block_deviant","block_background","exposure_type","stimulus","block_number","block_type","stimulus_displayed","responses","question_order","math_correct_answer","stimulus_left","stimulus_right"
"[{""page_index"":0,""viewing_time"":1858.905000030063}]","1859.2049999861047","instructions","0","1860","0.0-0.0","SS1618435635900","","","","","","","","","","","","","","","","",""
"[{""page_index"":0,""viewing_time"":11250.604999950156},{""page_index"":1,""viewing_time"":5108.220000052825}]","16359.03499997221","instructions","1","20221","0.0-1.0","SS1618435635900","instructions","","","","","","","","","","","","","","","",""
"","3281.1750000109896","sequential-stimulus-presentation-old","2","24005","0.0-2.0","SS1618435635900","","","40","500","3781.1750000109896","null","null","self_paced","","","","","","","","",""
"","3986.6450000554323","sequential-stimulus-presentation-old","3","28493","0.0-3.0","SS1618435635900","","","40","500","4486.645000055432","null","null","self_paced","","","","","","","","",""
"[{""page_index"":0,""viewing_time"":9963.540000026114}]","9963.815000024624","instructions","4","38457","0.0-4.0","SS1618435635900","instructions","","","","","","","","","","","","","","","",""
"","1851.6750000417233","sequential-stimulus-presentation-old","5","45311","0.0-5.0","SS1618435635900","","","40","500","2351.6750000417233","null","null","forced_long","","","","","","","","",""
"","1868.224999983795","sequential-stimulus-presentation-old","6","47230","0.0-6.0","SS1618435635900","","","40","50","1918.224999983795","null","null","forced_long","","","","","","","","",""
"[{""page_index"":0,""viewing_time"":1447.5499999243766}]","1447.6899999426678","instructions","7","48679","0.0-7.0","SS1618435635900","instructions","","","","","","","","","","","","","","","",""
"[{""page_index"":0,""viewing_time"":5287.780000013299},{""page_index"":1,""viewing_time"":9401.08500001952},{""page_index"":2,""viewing_time"":3624.0649999817833},{""page_index"":3,""viewing_time"":1025.8300000568852},{""page_index"":4,""viewing_time"":990.6249999767169}]","20329.570000059903","instructions","8","69009","0.0-8.0","SS1618435635900","instructions","","","","","","","","","","","","","","","",""
"","null","html-keyboard-response","9","70174","0.0-9.0-0.0","SS1618435635900","","","null","","","","","","<p><img src= images/blank.png width =""600"" height = ""600"" style=""position:fixed;top:50%; left:50%; transform: translate(-50%, -50%); border:5px solid black"">","","","","","","","",""
"","785.0000000325963","sequential-stimulus-presentation-old","10","75961","0.0-9.0-1.0","SS1618435635900","trial","","40","500","1285.0000000325963","images/stimuli/spore_stims/complex_18_A_a.gif","images/stimuli/spore_stims/complex_08_A_b.gif","forced_long","","0","complex_dissimilar","images/stimuli/spore_stims/complex_08_A_b.gif","","","","",""
"","null","html-keyboard-response","11","77038","0.0-9.0-0.1","SS1618435635900","","","null","","","","","","<p><img src= images/blank.png width =""600"" height = ""600"" style=""position:fixed;top:50%; left:50%; transform: translate(-50%, -50%); border:5px solid black"">","","","","","","","",""
"","2981.335000018589","sequential-stimulus-presentation-old","12","80521","0.0-9.0-1.1","SS1618435635900","trial","","40","500","3481.335000018589","images/stimuli/spore_stims/complex_18_A_a.gif","images/stimuli/spore_stims/complex_08_A_b.gif","forced_long","","0","complex_dissimilar","images/stimuli/spore_stims/complex_08_A_b.gif","","","","",""
"","null","html-keyboard-response","13","81323","0.0-9.0-0.2","SS1618435635900","","","null","","","","","","<p><img src= images/blank.png width =""600"" height = ""600"" style=""position:fixed;top:50%; left:50%; transform: translate(-50%, -50%); border:5px solid black"">","","","","","","","",""
"","3321.0399999516085","sequential-stimulus-presentation-old","14","85146","0.0-9.0-1.2","SS1618435635900","trial","","40","500","3821.0399999516085","images/stimuli/spore_stims/complex_18_A_a.gif","images/stimuli/spore_stims/complex_08_A_b.gif","forced_long","","0","complex_dissimilar","images/stimuli/spore_stims/complex_08_A_b.gif","","","","",""
"","null","html-keyboard-response","15","86037","0.0-9.0-0.3","SS1618435635900","","","null","","","","","","<p><img src= images/blank.png width =""600"" height = ""600"" style=""position:fixed;top:50%; left:50%; transform: translate(-50%, -50%); border:5px solid black"">","","","","","","","",""
"","2159.1499999631196","sequential-stimulus-presentation-old","16","88699","0.0-9.0-1.3","SS1618435635900","trial","","40","500","2659.1499999631196","images/stimuli/spore_stims/complex_18_A_a.gif","images/stimuli/spore_stims/complex_08_A_b.gif","forced_long","","0","complex_dissimilar","images/stimuli/spore_stims/complex_08_A_b.gif","","","","",""
"","4772.104999981821","survey-multi-choice","17","93473","0.0-10.0","SS1618435635900","math_question","","","","","","","","","","","","{""Q0"":""11""}","[0]","11","",""
"","null","html-keyboard-response","18","94641","0.0-11.0-0.0","SS1618435635900","","","null","","","","","","<p><img src= images/blank.png width =""600"" height = ""600"" style=""position:fixed;top:50%; left:50%; transform: translate(-50%, -50%); border:5px solid black"">","","","","","","","",""
"","30.615000054240227","sequential-stimulus-presentation-old","19","99676","0.0-11.0-1.0","SS1618435635900","trial","","40","500","530.6150000542402","images/stimuli/spore_stims/simple_04_A_b.gif","images/stimuli/spore_stims/simple_12_A_a.gif","forced_long","","1","simple_dissimilar","images/stimuli/spore_stims/simple_12_A_a.gif","","","","",""
"","null","html-keyboard-response","20","100964","0.0-11.0-0.1","SS1618435635900","","","null","","","","","","<p><img src= images/blank.png width =""600"" height = ""600"" style=""position:fixed;top:50%; left:50%; transform: translate(-50%, -50%); border:5px solid black"">","","","","","","","",""
"","568.6700000660494","sequential-stimulus-presentation-old","21","102035","0.0-11.0-1.1","SS1618435635900","trial","","40","500","1068.6700000660494","images/stimuli/spore_stims/simple_04_A_b.gif","images/stimuli/spore_stims/simple_12_A_a.gif","forced_long","","1","simple_dissimilar","images/stimuli/spore_stims/simple_12_A_a.gif","","","","",""
"","null","html-keyboard-response","22","103247","0.0-11.0-0.2","SS1618435635900","","","null","","","","","","<p><img src= images/blank.png width =""600"" height = ""600"" style=""position:fixed;top:50%; left:50%; transform: translate(-50%, -50%); border:5px solid black"">","","","","","","","",""
"","2502.8800000436604","sequential-stimulus-presentation-old","23","106252","0.0-11.0-1.2","SS1618435635900","trial","","40","500","3002.8800000436604","images/stimuli/spore_stims/simple_04_A_b.gif","images/stimuli/spore_stims/simple_12_A_a.gif","forced_long","","1","simple_dissimilar","images/stimuli/spore_stims/simple_04_A_b.gif","","","","",""
"","null","html-keyboard-response","24","107221","0.0-11.0-0.3","SS1618435635900","","","null","","","","","","<p><img src= images/blank.png width =""600"" height = ""600"" style=""position:fixed;top:50%; left:50%; transform: translate(-50%, -50%); border:5px solid black"">","","","","","","","",""
"","408.87499996460974","sequential-stimulus-presentation-old","25","108133","0.0-11.0-1.3","SS1618435635900","trial","","40","500","908.8749999646097","images/stimuli/spore_stims/simple_04_A_b.gif","images/stimuli/spore_stims/simple_12_A_a.gif","forced_long","","1","simple_dissimilar","images/stimuli/spore_stims/simple_12_A_a.gif","","","","",""
"","3150.3650000086054","survey-multi-choice","26","111284","0.0-12.0","SS1618435635900","math_question","","","","","","","","","","","","{""Q0"":""8""}","[0]","8","",""
"","null","html-keyboard-response","27","112314","0.0-13.0-0.0","SS1618435635900","","","null","","","","","","<p><img src= images/blank.png width =""600"" height = ""600"" style=""position:fixed;top:50%; left:50%; transform: translate(-50%, -50%); border:5px solid black"">","","","","","","","",""
"","11841.420000069775","sequential-stimulus-presentation-old","28","129159","0.0-13.0-1.0","SS1618435635900","trial","","40","500","12341.420000069775","images/stimuli/spore_stims/complex_12_A_a.gif","images/stimuli/spore_stims/complex_20_A_b.gif","forced_long","","2","complex_dissimilar","images/stimuli/spore_stims/complex_20_A_b.gif","","","","",""
"","null","html-keyboard-response","29","130184","0.0-13.0-0.1","SS1618435635900","","","null","","","","","","<p><img src= images/blank.png width =""600"" height = ""600"" style=""position:fixed;top:50%; left:50%; transform: translate(-50%, -50%); border:5px solid black"">","","","","","","","",""
"","815.5750000150874","sequential-stimulus-presentation-old","30","131503","0.0-13.0-1.1","SS1618435635900","trial","","40","500","1315.5750000150874","images/stimuli/spore_stims/complex_12_A_a.gif","images/stimuli/spore_stims/complex_20_A_b.gif","forced_long","","2","complex_dissimilar","images/stimuli/spore_stims/complex_12_A_a.gif","","","","",""
"","null","html-keyboard-response","31","132572","0.0-13.0-0.2","SS1618435635900","","","null","","","","","","<p><img src= images/blank.png width =""600"" height = ""600"" style=""position:fixed;top:50%; left:50%; transform: translate(-50%, -50%); border:5px solid black"">","","","","","","","",""
"","7108.480000053532","sequential-stimulus-presentation-old","32","140184","0.0-13.0-1.2","SS1618435635900","trial","","40","500","7608.480000053532","images/stimuli/spore_stims/complex_12_A_a.gif","images/stimuli/spore_stims/complex_20_A_b.gif","forced_long","","2","complex_dissimilar","images/stimuli/spore_stims/complex_20_A_b.gif","","","","",""
"","null","html-keyboard-response","33","141128","0.0-13.0-0.3","SS1618435635900","","","null","","","","","","<p><img src= images/blank.png width =""600"" height = ""600"" style=""position:fixed;top:50%; left:50%; transform: translate(-50%, -50%); border:5px solid black"">","","","","","","","",""
"","1872.719999984838","sequential-stimulus-presentation-old","34","143504","0.0-13.0-1.3","SS1618435635900","trial","","40","500","2372.719999984838","images/stimuli/spore_stims/complex_12_A_a.gif","images/stimuli/spore_stims/complex_20_A_b.gif","forced_long","","2","complex_dissimilar","images/stimuli/spore_stims/complex_20_A_b.gif","","","","",""
"","null","html-keyboard-response","35","144324","0.0-13.0-0.4","SS1618435635900","","","null","","","","","","<p><img src= images/blank.png width =""600"" height = ""600"" style=""position:fixed;top:50%; left:50%; transform: translate(-50%, -50%); border:5px solid black"">","","","","","","","",""
"","2965.0649999966845","sequential-stimulus-presentation-old","36","147792","0.0-13.0-1.4","SS1618435635900","trial","","40","500","3465.0649999966845","images/stimuli/spore_stims/complex_12_A_a.gif","images/stimuli/spore_stims/complex_20_A_b.gif","forced_long","","2","complex_dissimilar","images/stimuli/spore_stims/complex_20_A_b.gif","","","","",""
"","3952.904999954626","survey-multi-choice","37","151747","0.0-14.0","SS1618435635900","math_question","","","","","","","","","","","","{""Q0"":""11""}","[0]","11","",""
"","null","html-keyboard-response","38","152907","0.0-15.0-0.0","SS1618435635900","","","null","","","","","","<p><img src= images/blank.png width =""600"" height = ""600"" style=""position:fixed;top:50%; left:50%; transform: translate(-50%, -50%); border:5px solid black"">","","","","","","","",""
"","1761.5999999688938","sequential-stimulus-presentation-old","39","154721","0.0-15.0-1.0","SS1618435635900","trial","","40","500","2261.599999968894","images/stimuli/spore_stims/simple_06_A_b.gif","images/stimuli/spore_stims/simple_16_A_a.gif","forced_short","","3","simple_dissimilar","images/stimuli/spore_stims/simple_16_A_a.gif","","","","",""
"","null","html-keyboard-response","40","155921","0.0-15.0-0.1","SS1618435635900","","","null","","","","","","<p><img src= images/blank.png width =""600"" height = ""600"" style=""position:fixed;top:50%; left:50%; transform: translate(-50%, -50%); border:5px solid black"">","","","","","","","",""
"","730.3899999242276","sequential-stimulus-presentation-old","41","157154","0.0-15.0-1.1","SS1618435635900","trial","","40","500","1230.3899999242276","images/stimuli/spore_stims/simple_06_A_b.gif","images/stimuli/spore_stims/simple_16_A_a.gif","forced_short","","3","simple_dissimilar","images/stimuli/spore_stims/simple_06_A_b.gif","","","","",""
"","null","html-keyboard-response","42","158335","0.0-15.0-0.2","SS1618435635900","","","null","","","","","","<p><img src= images/blank.png width =""600"" height = ""600"" style=""position:fixed;top:50%; left:50%; transform: translate(-50%, -50%); border:5px solid black"">","","","","","","","",""
"","5036.855000071228","sequential-stimulus-presentation-old","43","163874","0.0-15.0-1.2","SS1618435635900","trial","","40","500","5536.855000071228","images/stimuli/spore_stims/simple_06_A_b.gif","images/stimuli/spore_stims/simple_16_A_a.gif","forced_short","","3","simple_dissimilar","images/stimuli/spore_stims/simple_16_A_a.gif","","","","",""
"","null","html-keyboard-response","44","165109","0.0-15.0-0.3","SS1618435635900","","","null","","","","","","<p><img src= images/blank.png width =""600"" height = ""600"" style=""position:fixed;top:50%; left:50%; transform: translate(-50%, -50%); border:5px solid black"">","","","","","","","",""
"","1029.5749999349937","sequential-stimulus-presentation-old","45","166642","0.0-15.0-1.3","SS1618435635900","trial","","40","500","1529.5749999349937","images/stimuli/spore_stims/simple_06_A_b.gif","images/stimuli/spore_stims/simple_16_A_a.gif","forced_short","","3","simple_dissimilar","images/stimuli/spore_stims/simple_06_A_b.gif","","","","",""
"","null","html-keyboard-response","46","167486","0.0-15.0-0.4","SS1618435635900","","","null","","","","","","<p><img src= images/blank.png width =""600"" height = ""600"" style=""position:fixed;top:50%; left:50%; transform: translate(-50%, -50%); border:5px solid black"">","","","","","","","",""
"","2692.9699999745935","sequential-stimulus-presentation-old","47","170682","0.0-15.0-1.4","SS1618435635900","trial","","40","500","3192.9699999745935","images/stimuli/spore_stims/simple_06_A_b.gif","images/stimuli/spore_stims/simple_16_A_a.gif","forced_short","","3","simple_dissimilar","images/stimuli/spore_stims/simple_16_A_a.gif","","","","",""
"","null","html-keyboard-response","48","171650","0.0-15.0-0.5","SS1618435635900","","","null","","","","","","<p><img src= images/blank.png width =""600"" height = ""600"" style=""position:fixed;top:50%; left:50%; transform: translate(-50%, -50%); border:5px solid black"">","","","","","","","",""
"","1426.5000000596046","sequential-stimulus-presentation-old","49","173579","0.0-15.0-1.5","SS1618435635900","trial","","40","500","1926.5000000596046","images/stimuli/spore_stims/simple_06_A_b.gif","images/stimuli/spore_stims/simple_16_A_a.gif","forced_short","","3","simple_dissimilar","images/stimuli/spore_stims/simple_16_A_a.gif","","","","",""
"","3242.5350000848994","survey-multi-choice","50","176822","0.0-16.0","SS1618435635900","math_question","","","","","","","","","","","","{""Q0"":""10""}","[0]","10","",""
"","null","html-keyboard-response","51","177957","0.0-17.0-0.0","SS1618435635900","","","null","","","","","","<p><img src= images/blank.png width =""600"" height = ""600"" style=""position:fixed;top:50%; left:50%; transform: translate(-50%, -50%); border:5px solid black"">","","","","","","","",""
"","8266.925000003539","sequential-stimulus-presentation-old","52","186276","0.0-17.0-1.0","SS1618435635900","trial","","40","500","8766.925000003539","images/stimuli/spore_stims/complex_20_A_a.gif","images/stimuli/spore_stims/complex_11_A_b.gif","forced_short","","4","complex_dissimilar","images/stimuli/spore_stims/complex_11_A_b.gif","","","","",""
"","null","html-keyboard-response","53","187497","0.0-17.0-0.1","SS1618435635900","","","null","","","","","","<p><img src= images/blank.png width =""600"" height = ""600"" style=""position:fixed;top:50%; left:50%; transform: translate(-50%, -50%); border:5px solid black"">","","","","","","","",""
"","4740.945000085048","sequential-stimulus-presentation-old","54","192740","0.0-17.0-1.1","SS1618435635900","trial","","40","500","5240.945000085048","images/stimuli/spore_stims/complex_20_A_a.gif","images/stimuli/spore_stims/complex_11_A_b.gif","forced_short","","4","complex_dissimilar","images/stimuli/spore_stims/complex_11_A_b.gif","","","","",""
"","null","html-keyboard-response","55","193657","0.0-17.0-0.2","SS1618435635900","","","null","","","","","","<p><img src= images/blank.png width =""600"" height = ""600"" style=""position:fixed;top:50%; left:50%; transform: translate(-50%, -50%); border:5px solid black"">","","","","","","","",""
"","3845.7150000613183","sequential-stimulus-presentation-old","56","198005","0.0-17.0-1.2","SS1618435635900","trial","","40","500","4345.715000061318","images/stimuli/spore_stims/complex_20_A_a.gif","images/stimuli/spore_stims/complex_11_A_b.gif","forced_short","","4","complex_dissimilar","images/stimuli/spore_stims/complex_11_A_b.gif","","","","",""
"","null","html-keyboard-response","57","198823","0.0-17.0-0.3","SS1618435635900","","","null","","","","","","<p><img src= images/blank.png width =""600"" height = ""600"" style=""position:fixed;top:50%; left:50%; transform: translate(-50%, -50%); border:5px solid black"">","","","","","","","",""
"","4207.384999957867","sequential-stimulus-presentation-old","58","203533","0.0-17.0-1.3","SS1618435635900","trial","","40","500","4707.384999957867","images/stimuli/spore_stims/complex_20_A_a.gif","images/stimuli/spore_stims/complex_11_A_b.gif","forced_short","","4","complex_dissimilar","images/stimuli/spore_stims/complex_11_A_b.gif","","","","",""
"","null","html-keyboard-response","59","204705","0.0-17.0-0.4","SS1618435635900","","","null","","","","","","<p><img src= images/blank.png width =""600"" height = ""600"" style=""position:fixed;top:50%; left:50%; transform: translate(-50%, -50%); border:5px solid black"">","","","","","","","",""
"","5478.935000021011","sequential-stimulus-presentation-old","60","210686","0.0-17.0-1.4","SS1618435635900","trial","","40","500","5978.935000021011","images/stimuli/spore_stims/complex_20_A_a.gif","images/stimuli/spore_stims/complex_11_A_b.gif","forced_short","","4","complex_dissimilar","images/stimuli/spore_stims/complex_11_A_b.gif","","","","",""
"","2900.6149999331683","survey-multi-choice","61","213588","0.0-18.0","SS1618435635900","math_question","","","","","","","","","","","","{""Q0"":""6""}","[0]","6","",""
"","null","html-keyboard-response","62","214627","0.0-19.0-0.0","SS1618435635900","","","null","","","","","","<p><img src= images/blank.png width =""600"" height = ""600"" style=""position:fixed;top:50%; left:50%; transform: translate(-50%, -50%); border:5px solid black"">","","","","","","","",""
"","2652.8999999864027","sequential-stimulus-presentation-old","63","217783","0.0-19.0-1.0","SS1618435635900","trial","","40","500","3152.8999999864027","images/stimuli/spore_stims/simple_03_A_b.gif","images/stimuli/spore_stims/simple_06_A_a.gif","self_paced","","5","simple_dissimilar","images/stimuli/spore_stims/simple_06_A_a.gif","","","","",""
"","null","html-keyboard-response","64","218858","0.0-19.0-0.1","SS1618435635900","","","null","","","","","","<p><img src= images/blank.png width =""600"" height = ""600"" style=""position:fixed;top:50%; left:50%; transform: translate(-50%, -50%); border:5px solid black"">","","","","","","","",""
"","4142.229999997653","sequential-stimulus-presentation-old","65","223504","0.0-19.0-1.1","SS1618435635900","trial","","40","500","4642.229999997653","images/stimuli/spore_stims/simple_03_A_b.gif","images/stimuli/spore_stims/simple_06_A_a.gif","self_paced","","5","simple_dissimilar","images/stimuli/spore_stims/simple_03_A_b.gif","","","","",""
"","null","html-keyboard-response","66","224739","0.0-19.0-0.2","SS1618435635900","","","null","","","","","","<p><img src= images/blank.png width =""600"" height = ""600"" style=""position:fixed;top:50%; left:50%; transform: translate(-50%, -50%); border:5px solid black"">","","","","","","","",""
"","5133.569999947213","sequential-stimulus-presentation-old","67","230376","0.0-19.0-1.2","SS1618435635900","trial","","40","500","5633.569999947213","images/stimuli/spore_stims/simple_03_A_b.gif","images/stimuli/spore_stims/simple_06_A_a.gif","self_paced","","5","simple_dissimilar","images/stimuli/spore_stims/simple_06_A_a.gif","","","","",""
"","null","html-keyboard-response","68","231419","0.0-19.0-0.3","SS1618435635900","","","null","","","","","","<p><img src= images/blank.png width =""600"" height = ""600"" style=""position:fixed;top:50%; left:50%; transform: translate(-50%, -50%); border:5px solid black"">","","","","","","","",""
"","3166.8449999997392","sequential-stimulus-presentation-old","69","235088","0.0-19.0-1.3","SS1618435635900","trial","","40","500","3666.8449999997392","images/stimuli/spore_stims/simple_03_A_b.gif","images/stimuli/spore_stims/simple_06_A_a.gif","self_paced","","5","simple_dissimilar","images/stimuli/spore_stims/simple_06_A_a.gif","","","","",""
"","null","html-keyboard-response","70","235913","0.0-19.0-0.4","SS1618435635900","","","null","","","","","","<p><img src= images/blank.png width =""600"" height = ""600"" style=""position:fixed;top:50%; left:50%; transform: translate(-50%, -50%); border:5px solid black"">","","","","","","","",""
"","4720.7349999807775","sequential-stimulus-presentation-old","71","241137","0.0-19.0-1.4","SS1618435635900","trial","","40","500","5220.7349999807775","images/stimuli/spore_stims/simple_03_A_b.gif","images/stimuli/spore_stims/simple_06_A_a.gif","self_paced","","5","simple_dissimilar","images/stimuli/spore_stims/simple_06_A_a.gif","","","","",""
"","null","html-keyboard-response","72","242176","0.0-19.0-0.5","SS1618435635900","","","null","","","","","","<p><img src= images/blank.png width =""600"" height = ""600"" style=""position:fixed;top:50%; left:50%; transform: translate(-50%, -50%); border:5px solid black"">","","","","","","","",""
"","4803.0049999943","sequential-stimulus-presentation-old","73","247482","0.0-19.0-1.5","SS1618435635900","trial","","40","500","5303.0049999943","images/stimuli/spore_stims/simple_03_A_b.gif","images/stimuli/spore_stims/simple_06_A_a.gif","self_paced","","5","simple_dissimilar","images/stimuli/spore_stims/simple_03_A_b.gif","","","","",""
"","7428.590000024997","survey-multi-choice","74","254912","0.0-20.0","SS1618435635900","math_question","","","","","","","","","","","","{""Q0"":""14""}","[0]","14","",""
"","null","html-keyboard-response","75","255887","0.0-21.0-0.0","SS1618435635900","","","null","","","","","","<p><img src= images/blank.png width =""600"" height = ""600"" style=""position:fixed;top:50%; left:50%; transform: translate(-50%, -50%); border:5px solid black"">","","","","","","","",""
"","710.3500000666827","sequential-stimulus-presentation-old","76","256650","0.0-21.0-1.0","SS1618435635900","trial","","40","500","1210.3500000666827","images/stimuli/spore_stims/simple_12_A_b.gif","images/stimuli/spore_stims/simple_09_A_a.gif","forced_short","","6","simple_dissimilar","images/stimuli/spore_stims/simple_09_A_a.gif","","","","",""
"","null","html-keyboard-response","77","257740","0.0-21.0-0.1","SS1618435635900","","","null","","","","","","<p><img src= images/blank.png width =""600"" height = ""600"" style=""position:fixed;top:50%; left:50%; transform: translate(-50%, -50%); border:5px solid black"">","","","","","","","",""
"","1336.9449999881908","sequential-stimulus-presentation-old","78","259579","0.0-21.0-1.1","SS1618435635900","trial","","40","500","1836.9449999881908","images/stimuli/spore_stims/simple_12_A_b.gif","images/stimuli/spore_stims/simple_09_A_a.gif","forced_short","","6","simple_dissimilar","images/stimuli/spore_stims/simple_09_A_a.gif","","","","",""
"","null","html-keyboard-response","79","260734","0.0-21.0-0.2","SS1618435635900","","","null","","","","","","<p><img src= images/blank.png width =""600"" height = ""600"" style=""position:fixed;top:50%; left:50%; transform: translate(-50%, -50%); border:5px solid black"">","","","","","","","",""
"","1053.9300000527874","sequential-stimulus-presentation-old","80","262291","0.0-21.0-1.2","SS1618435635900","trial","","40","500","1553.9300000527874","images/stimuli/spore_stims/simple_12_A_b.gif","images/stimuli/spore_stims/simple_09_A_a.gif","forced_short","","6","simple_dissimilar","images/stimuli/spore_stims/simple_12_A_b.gif","","","","",""
"","null","html-keyboard-response","81","263106","0.0-21.0-0.3","SS1618435635900","","","null","","","","","","<p><img src= images/blank.png width =""600"" height = ""600"" style=""position:fixed;top:50%; left:50%; transform: translate(-50%, -50%); border:5px solid black"">","","","","","","","",""
"","626.879999996163","sequential-stimulus-presentation-old","82","264235","0.0-21.0-1.3","SS1618435635900","trial","","40","500","1126.879999996163","images/stimuli/spore_stims/simple_12_A_b.gif","images/stimuli/spore_stims/simple_09_A_a.gif","forced_short","","6","simple_dissimilar","images/stimuli/spore_stims/simple_09_A_a.gif","","","","",""
"","null","html-keyboard-response","83","265156","0.0-21.0-0.4","SS1618435635900","","","null","","","","","","<p><img src= images/blank.png width =""600"" height = ""600"" style=""position:fixed;top:50%; left:50%; transform: translate(-50%, -50%); border:5px solid black"">","","","","","","","",""
"","640.0999999605119","sequential-stimulus-presentation-old","84","266299","0.0-21.0-1.4","SS1618435635900","trial","","40","500","1140.099999960512","images/stimuli/spore_stims/simple_12_A_b.gif","images/stimuli/spore_stims/simple_09_A_a.gif","forced_short","","6","simple_dissimilar","images/stimuli/spore_stims/simple_09_A_a.gif","","","","",""
"","null","html-keyboard-response","85","267486","0.0-21.0-0.5","SS1618435635900","","","null","","","","","","<p><img src= images/blank.png width =""600"" height = ""600"" style=""position:fixed;top:50%; left:50%; transform: translate(-50%, -50%); border:5px solid black"">","","","","","","","",""
"","310.9500000718981","sequential-stimulus-presentation-old","86","268299","0.0-21.0-1.5","SS1618435635900","trial","","40","500","810.9500000718981","images/stimuli/spore_stims/simple_12_A_b.gif","images/stimuli/spore_stims/simple_09_A_a.gif","forced_short","","6","simple_dissimilar","images/stimuli/spore_stims/simple_12_A_b.gif","","","","",""
"","2961.490000016056","survey-multi-choice","87","271262","0.0-22.0","SS1618435635900","math_question","","","","","","","","","","","","{""Q0"":""8""}","[0]","8","",""
"","null","html-keyboard-response","88","272339","0.0-23.0-0.0","SS1618435635900","","","null","","","","","","<p><img src= images/blank.png width =""600"" height = ""600"" style=""position:fixed;top:50%; left:50%; transform: translate(-50%, -50%); border:5px solid black"">","","","","","","","",""
"","3358.5249999305233","sequential-stimulus-presentation-old","89","280701","0.0-23.0-1.0","SS1618435635900","trial","","40","500","3858.5249999305233","images/stimuli/spore_stims/simple_18_A_a.gif","images/stimuli/spore_stims/simple_10_A_b.gif","forced_long","","7","simple_dissimilar","images/stimuli/spore_stims/simple_10_A_b.gif","","","","",""
"","null","html-keyboard-response","90","281913","0.0-23.0-0.1","SS1618435635900","","","null","","","","","","<p><img src= images/blank.png width =""600"" height = ""600"" style=""position:fixed;top:50%; left:50%; transform: translate(-50%, -50%); border:5px solid black"">","","","","","","","",""
"","3555.7900000130758","sequential-stimulus-presentation-old","91","285973","0.0-23.0-1.1","SS1618435635900","trial","","40","500","4055.7900000130758","images/stimuli/spore_stims/simple_18_A_a.gif","images/stimuli/spore_stims/simple_10_A_b.gif","forced_long","","7","simple_dissimilar","images/stimuli/spore_stims/simple_10_A_b.gif","","","","",""
"","null","html-keyboard-response","92","286847","0.0-23.0-0.2","SS1618435635900","","","null","","","","","","<p><img src= images/blank.png width =""600"" height = ""600"" style=""position:fixed;top:50%; left:50%; transform: translate(-50%, -50%); border:5px solid black"">","","","","","","","",""
"","399.61500000208616","sequential-stimulus-presentation-old","93","287749","0.0-23.0-1.2","SS1618435635900","trial","","40","500","899.6150000020862","images/stimuli/spore_stims/simple_18_A_a.gif","images/stimuli/spore_stims/simple_10_A_b.gif","forced_long","","7","simple_dissimilar","images/stimuli/spore_stims/simple_10_A_b.gif","","","","",""
"","null","html-keyboard-response","94","288706","0.0-23.0-0.3","SS1618435635900","","","null","","","","","","<p><img src= images/blank.png width =""600"" height = ""600"" style=""position:fixed;top:50%; left:50%; transform: translate(-50%, -50%); border:5px solid black"">","","","","","","","",""
"","420.96500005573034","sequential-stimulus-presentation-old","95","289630","0.0-23.0-1.3","SS1618435635900","trial","","40","500","920.9650000557303","images/stimuli/spore_stims/simple_18_A_a.gif","images/stimuli/spore_stims/simple_10_A_b.gif","forced_long","","7","simple_dissimilar","images/stimuli/spore_stims/simple_18_A_a.gif","","","","",""
"","3313.0599999567494","survey-multi-choice","96","292944","0.0-24.0","SS1618435635900","math_question","","","","","","","","","","","","{""Q0"":""10""}","[0]","10","",""
"","null","html-keyboard-response","97","293851","0.0-25.0-0.0","SS1618435635900","","","null","","","","","","<p><img src= images/blank.png width =""600"" height = ""600"" style=""position:fixed;top:50%; left:50%; transform: translate(-50%, -50%); border:5px solid black"">","","","","","","","",""
"","3652.0399999571964","sequential-stimulus-presentation-old","98","298006","0.0-25.0-1.0","SS1618435635900","trial","","40","500","4152.039999957196","images/stimuli/spore_stims/complex_05_A_a.gif","images/stimuli/spore_stims/complex_02_A_b.gif","self_paced","","8","complex_dissimilar","images/stimuli/spore_stims/complex_02_A_b.gif","","","","",""
"","null","html-keyboard-response","99","298988","0.0-25.0-0.1","SS1618435635900","","","null","","","","","","<p><img src= images/blank.png width =""600"" height = ""600"" style=""position:fixed;top:50%; left:50%; transform: translate(-50%, -50%); border:5px solid black"">","","","","","","","",""
"","4549.219999928027","sequential-stimulus-presentation-old","100","304039","0.0-25.0-1.1","SS1618435635900","trial","","40","500","5049.219999928027","images/stimuli/spore_stims/complex_05_A_a.gif","images/stimuli/spore_stims/complex_02_A_b.gif","self_paced","","8","complex_dissimilar","images/stimuli/spore_stims/complex_02_A_b.gif","","","","",""
"","null","html-keyboard-response","101","304976","0.0-25.0-0.2","SS1618435635900","","","null","","","","","","<p><img src= images/blank.png width =""600"" height = ""600"" style=""position:fixed;top:50%; left:50%; transform: translate(-50%, -50%); border:5px solid black"">","","","","","","","",""
"","1391.1849999567494","sequential-stimulus-presentation-old","102","306871","0.0-25.0-1.2","SS1618435635900","trial","","40","500","1891.1849999567494","images/stimuli/spore_stims/complex_05_A_a.gif","images/stimuli/spore_stims/complex_02_A_b.gif","self_paced","","8","complex_dissimilar","images/stimuli/spore_stims/complex_02_A_b.gif","","","","",""
"","null","html-keyboard-response","103","308160","0.0-25.0-0.3","SS1618435635900","","","null","","","","","","<p><img src= images/blank.png width =""600"" height = ""600"" style=""position:fixed;top:50%; left:50%; transform: translate(-50%, -50%); border:5px solid black"">","","","","","","","",""
"","4371.419999981299","sequential-stimulus-presentation-old","104","313034","0.0-25.0-1.3","SS1618435635900","trial","","40","500","4871.419999981299","images/stimuli/spore_stims/complex_05_A_a.gif","images/stimuli/spore_stims/complex_02_A_b.gif","self_paced","","8","complex_dissimilar","images/stimuli/spore_stims/complex_05_A_a.gif","","","","",""
"","3088.024999946356","survey-multi-choice","105","316124","0.0-26.0","SS1618435635900","math_question","","","","","","","","","","","","{""Q0"":""12""}","[0]","12","",""
"","null","html-keyboard-response","106","317005","0.0-27.0-0.0","SS1618435635900","","","null","","","","","","<p><img src= images/blank.png width =""600"" height = ""600"" style=""position:fixed;top:50%; left:50%; transform: translate(-50%, -50%); border:5px solid black"">","","","","","","","",""
"","655.4250000044703","sequential-stimulus-presentation-old","107","317712","0.0-27.0-1.0","SS1618435635900","trial","","40","500","1155.4250000044703","images/stimuli/spore_stims/complex_02_A_a.gif","images/stimuli/spore_stims/complex_07_A_b.gif","forced_short","","9","complex_dissimilar","images/stimuli/spore_stims/complex_07_A_b.gif","","","","",""
"","null","html-keyboard-response","108","318603","0.0-27.0-0.1","SS1618435635900","","","null","","","","","","<p><img src= images/blank.png width =""600"" height = ""600"" style=""position:fixed;top:50%; left:50%; transform: translate(-50%, -50%); border:5px solid black"">","","","","","","","",""
"","5438.659999985248","sequential-stimulus-presentation-old","109","324545","0.0-27.0-1.1","SS1618435635900","trial","","40","500","5938.659999985248","images/stimuli/spore_stims/complex_02_A_a.gif","images/stimuli/spore_stims/complex_07_A_b.gif","forced_short","","9","complex_dissimilar","images/stimuli/spore_stims/complex_02_A_a.gif","","","","",""
"","null","html-keyboard-response","110","325597","0.0-27.0-0.2","SS1618435635900","","","null","","","","","","<p><img src= images/blank.png width =""600"" height = ""600"" style=""position:fixed;top:50%; left:50%; transform: translate(-50%, -50%); border:5px solid black"">","","","","","","","",""
"","5822.129999985918","sequential-stimulus-presentation-old","111","331922","0.0-27.0-1.2","SS1618435635900","trial","","40","500","6322.129999985918","images/stimuli/spore_stims/complex_02_A_a.gif","images/stimuli/spore_stims/complex_07_A_b.gif","forced_short","","9","complex_dissimilar","images/stimuli/spore_stims/complex_07_A_b.gif","","","","",""
"","null","html-keyboard-response","112","332997","0.0-27.0-0.3","SS1618435635900","","","null","","","","","","<p><img src= images/blank.png width =""600"" height = ""600"" style=""position:fixed;top:50%; left:50%; transform: translate(-50%, -50%); border:5px solid black"">","","","","","","","",""
"","2118.940000073053","sequential-stimulus-presentation-old","113","335618","0.0-27.0-1.3","SS1618435635900","trial","","40","500","2618.940000073053","images/stimuli/spore_stims/complex_02_A_a.gif","images/stimuli/spore_stims/complex_07_A_b.gif","forced_short","","9","complex_dissimilar","images/stimuli/spore_stims/complex_07_A_b.gif","","","","",""
"","null","html-keyboard-response","114","336659","0.0-27.0-0.4","SS1618435635900","","","null","","","","","","<p><img src= images/blank.png width =""600"" height = ""600"" style=""position:fixed;top:50%; left:50%; transform: translate(-50%, -50%); border:5px solid black"">","","","","","","","",""
"","3121.489999932237","sequential-stimulus-presentation-old","115","340282","0.0-27.0-1.4","SS1618435635900","trial","","40","500","3621.489999932237","images/stimuli/spore_stims/complex_02_A_a.gif","images/stimuli/spore_stims/complex_07_A_b.gif","forced_short","","9","complex_dissimilar","images/stimuli/spore_stims/complex_07_A_b.gif","","","","",""
"","null","html-keyboard-response","116","341582","0.0-27.0-0.5","SS1618435635900","","","null","","","","","","<p><img src= images/blank.png width =""600"" height = ""600"" style=""position:fixed;top:50%; left:50%; transform: translate(-50%, -50%); border:5px solid black"">","","","","","","","",""
"","2733.09499991592","sequential-stimulus-presentation-old","117","344819","0.0-27.0-1.5","SS1618435635900","trial","","40","500","3233.09499991592","images/stimuli/spore_stims/complex_02_A_a.gif","images/stimuli/spore_stims/complex_07_A_b.gif","forced_short","","9","complex_dissimilar","images/stimuli/spore_stims/complex_02_A_a.gif","","","","",""
"","10481.565000023693","survey-multi-choice","118","355302","0.0-28.0","SS1618435635900","math_question","","","","","","","","","","","","{""Q0"":""12""}","[0]","12","",""
"","null","html-keyboard-response","119","356285","0.0-29.0-0.0","SS1618435635900","","","null","","","","","","<p><img src= images/blank.png width =""600"" height = ""600"" style=""position:fixed;top:50%; left:50%; transform: translate(-50%, -50%); border:5px solid black"">","","","","","","","",""
"","11456.16499998141","sequential-stimulus-presentation-old","120","368246","0.0-29.0-1.0","SS1618435635900","trial","","40","500","11956.16499998141","images/stimuli/spore_stims/complex_11_A_a.gif","images/stimuli/spore_stims/complex_10_A_b.gif","self_paced","","10","complex_dissimilar","images/stimuli/spore_stims/complex_10_A_b.gif","","","","",""
"","null","html-keyboard-response","121","369245","0.0-29.0-0.1","SS1618435635900","","","null","","","","","","<p><img src= images/blank.png width =""600"" height = ""600"" style=""position:fixed;top:50%; left:50%; transform: translate(-50%, -50%); border:5px solid black"">","","","","","","","",""
"","1015.3899999568239","sequential-stimulus-presentation-old","122","370765","0.0-29.0-1.1","SS1618435635900","trial","","40","500","1515.3899999568239","images/stimuli/spore_stims/complex_11_A_a.gif","images/stimuli/spore_stims/complex_10_A_b.gif","self_paced","","10","complex_dissimilar","images/stimuli/spore_stims/complex_10_A_b.gif","","","","",""
"","null","html-keyboard-response","123","371587","0.0-29.0-0.2","SS1618435635900","","","null","","","","","","<p><img src= images/blank.png width =""600"" height = ""600"" style=""position:fixed;top:50%; left:50%; transform: translate(-50%, -50%); border:5px solid black"">","","","","","","","",""
"","1307.825000025332","sequential-stimulus-presentation-old","124","373398","0.0-29.0-1.2","SS1618435635900","trial","","40","500","1807.825000025332","images/stimuli/spore_stims/complex_11_A_a.gif","images/stimuli/spore_stims/complex_10_A_b.gif","self_paced","","10","complex_dissimilar","images/stimuli/spore_stims/complex_10_A_b.gif","","","","",""
"","null","html-keyboard-response","125","374357","0.0-29.0-0.3","SS1618435635900","","","null","","","","","","<p><img src= images/blank.png width =""600"" height = ""600"" style=""position:fixed;top:50%; left:50%; transform: translate(-50%, -50%); border:5px solid black"">","","","","","","","",""
"","1009.6149999881163","sequential-stimulus-presentation-old","126","375870","0.0-29.0-1.3","SS1618435635900","trial","","40","500","1509.6149999881163","images/stimuli/spore_stims/complex_11_A_a.gif","images/stimuli/spore_stims/complex_10_A_b.gif","self_paced","","10","complex_dissimilar","images/stimuli/spore_stims/complex_10_A_b.gif","","","","",""
"","null","html-keyboard-response","127","376895","0.0-29.0-0.4","SS1618435635900","","","null","","","","","","<p><img src= images/blank.png width =""600"" height = ""600"" style=""position:fixed;top:50%; left:50%; transform: translate(-50%, -50%); border:5px solid black"">","","","","","","","",""
"","2112.089999951422","sequential-stimulus-presentation-old","128","379511","0.0-29.0-1.4","SS1618435635900","trial","","40","500","2612.089999951422","images/stimuli/spore_stims/complex_11_A_a.gif","images/stimuli/spore_stims/complex_10_A_b.gif","self_paced","","10","complex_dissimilar","images/stimuli/spore_stims/complex_10_A_b.gif","","","","",""
"","null","html-keyboard-response","129","380775","0.0-29.0-0.5","SS1618435635900","","","null","","","","","","<p><img src= images/blank.png width =""600"" height = ""600"" style=""position:fixed;top:50%; left:50%; transform: translate(-50%, -50%); border:5px solid black"">","","","","","","","",""
"","1055.3800000343472","sequential-stimulus-presentation-old","130","382335","0.0-29.0-1.5","SS1618435635900","trial","","40","500","1555.3800000343472","images/stimuli/spore_stims/complex_11_A_a.gif","images/stimuli/spore_stims/complex_10_A_b.gif","self_paced","","10","complex_dissimilar","images/stimuli/spore_stims/complex_10_A_b.gif","","","","",""
"","4062.6349999802187","survey-multi-choice","131","386399","0.0-30.0","SS1618435635900","math_question","","","","","","","","","","","","{""Q0"":""4""}","[0]","4","",""
"","null","html-keyboard-response","132","387613","0.0-31.0-0.0","SS1618435635900","","","null","","","","","","<p><img src= images/blank.png width =""600"" height = ""600"" style=""position:fixed;top:50%; left:50%; transform: translate(-50%, -50%); border:5px solid black"">","","","","","","","",""
"","914.5700000226498","sequential-stimulus-presentation-old","133","389031","0.0-31.0-1.0","SS1618435635900","trial","","40","500","1414.5700000226498","images/stimuli/spore_stims/simple_10_A_a.gif","images/stimuli/spore_stims/simple_05_A_b.gif","self_paced","","11","simple_dissimilar","images/stimuli/spore_stims/simple_05_A_b.gif","","","","",""
"","null","html-keyboard-response","134","390304","0.0-31.0-0.1","SS1618435635900","","","null","","","","","","<p><img src= images/blank.png width =""600"" height = ""600"" style=""position:fixed;top:50%; left:50%; transform: translate(-50%, -50%); border:5px solid black"">","","","","","","","",""
"","368.4950000606477","sequential-stimulus-presentation-old","135","391175","0.0-31.0-1.1","SS1618435635900","trial","","40","500","868.4950000606477","images/stimuli/spore_stims/simple_10_A_a.gif","images/stimuli/spore_stims/simple_05_A_b.gif","self_paced","","11","simple_dissimilar","images/stimuli/spore_stims/simple_05_A_b.gif","","","","",""
"","null","html-keyboard-response","136","392384","0.0-31.0-0.2","SS1618435635900","","","null","","","","","","<p><img src= images/blank.png width =""600"" height = ""600"" style=""position:fixed;top:50%; left:50%; transform: translate(-50%, -50%); border:5px solid black"">","","","","","","","",""
"","352.5000000372529","sequential-stimulus-presentation-old","137","393240","0.0-31.0-1.2","SS1618435635900","trial","","40","500","852.5000000372529","images/stimuli/spore_stims/simple_10_A_a.gif","images/stimuli/spore_stims/simple_05_A_b.gif","self_paced","","11","simple_dissimilar","images/stimuli/spore_stims/simple_05_A_b.gif","","","","",""
"","null","html-keyboard-response","138","394385","0.0-31.0-0.3","SS1618435635900","","","null","","","","","","<p><img src= images/blank.png width =""600"" height = ""600"" style=""position:fixed;top:50%; left:50%; transform: translate(-50%, -50%); border:5px solid black"">","","","","","","","",""
"","606.9800000404939","sequential-stimulus-presentation-old","139","395496","0.0-31.0-1.3","SS1618435635900","trial","","40","500","1106.980000040494","images/stimuli/spore_stims/simple_10_A_a.gif","images/stimuli/spore_stims/simple_05_A_b.gif","self_paced","","11","simple_dissimilar","images/stimuli/spore_stims/simple_05_A_b.gif","","","","",""
"","null","html-keyboard-response","140","396491","0.0-31.0-0.4","SS1618435635900","","","null","","","","","","<p><img src= images/blank.png width =""600"" height = ""600"" style=""position:fixed;top:50%; left:50%; transform: translate(-50%, -50%); border:5px solid black"">","","","","","","","",""
"","406.4599999692291","sequential-stimulus-presentation-old","141","397400","0.0-31.0-1.4","SS1618435635900","trial","","40","500","906.4599999692291","images/stimuli/spore_stims/simple_10_A_a.gif","images/stimuli/spore_stims/simple_05_A_b.gif","self_paced","","11","simple_dissimilar","images/stimuli/spore_stims/simple_05_A_b.gif","","","","",""
"","null","html-keyboard-response","142","398584","0.0-31.0-0.5","SS1618435635900","","","null","","","","","","<p><img src= images/blank.png width =""600"" height = ""600"" style=""position:fixed;top:50%; left:50%; transform: translate(-50%, -50%); border:5px solid black"">","","","","","","","",""
"","128.8750000530854","sequential-stimulus-presentation-old","143","399216","0.0-31.0-1.5","SS1618435635900","trial","","40","500","628.8750000530854","images/stimuli/spore_stims/simple_10_A_a.gif","images/stimuli/spore_stims/simple_05_A_b.gif","self_paced","","11","simple_dissimilar","images/stimuli/spore_stims/simple_05_A_b.gif","","","","",""
"[{""page_index"":0,""viewing_time"":4423.199999961071}]","4423.339999979362","instructions","144","403641","0.0-32.0","SS1618435635900","instructions","","","","","","","","","","","","","","","",""
"","5580.530000035651","survey-likert","145","409224","0.0-33.0","SS1618435635900","similarity_question","","","","","","","","","","","","{""Q0"":2}","[0]","","images/stimuli/spore_stims/complex_18_A_a.gif","images/stimuli/spore_stims/complex_08_A_b.gif"
"","3758.475000038743","survey-likert","146","412985","0.0-34.0","SS1618435635900","similarity_question","","","","","","","","","","","","{""Q0"":4}","[0]","","images/stimuli/spore_stims/simple_06_A_b.gif","images/stimuli/spore_stims/simple_16_A_a.gif"
"","5108.00999996718","survey-likert","147","418096","0.0-35.0","SS1618435635900","similarity_question","","","","","","","","","","","","{""Q0"":5}","[0]","","images/stimuli/spore_stims/simple_10_A_a.gif","images/stimuli/spore_stims/simple_05_A_b.gif"
"","2614.7300000302494","survey-likert","148","420713","0.0-36.0","SS1618435635900","similarity_question","","","","","","","","","","","","{""Q0"":3}","[0]","","images/stimuli/spore_stims/complex_11_A_b.gif","images/stimuli/spore_stims/complex_20_A_a.gif"
"","4190.044999937527","survey-likert","149","424905","0.0-37.0","SS1618435635900","similarity_question","","","","","","","","","","","","{""Q0"":6}","[0]","","images/stimuli/spore_stims/simple_12_A_b.gif","images/stimuli/spore_stims/simple_09_A_a.gif"
"","2467.3199999378994","survey-likert","150","427375","0.0-38.0","SS1618435635900","similarity_question","","","","","","","","","","","","{""Q0"":1}","[0]","","images/stimuli/spore_stims/complex_10_A_b.gif","images/stimuli/spore_stims/complex_11_A_a.gif"
"","3314.050000044517","survey-likert","151","430692","0.0-39.0","SS1618435635900","similarity_question","","","","","","","","","","","","{""Q0"":3}","[0]","","images/stimuli/spore_stims/simple_12_A_a.gif","images/stimuli/spore_stims/simple_04_A_b.gif"
"","4570.769999991171","survey-likert","152","435265","0.0-40.0","SS1618435635900","similarity_question","","","","","","","","","","","","{""Q0"":4}","[0]","","images/stimuli/spore_stims/simple_06_A_a.gif","images/stimuli/spore_stims/simple_03_A_b.gif"
"","6002.005000016652","survey-likert","153","441270","0.0-41.0","SS1618435635900","similarity_question","","","","","","","","","","","","{""Q0"":2}","[0]","","images/stimuli/spore_stims/complex_02_A_b.gif","images/stimuli/spore_stims/complex_05_A_a.gif"
"","2348.824999993667","survey-likert","154","443621","0.0-42.0","SS1618435635900","similarity_question","","","","","","","","","","","","{""Q0"":3}","[0]","","images/stimuli/spore_stims/simple_10_A_b.gif","images/stimuli/spore_stims/simple_18_A_a.gif"
"","2780.7000000029802","survey-likert","155","446405","0.0-43.0","SS1618435635900","similarity_question","","","","","","","","","","","","{""Q0"":2}","[0]","","images/stimuli/spore_stims/complex_20_A_b.gif","images/stimuli/spore_stims/complex_12_A_a.gif"
"","2818.8250000821427","survey-likert","156","449227","0.0-44.0","SS1618435635900","similarity_question","","","","","","","","","","","","{""Q0"":1}","[0]","","images/stimuli/spore_stims/complex_07_A_b.gif","images/stimuli/spore_stims/complex_02_A_a.gif"
"[{""page_index"":0,""viewing_time"":2656.235000002198}]","2656.3699999824166","instructions","157","451885","0.0-45.0","SS1618435635900","instructions","","","","","","","","","","","","","","","",""
"","2791.0750000737607","survey-likert","158","454679","0.0-46.0","SS1618435635900","","","","","","","","","images/stimuli/spore_stims/simple_12_A_b.gif","","","","{""Q0"":1}","[0]","","",""
"","1845.6800000276417","survey-likert","159","456527","0.0-47.0","SS1618435635900","","","","","","","","","images/stimuli/spore_stims/complex_05_A_a.gif","","","","{""Q0"":5}","[0]","","",""
"","2087.675000075251","survey-likert","160","458617","0.0-48.0","SS1618435635900","","","","","","","","","images/stimuli/spore_stims/complex_20_A_b.gif","","","","{""Q0"":5}","[0]","","",""
"","2230.8199999388307","survey-likert","161","460851","0.0-49.0","SS1618435635900","","","","","","","","","images/stimuli/spore_stims/simple_06_A_b.gif","","","","{""Q0"":1}","[0]","","",""
"","1962.9100000020117","survey-likert","162","462816","0.0-50.0","SS1618435635900","","","","","","","","","images/stimuli/spore_stims/complex_11_A_b.gif","","","","{""Q0"":6}","[0]","","",""
"","1694.7200000286102","survey-likert","163","464513","0.0-51.0","SS1618435635900","","","","","","","","","images/stimuli/spore_stims/simple_10_A_a.gif","","","","{""Q0"":1}","[0]","","",""
"","1884.6149999881163","survey-likert","164","466400","0.0-52.0","SS1618435635900","","","","","","","","","images/stimuli/spore_stims/simple_10_A_b.gif","","","","{""Q0"":1}","[0]","","",""
"","2083.314999938011","survey-likert","165","468486","0.0-53.0","SS1618435635900","","","","","","","","","images/stimuli/spore_stims/complex_11_A_a.gif","","","","{""Q0"":5}","[0]","","",""
"","3660.615000058897","survey-likert","166","472150","0.0-54.0","SS1618435635900","","","","","","","","","images/stimuli/spore_stims/complex_08_A_b.gif","","","","{""Q0"":6}","[0]","","",""
"","2319.909999961965","survey-likert","167","474472","0.0-55.0","SS1618435635900","","","","","","","","","images/stimuli/spore_stims/complex_02_A_a.gif","","","","{""Q0"":6}","[0]","","",""
"","2226.0450000176206","survey-likert","168","476700","0.0-56.0","SS1618435635900","","","","","","","","","images/stimuli/spore_stims/simple_12_A_a.gif","","","","{""Q0"":1}","[0]","","",""
"","1880.4699999745935","survey-likert","169","478584","0.0-57.0","SS1618435635900","","","","","","","","","images/stimuli/spore_stims/simple_03_A_b.gif","","","","{""Q0"":2}","[0]","","",""
"[{""page_index"":0,""viewing_time"":1518.2649999624118}]","1518.3849999448285","instructions","170","480104","0.0-58.0","SS1618435635900","instructions","","","","","","","","","","","","","","","",""
"","3059.7549999365583","demog-age","171","483169","0.0-59.0","SS1618435635900","","","","","","","","","","","","","{""age"":""28""}","","","",""
"","2369.179999921471","demog-ethnic-US","172","485542","0.0-60.0","SS1618435635900","","","","","","","","","","","","","{""ethnicity"":[""White""]}","[0]","","",""
"","7685.749999945983","demog-gender-and-education","173","493231","0.0-61.0","SS1618435635900","","","","","","","","","","","","","{""gender"":""Male"",""education"":""Associate Degree/Technical certification""}","[0,1]","","",""
"","15623.35000000894","survey-text","174","508859","0.0-62.0","SS1618435635900","feedback","","","","","","","","","","","","{""Q0"":""It did not lag, except at the very beginning.""}","","","",""
"[{""page_index"":0,""viewing_time"":1939.7199999075383}]","1939.9299999931827","instructions","175","510801","0.0-63.0","SS1618435635900","instructions","","","","","","","","","","","","","","","",""
