"view_history","rt","trial_type","trial_index","time_elapsed","internal_node_id","subject","stimulus_type","trial_stimulus","key_press","minimum_viewing_duration","trial_looking_time","block_deviant","block_background","exposure_type","stimulus","block_number","block_type","stimulus_displayed","responses","question_order","math_correct_answer","stimulus_left","stimulus_right"
"[{""page_index"":0,""viewing_time"":1268}]","1269","instructions","0","1270","0.0-0.0","SS1618365089548","","","","","","","","","","","","","","","","",""
"[{""page_index"":0,""viewing_time"":11070},{""page_index"":1,""viewing_time"":4018}]","15088","instructions","1","18360","0.0-1.0","SS1618365089548","instructions","","","","","","","","","","","","","","","",""
"","3645","sequential-stimulus-presentation-old","2","22510","0.0-2.0","SS1618365089548","","","40","500","4145","null","null","self_paced","","","","","","","","",""
"","1861","sequential-stimulus-presentation-old","3","24874","0.0-3.0","SS1618365089548","","","40","500","2361","null","null","self_paced","","","","","","","","",""
"[{""page_index"":0,""viewing_time"":13432}]","13432","instructions","4","38307","0.0-4.0","SS1618365089548","instructions","","","","","","","","","","","","","","","",""
"","549","sequential-stimulus-presentation-old","5","43858","0.0-5.0","SS1618365089548","","","40","500","1049","null","null","forced_long","","","","","","","","",""
"","2788","sequential-stimulus-presentation-old","6","46700","0.0-6.0","SS1618365089548","","","40","50","2838","null","null","forced_long","","","","","","","","",""
"[{""page_index"":0,""viewing_time"":4713}]","4713","instructions","7","51413","0.0-7.0","SS1618365089548","instructions","","","","","","","","","","","","","","","",""
"[{""page_index"":0,""viewing_time"":5933},{""page_index"":1,""viewing_time"":8893},{""page_index"":2,""viewing_time"":5499},{""page_index"":3,""viewing_time"":718},{""page_index"":4,""viewing_time"":853}]","21896","instructions","8","73310","0.0-8.0","SS1618365089548","instructions","","","","","","","","","","","","","","","",""
"","null","html-keyboard-response","9","74210","0.0-9.0-0.0","SS1618365089548","","","null","","","","","","<p><img src= images/blank.png width =""600"" height = ""600"" style=""position:fixed;top:50%; left:50%; transform: translate(-50%, -50%); border:5px solid black"">","","","","","","","",""
"","459","sequential-stimulus-presentation-old","10","74722","0.0-9.0-1.0","SS1618365089548","trial","","40","500","959","images/stimuli/spore_stims/simple_19_A_b.gif","images/stimuli/spore_stims/simple_03_A_a.gif","forced_short","","0","simple_dissimilar","images/stimuli/spore_stims/simple_03_A_a.gif","","","","",""
"","null","html-keyboard-response","11","75905","0.0-9.0-0.1","SS1618365089548","","","null","","","","","","<p><img src= images/blank.png width =""600"" height = ""600"" style=""position:fixed;top:50%; left:50%; transform: translate(-50%, -50%); border:5px solid black"">","","","","","","","",""
"","6126","sequential-stimulus-presentation-old","12","82533","0.0-9.0-1.1","SS1618365089548","trial","","40","500","6626","images/stimuli/spore_stims/simple_19_A_b.gif","images/stimuli/spore_stims/simple_03_A_a.gif","forced_short","","0","simple_dissimilar","images/stimuli/spore_stims/simple_03_A_a.gif","","","","",""
"","null","html-keyboard-response","13","83450","0.0-9.0-0.2","SS1618365089548","","","null","","","","","","<p><img src= images/blank.png width =""600"" height = ""600"" style=""position:fixed;top:50%; left:50%; transform: translate(-50%, -50%); border:5px solid black"">","","","","","","","",""
"","2798","sequential-stimulus-presentation-old","14","86749","0.0-9.0-1.2","SS1618365089548","trial","","40","500","3298","images/stimuli/spore_stims/simple_19_A_b.gif","images/stimuli/spore_stims/simple_03_A_a.gif","forced_short","","0","simple_dissimilar","images/stimuli/spore_stims/simple_03_A_a.gif","","","","",""
"","null","html-keyboard-response","15","87810","0.0-9.0-0.3","SS1618365089548","","","null","","","","","","<p><img src= images/blank.png width =""600"" height = ""600"" style=""position:fixed;top:50%; left:50%; transform: translate(-50%, -50%); border:5px solid black"">","","","","","","","",""
"","1275","sequential-stimulus-presentation-old","16","89589","0.0-9.0-1.3","SS1618365089548","trial","","40","500","1775","images/stimuli/spore_stims/simple_19_A_b.gif","images/stimuli/spore_stims/simple_03_A_a.gif","forced_short","","0","simple_dissimilar","images/stimuli/spore_stims/simple_03_A_a.gif","","","","",""
"","null","html-keyboard-response","17","90412","0.0-9.0-0.4","SS1618365089548","","","null","","","","","","<p><img src= images/blank.png width =""600"" height = ""600"" style=""position:fixed;top:50%; left:50%; transform: translate(-50%, -50%); border:5px solid black"">","","","","","","","",""
"","1103","sequential-stimulus-presentation-old","18","92018","0.0-9.0-1.4","SS1618365089548","trial","","40","500","1603","images/stimuli/spore_stims/simple_19_A_b.gif","images/stimuli/spore_stims/simple_03_A_a.gif","forced_short","","0","simple_dissimilar","images/stimuli/spore_stims/simple_19_A_b.gif","","","","",""
"","null","html-keyboard-response","19","93179","0.0-9.0-0.5","SS1618365089548","","","null","","","","","","<p><img src= images/blank.png width =""600"" height = ""600"" style=""position:fixed;top:50%; left:50%; transform: translate(-50%, -50%); border:5px solid black"">","","","","","","","",""
"","1500","sequential-stimulus-presentation-old","20","95182","0.0-9.0-1.5","SS1618365089548","trial","","40","500","2000","images/stimuli/spore_stims/simple_19_A_b.gif","images/stimuli/spore_stims/simple_03_A_a.gif","forced_short","","0","simple_dissimilar","images/stimuli/spore_stims/simple_03_A_a.gif","","","","",""
"","3781","survey-multi-choice","21","98966","0.0-10.0","SS1618365089548","math_question","","","","","","","","","","","","{""Q0"":""3""}","[0]","3","",""
"","null","html-keyboard-response","22","100183","0.0-11.0-0.0","SS1618365089548","","","null","","","","","","<p><img src= images/blank.png width =""600"" height = ""600"" style=""position:fixed;top:50%; left:50%; transform: translate(-50%, -50%); border:5px solid black"">","","","","","","","",""
"","1744","sequential-stimulus-presentation-old","23","102430","0.0-11.0-1.0","SS1618365089548","trial","","40","500","2244","images/stimuli/spore_stims/complex_12_A_a.gif","images/stimuli/spore_stims/complex_20_A_b.gif","self_paced","","1","complex_dissimilar","images/stimuli/spore_stims/complex_20_A_b.gif","","","","",""
"","null","html-keyboard-response","24","103304","0.0-11.0-0.1","SS1618365089548","","","null","","","","","","<p><img src= images/blank.png width =""600"" height = ""600"" style=""position:fixed;top:50%; left:50%; transform: translate(-50%, -50%); border:5px solid black"">","","","","","","","",""
"","1815","sequential-stimulus-presentation-old","25","105621","0.0-11.0-1.1","SS1618365089548","trial","","40","500","2315","images/stimuli/spore_stims/complex_12_A_a.gif","images/stimuli/spore_stims/complex_20_A_b.gif","self_paced","","1","complex_dissimilar","images/stimuli/spore_stims/complex_20_A_b.gif","","","","",""
"","null","html-keyboard-response","26","106453","0.0-11.0-0.2","SS1618365089548","","","null","","","","","","<p><img src= images/blank.png width =""600"" height = ""600"" style=""position:fixed;top:50%; left:50%; transform: translate(-50%, -50%); border:5px solid black"">","","","","","","","",""
"","1310","sequential-stimulus-presentation-old","27","108265","0.0-11.0-1.2","SS1618365089548","trial","","40","500","1810","images/stimuli/spore_stims/complex_12_A_a.gif","images/stimuli/spore_stims/complex_20_A_b.gif","self_paced","","1","complex_dissimilar","images/stimuli/spore_stims/complex_12_A_a.gif","","","","",""
"","null","html-keyboard-response","28","109191","0.0-11.0-0.3","SS1618365089548","","","null","","","","","","<p><img src= images/blank.png width =""600"" height = ""600"" style=""position:fixed;top:50%; left:50%; transform: translate(-50%, -50%); border:5px solid black"">","","","","","","","",""
"","1574","sequential-stimulus-presentation-old","29","111266","0.0-11.0-1.3","SS1618365089548","trial","","40","500","2074","images/stimuli/spore_stims/complex_12_A_a.gif","images/stimuli/spore_stims/complex_20_A_b.gif","self_paced","","1","complex_dissimilar","images/stimuli/spore_stims/complex_20_A_b.gif","","","","",""
"","null","html-keyboard-response","30","112148","0.0-11.0-0.4","SS1618365089548","","","null","","","","","","<p><img src= images/blank.png width =""600"" height = ""600"" style=""position:fixed;top:50%; left:50%; transform: translate(-50%, -50%); border:5px solid black"">","","","","","","","",""
"","1716","sequential-stimulus-presentation-old","31","114368","0.0-11.0-1.4","SS1618365089548","trial","","40","500","2216","images/stimuli/spore_stims/complex_12_A_a.gif","images/stimuli/spore_stims/complex_20_A_b.gif","self_paced","","1","complex_dissimilar","images/stimuli/spore_stims/complex_12_A_a.gif","","","","",""
"","null","html-keyboard-response","32","115578","0.0-11.0-0.5","SS1618365089548","","","null","","","","","","<p><img src= images/blank.png width =""600"" height = ""600"" style=""position:fixed;top:50%; left:50%; transform: translate(-50%, -50%); border:5px solid black"">","","","","","","","",""
"","2102","sequential-stimulus-presentation-old","33","118183","0.0-11.0-1.5","SS1618365089548","trial","","40","500","2602","images/stimuli/spore_stims/complex_12_A_a.gif","images/stimuli/spore_stims/complex_20_A_b.gif","self_paced","","1","complex_dissimilar","images/stimuli/spore_stims/complex_20_A_b.gif","","","","",""
"","3146","survey-multi-choice","34","121330","0.0-12.0","SS1618365089548","math_question","","","","","","","","","","","","{""Q0"":""8""}","[0]","8","",""
"","null","html-keyboard-response","35","122176","0.0-13.0-0.0","SS1618365089548","","","null","","","","","","<p><img src= images/blank.png width =""600"" height = ""600"" style=""position:fixed;top:50%; left:50%; transform: translate(-50%, -50%); border:5px solid black"">","","","","","","","",""
"","374","sequential-stimulus-presentation-old","36","122604","0.0-13.0-1.0","SS1618365089548","trial","","40","500","874","images/stimuli/spore_stims/complex_01_A_a.gif","images/stimuli/spore_stims/complex_16_A_b.gif","forced_short","","2","complex_dissimilar","images/stimuli/spore_stims/complex_16_A_b.gif","","","","",""
"","null","html-keyboard-response","37","123470","0.0-13.0-0.1","SS1618365089548","","","null","","","","","","<p><img src= images/blank.png width =""600"" height = ""600"" style=""position:fixed;top:50%; left:50%; transform: translate(-50%, -50%); border:5px solid black"">","","","","","","","",""
"","728","sequential-stimulus-presentation-old","38","124700","0.0-13.0-1.1","SS1618365089548","trial","","40","500","1228","images/stimuli/spore_stims/complex_01_A_a.gif","images/stimuli/spore_stims/complex_16_A_b.gif","forced_short","","2","complex_dissimilar","images/stimuli/spore_stims/complex_16_A_b.gif","","","","",""
"","null","html-keyboard-response","39","125938","0.0-13.0-0.2","SS1618365089548","","","null","","","","","","<p><img src= images/blank.png width =""600"" height = ""600"" style=""position:fixed;top:50%; left:50%; transform: translate(-50%, -50%); border:5px solid black"">","","","","","","","",""
"","968","sequential-stimulus-presentation-old","40","127408","0.0-13.0-1.2","SS1618365089548","trial","","40","500","1468","images/stimuli/spore_stims/complex_01_A_a.gif","images/stimuli/spore_stims/complex_16_A_b.gif","forced_short","","2","complex_dissimilar","images/stimuli/spore_stims/complex_16_A_b.gif","","","","",""
"","null","html-keyboard-response","41","128407","0.0-13.0-0.3","SS1618365089548","","","null","","","","","","<p><img src= images/blank.png width =""600"" height = ""600"" style=""position:fixed;top:50%; left:50%; transform: translate(-50%, -50%); border:5px solid black"">","","","","","","","",""
"","969","sequential-stimulus-presentation-old","42","129879","0.0-13.0-1.3","SS1618365089548","trial","","40","500","1469","images/stimuli/spore_stims/complex_01_A_a.gif","images/stimuli/spore_stims/complex_16_A_b.gif","forced_short","","2","complex_dissimilar","images/stimuli/spore_stims/complex_16_A_b.gif","","","","",""
"","2307","survey-multi-choice","43","132188","0.0-14.0","SS1618365089548","math_question","","","","","","","","","","","","{""Q0"":""11""}","[0]","11","",""
"","null","html-keyboard-response","44","133175","0.0-15.0-0.0","SS1618365089548","","","null","","","","","","<p><img src= images/blank.png width =""600"" height = ""600"" style=""position:fixed;top:50%; left:50%; transform: translate(-50%, -50%); border:5px solid black"">","","","","","","","",""
"","385","sequential-stimulus-presentation-old","45","134061","0.0-15.0-1.0","SS1618365089548","trial","","40","500","885","images/stimuli/spore_stims/simple_10_A_a.gif","images/stimuli/spore_stims/simple_03_A_b.gif","self_paced","","3","simple_dissimilar","images/stimuli/spore_stims/simple_03_A_b.gif","","","","",""
"","null","html-keyboard-response","46","134971","0.0-15.0-0.1","SS1618365089548","","","null","","","","","","<p><img src= images/blank.png width =""600"" height = ""600"" style=""position:fixed;top:50%; left:50%; transform: translate(-50%, -50%); border:5px solid black"">","","","","","","","",""
"","1153","sequential-stimulus-presentation-old","47","136626","0.0-15.0-1.1","SS1618365089548","trial","","40","500","1653","images/stimuli/spore_stims/simple_10_A_a.gif","images/stimuli/spore_stims/simple_03_A_b.gif","self_paced","","3","simple_dissimilar","images/stimuli/spore_stims/simple_03_A_b.gif","","","","",""
"","null","html-keyboard-response","48","137470","0.0-15.0-0.2","SS1618365089548","","","null","","","","","","<p><img src= images/blank.png width =""600"" height = ""600"" style=""position:fixed;top:50%; left:50%; transform: translate(-50%, -50%); border:5px solid black"">","","","","","","","",""
"","1494","sequential-stimulus-presentation-old","49","139468","0.0-15.0-1.2","SS1618365089548","trial","","40","500","1994","images/stimuli/spore_stims/simple_10_A_a.gif","images/stimuli/spore_stims/simple_03_A_b.gif","self_paced","","3","simple_dissimilar","images/stimuli/spore_stims/simple_03_A_b.gif","","","","",""
"","null","html-keyboard-response","50","140389","0.0-15.0-0.3","SS1618365089548","","","null","","","","","","<p><img src= images/blank.png width =""600"" height = ""600"" style=""position:fixed;top:50%; left:50%; transform: translate(-50%, -50%); border:5px solid black"">","","","","","","","",""
"","1432","sequential-stimulus-presentation-old","51","142323","0.0-15.0-1.3","SS1618365089548","trial","","40","500","1932","images/stimuli/spore_stims/simple_10_A_a.gif","images/stimuli/spore_stims/simple_03_A_b.gif","self_paced","","3","simple_dissimilar","images/stimuli/spore_stims/simple_10_A_a.gif","","","","",""
"","null","html-keyboard-response","52","143129","0.0-15.0-0.4","SS1618365089548","","","null","","","","","","<p><img src= images/blank.png width =""600"" height = ""600"" style=""position:fixed;top:50%; left:50%; transform: translate(-50%, -50%); border:5px solid black"">","","","","","","","",""
"","1154","sequential-stimulus-presentation-old","53","144787","0.0-15.0-1.4","SS1618365089548","trial","","40","500","1654","images/stimuli/spore_stims/simple_10_A_a.gif","images/stimuli/spore_stims/simple_03_A_b.gif","self_paced","","3","simple_dissimilar","images/stimuli/spore_stims/simple_03_A_b.gif","","","","",""
"","2106","survey-multi-choice","54","146896","0.0-16.0","SS1618365089548","math_question","","","","","","","","","","","","{""Q0"":""11""}","[0]","11","",""
"","null","html-keyboard-response","55","148040","0.0-17.0-0.0","SS1618365089548","","","null","","","","","","<p><img src= images/blank.png width =""600"" height = ""600"" style=""position:fixed;top:50%; left:50%; transform: translate(-50%, -50%); border:5px solid black"">","","","","","","","",""
"","6698","sequential-stimulus-presentation-old","56","159741","0.0-17.0-1.0","SS1618365089548","trial","","40","500","7198","images/stimuli/spore_stims/simple_18_A_a.gif","images/stimuli/spore_stims/simple_20_A_b.gif","forced_long","","4","simple_dissimilar","images/stimuli/spore_stims/simple_20_A_b.gif","","","","",""
"","null","html-keyboard-response","57","160876","0.0-17.0-0.1","SS1618365089548","","","null","","","","","","<p><img src= images/blank.png width =""600"" height = ""600"" style=""position:fixed;top:50%; left:50%; transform: translate(-50%, -50%); border:5px solid black"">","","","","","","","",""
"","1590","sequential-stimulus-presentation-old","58","162967","0.0-17.0-1.1","SS1618365089548","trial","","40","500","2090","images/stimuli/spore_stims/simple_18_A_a.gif","images/stimuli/spore_stims/simple_20_A_b.gif","forced_long","","4","simple_dissimilar","images/stimuli/spore_stims/simple_20_A_b.gif","","","","",""
"","null","html-keyboard-response","59","163852","0.0-17.0-0.2","SS1618365089548","","","null","","","","","","<p><img src= images/blank.png width =""600"" height = ""600"" style=""position:fixed;top:50%; left:50%; transform: translate(-50%, -50%); border:5px solid black"">","","","","","","","",""
"","1255","sequential-stimulus-presentation-old","60","165609","0.0-17.0-1.2","SS1618365089548","trial","","40","500","1755","images/stimuli/spore_stims/simple_18_A_a.gif","images/stimuli/spore_stims/simple_20_A_b.gif","forced_long","","4","simple_dissimilar","images/stimuli/spore_stims/simple_18_A_a.gif","","","","",""
"","null","html-keyboard-response","61","166623","0.0-17.0-0.3","SS1618365089548","","","null","","","","","","<p><img src= images/blank.png width =""600"" height = ""600"" style=""position:fixed;top:50%; left:50%; transform: translate(-50%, -50%); border:5px solid black"">","","","","","","","",""
"","913","sequential-stimulus-presentation-old","62","168041","0.0-17.0-1.3","SS1618365089548","trial","","40","500","1413","images/stimuli/spore_stims/simple_18_A_a.gif","images/stimuli/spore_stims/simple_20_A_b.gif","forced_long","","4","simple_dissimilar","images/stimuli/spore_stims/simple_20_A_b.gif","","","","",""
"","null","html-keyboard-response","63","168994","0.0-17.0-0.4","SS1618365089548","","","null","","","","","","<p><img src= images/blank.png width =""600"" height = ""600"" style=""position:fixed;top:50%; left:50%; transform: translate(-50%, -50%); border:5px solid black"">","","","","","","","",""
"","1762","sequential-stimulus-presentation-old","64","171258","0.0-17.0-1.4","SS1618365089548","trial","","40","500","2262","images/stimuli/spore_stims/simple_18_A_a.gif","images/stimuli/spore_stims/simple_20_A_b.gif","forced_long","","4","simple_dissimilar","images/stimuli/spore_stims/simple_18_A_a.gif","","","","",""
"","null","html-keyboard-response","65","172489","0.0-17.0-0.5","SS1618365089548","","","null","","","","","","<p><img src= images/blank.png width =""600"" height = ""600"" style=""position:fixed;top:50%; left:50%; transform: translate(-50%, -50%); border:5px solid black"">","","","","","","","",""
"","1016","sequential-stimulus-presentation-old","66","174010","0.0-17.0-1.5","SS1618365089548","trial","","40","500","1516","images/stimuli/spore_stims/simple_18_A_a.gif","images/stimuli/spore_stims/simple_20_A_b.gif","forced_long","","4","simple_dissimilar","images/stimuli/spore_stims/simple_20_A_b.gif","","","","",""
"","3503","survey-multi-choice","67","177519","0.0-18.0","SS1618365089548","math_question","","","","","","","","","","","","{""Q0"":""13""}","[0]","13","",""
"","null","html-keyboard-response","68","178382","0.0-19.0-0.0","SS1618365089548","","","null","","","","","","<p><img src= images/blank.png width =""600"" height = ""600"" style=""position:fixed;top:50%; left:50%; transform: translate(-50%, -50%); border:5px solid black"">","","","","","","","",""
"","306","sequential-stimulus-presentation-old","69","179192","0.0-19.0-1.0","SS1618365089548","trial","","40","500","806","images/stimuli/spore_stims/simple_12_A_a.gif","images/stimuli/spore_stims/simple_04_A_b.gif","self_paced","","5","simple_dissimilar","images/stimuli/spore_stims/simple_04_A_b.gif","","","","",""
"","null","html-keyboard-response","70","180348","0.0-19.0-0.1","SS1618365089548","","","null","","","","","","<p><img src= images/blank.png width =""600"" height = ""600"" style=""position:fixed;top:50%; left:50%; transform: translate(-50%, -50%); border:5px solid black"">","","","","","","","",""
"","455","sequential-stimulus-presentation-old","71","181307","0.0-19.0-1.1","SS1618365089548","trial","","40","500","955","images/stimuli/spore_stims/simple_12_A_a.gif","images/stimuli/spore_stims/simple_04_A_b.gif","self_paced","","5","simple_dissimilar","images/stimuli/spore_stims/simple_04_A_b.gif","","","","",""
"","null","html-keyboard-response","72","182231","0.0-19.0-0.2","SS1618365089548","","","null","","","","","","<p><img src= images/blank.png width =""600"" height = ""600"" style=""position:fixed;top:50%; left:50%; transform: translate(-50%, -50%); border:5px solid black"">","","","","","","","",""
"","490","sequential-stimulus-presentation-old","73","183224","0.0-19.0-1.2","SS1618365089548","trial","","40","500","990","images/stimuli/spore_stims/simple_12_A_a.gif","images/stimuli/spore_stims/simple_04_A_b.gif","self_paced","","5","simple_dissimilar","images/stimuli/spore_stims/simple_04_A_b.gif","","","","",""
"","null","html-keyboard-response","74","184075","0.0-19.0-0.3","SS1618365089548","","","null","","","","","","<p><img src= images/blank.png width =""600"" height = ""600"" style=""position:fixed;top:50%; left:50%; transform: translate(-50%, -50%); border:5px solid black"">","","","","","","","",""
"","1242","sequential-stimulus-presentation-old","75","185819","0.0-19.0-1.3","SS1618365089548","trial","","40","500","1742","images/stimuli/spore_stims/simple_12_A_a.gif","images/stimuli/spore_stims/simple_04_A_b.gif","self_paced","","5","simple_dissimilar","images/stimuli/spore_stims/simple_04_A_b.gif","","","","",""
"","null","html-keyboard-response","76","186954","0.0-19.0-0.4","SS1618365089548","","","null","","","","","","<p><img src= images/blank.png width =""600"" height = ""600"" style=""position:fixed;top:50%; left:50%; transform: translate(-50%, -50%); border:5px solid black"">","","","","","","","",""
"","1201","sequential-stimulus-presentation-old","77","188657","0.0-19.0-1.4","SS1618365089548","trial","","40","500","1701","images/stimuli/spore_stims/simple_12_A_a.gif","images/stimuli/spore_stims/simple_04_A_b.gif","self_paced","","5","simple_dissimilar","images/stimuli/spore_stims/simple_04_A_b.gif","","","","",""
"","null","html-keyboard-response","78","189923","0.0-19.0-0.5","SS1618365089548","","","null","","","","","","<p><img src= images/blank.png width =""600"" height = ""600"" style=""position:fixed;top:50%; left:50%; transform: translate(-50%, -50%); border:5px solid black"">","","","","","","","",""
"","1406","sequential-stimulus-presentation-old","79","191831","0.0-19.0-1.5","SS1618365089548","trial","","40","500","1906","images/stimuli/spore_stims/simple_12_A_a.gif","images/stimuli/spore_stims/simple_04_A_b.gif","self_paced","","5","simple_dissimilar","images/stimuli/spore_stims/simple_12_A_a.gif","","","","",""
"","3505","survey-multi-choice","80","195339","0.0-20.0","SS1618365089548","math_question","","","","","","","","","","","","{""Q0"":""8""}","[0]","8","",""
"","null","html-keyboard-response","81","196415","0.0-21.0-0.0","SS1618365089548","","","null","","","","","","<p><img src= images/blank.png width =""600"" height = ""600"" style=""position:fixed;top:50%; left:50%; transform: translate(-50%, -50%); border:5px solid black"">","","","","","","","",""
"","955","sequential-stimulus-presentation-old","82","197423","0.0-21.0-1.0","SS1618365089548","trial","","40","500","1455","images/stimuli/spore_stims/complex_16_A_a.gif","images/stimuli/spore_stims/complex_06_A_b.gif","forced_short","","6","complex_dissimilar","images/stimuli/spore_stims/complex_06_A_b.gif","","","","",""
"","null","html-keyboard-response","83","198551","0.0-21.0-0.1","SS1618365089548","","","null","","","","","","<p><img src= images/blank.png width =""600"" height = ""600"" style=""position:fixed;top:50%; left:50%; transform: translate(-50%, -50%); border:5px solid black"">","","","","","","","",""
"","3005","sequential-stimulus-presentation-old","84","202060","0.0-21.0-1.1","SS1618365089548","trial","","40","500","3505","images/stimuli/spore_stims/complex_16_A_a.gif","images/stimuli/spore_stims/complex_06_A_b.gif","forced_short","","6","complex_dissimilar","images/stimuli/spore_stims/complex_16_A_a.gif","","","","",""
"","null","html-keyboard-response","85","203272","0.0-21.0-0.2","SS1618365089548","","","null","","","","","","<p><img src= images/blank.png width =""600"" height = ""600"" style=""position:fixed;top:50%; left:50%; transform: translate(-50%, -50%); border:5px solid black"">","","","","","","","",""
"","2810","sequential-stimulus-presentation-old","86","206583","0.0-21.0-1.2","SS1618365089548","trial","","40","500","3310","images/stimuli/spore_stims/complex_16_A_a.gif","images/stimuli/spore_stims/complex_06_A_b.gif","forced_short","","6","complex_dissimilar","images/stimuli/spore_stims/complex_06_A_b.gif","","","","",""
"","null","html-keyboard-response","87","207723","0.0-21.0-0.3","SS1618365089548","","","null","","","","","","<p><img src= images/blank.png width =""600"" height = ""600"" style=""position:fixed;top:50%; left:50%; transform: translate(-50%, -50%); border:5px solid black"">","","","","","","","",""
"","2570","sequential-stimulus-presentation-old","88","210797","0.0-21.0-1.3","SS1618365089548","trial","","40","500","3070","images/stimuli/spore_stims/complex_16_A_a.gif","images/stimuli/spore_stims/complex_06_A_b.gif","forced_short","","6","complex_dissimilar","images/stimuli/spore_stims/complex_06_A_b.gif","","","","",""
"","7699","survey-multi-choice","89","218497","0.0-22.0","SS1618365089548","math_question","","","","","","","","","","","","{""Q0"":""10""}","[0]","10","",""
"","null","html-keyboard-response","90","219416","0.0-23.0-0.0","SS1618365089548","","","null","","","","","","<p><img src= images/blank.png width =""600"" height = ""600"" style=""position:fixed;top:50%; left:50%; transform: translate(-50%, -50%); border:5px solid black"">","","","","","","","",""
"","9104","sequential-stimulus-presentation-old","91","229024","0.0-23.0-1.0","SS1618365089548","trial","","40","500","9604","images/stimuli/spore_stims/complex_02_A_a.gif","images/stimuli/spore_stims/complex_12_A_b.gif","self_paced","","7","complex_dissimilar","images/stimuli/spore_stims/complex_12_A_b.gif","","","","",""
"","null","html-keyboard-response","92","230211","0.0-23.0-0.1","SS1618365089548","","","null","","","","","","<p><img src= images/blank.png width =""600"" height = ""600"" style=""position:fixed;top:50%; left:50%; transform: translate(-50%, -50%); border:5px solid black"">","","","","","","","",""
"","3977","sequential-stimulus-presentation-old","93","234691","0.0-23.0-1.1","SS1618365089548","trial","","40","500","4477","images/stimuli/spore_stims/complex_02_A_a.gif","images/stimuli/spore_stims/complex_12_A_b.gif","self_paced","","7","complex_dissimilar","images/stimuli/spore_stims/complex_02_A_a.gif","","","","",""
"","null","html-keyboard-response","94","235498","0.0-23.0-0.2","SS1618365089548","","","null","","","","","","<p><img src= images/blank.png width =""600"" height = ""600"" style=""position:fixed;top:50%; left:50%; transform: translate(-50%, -50%); border:5px solid black"">","","","","","","","",""
"","1905","sequential-stimulus-presentation-old","95","237908","0.0-23.0-1.2","SS1618365089548","trial","","40","500","2405","images/stimuli/spore_stims/complex_02_A_a.gif","images/stimuli/spore_stims/complex_12_A_b.gif","self_paced","","7","complex_dissimilar","images/stimuli/spore_stims/complex_12_A_b.gif","","","","",""
"","null","html-keyboard-response","96","239008","0.0-23.0-0.3","SS1618365089548","","","null","","","","","","<p><img src= images/blank.png width =""600"" height = ""600"" style=""position:fixed;top:50%; left:50%; transform: translate(-50%, -50%); border:5px solid black"">","","","","","","","",""
"","202","sequential-stimulus-presentation-old","97","239712","0.0-23.0-1.3","SS1618365089548","trial","","40","500","702","images/stimuli/spore_stims/complex_02_A_a.gif","images/stimuli/spore_stims/complex_12_A_b.gif","self_paced","","7","complex_dissimilar","images/stimuli/spore_stims/complex_12_A_b.gif","","","","",""
"","null","html-keyboard-response","98","240749","0.0-23.0-0.4","SS1618365089548","","","null","","","","","","<p><img src= images/blank.png width =""600"" height = ""600"" style=""position:fixed;top:50%; left:50%; transform: translate(-50%, -50%); border:5px solid black"">","","","","","","","",""
"","5","sequential-stimulus-presentation-old","99","241257","0.0-23.0-1.4","SS1618365089548","trial","","40","500","505","images/stimuli/spore_stims/complex_02_A_a.gif","images/stimuli/spore_stims/complex_12_A_b.gif","self_paced","","7","complex_dissimilar","images/stimuli/spore_stims/complex_12_A_b.gif","","","","",""
"","null","html-keyboard-response","100","242060","0.0-23.0-0.5","SS1618365089548","","","null","","","","","","<p><img src= images/blank.png width =""600"" height = ""600"" style=""position:fixed;top:50%; left:50%; transform: translate(-50%, -50%); border:5px solid black"">","","","","","","","",""
"","582","sequential-stimulus-presentation-old","101","243145","0.0-23.0-1.5","SS1618365089548","trial","","40","500","1082","images/stimuli/spore_stims/complex_02_A_a.gif","images/stimuli/spore_stims/complex_12_A_b.gif","self_paced","","7","complex_dissimilar","images/stimuli/spore_stims/complex_02_A_a.gif","","","","",""
"","2371","survey-multi-choice","102","245520","0.0-24.0","SS1618365089548","math_question","","","","","","","","","","","","{""Q0"":""16""}","[0]","16","",""
"","null","html-keyboard-response","103","246532","0.0-25.0-0.0","SS1618365089548","","","null","","","","","","<p><img src= images/blank.png width =""600"" height = ""600"" style=""position:fixed;top:50%; left:50%; transform: translate(-50%, -50%); border:5px solid black"">","","","","","","","",""
"","1789","sequential-stimulus-presentation-old","104","253326","0.0-25.0-1.0","SS1618365089548","trial","","40","500","2289","images/stimuli/spore_stims/complex_03_A_a.gif","images/stimuli/spore_stims/complex_17_A_b.gif","forced_long","","8","complex_dissimilar","images/stimuli/spore_stims/complex_17_A_b.gif","","","","",""
"","null","html-keyboard-response","105","254530","0.0-25.0-0.1","SS1618365089548","","","null","","","","","","<p><img src= images/blank.png width =""600"" height = ""600"" style=""position:fixed;top:50%; left:50%; transform: translate(-50%, -50%); border:5px solid black"">","","","","","","","",""
"","406","sequential-stimulus-presentation-old","106","255438","0.0-25.0-1.1","SS1618365089548","trial","","40","500","906","images/stimuli/spore_stims/complex_03_A_a.gif","images/stimuli/spore_stims/complex_17_A_b.gif","forced_long","","8","complex_dissimilar","images/stimuli/spore_stims/complex_17_A_b.gif","","","","",""
"","null","html-keyboard-response","107","256414","0.0-25.0-0.2","SS1618365089548","","","null","","","","","","<p><img src= images/blank.png width =""600"" height = ""600"" style=""position:fixed;top:50%; left:50%; transform: translate(-50%, -50%); border:5px solid black"">","","","","","","","",""
"","1213","sequential-stimulus-presentation-old","108","258131","0.0-25.0-1.2","SS1618365089548","trial","","40","500","1713","images/stimuli/spore_stims/complex_03_A_a.gif","images/stimuli/spore_stims/complex_17_A_b.gif","forced_long","","8","complex_dissimilar","images/stimuli/spore_stims/complex_03_A_a.gif","","","","",""
"","null","html-keyboard-response","109","259190","0.0-25.0-0.3","SS1618365089548","","","null","","","","","","<p><img src= images/blank.png width =""600"" height = ""600"" style=""position:fixed;top:50%; left:50%; transform: translate(-50%, -50%); border:5px solid black"">","","","","","","","",""
"","569","sequential-stimulus-presentation-old","110","260262","0.0-25.0-1.3","SS1618365089548","trial","","40","500","1069","images/stimuli/spore_stims/complex_03_A_a.gif","images/stimuli/spore_stims/complex_17_A_b.gif","forced_long","","8","complex_dissimilar","images/stimuli/spore_stims/complex_17_A_b.gif","","","","",""
"","null","html-keyboard-response","111","261211","0.0-25.0-0.4","SS1618365089548","","","null","","","","","","<p><img src= images/blank.png width =""600"" height = ""600"" style=""position:fixed;top:50%; left:50%; transform: translate(-50%, -50%); border:5px solid black"">","","","","","","","",""
"","1028","sequential-stimulus-presentation-old","112","262742","0.0-25.0-1.4","SS1618365089548","trial","","40","500","1528","images/stimuli/spore_stims/complex_03_A_a.gif","images/stimuli/spore_stims/complex_17_A_b.gif","forced_long","","8","complex_dissimilar","images/stimuli/spore_stims/complex_17_A_b.gif","","","","",""
"","2276","survey-multi-choice","113","265022","0.0-26.0","SS1618365089548","math_question","","","","","","","","","","","","{""Q0"":""7""}","[0]","7","",""
"","null","html-keyboard-response","114","265874","0.0-27.0-0.0","SS1618365089548","","","null","","","","","","<p><img src= images/blank.png width =""600"" height = ""600"" style=""position:fixed;top:50%; left:50%; transform: translate(-50%, -50%); border:5px solid black"">","","","","","","","",""
"","312","sequential-stimulus-presentation-old","115","271189","0.0-27.0-1.0","SS1618365089548","trial","","40","500","812","images/stimuli/spore_stims/complex_09_A_b.gif","images/stimuli/spore_stims/complex_13_A_a.gif","forced_long","","9","complex_dissimilar","images/stimuli/spore_stims/complex_13_A_a.gif","","","","",""
"","null","html-keyboard-response","116","272424","0.0-27.0-0.1","SS1618365089548","","","null","","","","","","<p><img src= images/blank.png width =""600"" height = ""600"" style=""position:fixed;top:50%; left:50%; transform: translate(-50%, -50%); border:5px solid black"">","","","","","","","",""
"","93","sequential-stimulus-presentation-old","117","273021","0.0-27.0-1.1","SS1618365089548","trial","","40","500","593","images/stimuli/spore_stims/complex_09_A_b.gif","images/stimuli/spore_stims/complex_13_A_a.gif","forced_long","","9","complex_dissimilar","images/stimuli/spore_stims/complex_13_A_a.gif","","","","",""
"","null","html-keyboard-response","118","273940","0.0-27.0-0.2","SS1618365089548","","","null","","","","","","<p><img src= images/blank.png width =""600"" height = ""600"" style=""position:fixed;top:50%; left:50%; transform: translate(-50%, -50%); border:5px solid black"">","","","","","","","",""
"","1067","sequential-stimulus-presentation-old","119","275509","0.0-27.0-1.2","SS1618365089548","trial","","40","500","1567","images/stimuli/spore_stims/complex_09_A_b.gif","images/stimuli/spore_stims/complex_13_A_a.gif","forced_long","","9","complex_dissimilar","images/stimuli/spore_stims/complex_09_A_b.gif","","","","",""
"","null","html-keyboard-response","120","276481","0.0-27.0-0.3","SS1618365089548","","","null","","","","","","<p><img src= images/blank.png width =""600"" height = ""600"" style=""position:fixed;top:50%; left:50%; transform: translate(-50%, -50%); border:5px solid black"">","","","","","","","",""
"","1117","sequential-stimulus-presentation-old","121","278103","0.0-27.0-1.3","SS1618365089548","trial","","40","500","1617","images/stimuli/spore_stims/complex_09_A_b.gif","images/stimuli/spore_stims/complex_13_A_a.gif","forced_long","","9","complex_dissimilar","images/stimuli/spore_stims/complex_09_A_b.gif","","","","",""
"","null","html-keyboard-response","122","279260","0.0-27.0-0.4","SS1618365089548","","","null","","","","","","<p><img src= images/blank.png width =""600"" height = ""600"" style=""position:fixed;top:50%; left:50%; transform: translate(-50%, -50%); border:5px solid black"">","","","","","","","",""
"","630","sequential-stimulus-presentation-old","123","280393","0.0-27.0-1.4","SS1618365089548","trial","","40","500","1130","images/stimuli/spore_stims/complex_09_A_b.gif","images/stimuli/spore_stims/complex_13_A_a.gif","forced_long","","9","complex_dissimilar","images/stimuli/spore_stims/complex_13_A_a.gif","","","","",""
"","null","html-keyboard-response","124","281322","0.0-27.0-0.5","SS1618365089548","","","null","","","","","","<p><img src= images/blank.png width =""600"" height = ""600"" style=""position:fixed;top:50%; left:50%; transform: translate(-50%, -50%); border:5px solid black"">","","","","","","","",""
"","452","sequential-stimulus-presentation-old","125","282277","0.0-27.0-1.5","SS1618365089548","trial","","40","500","952","images/stimuli/spore_stims/complex_09_A_b.gif","images/stimuli/spore_stims/complex_13_A_a.gif","forced_long","","9","complex_dissimilar","images/stimuli/spore_stims/complex_13_A_a.gif","","","","",""
"","3571","survey-multi-choice","126","285850","0.0-28.0","SS1618365089548","math_question","","","","","","","","","","","","{""Q0"":""16""}","[0]","16","",""
"","null","html-keyboard-response","127","287105","0.0-29.0-0.0","SS1618365089548","","","null","","","","","","<p><img src= images/blank.png width =""600"" height = ""600"" style=""position:fixed;top:50%; left:50%; transform: translate(-50%, -50%); border:5px solid black"">","","","","","","","",""
"","1384","sequential-stimulus-presentation-old","128","293494","0.0-29.0-1.0","SS1618365089548","trial","","40","500","1884","images/stimuli/spore_stims/simple_17_A_b.gif","images/stimuli/spore_stims/simple_05_A_a.gif","forced_long","","10","simple_dissimilar","images/stimuli/spore_stims/simple_05_A_a.gif","","","","",""
"","null","html-keyboard-response","129","294527","0.0-29.0-0.1","SS1618365089548","","","null","","","","","","<p><img src= images/blank.png width =""600"" height = ""600"" style=""position:fixed;top:50%; left:50%; transform: translate(-50%, -50%); border:5px solid black"">","","","","","","","",""
"","2144","sequential-stimulus-presentation-old","130","297176","0.0-29.0-1.1","SS1618365089548","trial","","40","500","2644","images/stimuli/spore_stims/simple_17_A_b.gif","images/stimuli/spore_stims/simple_05_A_a.gif","forced_long","","10","simple_dissimilar","images/stimuli/spore_stims/simple_05_A_a.gif","","","","",""
"","null","html-keyboard-response","131","298428","0.0-29.0-0.2","SS1618365089548","","","null","","","","","","<p><img src= images/blank.png width =""600"" height = ""600"" style=""position:fixed;top:50%; left:50%; transform: translate(-50%, -50%); border:5px solid black"">","","","","","","","",""
"","1629","sequential-stimulus-presentation-old","132","300563","0.0-29.0-1.2","SS1618365089548","trial","","40","500","2129","images/stimuli/spore_stims/simple_17_A_b.gif","images/stimuli/spore_stims/simple_05_A_a.gif","forced_long","","10","simple_dissimilar","images/stimuli/spore_stims/simple_05_A_a.gif","","","","",""
"","null","html-keyboard-response","133","301720","0.0-29.0-0.3","SS1618365089548","","","null","","","","","","<p><img src= images/blank.png width =""600"" height = ""600"" style=""position:fixed;top:50%; left:50%; transform: translate(-50%, -50%); border:5px solid black"">","","","","","","","",""
"","1976","sequential-stimulus-presentation-old","134","304197","0.0-29.0-1.3","SS1618365089548","trial","","40","500","2476","images/stimuli/spore_stims/simple_17_A_b.gif","images/stimuli/spore_stims/simple_05_A_a.gif","forced_long","","10","simple_dissimilar","images/stimuli/spore_stims/simple_05_A_a.gif","","","","",""
"","null","html-keyboard-response","135","305165","0.0-29.0-0.4","SS1618365089548","","","null","","","","","","<p><img src= images/blank.png width =""600"" height = ""600"" style=""position:fixed;top:50%; left:50%; transform: translate(-50%, -50%); border:5px solid black"">","","","","","","","",""
"","2333","sequential-stimulus-presentation-old","136","308002","0.0-29.0-1.4","SS1618365089548","trial","","40","500","2833","images/stimuli/spore_stims/simple_17_A_b.gif","images/stimuli/spore_stims/simple_05_A_a.gif","forced_long","","10","simple_dissimilar","images/stimuli/spore_stims/simple_17_A_b.gif","","","","",""
"","null","html-keyboard-response","137","308841","0.0-29.0-0.5","SS1618365089548","","","null","","","","","","<p><img src= images/blank.png width =""600"" height = ""600"" style=""position:fixed;top:50%; left:50%; transform: translate(-50%, -50%); border:5px solid black"">","","","","","","","",""
"","1223","sequential-stimulus-presentation-old","138","310570","0.0-29.0-1.5","SS1618365089548","trial","","40","500","1723","images/stimuli/spore_stims/simple_17_A_b.gif","images/stimuli/spore_stims/simple_05_A_a.gif","forced_long","","10","simple_dissimilar","images/stimuli/spore_stims/simple_05_A_a.gif","","","","",""
"","6097","survey-multi-choice","139","316670","0.0-30.0","SS1618365089548","math_question","","","","","","","","","","","","{""Q0"":""16""}","[0]","16","",""
"","null","html-keyboard-response","140","317824","0.0-31.0-0.0","SS1618365089548","","","null","","","","","","<p><img src= images/blank.png width =""600"" height = ""600"" style=""position:fixed;top:50%; left:50%; transform: translate(-50%, -50%); border:5px solid black"">","","","","","","","",""
"","2619","sequential-stimulus-presentation-old","141","320497","0.0-31.0-1.0","SS1618365089548","trial","","40","500","3119","images/stimuli/spore_stims/simple_01_A_a.gif","images/stimuli/spore_stims/simple_11_A_b.gif","forced_short","","11","simple_dissimilar","images/stimuli/spore_stims/simple_11_A_b.gif","","","","",""
"","null","html-keyboard-response","142","321314","0.0-31.0-0.1","SS1618365089548","","","null","","","","","","<p><img src= images/blank.png width =""600"" height = ""600"" style=""position:fixed;top:50%; left:50%; transform: translate(-50%, -50%); border:5px solid black"">","","","","","","","",""
"","2410","sequential-stimulus-presentation-old","143","324228","0.0-31.0-1.1","SS1618365089548","trial","","40","500","2910","images/stimuli/spore_stims/simple_01_A_a.gif","images/stimuli/spore_stims/simple_11_A_b.gif","forced_short","","11","simple_dissimilar","images/stimuli/spore_stims/simple_11_A_b.gif","","","","",""
"","null","html-keyboard-response","144","325229","0.0-31.0-0.2","SS1618365089548","","","null","","","","","","<p><img src= images/blank.png width =""600"" height = ""600"" style=""position:fixed;top:50%; left:50%; transform: translate(-50%, -50%); border:5px solid black"">","","","","","","","",""
"","5289","sequential-stimulus-presentation-old","145","331023","0.0-31.0-1.2","SS1618365089548","trial","","40","500","5789","images/stimuli/spore_stims/simple_01_A_a.gif","images/stimuli/spore_stims/simple_11_A_b.gif","forced_short","","11","simple_dissimilar","images/stimuli/spore_stims/simple_11_A_b.gif","","","","",""
"","null","html-keyboard-response","146","331973","0.0-31.0-0.3","SS1618365089548","","","null","","","","","","<p><img src= images/blank.png width =""600"" height = ""600"" style=""position:fixed;top:50%; left:50%; transform: translate(-50%, -50%); border:5px solid black"">","","","","","","","",""
"","5123","sequential-stimulus-presentation-old","147","337600","0.0-31.0-1.3","SS1618365089548","trial","","40","500","5623","images/stimuli/spore_stims/simple_01_A_a.gif","images/stimuli/spore_stims/simple_11_A_b.gif","forced_short","","11","simple_dissimilar","images/stimuli/spore_stims/simple_11_A_b.gif","","","","",""
"","null","html-keyboard-response","148","338481","0.0-31.0-0.4","SS1618365089548","","","null","","","","","","<p><img src= images/blank.png width =""600"" height = ""600"" style=""position:fixed;top:50%; left:50%; transform: translate(-50%, -50%); border:5px solid black"">","","","","","","","",""
"","1637","sequential-stimulus-presentation-old","149","340622","0.0-31.0-1.4","SS1618365089548","trial","","40","500","2137","images/stimuli/spore_stims/simple_01_A_a.gif","images/stimuli/spore_stims/simple_11_A_b.gif","forced_short","","11","simple_dissimilar","images/stimuli/spore_stims/simple_11_A_b.gif","","","","",""
"[{""page_index"":0,""viewing_time"":4644}]","4644","instructions","150","345268","0.0-32.0","SS1618365089548","instructions","","","","","","","","","","","","","","","",""
"","6572","survey-likert","151","351843","0.0-33.0","SS1618365089548","similarity_question","","","","","","","","","","","","{""Q0"":4}","[0]","","images/stimuli/spore_stims/simple_20_A_b.gif","images/stimuli/spore_stims/simple_18_A_a.gif"
"","2559","survey-likert","152","354408","0.0-34.0","SS1618365089548","similarity_question","","","","","","","","","","","","{""Q0"":5}","[0]","","images/stimuli/spore_stims/simple_04_A_b.gif","images/stimuli/spore_stims/simple_12_A_a.gif"
"","3200","survey-likert","153","357617","0.0-35.0","SS1618365089548","similarity_question","","","","","","","","","","","","{""Q0"":0}","[0]","","images/stimuli/spore_stims/complex_09_A_b.gif","images/stimuli/spore_stims/complex_13_A_a.gif"
"","2721","survey-likert","154","360343","0.0-36.0","SS1618365089548","similarity_question","","","","","","","","","","","","{""Q0"":1}","[0]","","images/stimuli/spore_stims/complex_17_A_b.gif","images/stimuli/spore_stims/complex_03_A_a.gif"
"","3085","survey-likert","155","363435","0.0-37.0","SS1618365089548","similarity_question","","","","","","","","","","","","{""Q0"":4}","[0]","","images/stimuli/spore_stims/simple_10_A_a.gif","images/stimuli/spore_stims/simple_03_A_b.gif"
"","1648","survey-likert","156","365089","0.0-38.0","SS1618365089548","similarity_question","","","","","","","","","","","","{""Q0"":2}","[0]","","images/stimuli/spore_stims/simple_17_A_b.gif","images/stimuli/spore_stims/simple_05_A_a.gif"
"","2961","survey-likert","157","368055","0.0-39.0","SS1618365089548","similarity_question","","","","","","","","","","","","{""Q0"":1}","[0]","","images/stimuli/spore_stims/complex_12_A_a.gif","images/stimuli/spore_stims/complex_20_A_b.gif"
"","2557","survey-likert","158","370617","0.0-40.0","SS1618365089548","similarity_question","","","","","","","","","","","","{""Q0"":0}","[0]","","images/stimuli/spore_stims/complex_16_A_a.gif","images/stimuli/spore_stims/complex_06_A_b.gif"
"","2196","survey-likert","159","372817","0.0-41.0","SS1618365089548","similarity_question","","","","","","","","","","","","{""Q0"":4}","[0]","","images/stimuli/spore_stims/simple_19_A_b.gif","images/stimuli/spore_stims/simple_03_A_a.gif"
"","3650","survey-likert","160","376472","0.0-42.0","SS1618365089548","similarity_question","","","","","","","","","","","","{""Q0"":2}","[0]","","images/stimuli/spore_stims/complex_02_A_a.gif","images/stimuli/spore_stims/complex_12_A_b.gif"
"","2649","survey-likert","161","379125","0.0-43.0","SS1618365089548","similarity_question","","","","","","","","","","","","{""Q0"":0}","[0]","","images/stimuli/spore_stims/complex_01_A_a.gif","images/stimuli/spore_stims/complex_16_A_b.gif"
"","3775","survey-likert","162","382906","0.0-44.0","SS1618365089548","similarity_question","","","","","","","","","","","","{""Q0"":4}","[0]","","images/stimuli/spore_stims/simple_01_A_a.gif","images/stimuli/spore_stims/simple_11_A_b.gif"
"[{""page_index"":0,""viewing_time"":4329}]","4329","instructions","163","387239","0.0-45.0","SS1618365089548","instructions","","","","","","","","","","","","","","","",""
"","5422","survey-likert","164","392666","0.0-46.0","SS1618365089548","","","","","","","","","images/stimuli/spore_stims/simple_05_A_a.gif","","","","{""Q0"":1}","[0]","","",""
"","2380","survey-likert","165","395051","0.0-47.0","SS1618365089548","","","","","","","","","images/stimuli/spore_stims/simple_01_A_a.gif","","","","{""Q0"":1}","[0]","","",""
"","1631","survey-likert","166","396686","0.0-48.0","SS1618365089548","","","","","","","","","images/stimuli/spore_stims/simple_20_A_b.gif","","","","{""Q0"":1}","[0]","","",""
"","5560","survey-likert","167","402250","0.0-49.0","SS1618365089548","","","","","","","","","images/stimuli/spore_stims/complex_02_A_a.gif","","","","{""Q0"":5}","[0]","","",""
"","2410","survey-likert","168","404664","0.0-50.0","SS1618365089548","","","","","","","","","images/stimuli/spore_stims/simple_03_A_b.gif","","","","{""Q0"":2}","[0]","","",""
"","5214","survey-likert","169","409883","0.0-51.0","SS1618365089548","","","","","","","","","images/stimuli/spore_stims/complex_13_A_a.gif","","","","{""Q0"":5}","[0]","","",""
"","2583","survey-likert","170","412471","0.0-52.0","SS1618365089548","","","","","","","","","images/stimuli/spore_stims/simple_12_A_a.gif","","","","{""Q0"":2}","[0]","","",""
"","3498","survey-likert","171","415973","0.0-53.0","SS1618365089548","","","","","","","","","images/stimuli/spore_stims/complex_17_A_b.gif","","","","{""Q0"":4}","[0]","","",""
"","3289","survey-likert","172","419265","0.0-54.0","SS1618365089548","","","","","","","","","images/stimuli/spore_stims/complex_16_A_b.gif","","","","{""Q0"":4}","[0]","","",""
"","4078","survey-likert","173","423354","0.0-55.0","SS1618365089548","","","","","","","","","images/stimuli/spore_stims/complex_06_A_b.gif","","","","{""Q0"":4}","[0]","","",""
"","2973","survey-likert","174","426337","0.0-56.0","SS1618365089548","","","","","","","","","images/stimuli/spore_stims/complex_12_A_a.gif","","","","{""Q0"":6}","[0]","","",""
"","2756","survey-likert","175","429099","0.0-57.0","SS1618365089548","","","","","","","","","images/stimuli/spore_stims/simple_03_A_a.gif","","","","{""Q0"":1}","[0]","","",""
"[{""page_index"":0,""viewing_time"":1089}]","1090","instructions","176","430195","0.0-58.0","SS1618365089548","instructions","","","","","","","","","","","","","","","",""
"","2648","demog-age","177","432848","0.0-59.0","SS1618365089548","","","","","","","","","","","","","{""age"":""21""}","","","",""
"","3932","demog-ethnic-US","178","436788","0.0-60.0","SS1618365089548","","","","","","","","","","","","","{""ethnicity"":[""Hispanic or Latino""]}","[0]","","",""
"","4274","demog-gender-and-education","179","441074","0.0-61.0","SS1618365089548","","","","","","","","","","","","","{""gender"":""Male"",""education"":""High school diploma""}","[0,1]","","",""
"","31028","survey-text","180","472113","0.0-62.0","SS1618365089548","feedback","","","","","","","","","","","","{""Q0"":""No, Don't how babies Spore monstrosities? Some of them are somewhat disturbing""}","","","",""
"[{""page_index"":0,""viewing_time"":1109}]","1109","instructions","181","473232","0.0-63.0","SS1618365089548","instructions","","","","","","","","","","","","","","","",""
