"view_history","rt","trial_type","trial_index","time_elapsed","internal_node_id","subject","stimulus_type","trial_stimulus","key_press","minimum_viewing_duration","trial_looking_time","block_deviant","block_background","exposure_type","stimulus","block_number","block_type","stimulus_displayed","responses","question_order","math_correct_answer","stimulus_left","stimulus_right"
"[{""page_index"":0,""viewing_time"":15211.660000000848}]","15212.835000002087","instructions","0","15215","0.0-0.0","SS1618435657419","","","","","","","","","","","","","","","","",""
"[{""page_index"":0,""viewing_time"":12778.815000001487},{""page_index"":1,""viewing_time"":8337.414999998146}]","21116.500000000087","instructions","1","38337","0.0-1.0","SS1618435657419","instructions","","","","","","","","","","","","","","","",""
"","11890.439999999217","sequential-stimulus-presentation-old","2","50736","0.0-2.0","SS1618435657419","","","40","500","12390.439999999217","null","null","self_paced","","","","","","","","",""
"","6454.819999999017","sequential-stimulus-presentation-old","3","57693","0.0-3.0","SS1618435657419","","","40","500","6954.819999999017","null","null","self_paced","","","","","","","","",""
"[{""page_index"":0,""viewing_time"":13277.729999997973}]","13278.009999998176","instructions","4","70974","0.0-4.0","SS1618435657419","instructions","","","","","","","","","","","","","","","",""
"","15387.22499999858","sequential-stimulus-presentation-old","5","91365","0.0-5.0","SS1618435657419","","","40","500","15887.22499999858","null","null","forced_long","","","","","","","","",""
"","5277.265000000625","sequential-stimulus-presentation-old","6","96697","0.0-6.0","SS1618435657419","","","40","50","5327.265000000625","null","null","forced_long","","","","","","","","",""
"[{""page_index"":0,""viewing_time"":2352.1699999982957}]","2352.425000000949","instructions","7","99051","0.0-7.0","SS1618435657419","instructions","","","","","","","","","","","","","","","",""
"[{""page_index"":0,""viewing_time"":7562.105000000884},{""page_index"":1,""viewing_time"":9926.285000001371},{""page_index"":2,""viewing_time"":5185.154999999213},{""page_index"":3,""viewing_time"":1368.5000000004948},{""page_index"":4,""viewing_time"":1319.4149999981164}]","25361.75500000172","instructions","8","124414","0.0-8.0","SS1618435657419","instructions","","","","","","","","","","","","","","","",""
"","null","html-keyboard-response","9","125535","0.0-9.0-0.0","SS1618435657419","","","null","","","","","","<p><img src= images/blank.png width =""600"" height = ""600"" style=""position:fixed;top:50%; left:50%; transform: translate(-50%, -50%); border:5px solid black"">","","","","","","","",""
"","6104.514999999083","sequential-stimulus-presentation-old","10","136648","0.0-9.0-1.0","SS1618435657419","trial","","40","500","6604.514999999083","images/stimuli/spore_stims/complex_04_A_b.gif","images/stimuli/spore_stims/complex_10_A_a.gif","forced_long","","0","complex_dissimilar","images/stimuli/spore_stims/complex_10_A_a.gif","","","","",""
"","null","html-keyboard-response","11","137739","0.0-9.0-0.1","SS1618435657419","","","null","","","","","","<p><img src= images/blank.png width =""600"" height = ""600"" style=""position:fixed;top:50%; left:50%; transform: translate(-50%, -50%); border:5px solid black"">","","","","","","","",""
"","67292.29000000123","sequential-stimulus-presentation-old","12","205537","0.0-9.0-1.1","SS1618435657419","trial","","40","500","67792.29000000123","images/stimuli/spore_stims/complex_04_A_b.gif","images/stimuli/spore_stims/complex_10_A_a.gif","forced_long","","0","complex_dissimilar","images/stimuli/spore_stims/complex_10_A_a.gif","","","","",""
"","null","html-keyboard-response","13","206422","0.0-9.0-0.2","SS1618435657419","","","null","","","","","","<p><img src= images/blank.png width =""600"" height = ""600"" style=""position:fixed;top:50%; left:50%; transform: translate(-50%, -50%); border:5px solid black"">","","","","","","","",""
"","2485.384999999951","sequential-stimulus-presentation-old","14","209416","0.0-9.0-1.2","SS1618435657419","trial","","40","500","2985.384999999951","images/stimuli/spore_stims/complex_04_A_b.gif","images/stimuli/spore_stims/complex_10_A_a.gif","forced_long","","0","complex_dissimilar","images/stimuli/spore_stims/complex_10_A_a.gif","","","","",""
"","null","html-keyboard-response","15","210696","0.0-9.0-0.3","SS1618435657419","","","null","","","","","","<p><img src= images/blank.png width =""600"" height = ""600"" style=""position:fixed;top:50%; left:50%; transform: translate(-50%, -50%); border:5px solid black"">","","","","","","","",""
"","1169.4449999995413","sequential-stimulus-presentation-old","16","212374","0.0-9.0-1.3","SS1618435657419","trial","","40","500","1669.4449999995413","images/stimuli/spore_stims/complex_04_A_b.gif","images/stimuli/spore_stims/complex_10_A_a.gif","forced_long","","0","complex_dissimilar","images/stimuli/spore_stims/complex_10_A_a.gif","","","","",""
"","null","html-keyboard-response","17","213569","0.0-9.0-0.4","SS1618435657419","","","null","","","","","","<p><img src= images/blank.png width =""600"" height = ""600"" style=""position:fixed;top:50%; left:50%; transform: translate(-50%, -50%); border:5px solid black"">","","","","","","","",""
"","163.91000000294298","sequential-stimulus-presentation-old","18","214240","0.0-9.0-1.4","SS1618435657419","trial","","40","500","663.910000002943","images/stimuli/spore_stims/complex_04_A_b.gif","images/stimuli/spore_stims/complex_10_A_a.gif","forced_long","","0","complex_dissimilar","images/stimuli/spore_stims/complex_10_A_a.gif","","","","",""
"","3712.19999999812","survey-multi-choice","19","217960","0.0-10.0","SS1618435657419","math_question","","","","","","","","","","","","{""Q0"":""7""}","[0]","7","",""
"","null","html-keyboard-response","20","218947","0.0-11.0-0.0","SS1618435657419","","","null","","","","","","<p><img src= images/blank.png width =""600"" height = ""600"" style=""position:fixed;top:50%; left:50%; transform: translate(-50%, -50%); border:5px solid black"">","","","","","","","",""
"","5375.680000001012","sequential-stimulus-presentation-old","21","224380","0.0-11.0-1.0","SS1618435657419","trial","","40","500","5875.680000001012","images/stimuli/spore_stims/simple_11_A_b.gif","images/stimuli/spore_stims/simple_01_A_a.gif","forced_short","","1","simple_dissimilar","images/stimuli/spore_stims/simple_01_A_a.gif","","","","",""
"","null","html-keyboard-response","22","225565","0.0-11.0-0.1","SS1618435657419","","","null","","","","","","<p><img src= images/blank.png width =""600"" height = ""600"" style=""position:fixed;top:50%; left:50%; transform: translate(-50%, -50%); border:5px solid black"">","","","","","","","",""
"","230.6849999986298","sequential-stimulus-presentation-old","23","226300","0.0-11.0-1.1","SS1618435657419","trial","","40","500","730.6849999986298","images/stimuli/spore_stims/simple_11_A_b.gif","images/stimuli/spore_stims/simple_01_A_a.gif","forced_short","","1","simple_dissimilar","images/stimuli/spore_stims/simple_01_A_a.gif","","","","",""
"","null","html-keyboard-response","24","227286","0.0-11.0-0.2","SS1618435657419","","","null","","","","","","<p><img src= images/blank.png width =""600"" height = ""600"" style=""position:fixed;top:50%; left:50%; transform: translate(-50%, -50%); border:5px solid black"">","","","","","","","",""
"","317.83999999970547","sequential-stimulus-presentation-old","25","228112","0.0-11.0-1.2","SS1618435657419","trial","","40","500","817.8399999997055","images/stimuli/spore_stims/simple_11_A_b.gif","images/stimuli/spore_stims/simple_01_A_a.gif","forced_short","","1","simple_dissimilar","images/stimuli/spore_stims/simple_01_A_a.gif","","","","",""
"","null","html-keyboard-response","26","229405","0.0-11.0-0.3","SS1618435657419","","","null","","","","","","<p><img src= images/blank.png width =""600"" height = ""600"" style=""position:fixed;top:50%; left:50%; transform: translate(-50%, -50%); border:5px solid black"">","","","","","","","",""
"","514.194999999745","sequential-stimulus-presentation-old","27","230425","0.0-11.0-1.3","SS1618435657419","trial","","40","500","1014.194999999745","images/stimuli/spore_stims/simple_11_A_b.gif","images/stimuli/spore_stims/simple_01_A_a.gif","forced_short","","1","simple_dissimilar","images/stimuli/spore_stims/simple_11_A_b.gif","","","","",""
"","null","html-keyboard-response","28","231724","0.0-11.0-0.4","SS1618435657419","","","null","","","","","","<p><img src= images/blank.png width =""600"" height = ""600"" style=""position:fixed;top:50%; left:50%; transform: translate(-50%, -50%); border:5px solid black"">","","","","","","","",""
"","307.20499999733875","sequential-stimulus-presentation-old","29","232538","0.0-11.0-1.4","SS1618435657419","trial","","40","500","807.2049999973387","images/stimuli/spore_stims/simple_11_A_b.gif","images/stimuli/spore_stims/simple_01_A_a.gif","forced_short","","1","simple_dissimilar","images/stimuli/spore_stims/simple_01_A_a.gif","","","","",""
"","4593.135000002803","survey-multi-choice","30","237134","0.0-12.0","SS1618435657419","math_question","","","","","","","","","","","","{""Q0"":""14""}","[0]","14","",""
"","null","html-keyboard-response","31","238025","0.0-13.0-0.0","SS1618435657419","","","null","","","","","","<p><img src= images/blank.png width =""600"" height = ""600"" style=""position:fixed;top:50%; left:50%; transform: translate(-50%, -50%); border:5px solid black"">","","","","","","","",""
"","682.5649999991583","sequential-stimulus-presentation-old","32","243711","0.0-13.0-1.0","SS1618435657419","trial","","40","500","1182.5649999991583","images/stimuli/spore_stims/simple_02_A_a.gif","images/stimuli/spore_stims/simple_19_A_b.gif","forced_long","","2","simple_dissimilar","images/stimuli/spore_stims/simple_19_A_b.gif","","","","",""
"","null","html-keyboard-response","33","244733","0.0-13.0-0.1","SS1618435657419","","","null","","","","","","<p><img src= images/blank.png width =""600"" height = ""600"" style=""position:fixed;top:50%; left:50%; transform: translate(-50%, -50%); border:5px solid black"">","","","","","","","",""
"","1916.689999998198","sequential-stimulus-presentation-old","34","247158","0.0-13.0-1.1","SS1618435657419","trial","","40","500","2416.689999998198","images/stimuli/spore_stims/simple_02_A_a.gif","images/stimuli/spore_stims/simple_19_A_b.gif","forced_long","","2","simple_dissimilar","images/stimuli/spore_stims/simple_02_A_a.gif","","","","",""
"","null","html-keyboard-response","35","248166","0.0-13.0-0.2","SS1618435657419","","","null","","","","","","<p><img src= images/blank.png width =""600"" height = ""600"" style=""position:fixed;top:50%; left:50%; transform: translate(-50%, -50%); border:5px solid black"">","","","","","","","",""
"","794.8450000003504","sequential-stimulus-presentation-old","36","249465","0.0-13.0-1.2","SS1618435657419","trial","","40","500","1294.8450000003504","images/stimuli/spore_stims/simple_02_A_a.gif","images/stimuli/spore_stims/simple_19_A_b.gif","forced_long","","2","simple_dissimilar","images/stimuli/spore_stims/simple_19_A_b.gif","","","","",""
"","null","html-keyboard-response","37","250417","0.0-13.0-0.3","SS1618435657419","","","null","","","","","","<p><img src= images/blank.png width =""600"" height = ""600"" style=""position:fixed;top:50%; left:50%; transform: translate(-50%, -50%); border:5px solid black"">","","","","","","","",""
"","459.6399999973073","sequential-stimulus-presentation-old","38","251380","0.0-13.0-1.3","SS1618435657419","trial","","40","500","959.6399999973073","images/stimuli/spore_stims/simple_02_A_a.gif","images/stimuli/spore_stims/simple_19_A_b.gif","forced_long","","2","simple_dissimilar","images/stimuli/spore_stims/simple_19_A_b.gif","","","","",""
"","null","html-keyboard-response","39","252363","0.0-13.0-0.4","SS1618435657419","","","null","","","","","","<p><img src= images/blank.png width =""600"" height = ""600"" style=""position:fixed;top:50%; left:50%; transform: translate(-50%, -50%); border:5px solid black"">","","","","","","","",""
"","101.26999999920372","sequential-stimulus-presentation-old","40","252968","0.0-13.0-1.4","SS1618435657419","trial","","40","500","601.2699999992037","images/stimuli/spore_stims/simple_02_A_a.gif","images/stimuli/spore_stims/simple_19_A_b.gif","forced_long","","2","simple_dissimilar","images/stimuli/spore_stims/simple_19_A_b.gif","","","","",""
"","null","html-keyboard-response","41","254113","0.0-13.0-0.5","SS1618435657419","","","null","","","","","","<p><img src= images/blank.png width =""600"" height = ""600"" style=""position:fixed;top:50%; left:50%; transform: translate(-50%, -50%); border:5px solid black"">","","","","","","","",""
"","384.61499999903026","sequential-stimulus-presentation-old","42","255002","0.0-13.0-1.5","SS1618435657419","trial","","40","500","884.6149999990303","images/stimuli/spore_stims/simple_02_A_a.gif","images/stimuli/spore_stims/simple_19_A_b.gif","forced_long","","2","simple_dissimilar","images/stimuli/spore_stims/simple_19_A_b.gif","","","","",""
"","4129.935000000871","survey-multi-choice","43","259133","0.0-14.0","SS1618435657419","math_question","","","","","","","","","","","","{""Q0"":""6""}","[0]","6","",""
"","null","html-keyboard-response","44","260296","0.0-15.0-0.0","SS1618435657419","","","null","","","","","","<p><img src= images/blank.png width =""600"" height = ""600"" style=""position:fixed;top:50%; left:50%; transform: translate(-50%, -50%); border:5px solid black"">","","","","","","","",""
"","2073.8750000018626","sequential-stimulus-presentation-old","45","262875","0.0-15.0-1.0","SS1618435657419","trial","","40","500","2573.8750000018626","images/stimuli/spore_stims/simple_08_A_a.gif","images/stimuli/spore_stims/simple_16_A_b.gif","self_paced","","3","simple_dissimilar","images/stimuli/spore_stims/simple_16_A_b.gif","","","","",""
"","null","html-keyboard-response","46","263858","0.0-15.0-0.1","SS1618435657419","","","null","","","","","","<p><img src= images/blank.png width =""600"" height = ""600"" style=""position:fixed;top:50%; left:50%; transform: translate(-50%, -50%); border:5px solid black"">","","","","","","","",""
"","2962.644999999553","sequential-stimulus-presentation-old","47","267325","0.0-15.0-1.1","SS1618435657419","trial","","40","500","3462.644999999553","images/stimuli/spore_stims/simple_08_A_a.gif","images/stimuli/spore_stims/simple_16_A_b.gif","self_paced","","3","simple_dissimilar","images/stimuli/spore_stims/simple_16_A_b.gif","","","","",""
"","null","html-keyboard-response","48","268587","0.0-15.0-0.2","SS1618435657419","","","null","","","","","","<p><img src= images/blank.png width =""600"" height = ""600"" style=""position:fixed;top:50%; left:50%; transform: translate(-50%, -50%); border:5px solid black"">","","","","","","","",""
"","1599.6500000001397","sequential-stimulus-presentation-old","49","270691","0.0-15.0-1.2","SS1618435657419","trial","","40","500","2099.6500000001397","images/stimuli/spore_stims/simple_08_A_a.gif","images/stimuli/spore_stims/simple_16_A_b.gif","self_paced","","3","simple_dissimilar","images/stimuli/spore_stims/simple_08_A_a.gif","","","","",""
"","null","html-keyboard-response","50","271829","0.0-15.0-0.3","SS1618435657419","","","null","","","","","","<p><img src= images/blank.png width =""600"" height = ""600"" style=""position:fixed;top:50%; left:50%; transform: translate(-50%, -50%); border:5px solid black"">","","","","","","","",""
"","990.6899999987218","sequential-stimulus-presentation-old","51","273329","0.0-15.0-1.3","SS1618435657419","trial","","40","500","1490.6899999987218","images/stimuli/spore_stims/simple_08_A_a.gif","images/stimuli/spore_stims/simple_16_A_b.gif","self_paced","","3","simple_dissimilar","images/stimuli/spore_stims/simple_16_A_b.gif","","","","",""
"","4236.960000002","survey-multi-choice","52","277569","0.0-16.0","SS1618435657419","math_question","","","","","","","","","","","","{""Q0"":""10""}","[0]","10","",""
"","null","html-keyboard-response","53","278442","0.0-17.0-0.0","SS1618435657419","","","null","","","","","","<p><img src= images/blank.png width =""600"" height = ""600"" style=""position:fixed;top:50%; left:50%; transform: translate(-50%, -50%); border:5px solid black"">","","","","","","","",""
"","1008.3899999990826","sequential-stimulus-presentation-old","54","279508","0.0-17.0-1.0","SS1618435657419","trial","","40","500","1508.3899999990826","images/stimuli/spore_stims/complex_16_A_b.gif","images/stimuli/spore_stims/complex_12_A_a.gif","forced_short","","4","complex_dissimilar","images/stimuli/spore_stims/complex_12_A_a.gif","","","","",""
"","null","html-keyboard-response","55","280395","0.0-17.0-0.1","SS1618435657419","","","null","","","","","","<p><img src= images/blank.png width =""600"" height = ""600"" style=""position:fixed;top:50%; left:50%; transform: translate(-50%, -50%); border:5px solid black"">","","","","","","","",""
"","1316.399999999674","sequential-stimulus-presentation-old","56","282217","0.0-17.0-1.1","SS1618435657419","trial","","40","500","1816.399999999674","images/stimuli/spore_stims/complex_16_A_b.gif","images/stimuli/spore_stims/complex_12_A_a.gif","forced_short","","4","complex_dissimilar","images/stimuli/spore_stims/complex_12_A_a.gif","","","","",""
"","null","html-keyboard-response","57","283062","0.0-17.0-0.2","SS1618435657419","","","null","","","","","","<p><img src= images/blank.png width =""600"" height = ""600"" style=""position:fixed;top:50%; left:50%; transform: translate(-50%, -50%); border:5px solid black"">","","","","","","","",""
"","953.1150000002235","sequential-stimulus-presentation-old","58","284521","0.0-17.0-1.2","SS1618435657419","trial","","40","500","1453.1150000002235","images/stimuli/spore_stims/complex_16_A_b.gif","images/stimuli/spore_stims/complex_12_A_a.gif","forced_short","","4","complex_dissimilar","images/stimuli/spore_stims/complex_12_A_a.gif","","","","",""
"","null","html-keyboard-response","59","285544","0.0-17.0-0.3","SS1618435657419","","","null","","","","","","<p><img src= images/blank.png width =""600"" height = ""600"" style=""position:fixed;top:50%; left:50%; transform: translate(-50%, -50%); border:5px solid black"">","","","","","","","",""
"","917.6249999981956","sequential-stimulus-presentation-old","60","286970","0.0-17.0-1.3","SS1618435657419","trial","","40","500","1417.6249999981956","images/stimuli/spore_stims/complex_16_A_b.gif","images/stimuli/spore_stims/complex_12_A_a.gif","forced_short","","4","complex_dissimilar","images/stimuli/spore_stims/complex_12_A_a.gif","","","","",""
"","3730.48999999807","survey-multi-choice","61","290704","0.0-18.0","SS1618435657419","math_question","","","","","","","","","","","","{""Q0"":""12""}","[0]","12","",""
"","null","html-keyboard-response","62","291627","0.0-19.0-0.0","SS1618435657419","","","null","","","","","","<p><img src= images/blank.png width =""600"" height = ""600"" style=""position:fixed;top:50%; left:50%; transform: translate(-50%, -50%); border:5px solid black"">","","","","","","","",""
"","625.7600000025705","sequential-stimulus-presentation-old","63","297259","0.0-19.0-1.0","SS1618435657419","trial","","40","500","1125.7600000025705","images/stimuli/spore_stims/complex_17_A_a.gif","images/stimuli/spore_stims/complex_11_A_b.gif","forced_long","","5","complex_dissimilar","images/stimuli/spore_stims/complex_11_A_b.gif","","","","",""
"","null","html-keyboard-response","64","298397","0.0-19.0-0.1","SS1618435657419","","","null","","","","","","<p><img src= images/blank.png width =""600"" height = ""600"" style=""position:fixed;top:50%; left:50%; transform: translate(-50%, -50%); border:5px solid black"">","","","","","","","",""
"","11045.36999999982","sequential-stimulus-presentation-old","65","309947","0.0-19.0-1.1","SS1618435657419","trial","","40","500","11545.36999999982","images/stimuli/spore_stims/complex_17_A_a.gif","images/stimuli/spore_stims/complex_11_A_b.gif","forced_long","","5","complex_dissimilar","images/stimuli/spore_stims/complex_11_A_b.gif","","","","",""
"","null","html-keyboard-response","66","311236","0.0-19.0-0.2","SS1618435657419","","","null","","","","","","<p><img src= images/blank.png width =""600"" height = ""600"" style=""position:fixed;top:50%; left:50%; transform: translate(-50%, -50%); border:5px solid black"">","","","","","","","",""
"","8278.45999999775","sequential-stimulus-presentation-old","67","320019","0.0-19.0-1.2","SS1618435657419","trial","","40","500","8778.45999999775","images/stimuli/spore_stims/complex_17_A_a.gif","images/stimuli/spore_stims/complex_11_A_b.gif","forced_long","","5","complex_dissimilar","images/stimuli/spore_stims/complex_11_A_b.gif","","","","",""
"","null","html-keyboard-response","68","321208","0.0-19.0-0.3","SS1618435657419","","","null","","","","","","<p><img src= images/blank.png width =""600"" height = ""600"" style=""position:fixed;top:50%; left:50%; transform: translate(-50%, -50%); border:5px solid black"">","","","","","","","",""
"","1873.1000000006752","sequential-stimulus-presentation-old","69","323590","0.0-19.0-1.3","SS1618435657419","trial","","40","500","2373.100000000675","images/stimuli/spore_stims/complex_17_A_a.gif","images/stimuli/spore_stims/complex_11_A_b.gif","forced_long","","5","complex_dissimilar","images/stimuli/spore_stims/complex_11_A_b.gif","","","","",""
"","4125.589999999676","survey-multi-choice","70","327718","0.0-20.0","SS1618435657419","math_question","","","","","","","","","","","","{""Q0"":""9""}","[0]","9","",""
"","null","html-keyboard-response","71","328677","0.0-21.0-0.0","SS1618435657419","","","null","","","","","","<p><img src= images/blank.png width =""600"" height = ""600"" style=""position:fixed;top:50%; left:50%; transform: translate(-50%, -50%); border:5px solid black"">","","","","","","","",""
"","5288.7399999999325","sequential-stimulus-presentation-old","72","334470","0.0-21.0-1.0","SS1618435657419","trial","","40","500","5788.7399999999325","images/stimuli/spore_stims/complex_02_A_a.gif","images/stimuli/spore_stims/complex_15_A_b.gif","self_paced","","6","complex_dissimilar","images/stimuli/spore_stims/complex_15_A_b.gif","","","","",""
"","null","html-keyboard-response","73","335725","0.0-21.0-0.1","SS1618435657419","","","null","","","","","","<p><img src= images/blank.png width =""600"" height = ""600"" style=""position:fixed;top:50%; left:50%; transform: translate(-50%, -50%); border:5px solid black"">","","","","","","","",""
"","1291.4250000030734","sequential-stimulus-presentation-old","74","337522","0.0-21.0-1.1","SS1618435657419","trial","","40","500","1791.4250000030734","images/stimuli/spore_stims/complex_02_A_a.gif","images/stimuli/spore_stims/complex_15_A_b.gif","self_paced","","6","complex_dissimilar","images/stimuli/spore_stims/complex_15_A_b.gif","","","","",""
"","null","html-keyboard-response","75","338789","0.0-21.0-0.2","SS1618435657419","","","null","","","","","","<p><img src= images/blank.png width =""600"" height = ""600"" style=""position:fixed;top:50%; left:50%; transform: translate(-50%, -50%); border:5px solid black"">","","","","","","","",""
"","7798.345000002882","sequential-stimulus-presentation-old","76","347096","0.0-21.0-1.2","SS1618435657419","trial","","40","500","8298.345000002882","images/stimuli/spore_stims/complex_02_A_a.gif","images/stimuli/spore_stims/complex_15_A_b.gif","self_paced","","6","complex_dissimilar","images/stimuli/spore_stims/complex_15_A_b.gif","","","","",""
"","null","html-keyboard-response","77","347908","0.0-21.0-0.3","SS1618435657419","","","null","","","","","","<p><img src= images/blank.png width =""600"" height = ""600"" style=""position:fixed;top:50%; left:50%; transform: translate(-50%, -50%); border:5px solid black"">","","","","","","","",""
"","8481.445000001288","sequential-stimulus-presentation-old","78","356895","0.0-21.0-1.3","SS1618435657419","trial","","40","500","8981.445000001288","images/stimuli/spore_stims/complex_02_A_a.gif","images/stimuli/spore_stims/complex_15_A_b.gif","self_paced","","6","complex_dissimilar","images/stimuli/spore_stims/complex_02_A_a.gif","","","","",""
"","null","html-keyboard-response","79","357819","0.0-21.0-0.4","SS1618435657419","","","null","","","","","","<p><img src= images/blank.png width =""600"" height = ""600"" style=""position:fixed;top:50%; left:50%; transform: translate(-50%, -50%); border:5px solid black"">","","","","","","","",""
"","1161.5549999987707","sequential-stimulus-presentation-old","80","359491","0.0-21.0-1.4","SS1618435657419","trial","","40","500","1661.5549999987707","images/stimuli/spore_stims/complex_02_A_a.gif","images/stimuli/spore_stims/complex_15_A_b.gif","self_paced","","6","complex_dissimilar","images/stimuli/spore_stims/complex_15_A_b.gif","","","","",""
"","null","html-keyboard-response","81","360729","0.0-21.0-0.5","SS1618435657419","","","null","","","","","","<p><img src= images/blank.png width =""600"" height = ""600"" style=""position:fixed;top:50%; left:50%; transform: translate(-50%, -50%); border:5px solid black"">","","","","","","","",""
"","773.7850000011967","sequential-stimulus-presentation-old","82","362008","0.0-21.0-1.5","SS1618435657419","trial","","40","500","1273.7850000011967","images/stimuli/spore_stims/complex_02_A_a.gif","images/stimuli/spore_stims/complex_15_A_b.gif","self_paced","","6","complex_dissimilar","images/stimuli/spore_stims/complex_02_A_a.gif","","","","",""
"","4609.770000002754","survey-multi-choice","83","366620","0.0-22.0","SS1618435657419","math_question","","","","","","","","","","","","{""Q0"":""9""}","[0]","9","",""
"","null","html-keyboard-response","84","367526","0.0-23.0-0.0","SS1618435657419","","","null","","","","","","<p><img src= images/blank.png width =""600"" height = ""600"" style=""position:fixed;top:50%; left:50%; transform: translate(-50%, -50%); border:5px solid black"">","","","","","","","",""
"","207.700000002631","sequential-stimulus-presentation-old","85","368239","0.0-23.0-1.0","SS1618435657419","trial","","40","500","707.700000002631","images/stimuli/spore_stims/simple_12_A_a.gif","images/stimuli/spore_stims/simple_09_A_b.gif","self_paced","","7","simple_dissimilar","images/stimuli/spore_stims/simple_09_A_b.gif","","","","",""
"","null","html-keyboard-response","86","369426","0.0-23.0-0.1","SS1618435657419","","","null","","","","","","<p><img src= images/blank.png width =""600"" height = ""600"" style=""position:fixed;top:50%; left:50%; transform: translate(-50%, -50%); border:5px solid black"">","","","","","","","",""
"","84.49499999918044","sequential-stimulus-presentation-old","87","370018","0.0-23.0-1.1","SS1618435657419","trial","","40","500","584.4949999991804","images/stimuli/spore_stims/simple_12_A_a.gif","images/stimuli/spore_stims/simple_09_A_b.gif","self_paced","","7","simple_dissimilar","images/stimuli/spore_stims/simple_09_A_b.gif","","","","",""
"","null","html-keyboard-response","88","371123","0.0-23.0-0.2","SS1618435657419","","","null","","","","","","<p><img src= images/blank.png width =""600"" height = ""600"" style=""position:fixed;top:50%; left:50%; transform: translate(-50%, -50%); border:5px solid black"">","","","","","","","",""
"","163.63000000279862","sequential-stimulus-presentation-old","89","371791","0.0-23.0-1.2","SS1618435657419","trial","","40","500","663.6300000027986","images/stimuli/spore_stims/simple_12_A_a.gif","images/stimuli/spore_stims/simple_09_A_b.gif","self_paced","","7","simple_dissimilar","images/stimuli/spore_stims/simple_09_A_b.gif","","","","",""
"","null","html-keyboard-response","90","372719","0.0-23.0-0.3","SS1618435657419","","","null","","","","","","<p><img src= images/blank.png width =""600"" height = ""600"" style=""position:fixed;top:50%; left:50%; transform: translate(-50%, -50%); border:5px solid black"">","","","","","","","",""
"","81.28999999823282","sequential-stimulus-presentation-old","91","373309","0.0-23.0-1.3","SS1618435657419","trial","","40","500","581.2899999982328","images/stimuli/spore_stims/simple_12_A_a.gif","images/stimuli/spore_stims/simple_09_A_b.gif","self_paced","","7","simple_dissimilar","images/stimuli/spore_stims/simple_09_A_b.gif","","","","",""
"","2845.079999999143","survey-multi-choice","92","376156","0.0-24.0","SS1618435657419","math_question","","","","","","","","","","","","{""Q0"":""9""}","[0]","9","",""
"","null","html-keyboard-response","93","377073","0.0-25.0-0.0","SS1618435657419","","","null","","","","","","<p><img src= images/blank.png width =""600"" height = ""600"" style=""position:fixed;top:50%; left:50%; transform: translate(-50%, -50%); border:5px solid black"">","","","","","","","",""
"","4702.249999998487","sequential-stimulus-presentation-old","94","381832","0.0-25.0-1.0","SS1618435657419","trial","","40","500","5202.249999998487","images/stimuli/spore_stims/complex_16_A_a.gif","images/stimuli/spore_stims/complex_03_A_b.gif","forced_short","","8","complex_dissimilar","images/stimuli/spore_stims/complex_03_A_b.gif","","","","",""
"","null","html-keyboard-response","95","382770","0.0-25.0-0.1","SS1618435657419","","","null","","","","","","<p><img src= images/blank.png width =""600"" height = ""600"" style=""position:fixed;top:50%; left:50%; transform: translate(-50%, -50%); border:5px solid black"">","","","","","","","",""
"","363.3449999978766","sequential-stimulus-presentation-old","96","383638","0.0-25.0-1.1","SS1618435657419","trial","","40","500","863.3449999978766","images/stimuli/spore_stims/complex_16_A_a.gif","images/stimuli/spore_stims/complex_03_A_b.gif","forced_short","","8","complex_dissimilar","images/stimuli/spore_stims/complex_03_A_b.gif","","","","",""
"","null","html-keyboard-response","97","384696","0.0-25.0-0.2","SS1618435657419","","","null","","","","","","<p><img src= images/blank.png width =""600"" height = ""600"" style=""position:fixed;top:50%; left:50%; transform: translate(-50%, -50%); border:5px solid black"">","","","","","","","",""
"","355.8499999999767","sequential-stimulus-presentation-old","98","385559","0.0-25.0-1.2","SS1618435657419","trial","","40","500","855.8499999999767","images/stimuli/spore_stims/complex_16_A_a.gif","images/stimuli/spore_stims/complex_03_A_b.gif","forced_short","","8","complex_dissimilar","images/stimuli/spore_stims/complex_16_A_a.gif","","","","",""
"","null","html-keyboard-response","99","386419","0.0-25.0-0.3","SS1618435657419","","","null","","","","","","<p><img src= images/blank.png width =""600"" height = ""600"" style=""position:fixed;top:50%; left:50%; transform: translate(-50%, -50%); border:5px solid black"">","","","","","","","",""
"","547.9000000014203","sequential-stimulus-presentation-old","100","387471","0.0-25.0-1.3","SS1618435657419","trial","","40","500","1047.9000000014203","images/stimuli/spore_stims/complex_16_A_a.gif","images/stimuli/spore_stims/complex_03_A_b.gif","forced_short","","8","complex_dissimilar","images/stimuli/spore_stims/complex_03_A_b.gif","","","","",""
"","null","html-keyboard-response","101","388692","0.0-25.0-0.4","SS1618435657419","","","null","","","","","","<p><img src= images/blank.png width =""600"" height = ""600"" style=""position:fixed;top:50%; left:50%; transform: translate(-50%, -50%); border:5px solid black"">","","","","","","","",""
"","290.4849999976577","sequential-stimulus-presentation-old","102","389491","0.0-25.0-1.4","SS1618435657419","trial","","40","500","790.4849999976577","images/stimuli/spore_stims/complex_16_A_a.gif","images/stimuli/spore_stims/complex_03_A_b.gif","forced_short","","8","complex_dissimilar","images/stimuli/spore_stims/complex_03_A_b.gif","","","","",""
"","null","html-keyboard-response","103","390759","0.0-25.0-0.5","SS1618435657419","","","null","","","","","","<p><img src= images/blank.png width =""600"" height = ""600"" style=""position:fixed;top:50%; left:50%; transform: translate(-50%, -50%); border:5px solid black"">","","","","","","","",""
"","2747.4099999999744","sequential-stimulus-presentation-old","104","394013","0.0-25.0-1.5","SS1618435657419","trial","","40","500","3247.4099999999744","images/stimuli/spore_stims/complex_16_A_a.gif","images/stimuli/spore_stims/complex_03_A_b.gif","forced_short","","8","complex_dissimilar","images/stimuli/spore_stims/complex_16_A_a.gif","","","","",""
"","3518.199999998673","survey-multi-choice","105","397533","0.0-26.0","SS1618435657419","math_question","","","","","","","","","","","","{""Q0"":""16""}","[0]","16","",""
"","null","html-keyboard-response","106","398341","0.0-27.0-0.0","SS1618435657419","","","null","","","","","","<p><img src= images/blank.png width =""600"" height = ""600"" style=""position:fixed;top:50%; left:50%; transform: translate(-50%, -50%); border:5px solid black"">","","","","","","","",""
"","168.3050000029034","sequential-stimulus-presentation-old","107","399016","0.0-27.0-1.0","SS1618435657419","trial","","40","500","668.3050000029034","images/stimuli/spore_stims/complex_09_A_b.gif","images/stimuli/spore_stims/complex_19_A_a.gif","self_paced","","9","complex_dissimilar","images/stimuli/spore_stims/complex_19_A_a.gif","","","","",""
"","null","html-keyboard-response","108","400134","0.0-27.0-0.1","SS1618435657419","","","null","","","","","","<p><img src= images/blank.png width =""600"" height = ""600"" style=""position:fixed;top:50%; left:50%; transform: translate(-50%, -50%); border:5px solid black"">","","","","","","","",""
"","390.98999999987427","sequential-stimulus-presentation-old","109","401032","0.0-27.0-1.1","SS1618435657419","trial","","40","500","890.9899999998743","images/stimuli/spore_stims/complex_09_A_b.gif","images/stimuli/spore_stims/complex_19_A_a.gif","self_paced","","9","complex_dissimilar","images/stimuli/spore_stims/complex_19_A_a.gif","","","","",""
"","null","html-keyboard-response","110","402161","0.0-27.0-0.2","SS1618435657419","","","null","","","","","","<p><img src= images/blank.png width =""600"" height = ""600"" style=""position:fixed;top:50%; left:50%; transform: translate(-50%, -50%); border:5px solid black"">","","","","","","","",""
"","374.76500000047963","sequential-stimulus-presentation-old","111","403045","0.0-27.0-1.2","SS1618435657419","trial","","40","500","874.7650000004796","images/stimuli/spore_stims/complex_09_A_b.gif","images/stimuli/spore_stims/complex_19_A_a.gif","self_paced","","9","complex_dissimilar","images/stimuli/spore_stims/complex_19_A_a.gif","","","","",""
"","null","html-keyboard-response","112","403852","0.0-27.0-0.3","SS1618435657419","","","null","","","","","","<p><img src= images/blank.png width =""600"" height = ""600"" style=""position:fixed;top:50%; left:50%; transform: translate(-50%, -50%); border:5px solid black"">","","","","","","","",""
"","330.26499999687076","sequential-stimulus-presentation-old","113","404690","0.0-27.0-1.3","SS1618435657419","trial","","40","500","830.2649999968708","images/stimuli/spore_stims/complex_09_A_b.gif","images/stimuli/spore_stims/complex_19_A_a.gif","self_paced","","9","complex_dissimilar","images/stimuli/spore_stims/complex_09_A_b.gif","","","","",""
"","null","html-keyboard-response","114","405510","0.0-27.0-0.4","SS1618435657419","","","null","","","","","","<p><img src= images/blank.png width =""600"" height = ""600"" style=""position:fixed;top:50%; left:50%; transform: translate(-50%, -50%); border:5px solid black"">","","","","","","","",""
"","856.4550000010058","sequential-stimulus-presentation-old","115","406871","0.0-27.0-1.4","SS1618435657419","trial","","40","500","1356.4550000010058","images/stimuli/spore_stims/complex_09_A_b.gif","images/stimuli/spore_stims/complex_19_A_a.gif","self_paced","","9","complex_dissimilar","images/stimuli/spore_stims/complex_09_A_b.gif","","","","",""
"","4538.929999998771","survey-multi-choice","116","411412","0.0-28.0","SS1618435657419","math_question","","","","","","","","","","","","{""Q0"":""15""}","[0]","15","",""
"","null","html-keyboard-response","117","412634","0.0-29.0-0.0","SS1618435657419","","","null","","","","","","<p><img src= images/blank.png width =""600"" height = ""600"" style=""position:fixed;top:50%; left:50%; transform: translate(-50%, -50%); border:5px solid black"">","","","","","","","",""
"","657.7149999975809","sequential-stimulus-presentation-old","118","418299","0.0-29.0-1.0","SS1618435657419","trial","","40","500","1157.714999997581","images/stimuli/spore_stims/simple_06_A_a.gif","images/stimuli/spore_stims/simple_02_A_b.gif","forced_long","","10","simple_dissimilar","images/stimuli/spore_stims/simple_02_A_b.gif","","","","",""
"","null","html-keyboard-response","119","419279","0.0-29.0-0.1","SS1618435657419","","","null","","","","","","<p><img src= images/blank.png width =""600"" height = ""600"" style=""position:fixed;top:50%; left:50%; transform: translate(-50%, -50%); border:5px solid black"">","","","","","","","",""
"","171.8299999993178","sequential-stimulus-presentation-old","120","419957","0.0-29.0-1.1","SS1618435657419","trial","","40","500","671.8299999993178","images/stimuli/spore_stims/simple_06_A_a.gif","images/stimuli/spore_stims/simple_02_A_b.gif","forced_long","","10","simple_dissimilar","images/stimuli/spore_stims/simple_06_A_a.gif","","","","",""
"","null","html-keyboard-response","121","421167","0.0-29.0-0.2","SS1618435657419","","","null","","","","","","<p><img src= images/blank.png width =""600"" height = ""600"" style=""position:fixed;top:50%; left:50%; transform: translate(-50%, -50%); border:5px solid black"">","","","","","","","",""
"","1035.1450000016484","sequential-stimulus-presentation-old","122","422707","0.0-29.0-1.2","SS1618435657419","trial","","40","500","1535.1450000016484","images/stimuli/spore_stims/simple_06_A_a.gif","images/stimuli/spore_stims/simple_02_A_b.gif","forced_long","","10","simple_dissimilar","images/stimuli/spore_stims/simple_02_A_b.gif","","","","",""
"","null","html-keyboard-response","123","423771","0.0-29.0-0.3","SS1618435657419","","","null","","","","","","<p><img src= images/blank.png width =""600"" height = ""600"" style=""position:fixed;top:50%; left:50%; transform: translate(-50%, -50%); border:5px solid black"">","","","","","","","",""
"","1964.6450000000186","sequential-stimulus-presentation-old","124","426244","0.0-29.0-1.3","SS1618435657419","trial","","40","500","2464.6450000000186","images/stimuli/spore_stims/simple_06_A_a.gif","images/stimuli/spore_stims/simple_02_A_b.gif","forced_long","","10","simple_dissimilar","images/stimuli/spore_stims/simple_02_A_b.gif","","","","",""
"","null","html-keyboard-response","125","427539","0.0-29.0-0.4","SS1618435657419","","","null","","","","","","<p><img src= images/blank.png width =""600"" height = ""600"" style=""position:fixed;top:50%; left:50%; transform: translate(-50%, -50%); border:5px solid black"">","","","","","","","",""
"","1759.0149999996065","sequential-stimulus-presentation-old","126","429804","0.0-29.0-1.4","SS1618435657419","trial","","40","500","2259.0149999996065","images/stimuli/spore_stims/simple_06_A_a.gif","images/stimuli/spore_stims/simple_02_A_b.gif","forced_long","","10","simple_dissimilar","images/stimuli/spore_stims/simple_02_A_b.gif","","","","",""
"","null","html-keyboard-response","127","430897","0.0-29.0-0.5","SS1618435657419","","","null","","","","","","<p><img src= images/blank.png width =""600"" height = ""600"" style=""position:fixed;top:50%; left:50%; transform: translate(-50%, -50%); border:5px solid black"">","","","","","","","",""
"","274.3799999988987","sequential-stimulus-presentation-old","128","431676","0.0-29.0-1.5","SS1618435657419","trial","","40","500","774.3799999988987","images/stimuli/spore_stims/simple_06_A_a.gif","images/stimuli/spore_stims/simple_02_A_b.gif","forced_long","","10","simple_dissimilar","images/stimuli/spore_stims/simple_06_A_a.gif","","","","",""
"","3234.0050000021","survey-multi-choice","129","434913","0.0-30.0","SS1618435657419","math_question","","","","","","","","","","","","{""Q0"":""11""}","[0]","11","",""
"","null","html-keyboard-response","130","436151","0.0-31.0-0.0","SS1618435657419","","","null","","","","","","<p><img src= images/blank.png width =""600"" height = ""600"" style=""position:fixed;top:50%; left:50%; transform: translate(-50%, -50%); border:5px solid black"">","","","","","","","",""
"","601.2200000004377","sequential-stimulus-presentation-old","131","436807","0.0-31.0-1.0","SS1618435657419","trial","","40","500","1101.2200000004377","images/stimuli/spore_stims/simple_18_A_a.gif","images/stimuli/spore_stims/simple_15_A_b.gif","forced_short","","11","simple_dissimilar","images/stimuli/spore_stims/simple_15_A_b.gif","","","","",""
"","null","html-keyboard-response","132","437673","0.0-31.0-0.1","SS1618435657419","","","null","","","","","","<p><img src= images/blank.png width =""600"" height = ""600"" style=""position:fixed;top:50%; left:50%; transform: translate(-50%, -50%); border:5px solid black"">","","","","","","","",""
"","631.105000000447","sequential-stimulus-presentation-old","133","438810","0.0-31.0-1.1","SS1618435657419","trial","","40","500","1131.105000000447","images/stimuli/spore_stims/simple_18_A_a.gif","images/stimuli/spore_stims/simple_15_A_b.gif","forced_short","","11","simple_dissimilar","images/stimuli/spore_stims/simple_15_A_b.gif","","","","",""
"","null","html-keyboard-response","134","439641","0.0-31.0-0.2","SS1618435657419","","","null","","","","","","<p><img src= images/blank.png width =""600"" height = ""600"" style=""position:fixed;top:50%; left:50%; transform: translate(-50%, -50%); border:5px solid black"">","","","","","","","",""
"","829.570000001695","sequential-stimulus-presentation-old","135","440980","0.0-31.0-1.2","SS1618435657419","trial","","40","500","1329.570000001695","images/stimuli/spore_stims/simple_18_A_a.gif","images/stimuli/spore_stims/simple_15_A_b.gif","forced_short","","11","simple_dissimilar","images/stimuli/spore_stims/simple_15_A_b.gif","","","","",""
"","null","html-keyboard-response","136","441832","0.0-31.0-0.3","SS1618435657419","","","null","","","","","","<p><img src= images/blank.png width =""600"" height = ""600"" style=""position:fixed;top:50%; left:50%; transform: translate(-50%, -50%); border:5px solid black"">","","","","","","","",""
"","437.8550000000978","sequential-stimulus-presentation-old","137","442776","0.0-31.0-1.3","SS1618435657419","trial","","40","500","937.8550000000978","images/stimuli/spore_stims/simple_18_A_a.gif","images/stimuli/spore_stims/simple_15_A_b.gif","forced_short","","11","simple_dissimilar","images/stimuli/spore_stims/simple_18_A_a.gif","","","","",""
"[{""page_index"":0,""viewing_time"":4132.305000002787}]","4132.595000002766","instructions","138","446911","0.0-32.0","SS1618435657419","instructions","","","","","","","","","","","","","","","",""
"","15039.874999998603","survey-likert","139","461955","0.0-33.0","SS1618435657419","similarity_question","","","","","","","","","","","","{""Q0"":5}","[0]","","images/stimuli/spore_stims/simple_02_A_a.gif","images/stimuli/spore_stims/simple_19_A_b.gif"
"","13269.25499999919","survey-likert","140","475228","0.0-34.0","SS1618435657419","similarity_question","","","","","","","","","","","","{""Q0"":3}","[0]","","images/stimuli/spore_stims/complex_17_A_a.gif","images/stimuli/spore_stims/complex_11_A_b.gif"
"","8778.98500000086","survey-likert","141","484011","0.0-35.0","SS1618435657419","similarity_question","","","","","","","","","","","","{""Q0"":2}","[0]","","images/stimuli/spore_stims/complex_16_A_b.gif","images/stimuli/spore_stims/complex_12_A_a.gif"
"","6521.100000001781","survey-likert","142","490536","0.0-36.0","SS1618435657419","similarity_question","","","","","","","","","","","","{""Q0"":5}","[0]","","images/stimuli/spore_stims/simple_01_A_a.gif","images/stimuli/spore_stims/simple_11_A_b.gif"
"","3577.2300000026007","survey-likert","143","494116","0.0-37.0","SS1618435657419","similarity_question","","","","","","","","","","","","{""Q0"":5}","[0]","","images/stimuli/spore_stims/simple_08_A_a.gif","images/stimuli/spore_stims/simple_16_A_b.gif"
"","12003.700000001118","survey-likert","144","506124","0.0-38.0","SS1618435657419","similarity_question","","","","","","","","","","","","{""Q0"":4}","[0]","","images/stimuli/spore_stims/simple_15_A_b.gif","images/stimuli/spore_stims/simple_18_A_a.gif"
"","5800.0400000019","survey-likert","145","511928","0.0-39.0","SS1618435657419","similarity_question","","","","","","","","","","","","{""Q0"":6}","[0]","","images/stimuli/spore_stims/simple_02_A_b.gif","images/stimuli/spore_stims/simple_06_A_a.gif"
"","3667.4850000017905","survey-likert","146","515599","0.0-40.0","SS1618435657419","similarity_question","","","","","","","","","","","","{""Q0"":6}","[0]","","images/stimuli/spore_stims/simple_09_A_b.gif","images/stimuli/spore_stims/simple_12_A_a.gif"
"","8957.559999998892","survey-likert","147","524560","0.0-41.0","SS1618435657419","similarity_question","","","","","","","","","","","","{""Q0"":3}","[0]","","images/stimuli/spore_stims/complex_03_A_b.gif","images/stimuli/spore_stims/complex_16_A_a.gif"
"","14203.460000000545","survey-likert","148","538767","0.0-42.0","SS1618435657419","similarity_question","","","","","","","","","","","","{""Q0"":4}","[0]","","images/stimuli/spore_stims/complex_04_A_b.gif","images/stimuli/spore_stims/complex_10_A_a.gif"
"","10783.800000000978","survey-likert","149","549555","0.0-43.0","SS1618435657419","similarity_question","","","","","","","","","","","","{""Q0"":2}","[0]","","images/stimuli/spore_stims/complex_09_A_b.gif","images/stimuli/spore_stims/complex_19_A_a.gif"
"","5743.654999998398","survey-likert","150","555302","0.0-44.0","SS1618435657419","similarity_question","","","","","","","","","","","","{""Q0"":1}","[0]","","images/stimuli/spore_stims/complex_15_A_b.gif","images/stimuli/spore_stims/complex_02_A_a.gif"
"[{""page_index"":0,""viewing_time"":4105.5149999993155}]","4105.820000000764","instructions","151","559411","0.0-45.0","SS1618435657419","instructions","","","","","","","","","","","","","","","",""
"","5135.780000000494","survey-likert","152","564550","0.0-46.0","SS1618435657419","","","","","","","","","images/stimuli/spore_stims/simple_08_A_a.gif","","","","{""Q0"":0}","[0]","","",""
"","6932.649999998859","survey-likert","153","571487","0.0-47.0","SS1618435657419","","","","","","","","","images/stimuli/spore_stims/complex_09_A_b.gif","","","","{""Q0"":5}","[0]","","",""
"","3845.0999999985797","survey-likert","154","575336","0.0-48.0","SS1618435657419","","","","","","","","","images/stimuli/spore_stims/complex_17_A_a.gif","","","","{""Q0"":5}","[0]","","",""
"","3585.154999997001","survey-likert","155","578925","0.0-49.0","SS1618435657419","","","","","","","","","images/stimuli/spore_stims/complex_16_A_a.gif","","","","{""Q0"":5}","[0]","","",""
"","4912.175000001327","survey-likert","156","583843","0.0-50.0","SS1618435657419","","","","","","","","","images/stimuli/spore_stims/complex_02_A_a.gif","","","","{""Q0"":4}","[0]","","",""
"","6077.069999999367","survey-likert","157","589928","0.0-51.0","SS1618435657419","","","","","","","","","images/stimuli/spore_stims/simple_19_A_b.gif","","","","{""Q0"":1}","[0]","","",""
"","3674.889999998384","survey-likert","158","593608","0.0-52.0","SS1618435657419","","","","","","","","","images/stimuli/spore_stims/complex_10_A_a.gif","","","","{""Q0"":4}","[0]","","",""
"","2751.230000001611","survey-likert","159","596366","0.0-53.0","SS1618435657419","","","","","","","","","images/stimuli/spore_stims/simple_15_A_b.gif","","","","{""Q0"":0}","[0]","","",""
"","6317.490000001271","survey-likert","160","602690","0.0-54.0","SS1618435657419","","","","","","","","","images/stimuli/spore_stims/complex_16_A_b.gif","","","","{""Q0"":5}","[0]","","",""
"","2529.909999997355","survey-likert","161","605223","0.0-55.0","SS1618435657419","","","","","","","","","images/stimuli/spore_stims/simple_01_A_a.gif","","","","{""Q0"":0}","[0]","","",""
"","2443.9149999998044","survey-likert","162","607672","0.0-56.0","SS1618435657419","","","","","","","","","images/stimuli/spore_stims/simple_02_A_b.gif","","","","{""Q0"":0}","[0]","","",""
"","3398.209999999497","survey-likert","163","611073","0.0-57.0","SS1618435657419","","","","","","","","","images/stimuli/spore_stims/simple_12_A_a.gif","","","","{""Q0"":0}","[0]","","",""
"[{""page_index"":0,""viewing_time"":2424.5699999992503}]","2424.8550000011455","instructions","164","613501","0.0-58.0","SS1618435657419","instructions","","","","","","","","","","","","","","","",""
"","3760.540000002831","demog-age","165","617269","0.0-59.0","SS1618435657419","","","","","","","","","","","","","{""age"":""52""}","","","",""
"","3916.769999999786","demog-ethnic-US","166","621194","0.0-60.0","SS1618435657419","","","","","","","","","","","","","{""ethnicity"":[""White""]}","[0]","","",""
"","5430.345000000671","demog-gender-and-education","167","626630","0.0-61.0","SS1618435657419","","","","","","","","","","","","","{""gender"":""Female"",""education"":""Master's Degree""}","[0,1]","","",""
"","36835.96000000031","survey-text","168","663474","0.0-62.0","SS1618435657419","feedback","","","","","","","","","","","","{""Q0"":""animation was not clear.""}","","","",""
"[{""page_index"":0,""viewing_time"":2204.3249999987893}]","2204.589999997639","instructions","169","665682","0.0-63.0","SS1618435657419","instructions","","","","","","","","","","","","","","","",""
