"view_history","rt","trial_type","trial_index","time_elapsed","internal_node_id","subject","stimulus_type","trial_stimulus","key_press","minimum_viewing_duration","trial_looking_time","block_deviant","block_background","exposure_type","stimulus","block_number","block_type","stimulus_displayed","responses","question_order","math_correct_answer","stimulus_left","stimulus_right"
"[{""page_index"":0,""viewing_time"":24562.239999999292}]","24563.94000000728","instructions","0","24567","0.0-0.0","SS1618365781304","","","","","","","","","","","","","","","","",""
"[{""page_index"":0,""viewing_time"":27796.379999999772},{""page_index"":1,""viewing_time"":6686.499999996158}]","34483.339999991586","instructions","1","61056","0.0-1.0","SS1618365781304","instructions","","","","","","","","","","","","","","","",""
"","11861.14500000258","sequential-stimulus-presentation-old","2","73424","0.0-2.0","SS1618365781304","","","40","500","12361.14500000258","null","null","self_paced","","","","","","","","",""
"","10426.895000011427","sequential-stimulus-presentation-old","3","84357","0.0-3.0","SS1618365781304","","","40","500","10926.895000011427","null","null","self_paced","","","","","","","","",""
"[{""page_index"":0,""viewing_time"":28729.31999999855}]","28730.064999996102","instructions","4","113089","0.0-4.0","SS1618365781304","instructions","","","","","","","","","","","","","","","",""
"","1421.7499999940628","sequential-stimulus-presentation-old","5","119529","0.0-5.0","SS1618365781304","","","40","500","1921.7499999940628","null","null","forced_long","","","","","","","","",""
"","3131.039999992936","sequential-stimulus-presentation-old","6","122720","0.0-6.0","SS1618365781304","","","40","50","3181.039999992936","null","null","forced_long","","","","","","","","",""
"[{""page_index"":0,""viewing_time"":5508.050000004005}]","5508.4550000028685","instructions","7","128230","0.0-7.0","SS1618365781304","instructions","","","","","","","","","","","","","","","",""
"[{""page_index"":0,""viewing_time"":13995.179999998072},{""page_index"":1,""viewing_time"":15557.830000005197},{""page_index"":2,""viewing_time"":11255.00999999349},{""page_index"":3,""viewing_time"":1879.4300000008661},{""page_index"":4,""viewing_time"":1743.545000004815}]","44431.47999999928","instructions","8","172665","0.0-8.0","SS1618365781304","instructions","","","","","","","","","","","","","","","",""
"","null","html-keyboard-response","9","173871","0.0-9.0-0.0","SS1618365781304","","","null","","","","","","<p><img src= images/blank.png width =""600"" height = ""600"" style=""position:fixed;top:50%; left:50%; transform: translate(-50%, -50%); border:5px solid black"">","","","","","","","",""
"","2241.3800000067567","sequential-stimulus-presentation-old","10","176176","0.0-9.0-1.0","SS1618365781304","trial","","40","500","2741.3800000067567","images/stimuli/spore_stims/simple_03_A_b.gif","images/stimuli/spore_stims/simple_12_A_a.gif","forced_short","","0","simple_dissimilar","images/stimuli/spore_stims/simple_12_A_a.gif","","","","",""
"","null","html-keyboard-response","11","177120","0.0-9.0-0.1","SS1618365781304","","","null","","","","","","<p><img src= images/blank.png width =""600"" height = ""600"" style=""position:fixed;top:50%; left:50%; transform: translate(-50%, -50%); border:5px solid black"">","","","","","","","",""
"","36347.68000000622","sequential-stimulus-presentation-old","12","213979","0.0-9.0-1.1","SS1618365781304","trial","","40","500","36847.68000000622","images/stimuli/spore_stims/simple_03_A_b.gif","images/stimuli/spore_stims/simple_12_A_a.gif","forced_short","","0","simple_dissimilar","images/stimuli/spore_stims/simple_12_A_a.gif","","","","",""
"","null","html-keyboard-response","13","214815","0.0-9.0-0.2","SS1618365781304","","","null","","","","","","<p><img src= images/blank.png width =""600"" height = ""600"" style=""position:fixed;top:50%; left:50%; transform: translate(-50%, -50%); border:5px solid black"">","","","","","","","",""
"","11310.679999995045","sequential-stimulus-presentation-old","14","226633","0.0-9.0-1.2","SS1618365781304","trial","","40","500","11810.679999995045","images/stimuli/spore_stims/simple_03_A_b.gif","images/stimuli/spore_stims/simple_12_A_a.gif","forced_short","","0","simple_dissimilar","images/stimuli/spore_stims/simple_12_A_a.gif","","","","",""
"","null","html-keyboard-response","15","227879","0.0-9.0-0.3","SS1618365781304","","","null","","","","","","<p><img src= images/blank.png width =""600"" height = ""600"" style=""position:fixed;top:50%; left:50%; transform: translate(-50%, -50%); border:5px solid black"">","","","","","","","",""
"","8341.400000004796","sequential-stimulus-presentation-old","16","236729","0.0-9.0-1.3","SS1618365781304","trial","","40","500","8841.400000004796","images/stimuli/spore_stims/simple_03_A_b.gif","images/stimuli/spore_stims/simple_12_A_a.gif","forced_short","","0","simple_dissimilar","images/stimuli/spore_stims/simple_12_A_a.gif","","","","",""
"","null","html-keyboard-response","17","237954","0.0-9.0-0.4","SS1618365781304","","","null","","","","","","<p><img src= images/blank.png width =""600"" height = ""600"" style=""position:fixed;top:50%; left:50%; transform: translate(-50%, -50%); border:5px solid black"">","","","","","","","",""
"","5184.195000008913","sequential-stimulus-presentation-old","18","243647","0.0-9.0-1.4","SS1618365781304","trial","","40","500","5684.195000008913","images/stimuli/spore_stims/simple_03_A_b.gif","images/stimuli/spore_stims/simple_12_A_a.gif","forced_short","","0","simple_dissimilar","images/stimuli/spore_stims/simple_12_A_a.gif","","","","",""
"","5794.65500000515","survey-multi-choice","19","249472","0.0-10.0","SS1618365781304","math_question","","","","","","","","","","","","{""Q0"":""4""}","[0]","4","",""
"","null","html-keyboard-response","20","250406","0.0-11.0-0.0","SS1618365781304","","","null","","","","","","<p><img src= images/blank.png width =""600"" height = ""600"" style=""position:fixed;top:50%; left:50%; transform: translate(-50%, -50%); border:5px solid black"">","","","","","","","",""
"","1467.0199999964098","sequential-stimulus-presentation-old","21","251935","0.0-11.0-1.0","SS1618365781304","trial","","40","500","1967.0199999964098","images/stimuli/spore_stims/simple_07_A_b.gif","images/stimuli/spore_stims/simple_20_A_a.gif","forced_short","","1","simple_dissimilar","images/stimuli/spore_stims/simple_20_A_a.gif","","","","",""
"","null","html-keyboard-response","22","253220","0.0-11.0-0.1","SS1618365781304","","","null","","","","","","<p><img src= images/blank.png width =""600"" height = ""600"" style=""position:fixed;top:50%; left:50%; transform: translate(-50%, -50%); border:5px solid black"">","","","","","","","",""
"","8797.504999994999","sequential-stimulus-presentation-old","23","262525","0.0-11.0-1.1","SS1618365781304","trial","","40","500","9297.504999994999","images/stimuli/spore_stims/simple_07_A_b.gif","images/stimuli/spore_stims/simple_20_A_a.gif","forced_short","","1","simple_dissimilar","images/stimuli/spore_stims/simple_20_A_a.gif","","","","",""
"","null","html-keyboard-response","24","263787","0.0-11.0-0.2","SS1618365781304","","","null","","","","","","<p><img src= images/blank.png width =""600"" height = ""600"" style=""position:fixed;top:50%; left:50%; transform: translate(-50%, -50%); border:5px solid black"">","","","","","","","",""
"","8609.700000000885","sequential-stimulus-presentation-old","25","272907","0.0-11.0-1.2","SS1618365781304","trial","","40","500","9109.700000000885","images/stimuli/spore_stims/simple_07_A_b.gif","images/stimuli/spore_stims/simple_20_A_a.gif","forced_short","","1","simple_dissimilar","images/stimuli/spore_stims/simple_20_A_a.gif","","","","",""
"","null","html-keyboard-response","26","274158","0.0-11.0-0.3","SS1618365781304","","","null","","","","","","<p><img src= images/blank.png width =""600"" height = ""600"" style=""position:fixed;top:50%; left:50%; transform: translate(-50%, -50%); border:5px solid black"">","","","","","","","",""
"","9158.890000006068","sequential-stimulus-presentation-old","27","283826","0.0-11.0-1.3","SS1618365781304","trial","","40","500","9658.890000006068","images/stimuli/spore_stims/simple_07_A_b.gif","images/stimuli/spore_stims/simple_20_A_a.gif","forced_short","","1","simple_dissimilar","images/stimuli/spore_stims/simple_07_A_b.gif","","","","",""
"","null","html-keyboard-response","28","284772","0.0-11.0-0.4","SS1618365781304","","","null","","","","","","<p><img src= images/blank.png width =""600"" height = ""600"" style=""position:fixed;top:50%; left:50%; transform: translate(-50%, -50%); border:5px solid black"">","","","","","","","",""
"","4327.705000003334","sequential-stimulus-presentation-old","29","289609","0.0-11.0-1.4","SS1618365781304","trial","","40","500","4827.705000003334","images/stimuli/spore_stims/simple_07_A_b.gif","images/stimuli/spore_stims/simple_20_A_a.gif","forced_short","","1","simple_dissimilar","images/stimuli/spore_stims/simple_07_A_b.gif","","","","",""
"","null","html-keyboard-response","30","290621","0.0-11.0-0.5","SS1618365781304","","","null","","","","","","<p><img src= images/blank.png width =""600"" height = ""600"" style=""position:fixed;top:50%; left:50%; transform: translate(-50%, -50%); border:5px solid black"">","","","","","","","",""
"","6605.875000008382","sequential-stimulus-presentation-old","31","297736","0.0-11.0-1.5","SS1618365781304","trial","","40","500","7105.875000008382","images/stimuli/spore_stims/simple_07_A_b.gif","images/stimuli/spore_stims/simple_20_A_a.gif","forced_short","","1","simple_dissimilar","images/stimuli/spore_stims/simple_20_A_a.gif","","","","",""
"","4009.4799999933457","survey-multi-choice","32","301751","0.0-12.0","SS1618365781304","math_question","","","","","","","","","","","","{""Q0"":""15""}","[0]","15","",""
"","null","html-keyboard-response","33","302940","0.0-13.0-0.0","SS1618365781304","","","null","","","","","","<p><img src= images/blank.png width =""600"" height = ""600"" style=""position:fixed;top:50%; left:50%; transform: translate(-50%, -50%); border:5px solid black"">","","","","","","","",""
"","1417.5450000038836","sequential-stimulus-presentation-old","34","309367","0.0-13.0-1.0","SS1618365781304","trial","","40","500","1917.5450000038836","images/stimuli/spore_stims/complex_10_A_a.gif","images/stimuli/spore_stims/complex_18_A_b.gif","forced_long","","2","complex_dissimilar","images/stimuli/spore_stims/complex_18_A_b.gif","","","","",""
"","null","html-keyboard-response","35","310634","0.0-13.0-0.1","SS1618365781304","","","null","","","","","","<p><img src= images/blank.png width =""600"" height = ""600"" style=""position:fixed;top:50%; left:50%; transform: translate(-50%, -50%); border:5px solid black"">","","","","","","","",""
"","12081.314999988535","sequential-stimulus-presentation-old","36","323228","0.0-13.0-1.1","SS1618365781304","trial","","40","500","12581.314999988535","images/stimuli/spore_stims/complex_10_A_a.gif","images/stimuli/spore_stims/complex_18_A_b.gif","forced_long","","2","complex_dissimilar","images/stimuli/spore_stims/complex_18_A_b.gif","","","","",""
"","null","html-keyboard-response","37","324270","0.0-13.0-0.2","SS1618365781304","","","null","","","","","","<p><img src= images/blank.png width =""600"" height = ""600"" style=""position:fixed;top:50%; left:50%; transform: translate(-50%, -50%); border:5px solid black"">","","","","","","","",""
"","5780.645000006189","sequential-stimulus-presentation-old","38","330564","0.0-13.0-1.2","SS1618365781304","trial","","40","500","6280.645000006189","images/stimuli/spore_stims/complex_10_A_a.gif","images/stimuli/spore_stims/complex_18_A_b.gif","forced_long","","2","complex_dissimilar","images/stimuli/spore_stims/complex_18_A_b.gif","","","","",""
"","null","html-keyboard-response","39","331471","0.0-13.0-0.3","SS1618365781304","","","null","","","","","","<p><img src= images/blank.png width =""600"" height = ""600"" style=""position:fixed;top:50%; left:50%; transform: translate(-50%, -50%); border:5px solid black"">","","","","","","","",""
"","4633.99999999092","sequential-stimulus-presentation-old","40","336617","0.0-13.0-1.3","SS1618365781304","trial","","40","500","5133.99999999092","images/stimuli/spore_stims/complex_10_A_a.gif","images/stimuli/spore_stims/complex_18_A_b.gif","forced_long","","2","complex_dissimilar","images/stimuli/spore_stims/complex_18_A_b.gif","","","","",""
"","null","html-keyboard-response","41","337479","0.0-13.0-0.4","SS1618365781304","","","null","","","","","","<p><img src= images/blank.png width =""600"" height = ""600"" style=""position:fixed;top:50%; left:50%; transform: translate(-50%, -50%); border:5px solid black"">","","","","","","","",""
"","3083.3549999952083","sequential-stimulus-presentation-old","42","341074","0.0-13.0-1.4","SS1618365781304","trial","","40","500","3583.3549999952083","images/stimuli/spore_stims/complex_10_A_a.gif","images/stimuli/spore_stims/complex_18_A_b.gif","forced_long","","2","complex_dissimilar","images/stimuli/spore_stims/complex_18_A_b.gif","","","","",""
"","null","html-keyboard-response","43","342185","0.0-13.0-0.5","SS1618365781304","","","null","","","","","","<p><img src= images/blank.png width =""600"" height = ""600"" style=""position:fixed;top:50%; left:50%; transform: translate(-50%, -50%); border:5px solid black"">","","","","","","","",""
"","10390.76500000374","sequential-stimulus-presentation-old","44","353088","0.0-13.0-1.5","SS1618365781304","trial","","40","500","10890.76500000374","images/stimuli/spore_stims/complex_10_A_a.gif","images/stimuli/spore_stims/complex_18_A_b.gif","forced_long","","2","complex_dissimilar","images/stimuli/spore_stims/complex_10_A_a.gif","","","","",""
"","6263.054999988526","survey-multi-choice","45","359368","0.0-14.0","SS1618365781304","math_question","","","","","","","","","","","","{""Q0"":""13""}","[0]","13","",""
"","null","html-keyboard-response","46","360390","0.0-15.0-0.0","SS1618365781304","","","null","","","","","","<p><img src= images/blank.png width =""600"" height = ""600"" style=""position:fixed;top:50%; left:50%; transform: translate(-50%, -50%); border:5px solid black"">","","","","","","","",""
"","3611.529999994673","sequential-stimulus-presentation-old","47","369015","0.0-15.0-1.0","SS1618365781304","trial","","40","500","4111.529999994673","images/stimuli/spore_stims/complex_11_A_a.gif","images/stimuli/spore_stims/complex_02_A_b.gif","forced_long","","3","complex_dissimilar","images/stimuli/spore_stims/complex_02_A_b.gif","","","","",""
"","null","html-keyboard-response","48","369914","0.0-15.0-0.1","SS1618365781304","","","null","","","","","","<p><img src= images/blank.png width =""600"" height = ""600"" style=""position:fixed;top:50%; left:50%; transform: translate(-50%, -50%); border:5px solid black"">","","","","","","","",""
"","12329.769999996643","sequential-stimulus-presentation-old","49","382757","0.0-15.0-1.1","SS1618365781304","trial","","40","500","12829.769999996643","images/stimuli/spore_stims/complex_11_A_a.gif","images/stimuli/spore_stims/complex_02_A_b.gif","forced_long","","3","complex_dissimilar","images/stimuli/spore_stims/complex_02_A_b.gif","","","","",""
"","null","html-keyboard-response","50","383884","0.0-15.0-0.2","SS1618365781304","","","null","","","","","","<p><img src= images/blank.png width =""600"" height = ""600"" style=""position:fixed;top:50%; left:50%; transform: translate(-50%, -50%); border:5px solid black"">","","","","","","","",""
"","21117.819999999483","sequential-stimulus-presentation-old","51","405514","0.0-15.0-1.2","SS1618365781304","trial","","40","500","21617.819999999483","images/stimuli/spore_stims/complex_11_A_a.gif","images/stimuli/spore_stims/complex_02_A_b.gif","forced_long","","3","complex_dissimilar","images/stimuli/spore_stims/complex_11_A_a.gif","","","","",""
"","null","html-keyboard-response","52","406565","0.0-15.0-0.3","SS1618365781304","","","null","","","","","","<p><img src= images/blank.png width =""600"" height = ""600"" style=""position:fixed;top:50%; left:50%; transform: translate(-50%, -50%); border:5px solid black"">","","","","","","","",""
"","5037.924999996903","sequential-stimulus-presentation-old","53","412120","0.0-15.0-1.3","SS1618365781304","trial","","40","500","5537.924999996903","images/stimuli/spore_stims/complex_11_A_a.gif","images/stimuli/spore_stims/complex_02_A_b.gif","forced_long","","3","complex_dissimilar","images/stimuli/spore_stims/complex_02_A_b.gif","","","","",""
"","3381.1450000066543","survey-multi-choice","54","415507","0.0-16.0","SS1618365781304","math_question","","","","","","","","","","","","{""Q0"":""2""}","[0]","2","",""
"","null","html-keyboard-response","55","416333","0.0-17.0-0.0","SS1618365781304","","","null","","","","","","<p><img src= images/blank.png width =""600"" height = ""600"" style=""position:fixed;top:50%; left:50%; transform: translate(-50%, -50%); border:5px solid black"">","","","","","","","",""
"","563.9749999972992","sequential-stimulus-presentation-old","56","421912","0.0-17.0-1.0","SS1618365781304","trial","","40","500","1063.9749999972992","images/stimuli/spore_stims/simple_07_A_a.gif","images/stimuli/spore_stims/simple_11_A_b.gif","forced_long","","4","simple_dissimilar","images/stimuli/spore_stims/simple_11_A_b.gif","","","","",""
"","null","html-keyboard-response","57","423168","0.0-17.0-0.1","SS1618365781304","","","null","","","","","","<p><img src= images/blank.png width =""600"" height = ""600"" style=""position:fixed;top:50%; left:50%; transform: translate(-50%, -50%); border:5px solid black"">","","","","","","","",""
"","8190.959999992629","sequential-stimulus-presentation-old","58","431870","0.0-17.0-1.1","SS1618365781304","trial","","40","500","8690.959999992629","images/stimuli/spore_stims/simple_07_A_a.gif","images/stimuli/spore_stims/simple_11_A_b.gif","forced_long","","4","simple_dissimilar","images/stimuli/spore_stims/simple_11_A_b.gif","","","","",""
"","null","html-keyboard-response","59","433090","0.0-17.0-0.2","SS1618365781304","","","null","","","","","","<p><img src= images/blank.png width =""600"" height = ""600"" style=""position:fixed;top:50%; left:50%; transform: translate(-50%, -50%); border:5px solid black"">","","","","","","","",""
"","8726.110000003246","sequential-stimulus-presentation-old","60","442342","0.0-17.0-1.2","SS1618365781304","trial","","40","500","9226.110000003246","images/stimuli/spore_stims/simple_07_A_a.gif","images/stimuli/spore_stims/simple_11_A_b.gif","forced_long","","4","simple_dissimilar","images/stimuli/spore_stims/simple_11_A_b.gif","","","","",""
"","null","html-keyboard-response","61","443283","0.0-17.0-0.3","SS1618365781304","","","null","","","","","","<p><img src= images/blank.png width =""600"" height = ""600"" style=""position:fixed;top:50%; left:50%; transform: translate(-50%, -50%); border:5px solid black"">","","","","","","","",""
"","4272.824999992736","sequential-stimulus-presentation-old","62","448067","0.0-17.0-1.3","SS1618365781304","trial","","40","500","4772.824999992736","images/stimuli/spore_stims/simple_07_A_a.gif","images/stimuli/spore_stims/simple_11_A_b.gif","forced_long","","4","simple_dissimilar","images/stimuli/spore_stims/simple_07_A_a.gif","","","","",""
"","null","html-keyboard-response","63","449184","0.0-17.0-0.4","SS1618365781304","","","null","","","","","","<p><img src= images/blank.png width =""600"" height = ""600"" style=""position:fixed;top:50%; left:50%; transform: translate(-50%, -50%); border:5px solid black"">","","","","","","","",""
"","3749.0450000041164","sequential-stimulus-presentation-old","64","453443","0.0-17.0-1.4","SS1618365781304","trial","","40","500","4249.045000004116","images/stimuli/spore_stims/simple_07_A_a.gif","images/stimuli/spore_stims/simple_11_A_b.gif","forced_long","","4","simple_dissimilar","images/stimuli/spore_stims/simple_11_A_b.gif","","","","",""
"","null","html-keyboard-response","65","454736","0.0-17.0-0.5","SS1618365781304","","","null","","","","","","<p><img src= images/blank.png width =""600"" height = ""600"" style=""position:fixed;top:50%; left:50%; transform: translate(-50%, -50%); border:5px solid black"">","","","","","","","",""
"","7043.235000004643","sequential-stimulus-presentation-old","66","462289","0.0-17.0-1.5","SS1618365781304","trial","","40","500","7543.235000004643","images/stimuli/spore_stims/simple_07_A_a.gif","images/stimuli/spore_stims/simple_11_A_b.gif","forced_long","","4","simple_dissimilar","images/stimuli/spore_stims/simple_07_A_a.gif","","","","",""
"","3812.6699999993434","survey-multi-choice","67","466109","0.0-18.0","SS1618365781304","math_question","","","","","","","","","","","","{""Q0"":""5""}","[0]","5","",""
"","null","html-keyboard-response","68","467021","0.0-19.0-0.0","SS1618365781304","","","null","","","","","","<p><img src= images/blank.png width =""600"" height = ""600"" style=""position:fixed;top:50%; left:50%; transform: translate(-50%, -50%); border:5px solid black"">","","","","","","","",""
"","1348.904999991646","sequential-stimulus-presentation-old","69","468449","0.0-19.0-1.0","SS1618365781304","trial","","40","500","1848.904999991646","images/stimuli/spore_stims/complex_16_A_b.gif","images/stimuli/spore_stims/complex_15_A_a.gif","forced_short","","5","complex_dissimilar","images/stimuli/spore_stims/complex_15_A_a.gif","","","","",""
"","null","html-keyboard-response","70","469393","0.0-19.0-0.1","SS1618365781304","","","null","","","","","","<p><img src= images/blank.png width =""600"" height = ""600"" style=""position:fixed;top:50%; left:50%; transform: translate(-50%, -50%); border:5px solid black"">","","","","","","","",""
"","5959.535000001779","sequential-stimulus-presentation-old","71","475864","0.0-19.0-1.1","SS1618365781304","trial","","40","500","6459.535000001779","images/stimuli/spore_stims/complex_16_A_b.gif","images/stimuli/spore_stims/complex_15_A_a.gif","forced_short","","5","complex_dissimilar","images/stimuli/spore_stims/complex_15_A_a.gif","","","","",""
"","null","html-keyboard-response","72","476695","0.0-19.0-0.2","SS1618365781304","","","null","","","","","","<p><img src= images/blank.png width =""600"" height = ""600"" style=""position:fixed;top:50%; left:50%; transform: translate(-50%, -50%); border:5px solid black"">","","","","","","","",""
"","4623.05500000366","sequential-stimulus-presentation-old","73","481831","0.0-19.0-1.2","SS1618365781304","trial","","40","500","5123.05500000366","images/stimuli/spore_stims/complex_16_A_b.gif","images/stimuli/spore_stims/complex_15_A_a.gif","forced_short","","5","complex_dissimilar","images/stimuli/spore_stims/complex_15_A_a.gif","","","","",""
"","null","html-keyboard-response","74","482836","0.0-19.0-0.3","SS1618365781304","","","null","","","","","","<p><img src= images/blank.png width =""600"" height = ""600"" style=""position:fixed;top:50%; left:50%; transform: translate(-50%, -50%); border:5px solid black"">","","","","","","","",""
"","2659.639999998035","sequential-stimulus-presentation-old","75","486006","0.0-19.0-1.3","SS1618365781304","trial","","40","500","3159.639999998035","images/stimuli/spore_stims/complex_16_A_b.gif","images/stimuli/spore_stims/complex_15_A_a.gif","forced_short","","5","complex_dissimilar","images/stimuli/spore_stims/complex_15_A_a.gif","","","","",""
"","null","html-keyboard-response","76","486851","0.0-19.0-0.4","SS1618365781304","","","null","","","","","","<p><img src= images/blank.png width =""600"" height = ""600"" style=""position:fixed;top:50%; left:50%; transform: translate(-50%, -50%); border:5px solid black"">","","","","","","","",""
"","8108.739999996033","sequential-stimulus-presentation-old","77","495469","0.0-19.0-1.4","SS1618365781304","trial","","40","500","8608.739999996033","images/stimuli/spore_stims/complex_16_A_b.gif","images/stimuli/spore_stims/complex_15_A_a.gif","forced_short","","5","complex_dissimilar","images/stimuli/spore_stims/complex_16_A_b.gif","","","","",""
"","3754.8549999919487","survey-multi-choice","78","499229","0.0-20.0","SS1618365781304","math_question","","","","","","","","","","","","{""Q0"":""7""}","[0]","7","",""
"","null","html-keyboard-response","79","500366","0.0-21.0-0.0","SS1618365781304","","","null","","","","","","<p><img src= images/blank.png width =""600"" height = ""600"" style=""position:fixed;top:50%; left:50%; transform: translate(-50%, -50%); border:5px solid black"">","","","","","","","",""
"","1263.4350000007544","sequential-stimulus-presentation-old","80","501694","0.0-21.0-1.0","SS1618365781304","trial","","40","500","1763.4350000007544","images/stimuli/spore_stims/complex_20_A_a.gif","images/stimuli/spore_stims/complex_10_A_b.gif","forced_short","","6","complex_dissimilar","images/stimuli/spore_stims/complex_10_A_b.gif","","","","",""
"","null","html-keyboard-response","81","502645","0.0-21.0-0.1","SS1618365781304","","","null","","","","","","<p><img src= images/blank.png width =""600"" height = ""600"" style=""position:fixed;top:50%; left:50%; transform: translate(-50%, -50%); border:5px solid black"">","","","","","","","",""
"","7293.330000000424","sequential-stimulus-presentation-old","82","510451","0.0-21.0-1.1","SS1618365781304","trial","","40","500","7793.330000000424","images/stimuli/spore_stims/complex_20_A_a.gif","images/stimuli/spore_stims/complex_10_A_b.gif","forced_short","","6","complex_dissimilar","images/stimuli/spore_stims/complex_10_A_b.gif","","","","",""
"","null","html-keyboard-response","83","511481","0.0-21.0-0.2","SS1618365781304","","","null","","","","","","<p><img src= images/blank.png width =""600"" height = ""600"" style=""position:fixed;top:50%; left:50%; transform: translate(-50%, -50%); border:5px solid black"">","","","","","","","",""
"","4378.195000012056","sequential-stimulus-presentation-old","84","516378","0.0-21.0-1.2","SS1618365781304","trial","","40","500","4878.195000012056","images/stimuli/spore_stims/complex_20_A_a.gif","images/stimuli/spore_stims/complex_10_A_b.gif","forced_short","","6","complex_dissimilar","images/stimuli/spore_stims/complex_10_A_b.gif","","","","",""
"","null","html-keyboard-response","85","517318","0.0-21.0-0.3","SS1618365781304","","","null","","","","","","<p><img src= images/blank.png width =""600"" height = ""600"" style=""position:fixed;top:50%; left:50%; transform: translate(-50%, -50%); border:5px solid black"">","","","","","","","",""
"","3601.3700000039535","sequential-stimulus-presentation-old","86","521434","0.0-21.0-1.3","SS1618365781304","trial","","40","500","4101.3700000039535","images/stimuli/spore_stims/complex_20_A_a.gif","images/stimuli/spore_stims/complex_10_A_b.gif","forced_short","","6","complex_dissimilar","images/stimuli/spore_stims/complex_10_A_b.gif","","","","",""
"","null","html-keyboard-response","87","522733","0.0-21.0-0.4","SS1618365781304","","","null","","","","","","<p><img src= images/blank.png width =""600"" height = ""600"" style=""position:fixed;top:50%; left:50%; transform: translate(-50%, -50%); border:5px solid black"">","","","","","","","",""
"","12084.795000002487","sequential-stimulus-presentation-old","88","535336","0.0-21.0-1.4","SS1618365781304","trial","","40","500","12584.795000002487","images/stimuli/spore_stims/complex_20_A_a.gif","images/stimuli/spore_stims/complex_10_A_b.gif","forced_short","","6","complex_dissimilar","images/stimuli/spore_stims/complex_20_A_a.gif","","","","",""
"","3857.4850000004517","survey-multi-choice","89","539200","0.0-22.0","SS1618365781304","math_question","","","","","","","","","","","","{""Q0"":""4""}","[0]","4","",""
"","null","html-keyboard-response","90","540165","0.0-23.0-0.0","SS1618365781304","","","null","","","","","","<p><img src= images/blank.png width =""600"" height = ""600"" style=""position:fixed;top:50%; left:50%; transform: translate(-50%, -50%); border:5px solid black"">","","","","","","","",""
"","7846.5200000064215","sequential-stimulus-presentation-old","91","548526","0.0-23.0-1.0","SS1618365781304","trial","","40","500","8346.520000006421","images/stimuli/spore_stims/complex_14_A_b.gif","images/stimuli/spore_stims/complex_12_A_a.gif","self_paced","","7","complex_dissimilar","images/stimuli/spore_stims/complex_12_A_a.gif","","","","",""
"","null","html-keyboard-response","92","549666","0.0-23.0-0.1","SS1618365781304","","","null","","","","","","<p><img src= images/blank.png width =""600"" height = ""600"" style=""position:fixed;top:50%; left:50%; transform: translate(-50%, -50%); border:5px solid black"">","","","","","","","",""
"","5855.615000007674","sequential-stimulus-presentation-old","93","556036","0.0-23.0-1.1","SS1618365781304","trial","","40","500","6355.615000007674","images/stimuli/spore_stims/complex_14_A_b.gif","images/stimuli/spore_stims/complex_12_A_a.gif","self_paced","","7","complex_dissimilar","images/stimuli/spore_stims/complex_12_A_a.gif","","","","",""
"","null","html-keyboard-response","94","556873","0.0-23.0-0.2","SS1618365781304","","","null","","","","","","<p><img src= images/blank.png width =""600"" height = ""600"" style=""position:fixed;top:50%; left:50%; transform: translate(-50%, -50%); border:5px solid black"">","","","","","","","",""
"","3861.7150000063702","sequential-stimulus-presentation-old","95","561245","0.0-23.0-1.2","SS1618365781304","trial","","40","500","4361.71500000637","images/stimuli/spore_stims/complex_14_A_b.gif","images/stimuli/spore_stims/complex_12_A_a.gif","self_paced","","7","complex_dissimilar","images/stimuli/spore_stims/complex_12_A_a.gif","","","","",""
"","null","html-keyboard-response","96","562082","0.0-23.0-0.3","SS1618365781304","","","null","","","","","","<p><img src= images/blank.png width =""600"" height = ""600"" style=""position:fixed;top:50%; left:50%; transform: translate(-50%, -50%); border:5px solid black"">","","","","","","","",""
"","5665.349999995669","sequential-stimulus-presentation-old","97","568258","0.0-23.0-1.3","SS1618365781304","trial","","40","500","6165.349999995669","images/stimuli/spore_stims/complex_14_A_b.gif","images/stimuli/spore_stims/complex_12_A_a.gif","self_paced","","7","complex_dissimilar","images/stimuli/spore_stims/complex_12_A_a.gif","","","","",""
"","null","html-keyboard-response","98","569529","0.0-23.0-0.4","SS1618365781304","","","null","","","","","","<p><img src= images/blank.png width =""600"" height = ""600"" style=""position:fixed;top:50%; left:50%; transform: translate(-50%, -50%); border:5px solid black"">","","","","","","","",""
"","7352.070000008098","sequential-stimulus-presentation-old","99","577395","0.0-23.0-1.4","SS1618365781304","trial","","40","500","7852.070000008098","images/stimuli/spore_stims/complex_14_A_b.gif","images/stimuli/spore_stims/complex_12_A_a.gif","self_paced","","7","complex_dissimilar","images/stimuli/spore_stims/complex_14_A_b.gif","","","","",""
"","null","html-keyboard-response","100","578224","0.0-23.0-0.5","SS1618365781304","","","null","","","","","","<p><img src= images/blank.png width =""600"" height = ""600"" style=""position:fixed;top:50%; left:50%; transform: translate(-50%, -50%); border:5px solid black"">","","","","","","","",""
"","1724.7599999973318","sequential-stimulus-presentation-old","101","580465","0.0-23.0-1.5","SS1618365781304","trial","","40","500","2224.7599999973318","images/stimuli/spore_stims/complex_14_A_b.gif","images/stimuli/spore_stims/complex_12_A_a.gif","self_paced","","7","complex_dissimilar","images/stimuli/spore_stims/complex_14_A_b.gif","","","","",""
"","5202.229999995325","survey-multi-choice","102","585674","0.0-24.0","SS1618365781304","math_question","","","","","","","","","","","","{""Q0"":""12""}","[0]","12","",""
"","null","html-keyboard-response","103","586508","0.0-25.0-0.0","SS1618365781304","","","null","","","","","","<p><img src= images/blank.png width =""600"" height = ""600"" style=""position:fixed;top:50%; left:50%; transform: translate(-50%, -50%); border:5px solid black"">","","","","","","","",""
"","12769.839999993565","sequential-stimulus-presentation-old","104","599801","0.0-25.0-1.0","SS1618365781304","trial","","40","500","13269.839999993565","images/stimuli/spore_stims/simple_16_A_b.gif","images/stimuli/spore_stims/simple_02_A_a.gif","self_paced","","8","simple_dissimilar","images/stimuli/spore_stims/simple_02_A_a.gif","","","","",""
"","null","html-keyboard-response","105","600625","0.0-25.0-0.1","SS1618365781304","","","null","","","","","","<p><img src= images/blank.png width =""600"" height = ""600"" style=""position:fixed;top:50%; left:50%; transform: translate(-50%, -50%); border:5px solid black"">","","","","","","","",""
"","19746.5050000028","sequential-stimulus-presentation-old","106","620885","0.0-25.0-1.1","SS1618365781304","trial","","40","500","20246.5050000028","images/stimuli/spore_stims/simple_16_A_b.gif","images/stimuli/spore_stims/simple_02_A_a.gif","self_paced","","8","simple_dissimilar","images/stimuli/spore_stims/simple_02_A_a.gif","","","","",""
"","null","html-keyboard-response","107","622198","0.0-25.0-0.2","SS1618365781304","","","null","","","","","","<p><img src= images/blank.png width =""600"" height = ""600"" style=""position:fixed;top:50%; left:50%; transform: translate(-50%, -50%); border:5px solid black"">","","","","","","","",""
"","2392.775000000256","sequential-stimulus-presentation-old","108","625101","0.0-25.0-1.2","SS1618365781304","trial","","40","500","2892.775000000256","images/stimuli/spore_stims/simple_16_A_b.gif","images/stimuli/spore_stims/simple_02_A_a.gif","self_paced","","8","simple_dissimilar","images/stimuli/spore_stims/simple_02_A_a.gif","","","","",""
"","null","html-keyboard-response","109","626148","0.0-25.0-0.3","SS1618365781304","","","null","","","","","","<p><img src= images/blank.png width =""600"" height = ""600"" style=""position:fixed;top:50%; left:50%; transform: translate(-50%, -50%); border:5px solid black"">","","","","","","","",""
"","2952.485000001616","sequential-stimulus-presentation-old","110","629611","0.0-25.0-1.3","SS1618365781304","trial","","40","500","3452.485000001616","images/stimuli/spore_stims/simple_16_A_b.gif","images/stimuli/spore_stims/simple_02_A_a.gif","self_paced","","8","simple_dissimilar","images/stimuli/spore_stims/simple_16_A_b.gif","","","","",""
"","3768.530000001192","survey-multi-choice","111","633388","0.0-26.0","SS1618365781304","math_question","","","","","","","","","","","","{""Q0"":""11""}","[0]","11","",""
"","null","html-keyboard-response","112","634451","0.0-27.0-0.0","SS1618365781304","","","null","","","","","","<p><img src= images/blank.png width =""600"" height = ""600"" style=""position:fixed;top:50%; left:50%; transform: translate(-50%, -50%); border:5px solid black"">","","","","","","","",""
"","4757.809999995516","sequential-stimulus-presentation-old","113","639721","0.0-27.0-1.0","SS1618365781304","trial","","40","500","5257.809999995516","images/stimuli/spore_stims/simple_06_A_a.gif","images/stimuli/spore_stims/simple_10_A_b.gif","self_paced","","9","simple_dissimilar","images/stimuli/spore_stims/simple_10_A_b.gif","","","","",""
"","null","html-keyboard-response","114","641033","0.0-27.0-0.1","SS1618365781304","","","null","","","","","","<p><img src= images/blank.png width =""600"" height = ""600"" style=""position:fixed;top:50%; left:50%; transform: translate(-50%, -50%); border:5px solid black"">","","","","","","","",""
"","4713.459999999031","sequential-stimulus-presentation-old","115","646257","0.0-27.0-1.1","SS1618365781304","trial","","40","500","5213.459999999031","images/stimuli/spore_stims/simple_06_A_a.gif","images/stimuli/spore_stims/simple_10_A_b.gif","self_paced","","9","simple_dissimilar","images/stimuli/spore_stims/simple_10_A_b.gif","","","","",""
"","null","html-keyboard-response","116","647512","0.0-27.0-0.2","SS1618365781304","","","null","","","","","","<p><img src= images/blank.png width =""600"" height = ""600"" style=""position:fixed;top:50%; left:50%; transform: translate(-50%, -50%); border:5px solid black"">","","","","","","","",""
"","2194.7050000017043","sequential-stimulus-presentation-old","117","650216","0.0-27.0-1.2","SS1618365781304","trial","","40","500","2694.7050000017043","images/stimuli/spore_stims/simple_06_A_a.gif","images/stimuli/spore_stims/simple_10_A_b.gif","self_paced","","9","simple_dissimilar","images/stimuli/spore_stims/simple_10_A_b.gif","","","","",""
"","null","html-keyboard-response","118","651273","0.0-27.0-0.3","SS1618365781304","","","null","","","","","","<p><img src= images/blank.png width =""600"" height = ""600"" style=""position:fixed;top:50%; left:50%; transform: translate(-50%, -50%); border:5px solid black"">","","","","","","","",""
"","2280.4199999955017","sequential-stimulus-presentation-old","119","654063","0.0-27.0-1.3","SS1618365781304","trial","","40","500","2780.4199999955017","images/stimuli/spore_stims/simple_06_A_a.gif","images/stimuli/spore_stims/simple_10_A_b.gif","self_paced","","9","simple_dissimilar","images/stimuli/spore_stims/simple_10_A_b.gif","","","","",""
"","3186.1550000030547","survey-multi-choice","120","657256","0.0-28.0","SS1618365781304","math_question","","","","","","","","","","","","{""Q0"":""9""}","[0]","9","",""
"","null","html-keyboard-response","121","658239","0.0-29.0-0.0","SS1618365781304","","","null","","","","","","<p><img src= images/blank.png width =""600"" height = ""600"" style=""position:fixed;top:50%; left:50%; transform: translate(-50%, -50%); border:5px solid black"">","","","","","","","",""
"","532.0799999899464","sequential-stimulus-presentation-old","122","663790","0.0-29.0-1.0","SS1618365781304","trial","","40","500","1032.0799999899464","images/stimuli/spore_stims/simple_13_A_a.gif","images/stimuli/spore_stims/simple_17_A_b.gif","forced_long","","10","simple_dissimilar","images/stimuli/spore_stims/simple_17_A_b.gif","","","","",""
"","null","html-keyboard-response","123","664898","0.0-29.0-0.1","SS1618365781304","","","null","","","","","","<p><img src= images/blank.png width =""600"" height = ""600"" style=""position:fixed;top:50%; left:50%; transform: translate(-50%, -50%); border:5px solid black"">","","","","","","","",""
"","3693.6549999954877","sequential-stimulus-presentation-old","124","669102","0.0-29.0-1.1","SS1618365781304","trial","","40","500","4193.654999995488","images/stimuli/spore_stims/simple_13_A_a.gif","images/stimuli/spore_stims/simple_17_A_b.gif","forced_long","","10","simple_dissimilar","images/stimuli/spore_stims/simple_17_A_b.gif","","","","",""
"","null","html-keyboard-response","125","670161","0.0-29.0-0.2","SS1618365781304","","","null","","","","","","<p><img src= images/blank.png width =""600"" height = ""600"" style=""position:fixed;top:50%; left:50%; transform: translate(-50%, -50%); border:5px solid black"">","","","","","","","",""
"","3634.3099999940023","sequential-stimulus-presentation-old","126","674309","0.0-29.0-1.2","SS1618365781304","trial","","40","500","4134.309999994002","images/stimuli/spore_stims/simple_13_A_a.gif","images/stimuli/spore_stims/simple_17_A_b.gif","forced_long","","10","simple_dissimilar","images/stimuli/spore_stims/simple_17_A_b.gif","","","","",""
"","null","html-keyboard-response","127","675120","0.0-29.0-0.3","SS1618365781304","","","null","","","","","","<p><img src= images/blank.png width =""600"" height = ""600"" style=""position:fixed;top:50%; left:50%; transform: translate(-50%, -50%); border:5px solid black"">","","","","","","","",""
"","2653.390000006766","sequential-stimulus-presentation-old","128","678284","0.0-29.0-1.3","SS1618365781304","trial","","40","500","3153.390000006766","images/stimuli/spore_stims/simple_13_A_a.gif","images/stimuli/spore_stims/simple_17_A_b.gif","forced_long","","10","simple_dissimilar","images/stimuli/spore_stims/simple_17_A_b.gif","","","","",""
"","4447.855000005802","survey-multi-choice","129","682740","0.0-30.0","SS1618365781304","math_question","","","","","","","","","","","","{""Q0"":""18""}","[0]","18","",""
"","null","html-keyboard-response","130","683879","0.0-31.0-0.0","SS1618365781304","","","null","","","","","","<p><img src= images/blank.png width =""600"" height = ""600"" style=""position:fixed;top:50%; left:50%; transform: translate(-50%, -50%); border:5px solid black"">","","","","","","","",""
"","6143.035000000964","sequential-stimulus-presentation-old","131","690533","0.0-31.0-1.0","SS1618365781304","trial","","40","500","6643.035000000964","images/stimuli/spore_stims/complex_12_A_b.gif","images/stimuli/spore_stims/complex_06_A_a.gif","self_paced","","11","complex_dissimilar","images/stimuli/spore_stims/complex_06_A_a.gif","","","","",""
"","null","html-keyboard-response","132","691803","0.0-31.0-0.1","SS1618365781304","","","null","","","","","","<p><img src= images/blank.png width =""600"" height = ""600"" style=""position:fixed;top:50%; left:50%; transform: translate(-50%, -50%); border:5px solid black"">","","","","","","","",""
"","4508.68499999342","sequential-stimulus-presentation-old","133","696827","0.0-31.0-1.1","SS1618365781304","trial","","40","500","5008.68499999342","images/stimuli/spore_stims/complex_12_A_b.gif","images/stimuli/spore_stims/complex_06_A_a.gif","self_paced","","11","complex_dissimilar","images/stimuli/spore_stims/complex_06_A_a.gif","","","","",""
"","null","html-keyboard-response","134","698102","0.0-31.0-0.2","SS1618365781304","","","null","","","","","","<p><img src= images/blank.png width =""600"" height = ""600"" style=""position:fixed;top:50%; left:50%; transform: translate(-50%, -50%); border:5px solid black"">","","","","","","","",""
"","3963.545000005979","sequential-stimulus-presentation-old","135","702577","0.0-31.0-1.2","SS1618365781304","trial","","40","500","4463.545000005979","images/stimuli/spore_stims/complex_12_A_b.gif","images/stimuli/spore_stims/complex_06_A_a.gif","self_paced","","11","complex_dissimilar","images/stimuli/spore_stims/complex_12_A_b.gif","","","","",""
"","null","html-keyboard-response","136","703796","0.0-31.0-0.3","SS1618365781304","","","null","","","","","","<p><img src= images/blank.png width =""600"" height = ""600"" style=""position:fixed;top:50%; left:50%; transform: translate(-50%, -50%); border:5px solid black"">","","","","","","","",""
"","2610.164999990957","sequential-stimulus-presentation-old","137","706921","0.0-31.0-1.3","SS1618365781304","trial","","40","500","3110.164999990957","images/stimuli/spore_stims/complex_12_A_b.gif","images/stimuli/spore_stims/complex_06_A_a.gif","self_paced","","11","complex_dissimilar","images/stimuli/spore_stims/complex_06_A_a.gif","","","","",""
"","null","html-keyboard-response","138","707790","0.0-31.0-0.4","SS1618365781304","","","null","","","","","","<p><img src= images/blank.png width =""600"" height = ""600"" style=""position:fixed;top:50%; left:50%; transform: translate(-50%, -50%); border:5px solid black"">","","","","","","","",""
"","2821.570000000065","sequential-stimulus-presentation-old","139","711129","0.0-31.0-1.4","SS1618365781304","trial","","40","500","3321.570000000065","images/stimuli/spore_stims/complex_12_A_b.gif","images/stimuli/spore_stims/complex_06_A_a.gif","self_paced","","11","complex_dissimilar","images/stimuli/spore_stims/complex_12_A_b.gif","","","","",""
"[{""page_index"":0,""viewing_time"":5501.524999999674}]","5501.989999989746","instructions","140","716639","0.0-32.0","SS1618365781304","instructions","","","","","","","","","","","","","","","",""
"","6894.734999994398","survey-likert","141","723544","0.0-33.0","SS1618365781304","similarity_question","","","","","","","","","","","","{""Q0"":4}","[0]","","images/stimuli/spore_stims/simple_07_A_b.gif","images/stimuli/spore_stims/simple_20_A_a.gif"
"","5558.67000001308","survey-likert","142","729110","0.0-34.0","SS1618365781304","similarity_question","","","","","","","","","","","","{""Q0"":5}","[0]","","images/stimuli/spore_stims/simple_03_A_b.gif","images/stimuli/spore_stims/simple_12_A_a.gif"
"","6254.464999990887","survey-likert","143","735373","0.0-35.0","SS1618365781304","similarity_question","","","","","","","","","","","","{""Q0"":3}","[0]","","images/stimuli/spore_stims/simple_07_A_a.gif","images/stimuli/spore_stims/simple_11_A_b.gif"
"","3846.675000007963","survey-likert","144","739229","0.0-36.0","SS1618365781304","similarity_question","","","","","","","","","","","","{""Q0"":6}","[0]","","images/stimuli/spore_stims/simple_17_A_b.gif","images/stimuli/spore_stims/simple_13_A_a.gif"
"","2815.580000009504","survey-likert","145","742052","0.0-37.0","SS1618365781304","similarity_question","","","","","","","","","","","","{""Q0"":6}","[0]","","images/stimuli/spore_stims/simple_10_A_b.gif","images/stimuli/spore_stims/simple_06_A_a.gif"
"","8628.029999992577","survey-likert","146","750690","0.0-38.0","SS1618365781304","similarity_question","","","","","","","","","","","","{""Q0"":2}","[0]","","images/stimuli/spore_stims/complex_14_A_b.gif","images/stimuli/spore_stims/complex_12_A_a.gif"
"","5062.640000003739","survey-likert","147","755762","0.0-39.0","SS1618365781304","similarity_question","","","","","","","","","","","","{""Q0"":1}","[0]","","images/stimuli/spore_stims/complex_15_A_a.gif","images/stimuli/spore_stims/complex_16_A_b.gif"
"","4951.759999996284","survey-likert","148","760722","0.0-40.0","SS1618365781304","similarity_question","","","","","","","","","","","","{""Q0"":1}","[0]","","images/stimuli/spore_stims/complex_12_A_b.gif","images/stimuli/spore_stims/complex_06_A_a.gif"
"","4803.985000005923","survey-likert","149","765545","0.0-41.0","SS1618365781304","similarity_question","","","","","","","","","","","","{""Q0"":0}","[0]","","images/stimuli/spore_stims/complex_18_A_b.gif","images/stimuli/spore_stims/complex_10_A_a.gif"
"","5079.219999999623","survey-likert","150","770632","0.0-42.0","SS1618365781304","similarity_question","","","","","","","","","","","","{""Q0"":0}","[0]","","images/stimuli/spore_stims/complex_11_A_a.gif","images/stimuli/spore_stims/complex_02_A_b.gif"
"","4959.930000011809","survey-likert","151","775600","0.0-43.0","SS1618365781304","similarity_question","","","","","","","","","","","","{""Q0"":5}","[0]","","images/stimuli/spore_stims/simple_16_A_b.gif","images/stimuli/spore_stims/simple_02_A_a.gif"
"","6813.114999997197","survey-likert","152","782430","0.0-44.0","SS1618365781304","similarity_question","","","","","","","","","","","","{""Q0"":3}","[0]","","images/stimuli/spore_stims/complex_20_A_a.gif","images/stimuli/spore_stims/complex_10_A_b.gif"
"[{""page_index"":0,""viewing_time"":3112.3399999924004}]","3113.0899999989197","instructions","153","785550","0.0-45.0","SS1618365781304","instructions","","","","","","","","","","","","","","","",""
"","6193.505000002915","survey-likert","154","791757","0.0-46.0","SS1618365781304","","","","","","","","","images/stimuli/spore_stims/simple_12_A_a.gif","","","","{""Q0"":1}","[0]","","",""
"","4022.0550000085495","survey-likert","155","795788","0.0-47.0","SS1618365781304","","","","","","","","","images/stimuli/spore_stims/complex_16_A_b.gif","","","","{""Q0"":6}","[0]","","",""
"","2991.439999997965","survey-likert","156","798788","0.0-48.0","SS1618365781304","","","","","","","","","images/stimuli/spore_stims/complex_14_A_b.gif","","","","{""Q0"":6}","[0]","","",""
"","6054.640000002109","survey-likert","157","804852","0.0-49.0","SS1618365781304","","","","","","","","","images/stimuli/spore_stims/simple_20_A_a.gif","","","","{""Q0"":1}","[0]","","",""
"","3504.3600000062725","survey-likert","158","808370","0.0-50.0","SS1618365781304","","","","","","","","","images/stimuli/spore_stims/complex_11_A_a.gif","","","","{""Q0"":5}","[0]","","",""
"","4389.934999999241","survey-likert","159","812770","0.0-51.0","SS1618365781304","","","","","","","","","images/stimuli/spore_stims/simple_17_A_b.gif","","","","{""Q0"":0}","[0]","","",""
"","2335.290000002715","survey-likert","160","815114","0.0-52.0","SS1618365781304","","","","","","","","","images/stimuli/spore_stims/simple_07_A_a.gif","","","","{""Q0"":0}","[0]","","",""
"","2496.4599999948405","survey-likert","161","817617","0.0-53.0","SS1618365781304","","","","","","","","","images/stimuli/spore_stims/complex_20_A_a.gif","","","","{""Q0"":6}","[0]","","",""
"","2957.139999998617","survey-likert","162","820585","0.0-54.0","SS1618365781304","","","","","","","","","images/stimuli/spore_stims/complex_06_A_a.gif","","","","{""Q0"":6}","[0]","","",""
"","2542.7550000022165","survey-likert","163","823137","0.0-55.0","SS1618365781304","","","","","","","","","images/stimuli/spore_stims/complex_18_A_b.gif","","","","{""Q0"":6}","[0]","","",""
"","3574.254999999539","survey-likert","164","826720","0.0-56.0","SS1618365781304","","","","","","","","","images/stimuli/spore_stims/simple_02_A_a.gif","","","","{""Q0"":0}","[0]","","",""
"","3142.970000000787","survey-likert","165","829872","0.0-57.0","SS1618365781304","","","","","","","","","images/stimuli/spore_stims/simple_10_A_b.gif","","","","{""Q0"":0}","[0]","","",""
"[{""page_index"":0,""viewing_time"":2489.1849999985425}]","2489.9200000072597","instructions","166","832368","0.0-58.0","SS1618365781304","instructions","","","","","","","","","","","","","","","",""
"","3757.865000006859","demog-age","167","836146","0.0-59.0","SS1618365781304","","","","","","","","","","","","","{""age"":""37""}","","","",""
"","5135.129999995115","demog-ethnic-US","168","841295","0.0-60.0","SS1618365781304","","","","","","","","","","","","","{""ethnicity"":[""Hispanic or Latino""]}","[0]","","",""
"","5830.1300000021","demog-gender-and-education","169","847135","0.0-61.0","SS1618365781304","","","","","","","","","","","","","{""gender"":""Female"",""education"":""Master's Degree""}","[0,1]","","",""
"","57000.700000004144","survey-text","170","904150","0.0-62.0","SS1618365781304","feedback","","","","","","","","","","","","{""Q0"":""all good""}","","","",""
"[{""page_index"":0,""viewing_time"":1832.5699999986682}]","1833.2499999960419","instructions","171","905989","0.0-63.0","SS1618365781304","instructions","","","","","","","","","","","","","","","",""
