"view_history","rt","trial_type","trial_index","time_elapsed","internal_node_id","subject","stimulus_type","trial_stimulus","key_press","minimum_viewing_duration","trial_looking_time","block_deviant","block_background","exposure_type","stimulus","block_number","block_type","stimulus_displayed","responses","question_order","math_correct_answer","stimulus_left","stimulus_right"
"[{""page_index"":0,""viewing_time"":6687.550000002375}]","6688.62000000081","instructions","0","6690","0.0-0.0","SS1618435638397","","","","","","","","","","","","","","","","",""
"[{""page_index"":0,""viewing_time"":20509.16000000143},{""page_index"":1,""viewing_time"":6419.370000003255}]","26928.76999999862","instructions","1","35628","0.0-1.0","SS1618435638397","instructions","","","","","","","","","","","","","","","",""
"","6634.4950000057","sequential-stimulus-presentation-old","2","42763","0.0-2.0","SS1618435638397","","","40","500","7134.4950000057","null","null","self_paced","","","","","","","","",""
"","6074.735000001965","sequential-stimulus-presentation-old","3","49344","0.0-3.0","SS1618435638397","","","40","500","6574.735000001965","null","null","self_paced","","","","","","","","",""
"[{""page_index"":0,""viewing_time"":29596.7149999924}]","29597.020000001066","instructions","4","78943","0.0-4.0","SS1618435638397","instructions","","","","","","","","","","","","","","","",""
"","6549.249999996391","sequential-stimulus-presentation-old","5","90498","0.0-5.0","SS1618435638397","","","40","500","7049.249999996391","null","null","forced_long","","","","","","","","",""
"","6042.279999994207","sequential-stimulus-presentation-old","6","96600","0.0-6.0","SS1618435638397","","","40","50","6092.279999994207","null","null","forced_long","","","","","","","","",""
"[{""page_index"":0,""viewing_time"":3309.8299999983283}]","3310.0500000000466","instructions","7","99912","0.0-7.0","SS1618435638397","instructions","","","","","","","","","","","","","","","",""
"[{""page_index"":0,""viewing_time"":18068.299999999},{""page_index"":1,""viewing_time"":19494.070000000647},{""page_index"":2,""viewing_time"":8313.215000001946},{""page_index"":3,""viewing_time"":2034.8200000007637},{""page_index"":4,""viewing_time"":1359.5000000059372}]","49270.12000000104","instructions","8","149183","0.0-8.0","SS1618435638397","instructions","","","","","","","","","","","","","","","",""
"","null","html-keyboard-response","9","150470","0.0-9.0-0.0","SS1618435638397","","","null","","","","","","<p><img src= images/blank.png width =""600"" height = ""600"" style=""position:fixed;top:50%; left:50%; transform: translate(-50%, -50%); border:5px solid black"">","","","","","","","",""
"","2735.164999990957","sequential-stimulus-presentation-old","10","153274","0.0-9.0-1.0","SS1618435638397","trial","","40","500","3235.164999990957","images/stimuli/spore_stims/complex_03_A_a.gif","images/stimuli/spore_stims/complex_14_A_b.gif","forced_short","","0","complex_dissimilar","images/stimuli/spore_stims/complex_14_A_b.gif","","","","",""
"","null","html-keyboard-response","11","154385","0.0-9.0-0.1","SS1618435638397","","","null","","","","","","<p><img src= images/blank.png width =""600"" height = ""600"" style=""position:fixed;top:50%; left:50%; transform: translate(-50%, -50%); border:5px solid black"">","","","","","","","",""
"","24678.729999999632","sequential-stimulus-presentation-old","12","179572","0.0-9.0-1.1","SS1618435638397","trial","","40","500","25178.729999999632","images/stimuli/spore_stims/complex_03_A_a.gif","images/stimuli/spore_stims/complex_14_A_b.gif","forced_short","","0","complex_dissimilar","images/stimuli/spore_stims/complex_14_A_b.gif","","","","",""
"","null","html-keyboard-response","13","180783","0.0-9.0-0.2","SS1618435638397","","","null","","","","","","<p><img src= images/blank.png width =""600"" height = ""600"" style=""position:fixed;top:50%; left:50%; transform: translate(-50%, -50%); border:5px solid black"">","","","","","","","",""
"","2850.174999999581","sequential-stimulus-presentation-old","14","184143","0.0-9.0-1.2","SS1618435638397","trial","","40","500","3350.174999999581","images/stimuli/spore_stims/complex_03_A_a.gif","images/stimuli/spore_stims/complex_14_A_b.gif","forced_short","","0","complex_dissimilar","images/stimuli/spore_stims/complex_14_A_b.gif","","","","",""
"","null","html-keyboard-response","15","185123","0.0-9.0-0.3","SS1618435638397","","","null","","","","","","<p><img src= images/blank.png width =""600"" height = ""600"" style=""position:fixed;top:50%; left:50%; transform: translate(-50%, -50%); border:5px solid black"">","","","","","","","",""
"","6959.610000005341","sequential-stimulus-presentation-old","16","192593","0.0-9.0-1.3","SS1618435638397","trial","","40","500","7459.610000005341","images/stimuli/spore_stims/complex_03_A_a.gif","images/stimuli/spore_stims/complex_14_A_b.gif","forced_short","","0","complex_dissimilar","images/stimuli/spore_stims/complex_14_A_b.gif","","","","",""
"","null","html-keyboard-response","17","193614","0.0-9.0-0.4","SS1618435638397","","","null","","","","","","<p><img src= images/blank.png width =""600"" height = ""600"" style=""position:fixed;top:50%; left:50%; transform: translate(-50%, -50%); border:5px solid black"">","","","","","","","",""
"","3560.654999993858","sequential-stimulus-presentation-old","18","197685","0.0-9.0-1.4","SS1618435638397","trial","","40","500","4060.654999993858","images/stimuli/spore_stims/complex_03_A_a.gif","images/stimuli/spore_stims/complex_14_A_b.gif","forced_short","","0","complex_dissimilar","images/stimuli/spore_stims/complex_14_A_b.gif","","","","",""
"","10007.720000008703","survey-multi-choice","19","207706","0.0-10.0","SS1618435638397","math_question","","","","","","","","","","","","{""Q0"":""6""}","[0]","6","",""
"","null","html-keyboard-response","20","208762","0.0-11.0-0.0","SS1618435638397","","","null","","","","","","<p><img src= images/blank.png width =""600"" height = ""600"" style=""position:fixed;top:50%; left:50%; transform: translate(-50%, -50%); border:5px solid black"">","","","","","","","",""
"","4808.325000005425","sequential-stimulus-presentation-old","21","213632","0.0-11.0-1.0","SS1618435638397","trial","","40","500","5308.325000005425","images/stimuli/spore_stims/complex_16_A_b.gif","images/stimuli/spore_stims/complex_15_A_a.gif","forced_short","","1","complex_dissimilar","images/stimuli/spore_stims/complex_15_A_a.gif","","","","",""
"","null","html-keyboard-response","22","214564","0.0-11.0-0.1","SS1618435638397","","","null","","","","","","<p><img src= images/blank.png width =""600"" height = ""600"" style=""position:fixed;top:50%; left:50%; transform: translate(-50%, -50%); border:5px solid black"">","","","","","","","",""
"","9238.435000006575","sequential-stimulus-presentation-old","23","224315","0.0-11.0-1.1","SS1618435638397","trial","","40","500","9738.435000006575","images/stimuli/spore_stims/complex_16_A_b.gif","images/stimuli/spore_stims/complex_15_A_a.gif","forced_short","","1","complex_dissimilar","images/stimuli/spore_stims/complex_16_A_b.gif","","","","",""
"","null","html-keyboard-response","24","225178","0.0-11.0-0.2","SS1618435638397","","","null","","","","","","<p><img src= images/blank.png width =""600"" height = ""600"" style=""position:fixed;top:50%; left:50%; transform: translate(-50%, -50%); border:5px solid black"">","","","","","","","",""
"","6369.4350000005215","sequential-stimulus-presentation-old","25","232054","0.0-11.0-1.2","SS1618435638397","trial","","40","500","6869.4350000005215","images/stimuli/spore_stims/complex_16_A_b.gif","images/stimuli/spore_stims/complex_15_A_a.gif","forced_short","","1","complex_dissimilar","images/stimuli/spore_stims/complex_15_A_a.gif","","","","",""
"","null","html-keyboard-response","26","233233","0.0-11.0-0.3","SS1618435638397","","","null","","","","","","<p><img src= images/blank.png width =""600"" height = ""600"" style=""position:fixed;top:50%; left:50%; transform: translate(-50%, -50%); border:5px solid black"">","","","","","","","",""
"","3478.719999999157","sequential-stimulus-presentation-old","27","237221","0.0-11.0-1.3","SS1618435638397","trial","","40","500","3978.719999999157","images/stimuli/spore_stims/complex_16_A_b.gif","images/stimuli/spore_stims/complex_15_A_a.gif","forced_short","","1","complex_dissimilar","images/stimuli/spore_stims/complex_15_A_a.gif","","","","",""
"","null","html-keyboard-response","28","238273","0.0-11.0-0.4","SS1618435638397","","","null","","","","","","<p><img src= images/blank.png width =""600"" height = ""600"" style=""position:fixed;top:50%; left:50%; transform: translate(-50%, -50%); border:5px solid black"">","","","","","","","",""
"","2779.534999994212","sequential-stimulus-presentation-old","29","241555","0.0-11.0-1.4","SS1618435638397","trial","","40","500","3279.534999994212","images/stimuli/spore_stims/complex_16_A_b.gif","images/stimuli/spore_stims/complex_15_A_a.gif","forced_short","","1","complex_dissimilar","images/stimuli/spore_stims/complex_15_A_a.gif","","","","",""
"","2911.1850000044797","survey-multi-choice","30","244468","0.0-12.0","SS1618435638397","math_question","","","","","","","","","","","","{""Q0"":""12""}","[0]","12","",""
"","null","html-keyboard-response","31","245329","0.0-13.0-0.0","SS1618435638397","","","null","","","","","","<p><img src= images/blank.png width =""600"" height = ""600"" style=""position:fixed;top:50%; left:50%; transform: translate(-50%, -50%); border:5px solid black"">","","","","","","","",""
"","19381.554999999935","sequential-stimulus-presentation-old","32","265221","0.0-13.0-1.0","SS1618435638397","trial","","40","500","19881.554999999935","images/stimuli/spore_stims/complex_12_A_b.gif","images/stimuli/spore_stims/complex_07_A_a.gif","self_paced","","2","complex_dissimilar","images/stimuli/spore_stims/complex_07_A_a.gif","","","","",""
"","null","html-keyboard-response","33","266146","0.0-13.0-0.1","SS1618435638397","","","null","","","","","","<p><img src= images/blank.png width =""600"" height = ""600"" style=""position:fixed;top:50%; left:50%; transform: translate(-50%, -50%); border:5px solid black"">","","","","","","","",""
"","577.8299999947194","sequential-stimulus-presentation-old","34","267235","0.0-13.0-1.1","SS1618435638397","trial","","40","500","1077.8299999947194","images/stimuli/spore_stims/complex_12_A_b.gif","images/stimuli/spore_stims/complex_07_A_a.gif","self_paced","","2","complex_dissimilar","images/stimuli/spore_stims/complex_12_A_b.gif","","","","",""
"","null","html-keyboard-response","35","268541","0.0-13.0-0.2","SS1618435638397","","","null","","","","","","<p><img src= images/blank.png width =""600"" height = ""600"" style=""position:fixed;top:50%; left:50%; transform: translate(-50%, -50%); border:5px solid black"">","","","","","","","",""
"","2626.625000004424","sequential-stimulus-presentation-old","36","271671","0.0-13.0-1.2","SS1618435638397","trial","","40","500","3126.625000004424","images/stimuli/spore_stims/complex_12_A_b.gif","images/stimuli/spore_stims/complex_07_A_a.gif","self_paced","","2","complex_dissimilar","images/stimuli/spore_stims/complex_07_A_a.gif","","","","",""
"","null","html-keyboard-response","37","272829","0.0-13.0-0.3","SS1618435638397","","","null","","","","","","<p><img src= images/blank.png width =""600"" height = ""600"" style=""position:fixed;top:50%; left:50%; transform: translate(-50%, -50%); border:5px solid black"">","","","","","","","",""
"","601.0399999941001","sequential-stimulus-presentation-old","38","273941","0.0-13.0-1.3","SS1618435638397","trial","","40","500","1101.0399999941","images/stimuli/spore_stims/complex_12_A_b.gif","images/stimuli/spore_stims/complex_07_A_a.gif","self_paced","","2","complex_dissimilar","images/stimuli/spore_stims/complex_07_A_a.gif","","","","",""
"","null","html-keyboard-response","39","274830","0.0-13.0-0.4","SS1618435638397","","","null","","","","","","<p><img src= images/blank.png width =""600"" height = ""600"" style=""position:fixed;top:50%; left:50%; transform: translate(-50%, -50%); border:5px solid black"">","","","","","","","",""
"","4792.044999994687","sequential-stimulus-presentation-old","40","280132","0.0-13.0-1.4","SS1618435638397","trial","","40","500","5292.044999994687","images/stimuli/spore_stims/complex_12_A_b.gif","images/stimuli/spore_stims/complex_07_A_a.gif","self_paced","","2","complex_dissimilar","images/stimuli/spore_stims/complex_12_A_b.gif","","","","",""
"","null","html-keyboard-response","41","281340","0.0-13.0-0.5","SS1618435638397","","","null","","","","","","<p><img src= images/blank.png width =""600"" height = ""600"" style=""position:fixed;top:50%; left:50%; transform: translate(-50%, -50%); border:5px solid black"">","","","","","","","",""
"","581.0199999978067","sequential-stimulus-presentation-old","42","282426","0.0-13.0-1.5","SS1618435638397","trial","","40","500","1081.0199999978067","images/stimuli/spore_stims/complex_12_A_b.gif","images/stimuli/spore_stims/complex_07_A_a.gif","self_paced","","2","complex_dissimilar","images/stimuli/spore_stims/complex_07_A_a.gif","","","","",""
"","3061.1599999974715","survey-multi-choice","43","285489","0.0-14.0","SS1618435638397","math_question","","","","","","","","","","","","{""Q0"":""6""}","[0]","6","",""
"","null","html-keyboard-response","44","286507","0.0-15.0-0.0","SS1618435638397","","","null","","","","","","<p><img src= images/blank.png width =""600"" height = ""600"" style=""position:fixed;top:50%; left:50%; transform: translate(-50%, -50%); border:5px solid black"">","","","","","","","",""
"","3591.3299999956507","sequential-stimulus-presentation-old","45","290154","0.0-15.0-1.0","SS1618435638397","trial","","40","500","4091.3299999956507","images/stimuli/spore_stims/simple_12_A_b.gif","images/stimuli/spore_stims/simple_16_A_a.gif","forced_short","","3","simple_dissimilar","images/stimuli/spore_stims/simple_16_A_a.gif","","","","",""
"","null","html-keyboard-response","46","291114","0.0-15.0-0.1","SS1618435638397","","","null","","","","","","<p><img src= images/blank.png width =""600"" height = ""600"" style=""position:fixed;top:50%; left:50%; transform: translate(-50%, -50%); border:5px solid black"">","","","","","","","",""
"","3207.5849999964703","sequential-stimulus-presentation-old","47","294828","0.0-15.0-1.1","SS1618435638397","trial","","40","500","3707.5849999964703","images/stimuli/spore_stims/simple_12_A_b.gif","images/stimuli/spore_stims/simple_16_A_a.gif","forced_short","","3","simple_dissimilar","images/stimuli/spore_stims/simple_16_A_a.gif","","","","",""
"","null","html-keyboard-response","48","295770","0.0-15.0-0.2","SS1618435638397","","","null","","","","","","<p><img src= images/blank.png width =""600"" height = ""600"" style=""position:fixed;top:50%; left:50%; transform: translate(-50%, -50%); border:5px solid black"">","","","","","","","",""
"","2070.2949999977136","sequential-stimulus-presentation-old","49","298350","0.0-15.0-1.2","SS1618435638397","trial","","40","500","2570.2949999977136","images/stimuli/spore_stims/simple_12_A_b.gif","images/stimuli/spore_stims/simple_16_A_a.gif","forced_short","","3","simple_dissimilar","images/stimuli/spore_stims/simple_16_A_a.gif","","","","",""
"","null","html-keyboard-response","50","299259","0.0-15.0-0.3","SS1618435638397","","","null","","","","","","<p><img src= images/blank.png width =""600"" height = ""600"" style=""position:fixed;top:50%; left:50%; transform: translate(-50%, -50%); border:5px solid black"">","","","","","","","",""
"","528.7850000022445","sequential-stimulus-presentation-old","51","300299","0.0-15.0-1.3","SS1618435638397","trial","","40","500","1028.7850000022445","images/stimuli/spore_stims/simple_12_A_b.gif","images/stimuli/spore_stims/simple_16_A_a.gif","forced_short","","3","simple_dissimilar","images/stimuli/spore_stims/simple_12_A_b.gif","","","","",""
"","null","html-keyboard-response","52","301290","0.0-15.0-0.4","SS1618435638397","","","null","","","","","","<p><img src= images/blank.png width =""600"" height = ""600"" style=""position:fixed;top:50%; left:50%; transform: translate(-50%, -50%); border:5px solid black"">","","","","","","","",""
"","243.77000000094995","sequential-stimulus-presentation-old","53","302044","0.0-15.0-1.4","SS1618435638397","trial","","40","500","743.77000000095","images/stimuli/spore_stims/simple_12_A_b.gif","images/stimuli/spore_stims/simple_16_A_a.gif","forced_short","","3","simple_dissimilar","images/stimuli/spore_stims/simple_12_A_b.gif","","","","",""
"","2774.4300000049407","survey-multi-choice","54","304822","0.0-16.0","SS1618435638397","math_question","","","","","","","","","","","","{""Q0"":""6""}","[0]","6","",""
"","null","html-keyboard-response","55","305780","0.0-17.0-0.0","SS1618435638397","","","null","","","","","","<p><img src= images/blank.png width =""600"" height = ""600"" style=""position:fixed;top:50%; left:50%; transform: translate(-50%, -50%); border:5px solid black"">","","","","","","","",""
"","1463.5500000003958","sequential-stimulus-presentation-old","56","312254","0.0-17.0-1.0","SS1618435638397","trial","","40","500","1963.5500000003958","images/stimuli/spore_stims/complex_19_A_b.gif","images/stimuli/spore_stims/complex_11_A_a.gif","forced_long","","4","complex_dissimilar","images/stimuli/spore_stims/complex_11_A_a.gif","","","","",""
"","null","html-keyboard-response","57","313110","0.0-17.0-0.1","SS1618435638397","","","null","","","","","","<p><img src= images/blank.png width =""600"" height = ""600"" style=""position:fixed;top:50%; left:50%; transform: translate(-50%, -50%); border:5px solid black"">","","","","","","","",""
"","594.7549999982584","sequential-stimulus-presentation-old","58","314213","0.0-17.0-1.1","SS1618435638397","trial","","40","500","1094.7549999982584","images/stimuli/spore_stims/complex_19_A_b.gif","images/stimuli/spore_stims/complex_11_A_a.gif","forced_long","","4","complex_dissimilar","images/stimuli/spore_stims/complex_19_A_b.gif","","","","",""
"","null","html-keyboard-response","59","315509","0.0-17.0-0.2","SS1618435638397","","","null","","","","","","<p><img src= images/blank.png width =""600"" height = ""600"" style=""position:fixed;top:50%; left:50%; transform: translate(-50%, -50%); border:5px solid black"">","","","","","","","",""
"","142.54000000073574","sequential-stimulus-presentation-old","60","316163","0.0-17.0-1.2","SS1618435638397","trial","","40","500","642.5400000007357","images/stimuli/spore_stims/complex_19_A_b.gif","images/stimuli/spore_stims/complex_11_A_a.gif","forced_long","","4","complex_dissimilar","images/stimuli/spore_stims/complex_11_A_a.gif","","","","",""
"","null","html-keyboard-response","61","317420","0.0-17.0-0.3","SS1618435638397","","","null","","","","","","<p><img src= images/blank.png width =""600"" height = ""600"" style=""position:fixed;top:50%; left:50%; transform: translate(-50%, -50%); border:5px solid black"">","","","","","","","",""
"","756.6550000046846","sequential-stimulus-presentation-old","62","318683","0.0-17.0-1.3","SS1618435638397","trial","","40","500","1256.6550000046846","images/stimuli/spore_stims/complex_19_A_b.gif","images/stimuli/spore_stims/complex_11_A_a.gif","forced_long","","4","complex_dissimilar","images/stimuli/spore_stims/complex_11_A_a.gif","","","","",""
"","null","html-keyboard-response","63","319520","0.0-17.0-0.4","SS1618435638397","","","null","","","","","","<p><img src= images/blank.png width =""600"" height = ""600"" style=""position:fixed;top:50%; left:50%; transform: translate(-50%, -50%); border:5px solid black"">","","","","","","","",""
"","52.1300000109477","sequential-stimulus-presentation-old","64","320083","0.0-17.0-1.4","SS1618435638397","trial","","40","500","552.1300000109477","images/stimuli/spore_stims/complex_19_A_b.gif","images/stimuli/spore_stims/complex_11_A_a.gif","forced_long","","4","complex_dissimilar","images/stimuli/spore_stims/complex_11_A_a.gif","","","","",""
"","5271.89499999804","survey-multi-choice","65","325362","0.0-18.0","SS1618435638397","math_question","","","","","","","","","","","","{""Q0"":""9""}","[0]","9","",""
"","null","html-keyboard-response","66","326322","0.0-19.0-0.0","SS1618435638397","","","null","","","","","","<p><img src= images/blank.png width =""600"" height = ""600"" style=""position:fixed;top:50%; left:50%; transform: translate(-50%, -50%); border:5px solid black"">","","","","","","","",""
"","951.7450000130339","sequential-stimulus-presentation-old","67","332277","0.0-19.0-1.0","SS1618435638397","trial","","40","500","1451.7450000130339","images/stimuli/spore_stims/simple_19_A_b.gif","images/stimuli/spore_stims/simple_20_A_a.gif","forced_long","","5","simple_dissimilar","images/stimuli/spore_stims/simple_20_A_a.gif","","","","",""
"","null","html-keyboard-response","68","333331","0.0-19.0-0.1","SS1618435638397","","","null","","","","","","<p><img src= images/blank.png width =""600"" height = ""600"" style=""position:fixed;top:50%; left:50%; transform: translate(-50%, -50%); border:5px solid black"">","","","","","","","",""
"","59.43500000284985","sequential-stimulus-presentation-old","69","333910","0.0-19.0-1.1","SS1618435638397","trial","","40","500","559.4350000028498","images/stimuli/spore_stims/simple_19_A_b.gif","images/stimuli/spore_stims/simple_20_A_a.gif","forced_long","","5","simple_dissimilar","images/stimuli/spore_stims/simple_20_A_a.gif","","","","",""
"","null","html-keyboard-response","70","334720","0.0-19.0-0.2","SS1618435638397","","","null","","","","","","<p><img src= images/blank.png width =""600"" height = ""600"" style=""position:fixed;top:50%; left:50%; transform: translate(-50%, -50%); border:5px solid black"">","","","","","","","",""
"","34.024999986286275","sequential-stimulus-presentation-old","71","335264","0.0-19.0-1.2","SS1618435638397","trial","","40","500","534.0249999862863","images/stimuli/spore_stims/simple_19_A_b.gif","images/stimuli/spore_stims/simple_20_A_a.gif","forced_long","","5","simple_dissimilar","images/stimuli/spore_stims/simple_19_A_b.gif","","","","",""
"","null","html-keyboard-response","72","336391","0.0-19.0-0.3","SS1618435638397","","","null","","","","","","<p><img src= images/blank.png width =""600"" height = ""600"" style=""position:fixed;top:50%; left:50%; transform: translate(-50%, -50%); border:5px solid black"">","","","","","","","",""
"","448.4000000084052","sequential-stimulus-presentation-old","73","337354","0.0-19.0-1.3","SS1618435638397","trial","","40","500","948.4000000084052","images/stimuli/spore_stims/simple_19_A_b.gif","images/stimuli/spore_stims/simple_20_A_a.gif","forced_long","","5","simple_dissimilar","images/stimuli/spore_stims/simple_20_A_a.gif","","","","",""
"","null","html-keyboard-response","74","338159","0.0-19.0-0.4","SS1618435638397","","","null","","","","","","<p><img src= images/blank.png width =""600"" height = ""600"" style=""position:fixed;top:50%; left:50%; transform: translate(-50%, -50%); border:5px solid black"">","","","","","","","",""
"","80.49999999639113","sequential-stimulus-presentation-old","75","338751","0.0-19.0-1.4","SS1618435638397","trial","","40","500","580.4999999963911","images/stimuli/spore_stims/simple_19_A_b.gif","images/stimuli/spore_stims/simple_20_A_a.gif","forced_long","","5","simple_dissimilar","images/stimuli/spore_stims/simple_20_A_a.gif","","","","",""
"","null","html-keyboard-response","76","339970","0.0-19.0-0.5","SS1618435638397","","","null","","","","","","<p><img src= images/blank.png width =""600"" height = ""600"" style=""position:fixed;top:50%; left:50%; transform: translate(-50%, -50%); border:5px solid black"">","","","","","","","",""
"","35.02499999012798","sequential-stimulus-presentation-old","77","340515","0.0-19.0-1.5","SS1618435638397","trial","","40","500","535.024999990128","images/stimuli/spore_stims/simple_19_A_b.gif","images/stimuli/spore_stims/simple_20_A_a.gif","forced_long","","5","simple_dissimilar","images/stimuli/spore_stims/simple_20_A_a.gif","","","","",""
"","4808.304999998654","survey-multi-choice","78","345327","0.0-20.0","SS1618435638397","math_question","","","","","","","","","","","","{""Q0"":""12""}","[0]","12","",""
"","null","html-keyboard-response","79","346540","0.0-21.0-0.0","SS1618435638397","","","null","","","","","","<p><img src= images/blank.png width =""600"" height = ""600"" style=""position:fixed;top:50%; left:50%; transform: translate(-50%, -50%); border:5px solid black"">","","","","","","","",""
"","892.0349999971222","sequential-stimulus-presentation-old","80","347942","0.0-21.0-1.0","SS1618435638397","trial","","40","500","1392.0349999971222","images/stimuli/spore_stims/complex_09_A_a.gif","images/stimuli/spore_stims/complex_10_A_b.gif","self_paced","","6","complex_dissimilar","images/stimuli/spore_stims/complex_10_A_b.gif","","","","",""
"","null","html-keyboard-response","81","349140","0.0-21.0-0.1","SS1618435638397","","","null","","","","","","<p><img src= images/blank.png width =""600"" height = ""600"" style=""position:fixed;top:50%; left:50%; transform: translate(-50%, -50%); border:5px solid black"">","","","","","","","",""
"","238.71000000508502","sequential-stimulus-presentation-old","82","349889","0.0-21.0-1.1","SS1618435638397","trial","","40","500","738.710000005085","images/stimuli/spore_stims/complex_09_A_a.gif","images/stimuli/spore_stims/complex_10_A_b.gif","self_paced","","6","complex_dissimilar","images/stimuli/spore_stims/complex_10_A_b.gif","","","","",""
"","null","html-keyboard-response","83","350821","0.0-21.0-0.2","SS1618435638397","","","null","","","","","","<p><img src= images/blank.png width =""600"" height = ""600"" style=""position:fixed;top:50%; left:50%; transform: translate(-50%, -50%); border:5px solid black"">","","","","","","","",""
"","283.2499999931315","sequential-stimulus-presentation-old","84","351615","0.0-21.0-1.2","SS1618435638397","trial","","40","500","783.2499999931315","images/stimuli/spore_stims/complex_09_A_a.gif","images/stimuli/spore_stims/complex_10_A_b.gif","self_paced","","6","complex_dissimilar","images/stimuli/spore_stims/complex_10_A_b.gif","","","","",""
"","null","html-keyboard-response","85","352910","0.0-21.0-0.3","SS1618435638397","","","null","","","","","","<p><img src= images/blank.png width =""600"" height = ""600"" style=""position:fixed;top:50%; left:50%; transform: translate(-50%, -50%); border:5px solid black"">","","","","","","","",""
"","62.12999999115709","sequential-stimulus-presentation-old","86","353482","0.0-21.0-1.3","SS1618435638397","trial","","40","500","562.1299999911571","images/stimuli/spore_stims/complex_09_A_a.gif","images/stimuli/spore_stims/complex_10_A_b.gif","self_paced","","6","complex_dissimilar","images/stimuli/spore_stims/complex_10_A_b.gif","","","","",""
"","null","html-keyboard-response","87","354488","0.0-21.0-0.4","SS1618435638397","","","null","","","","","","<p><img src= images/blank.png width =""600"" height = ""600"" style=""position:fixed;top:50%; left:50%; transform: translate(-50%, -50%); border:5px solid black"">","","","","","","","",""
"","1229.619999998249","sequential-stimulus-presentation-old","88","356226","0.0-21.0-1.4","SS1618435638397","trial","","40","500","1729.619999998249","images/stimuli/spore_stims/complex_09_A_a.gif","images/stimuli/spore_stims/complex_10_A_b.gif","self_paced","","6","complex_dissimilar","images/stimuli/spore_stims/complex_10_A_b.gif","","","","",""
"","4993.044999995618","survey-multi-choice","89","361223","0.0-22.0","SS1618435638397","math_question","","","","","","","","","","","","{""Q0"":""12""}","[0]","12","",""
"","null","html-keyboard-response","90","362082","0.0-23.0-0.0","SS1618435638397","","","null","","","","","","<p><img src= images/blank.png width =""600"" height = ""600"" style=""position:fixed;top:50%; left:50%; transform: translate(-50%, -50%); border:5px solid black"">","","","","","","","",""
"","5006.664999993518","sequential-stimulus-presentation-old","91","367148","0.0-23.0-1.0","SS1618435638397","trial","","40","500","5506.664999993518","images/stimuli/spore_stims/simple_01_A_a.gif","images/stimuli/spore_stims/simple_20_A_b.gif","forced_short","","7","simple_dissimilar","images/stimuli/spore_stims/simple_20_A_b.gif","","","","",""
"","null","html-keyboard-response","92","368332","0.0-23.0-0.1","SS1618435638397","","","null","","","","","","<p><img src= images/blank.png width =""600"" height = ""600"" style=""position:fixed;top:50%; left:50%; transform: translate(-50%, -50%); border:5px solid black"">","","","","","","","",""
"","118.76499999198131","sequential-stimulus-presentation-old","93","368962","0.0-23.0-1.1","SS1618435638397","trial","","40","500","618.7649999919813","images/stimuli/spore_stims/simple_01_A_a.gif","images/stimuli/spore_stims/simple_20_A_b.gif","forced_short","","7","simple_dissimilar","images/stimuli/spore_stims/simple_20_A_b.gif","","","","",""
"","null","html-keyboard-response","94","369962","0.0-23.0-0.2","SS1618435638397","","","null","","","","","","<p><img src= images/blank.png width =""600"" height = ""600"" style=""position:fixed;top:50%; left:50%; transform: translate(-50%, -50%); border:5px solid black"">","","","","","","","",""
"","121.90499999269377","sequential-stimulus-presentation-old","95","370595","0.0-23.0-1.2","SS1618435638397","trial","","40","500","621.9049999926938","images/stimuli/spore_stims/simple_01_A_a.gif","images/stimuli/spore_stims/simple_20_A_b.gif","forced_short","","7","simple_dissimilar","images/stimuli/spore_stims/simple_20_A_b.gif","","","","",""
"","null","html-keyboard-response","96","371524","0.0-23.0-0.3","SS1618435638397","","","null","","","","","","<p><img src= images/blank.png width =""600"" height = ""600"" style=""position:fixed;top:50%; left:50%; transform: translate(-50%, -50%); border:5px solid black"">","","","","","","","",""
"","205.33000001159962","sequential-stimulus-presentation-old","97","372238","0.0-23.0-1.3","SS1618435638397","trial","","40","500","705.3300000115996","images/stimuli/spore_stims/simple_01_A_a.gif","images/stimuli/spore_stims/simple_20_A_b.gif","forced_short","","7","simple_dissimilar","images/stimuli/spore_stims/simple_20_A_b.gif","","","","",""
"","null","html-keyboard-response","98","373270","0.0-23.0-0.4","SS1618435638397","","","null","","","","","","<p><img src= images/blank.png width =""600"" height = ""600"" style=""position:fixed;top:50%; left:50%; transform: translate(-50%, -50%); border:5px solid black"">","","","","","","","",""
"","1962.4800000019604","sequential-stimulus-presentation-old","99","375740","0.0-23.0-1.4","SS1618435638397","trial","","40","500","2462.4800000019604","images/stimuli/spore_stims/simple_01_A_a.gif","images/stimuli/spore_stims/simple_20_A_b.gif","forced_short","","7","simple_dissimilar","images/stimuli/spore_stims/simple_20_A_b.gif","","","","",""
"","6513.449999998556","survey-multi-choice","100","382255","0.0-24.0","SS1618435638397","math_question","","","","","","","","","","","","{""Q0"":""16""}","[0]","16","",""
"","null","html-keyboard-response","101","383253","0.0-25.0-0.0","SS1618435638397","","","null","","","","","","<p><img src= images/blank.png width =""600"" height = ""600"" style=""position:fixed;top:50%; left:50%; transform: translate(-50%, -50%); border:5px solid black"">","","","","","","","",""
"","556.1299999972107","sequential-stimulus-presentation-old","102","388813","0.0-25.0-1.0","SS1618435638397","trial","","40","500","1056.1299999972107","images/stimuli/spore_stims/simple_11_A_b.gif","images/stimuli/spore_stims/simple_14_A_a.gif","forced_long","","8","simple_dissimilar","images/stimuli/spore_stims/simple_14_A_a.gif","","","","",""
"","null","html-keyboard-response","103","389653","0.0-25.0-0.1","SS1618435638397","","","null","","","","","","<p><img src= images/blank.png width =""600"" height = ""600"" style=""position:fixed;top:50%; left:50%; transform: translate(-50%, -50%); border:5px solid black"">","","","","","","","",""
"","4160.470000002533","sequential-stimulus-presentation-old","104","394319","0.0-25.0-1.1","SS1618435638397","trial","","40","500","4660.470000002533","images/stimuli/spore_stims/simple_11_A_b.gif","images/stimuli/spore_stims/simple_14_A_a.gif","forced_long","","8","simple_dissimilar","images/stimuli/spore_stims/simple_11_A_b.gif","","","","",""
"","null","html-keyboard-response","105","395613","0.0-25.0-0.2","SS1618435638397","","","null","","","","","","<p><img src= images/blank.png width =""600"" height = ""600"" style=""position:fixed;top:50%; left:50%; transform: translate(-50%, -50%); border:5px solid black"">","","","","","","","",""
"","8753.485000008368","sequential-stimulus-presentation-old","106","404875","0.0-25.0-1.2","SS1618435638397","trial","","40","500","9253.485000008368","images/stimuli/spore_stims/simple_11_A_b.gif","images/stimuli/spore_stims/simple_14_A_a.gif","forced_long","","8","simple_dissimilar","images/stimuli/spore_stims/simple_14_A_a.gif","","","","",""
"","null","html-keyboard-response","107","406024","0.0-25.0-0.3","SS1618435638397","","","null","","","","","","<p><img src= images/blank.png width =""600"" height = ""600"" style=""position:fixed;top:50%; left:50%; transform: translate(-50%, -50%); border:5px solid black"">","","","","","","","",""
"","54.57000000751577","sequential-stimulus-presentation-old","108","406588","0.0-25.0-1.3","SS1618435638397","trial","","40","500","554.5700000075158","images/stimuli/spore_stims/simple_11_A_b.gif","images/stimuli/spore_stims/simple_14_A_a.gif","forced_long","","8","simple_dissimilar","images/stimuli/spore_stims/simple_14_A_a.gif","","","","",""
"","null","html-keyboard-response","109","407890","0.0-25.0-0.4","SS1618435638397","","","null","","","","","","<p><img src= images/blank.png width =""600"" height = ""600"" style=""position:fixed;top:50%; left:50%; transform: translate(-50%, -50%); border:5px solid black"">","","","","","","","",""
"","122.99000000348315","sequential-stimulus-presentation-old","110","408516","0.0-25.0-1.4","SS1618435638397","trial","","40","500","622.9900000034831","images/stimuli/spore_stims/simple_11_A_b.gif","images/stimuli/spore_stims/simple_14_A_a.gif","forced_long","","8","simple_dissimilar","images/stimuli/spore_stims/simple_14_A_a.gif","","","","",""
"","null","html-keyboard-response","111","409692","0.0-25.0-0.5","SS1618435638397","","","null","","","","","","<p><img src= images/blank.png width =""600"" height = ""600"" style=""position:fixed;top:50%; left:50%; transform: translate(-50%, -50%); border:5px solid black"">","","","","","","","",""
"","39.05999999551568","sequential-stimulus-presentation-old","112","410242","0.0-25.0-1.5","SS1618435638397","trial","","40","500","539.0599999955157","images/stimuli/spore_stims/simple_11_A_b.gif","images/stimuli/spore_stims/simple_14_A_a.gif","forced_long","","8","simple_dissimilar","images/stimuli/spore_stims/simple_14_A_a.gif","","","","",""
"","3773.704999999609","survey-multi-choice","113","414017","0.0-26.0","SS1618435638397","math_question","","","","","","","","","","","","{""Q0"":""12""}","[0]","12","",""
"","null","html-keyboard-response","114","414863","0.0-27.0-0.0","SS1618435638397","","","null","","","","","","<p><img src= images/blank.png width =""600"" height = ""600"" style=""position:fixed;top:50%; left:50%; transform: translate(-50%, -50%); border:5px solid black"">","","","","","","","",""
"","3031.940000000759","sequential-stimulus-presentation-old","115","418404","0.0-27.0-1.0","SS1618435638397","trial","","40","500","3531.940000000759","images/stimuli/spore_stims/simple_05_A_a.gif","images/stimuli/spore_stims/simple_17_A_b.gif","self_paced","","9","simple_dissimilar","images/stimuli/spore_stims/simple_17_A_b.gif","","","","",""
"","null","html-keyboard-response","116","419693","0.0-27.0-0.1","SS1618435638397","","","null","","","","","","<p><img src= images/blank.png width =""600"" height = ""600"" style=""position:fixed;top:50%; left:50%; transform: translate(-50%, -50%); border:5px solid black"">","","","","","","","",""
"","376.60499999765307","sequential-stimulus-presentation-old","117","420577","0.0-27.0-1.1","SS1618435638397","trial","","40","500","876.6049999976531","images/stimuli/spore_stims/simple_05_A_a.gif","images/stimuli/spore_stims/simple_17_A_b.gif","self_paced","","9","simple_dissimilar","images/stimuli/spore_stims/simple_17_A_b.gif","","","","",""
"","null","html-keyboard-response","118","421834","0.0-27.0-0.2","SS1618435638397","","","null","","","","","","<p><img src= images/blank.png width =""600"" height = ""600"" style=""position:fixed;top:50%; left:50%; transform: translate(-50%, -50%); border:5px solid black"">","","","","","","","",""
"","176.5049999958137","sequential-stimulus-presentation-old","119","422517","0.0-27.0-1.2","SS1618435638397","trial","","40","500","676.5049999958137","images/stimuli/spore_stims/simple_05_A_a.gif","images/stimuli/spore_stims/simple_17_A_b.gif","self_paced","","9","simple_dissimilar","images/stimuli/spore_stims/simple_17_A_b.gif","","","","",""
"","null","html-keyboard-response","120","423371","0.0-27.0-0.3","SS1618435638397","","","null","","","","","","<p><img src= images/blank.png width =""600"" height = ""600"" style=""position:fixed;top:50%; left:50%; transform: translate(-50%, -50%); border:5px solid black"">","","","","","","","",""
"","322.6100000028964","sequential-stimulus-presentation-old","121","424204","0.0-27.0-1.3","SS1618435638397","trial","","40","500","822.6100000028964","images/stimuli/spore_stims/simple_05_A_a.gif","images/stimuli/spore_stims/simple_17_A_b.gif","self_paced","","9","simple_dissimilar","images/stimuli/spore_stims/simple_17_A_b.gif","","","","",""
"","null","html-keyboard-response","122","425284","0.0-27.0-0.4","SS1618435638397","","","null","","","","","","<p><img src= images/blank.png width =""600"" height = ""600"" style=""position:fixed;top:50%; left:50%; transform: translate(-50%, -50%); border:5px solid black"">","","","","","","","",""
"","1728.4350000118138","sequential-stimulus-presentation-old","123","427522","0.0-27.0-1.4","SS1618435638397","trial","","40","500","2228.435000011814","images/stimuli/spore_stims/simple_05_A_a.gif","images/stimuli/spore_stims/simple_17_A_b.gif","self_paced","","9","simple_dissimilar","images/stimuli/spore_stims/simple_17_A_b.gif","","","","",""
"","6327.545000007376","survey-multi-choice","124","433853","0.0-28.0","SS1618435638397","math_question","","","","","","","","","","","","{""Q0"":""13""}","[0]","13","",""
"","null","html-keyboard-response","125","434731","0.0-29.0-0.0","SS1618435638397","","","null","","","","","","<p><img src= images/blank.png width =""600"" height = ""600"" style=""position:fixed;top:50%; left:50%; transform: translate(-50%, -50%); border:5px solid black"">","","","","","","","",""
"","650.7599999895319","sequential-stimulus-presentation-old","126","440388","0.0-29.0-1.0","SS1618435638397","trial","","40","500","1150.759999989532","images/stimuli/spore_stims/complex_06_A_b.gif","images/stimuli/spore_stims/complex_04_A_a.gif","forced_long","","10","complex_dissimilar","images/stimuli/spore_stims/complex_04_A_a.gif","","","","",""
"","null","html-keyboard-response","127","441340","0.0-29.0-0.1","SS1618435638397","","","null","","","","","","<p><img src= images/blank.png width =""600"" height = ""600"" style=""position:fixed;top:50%; left:50%; transform: translate(-50%, -50%); border:5px solid black"">","","","","","","","",""
"","2514.855000001262","sequential-stimulus-presentation-old","128","444365","0.0-29.0-1.1","SS1618435638397","trial","","40","500","3014.855000001262","images/stimuli/spore_stims/complex_06_A_b.gif","images/stimuli/spore_stims/complex_04_A_a.gif","forced_long","","10","complex_dissimilar","images/stimuli/spore_stims/complex_04_A_a.gif","","","","",""
"","null","html-keyboard-response","129","445378","0.0-29.0-0.2","SS1618435638397","","","null","","","","","","<p><img src= images/blank.png width =""600"" height = ""600"" style=""position:fixed;top:50%; left:50%; transform: translate(-50%, -50%); border:5px solid black"">","","","","","","","",""
"","267.7899999980582","sequential-stimulus-presentation-old","130","446155","0.0-29.0-1.2","SS1618435638397","trial","","40","500","767.7899999980582","images/stimuli/spore_stims/complex_06_A_b.gif","images/stimuli/spore_stims/complex_04_A_a.gif","forced_long","","10","complex_dissimilar","images/stimuli/spore_stims/complex_06_A_b.gif","","","","",""
"","null","html-keyboard-response","131","447371","0.0-29.0-0.3","SS1618435638397","","","null","","","","","","<p><img src= images/blank.png width =""600"" height = ""600"" style=""position:fixed;top:50%; left:50%; transform: translate(-50%, -50%); border:5px solid black"">","","","","","","","",""
"","6.945000000996515","sequential-stimulus-presentation-old","132","447893","0.0-29.0-1.3","SS1618435638397","trial","","40","500","506.9450000009965","images/stimuli/spore_stims/complex_06_A_b.gif","images/stimuli/spore_stims/complex_04_A_a.gif","forced_long","","10","complex_dissimilar","images/stimuli/spore_stims/complex_04_A_a.gif","","","","",""
"","4101.485000006505","survey-multi-choice","133","451997","0.0-30.0","SS1618435638397","math_question","","","","","","","","","","","","{""Q0"":""14""}","[0]","14","",""
"","null","html-keyboard-response","134","453290","0.0-31.0-0.0","SS1618435638397","","","null","","","","","","<p><img src= images/blank.png width =""600"" height = ""600"" style=""position:fixed;top:50%; left:50%; transform: translate(-50%, -50%); border:5px solid black"">","","","","","","","",""
"","208.94500000576954","sequential-stimulus-presentation-old","135","454009","0.0-31.0-1.0","SS1618435638397","trial","","40","500","708.9450000057695","images/stimuli/spore_stims/simple_07_A_a.gif","images/stimuli/spore_stims/simple_08_A_b.gif","self_paced","","11","simple_dissimilar","images/stimuli/spore_stims/simple_08_A_b.gif","","","","",""
"","null","html-keyboard-response","136","454930","0.0-31.0-0.1","SS1618435638397","","","null","","","","","","<p><img src= images/blank.png width =""600"" height = ""600"" style=""position:fixed;top:50%; left:50%; transform: translate(-50%, -50%); border:5px solid black"">","","","","","","","",""
"","547.7400000090711","sequential-stimulus-presentation-old","137","455987","0.0-31.0-1.1","SS1618435638397","trial","","40","500","1047.740000009071","images/stimuli/spore_stims/simple_07_A_a.gif","images/stimuli/spore_stims/simple_08_A_b.gif","self_paced","","11","simple_dissimilar","images/stimuli/spore_stims/simple_08_A_b.gif","","","","",""
"","null","html-keyboard-response","138","457030","0.0-31.0-0.2","SS1618435638397","","","null","","","","","","<p><img src= images/blank.png width =""600"" height = ""600"" style=""position:fixed;top:50%; left:50%; transform: translate(-50%, -50%); border:5px solid black"">","","","","","","","",""
"","335.769999990589","sequential-stimulus-presentation-old","139","457870","0.0-31.0-1.2","SS1618435638397","trial","","40","500","835.769999990589","images/stimuli/spore_stims/simple_07_A_a.gif","images/stimuli/spore_stims/simple_08_A_b.gif","self_paced","","11","simple_dissimilar","images/stimuli/spore_stims/simple_08_A_b.gif","","","","",""
"","null","html-keyboard-response","140","458841","0.0-31.0-0.3","SS1618435638397","","","null","","","","","","<p><img src= images/blank.png width =""600"" height = ""600"" style=""position:fixed;top:50%; left:50%; transform: translate(-50%, -50%); border:5px solid black"">","","","","","","","",""
"","46.57500000030268","sequential-stimulus-presentation-old","141","459407","0.0-31.0-1.3","SS1618435638397","trial","","40","500","546.5750000003027","images/stimuli/spore_stims/simple_07_A_a.gif","images/stimuli/spore_stims/simple_08_A_b.gif","self_paced","","11","simple_dissimilar","images/stimuli/spore_stims/simple_08_A_b.gif","","","","",""
"[{""page_index"":0,""viewing_time"":4676.149999999325}]","4676.380000004428","instructions","142","464085","0.0-32.0","SS1618435638397","instructions","","","","","","","","","","","","","","","",""
"","6978.289999999106","survey-likert","143","471068","0.0-33.0","SS1618435638397","similarity_question","","","","","","","","","","","","{""Q0"":4}","[0]","","images/stimuli/spore_stims/simple_20_A_a.gif","images/stimuli/spore_stims/simple_19_A_b.gif"
"","8746.36499999906","survey-likert","144","479820","0.0-34.0","SS1618435638397","similarity_question","","","","","","","","","","","","{""Q0"":2}","[0]","","images/stimuli/spore_stims/complex_14_A_b.gif","images/stimuli/spore_stims/complex_03_A_a.gif"
"","7965.500000005704","survey-likert","145","487796","0.0-35.0","SS1618435638397","similarity_question","","","","","","","","","","","","{""Q0"":4}","[0]","","images/stimuli/spore_stims/complex_06_A_b.gif","images/stimuli/spore_stims/complex_04_A_a.gif"
"","6428.100000004633","survey-likert","146","494229","0.0-36.0","SS1618435638397","similarity_question","","","","","","","","","","","","{""Q0"":2}","[0]","","images/stimuli/spore_stims/complex_07_A_a.gif","images/stimuli/spore_stims/complex_12_A_b.gif"
"","14807.279999993625","survey-likert","147","509040","0.0-37.0","SS1618435638397","similarity_question","","","","","","","","","","","","{""Q0"":5}","[0]","","images/stimuli/spore_stims/simple_12_A_b.gif","images/stimuli/spore_stims/simple_16_A_a.gif"
"","8649.164999995264","survey-likert","148","517692","0.0-38.0","SS1618435638397","similarity_question","","","","","","","","","","","","{""Q0"":2}","[0]","","images/stimuli/spore_stims/complex_15_A_a.gif","images/stimuli/spore_stims/complex_16_A_b.gif"
"","5305.61999999918","survey-likert","149","523002","0.0-39.0","SS1618435638397","similarity_question","","","","","","","","","","","","{""Q0"":1}","[0]","","images/stimuli/spore_stims/complex_10_A_b.gif","images/stimuli/spore_stims/complex_09_A_a.gif"
"","3487.910000010743","survey-likert","150","526495","0.0-40.0","SS1618435638397","similarity_question","","","","","","","","","","","","{""Q0"":4}","[0]","","images/stimuli/spore_stims/simple_11_A_b.gif","images/stimuli/spore_stims/simple_14_A_a.gif"
"","3228.6849999945844","survey-likert","151","529727","0.0-41.0","SS1618435638397","similarity_question","","","","","","","","","","","","{""Q0"":4}","[0]","","images/stimuli/spore_stims/simple_20_A_b.gif","images/stimuli/spore_stims/simple_01_A_a.gif"
"","5106.455000001006","survey-likert","152","534837","0.0-42.0","SS1618435638397","similarity_question","","","","","","","","","","","","{""Q0"":3}","[0]","","images/stimuli/spore_stims/simple_08_A_b.gif","images/stimuli/spore_stims/simple_07_A_a.gif"
"","4278.860000005807","survey-likert","153","539122","0.0-43.0","SS1618435638397","similarity_question","","","","","","","","","","","","{""Q0"":5}","[0]","","images/stimuli/spore_stims/simple_05_A_a.gif","images/stimuli/spore_stims/simple_17_A_b.gif"
"","20247.87500000093","survey-likert","154","559373","0.0-44.0","SS1618435638397","similarity_question","","","","","","","","","","","","{""Q0"":2}","[0]","","images/stimuli/spore_stims/complex_19_A_b.gif","images/stimuli/spore_stims/complex_11_A_a.gif"
"[{""page_index"":0,""viewing_time"":5946.7099999892525}]","5946.9349999999395","instructions","155","565324","0.0-45.0","SS1618435638397","instructions","","","","","","","","","","","","","","","",""
"","7021.710000000894","survey-likert","156","572349","0.0-46.0","SS1618435638397","","","","","","","","","images/stimuli/spore_stims/complex_04_A_a.gif","","","","{""Q0"":4}","[0]","","",""
"","3466.585000001942","survey-likert","157","575821","0.0-47.0","SS1618435638397","","","","","","","","","images/stimuli/spore_stims/complex_16_A_b.gif","","","","{""Q0"":4}","[0]","","",""
"","3518.614999993588","survey-likert","158","579344","0.0-48.0","SS1618435638397","","","","","","","","","images/stimuli/spore_stims/simple_11_A_b.gif","","","","{""Q0"":1}","[0]","","",""
"","2770.1499999966472","survey-likert","159","582120","0.0-49.0","SS1618435638397","","","","","","","","","images/stimuli/spore_stims/simple_19_A_b.gif","","","","{""Q0"":1}","[0]","","",""
"","3709.579999995185","survey-likert","160","585835","0.0-50.0","SS1618435638397","","","","","","","","","images/stimuli/spore_stims/complex_12_A_b.gif","","","","{""Q0"":4}","[0]","","",""
"","4887.114999990445","survey-likert","161","590726","0.0-51.0","SS1618435638397","","","","","","","","","images/stimuli/spore_stims/complex_03_A_a.gif","","","","{""Q0"":4}","[0]","","",""
"","3048.125000001164","survey-likert","162","593777","0.0-52.0","SS1618435638397","","","","","","","","","images/stimuli/spore_stims/simple_05_A_a.gif","","","","{""Q0"":0}","[0]","","",""
"","3648.1199999980163","survey-likert","163","597428","0.0-53.0","SS1618435638397","","","","","","","","","images/stimuli/spore_stims/simple_08_A_b.gif","","","","{""Q0"":1}","[0]","","",""
"","4222.454999995534","survey-likert","164","601658","0.0-54.0","SS1618435638397","","","","","","","","","images/stimuli/spore_stims/simple_20_A_b.gif","","","","{""Q0"":1}","[0]","","",""
"","5490.795000005164","survey-likert","165","607152","0.0-55.0","SS1618435638397","","","","","","","","","images/stimuli/spore_stims/simple_12_A_b.gif","","","","{""Q0"":1}","[0]","","",""
"","7463.065000003553","survey-likert","166","614618","0.0-56.0","SS1618435638397","","","","","","","","","images/stimuli/spore_stims/complex_11_A_a.gif","","","","{""Q0"":4}","[0]","","",""
"","4494.2599999922095","survey-likert","167","619118","0.0-57.0","SS1618435638397","","","","","","","","","images/stimuli/spore_stims/complex_09_A_a.gif","","","","{""Q0"":5}","[0]","","",""
"[{""page_index"":0,""viewing_time"":1803.8950000045588}]","1804.0949999995064","instructions","168","620926","0.0-58.0","SS1618435638397","instructions","","","","","","","","","","","","","","","",""
"","5302.600000009988","demog-age","169","626234","0.0-59.0","SS1618435638397","","","","","","","","","","","","","{""age"":""19""}","","","",""
"","3615.33000000054","demog-ethnic-US","170","629858","0.0-60.0","SS1618435638397","","","","","","","","","","","","","{""ethnicity"":[""White""]}","[0]","","",""
"","10685.305000006338","demog-gender-and-education","171","640550","0.0-61.0","SS1618435638397","","","","","","","","","","","","","{""gender"":""Female"",""education"":""High school diploma""}","[0,1]","","",""
"","35608.29000000376","survey-text","172","676164","0.0-62.0","SS1618435638397","feedback","","","","","","","","","","","","{""Q0"":""No, everything went well""}","","","",""
"[{""page_index"":0,""viewing_time"":1243.174999995972}]","1243.4599999978673","instructions","173","677411","0.0-63.0","SS1618435638397","instructions","","","","","","","","","","","","","","","",""
