"view_history","rt","trial_type","trial_index","time_elapsed","internal_node_id","subject","stimulus_type","trial_stimulus","key_press","minimum_viewing_duration","trial_looking_time","block_deviant","block_background","exposure_type","stimulus","block_number","block_type","stimulus_displayed","responses","question_order","math_correct_answer","stimulus_left","stimulus_right"
"[{""page_index"":0,""viewing_time"":20240.665000048466}]","20242.48500005342","instructions","0","20246","0.0-0.0","SS1618365654882","","","","","","","","","","","","","","","","",""
"[{""page_index"":0,""viewing_time"":18283.135000034235},{""page_index"":1,""viewing_time"":6819.689999916591}]","25103.18500001449","instructions","1","47354","0.0-1.0","SS1618365654882","instructions","","","","","","","","","","","","","","","",""
"","7979.539999971166","sequential-stimulus-presentation-old","2","55839","0.0-2.0","SS1618365654882","","","40","500","8479.539999971166","null","null","self_paced","","","","","","","","",""
"","9045.835000113584","sequential-stimulus-presentation-old","3","65390","0.0-3.0","SS1618365654882","","","40","500","9545.835000113584","null","null","self_paced","","","","","","","","",""
"[{""page_index"":0,""viewing_time"":33905.129999970086}]","33905.48499999568","instructions","4","99298","0.0-4.0","SS1618365654882","instructions","","","","","","","","","","","","","","","",""
"","5774.480000021867","sequential-stimulus-presentation-old","5","110082","0.0-5.0","SS1618365654882","","","40","500","6274.480000021867","null","null","forced_long","","","","","","","","",""
"","5703.905000002123","sequential-stimulus-presentation-old","6","115842","0.0-6.0","SS1618365654882","","","40","50","5753.905000002123","null","null","forced_long","","","","","","","","",""
"[{""page_index"":0,""viewing_time"":10180.91499991715}]","10181.25499994494","instructions","7","126025","0.0-7.0","SS1618365654882","instructions","","","","","","","","","","","","","","","",""
"[{""page_index"":0,""viewing_time"":12664.564999984577},{""page_index"":1,""viewing_time"":16098.00500003621},{""page_index"":2,""viewing_time"":10087.69499999471},{""page_index"":3,""viewing_time"":2799.8150000348687},{""page_index"":4,""viewing_time"":1304.6900000190362}]","42955.294999992475","instructions","8","168982","0.0-8.0","SS1618365654882","instructions","","","","","","","","","","","","","","","",""
"","null","html-keyboard-response","9","170036","0.0-9.0-0.0","SS1618365654882","","","null","","","","","","<p><img src= images/blank.png width =""600"" height = ""600"" style=""position:fixed;top:50%; left:50%; transform: translate(-50%, -50%); border:5px solid black"">","","","","","","","",""
"","1192.1800000127405","sequential-stimulus-presentation-old","10","176253","0.0-9.0-1.0","SS1618365654882","trial","","40","500","1692.1800000127405","images/stimuli/spore_stims/simple_12_A_b.gif","images/stimuli/spore_stims/simple_15_A_a.gif","forced_long","","0","simple_dissimilar","images/stimuli/spore_stims/simple_15_A_a.gif","","","","",""
"","null","html-keyboard-response","11","177501","0.0-9.0-0.1","SS1618365654882","","","null","","","","","","<p><img src= images/blank.png width =""600"" height = ""600"" style=""position:fixed;top:50%; left:50%; transform: translate(-50%, -50%); border:5px solid black"">","","","","","","","",""
"","82530.81000002567","sequential-stimulus-presentation-old","12","260544","0.0-9.0-1.1","SS1618365654882","trial","","40","500","83030.81000002567","images/stimuli/spore_stims/simple_12_A_b.gif","images/stimuli/spore_stims/simple_15_A_a.gif","forced_long","","0","simple_dissimilar","images/stimuli/spore_stims/simple_15_A_a.gif","","","","",""
"","null","html-keyboard-response","13","261593","0.0-9.0-0.2","SS1618365654882","","","null","","","","","","<p><img src= images/blank.png width =""600"" height = ""600"" style=""position:fixed;top:50%; left:50%; transform: translate(-50%, -50%); border:5px solid black"">","","","","","","","",""
"","2813.884999952279","sequential-stimulus-presentation-old","14","264922","0.0-9.0-1.2","SS1618365654882","trial","","40","500","3313.884999952279","images/stimuli/spore_stims/simple_12_A_b.gif","images/stimuli/spore_stims/simple_15_A_a.gif","forced_long","","0","simple_dissimilar","images/stimuli/spore_stims/simple_15_A_a.gif","","","","",""
"","null","html-keyboard-response","15","266175","0.0-9.0-0.3","SS1618365654882","","","null","","","","","","<p><img src= images/blank.png width =""600"" height = ""600"" style=""position:fixed;top:50%; left:50%; transform: translate(-50%, -50%); border:5px solid black"">","","","","","","","",""
"","6259.01999999769","sequential-stimulus-presentation-old","16","272942","0.0-9.0-1.3","SS1618365654882","trial","","40","500","6759.01999999769","images/stimuli/spore_stims/simple_12_A_b.gif","images/stimuli/spore_stims/simple_15_A_a.gif","forced_long","","0","simple_dissimilar","images/stimuli/spore_stims/simple_12_A_b.gif","","","","",""
"","null","html-keyboard-response","17","274043","0.0-9.0-0.4","SS1618365654882","","","null","","","","","","<p><img src= images/blank.png width =""600"" height = ""600"" style=""position:fixed;top:50%; left:50%; transform: translate(-50%, -50%); border:5px solid black"">","","","","","","","",""
"","3115.845000022091","sequential-stimulus-presentation-old","18","277674","0.0-9.0-1.4","SS1618365654882","trial","","40","500","3615.845000022091","images/stimuli/spore_stims/simple_12_A_b.gif","images/stimuli/spore_stims/simple_15_A_a.gif","forced_long","","0","simple_dissimilar","images/stimuli/spore_stims/simple_12_A_b.gif","","","","",""
"","4825.840000063181","survey-multi-choice","19","282507","0.0-10.0","SS1618365654882","math_question","","","","","","","","","","","","{""Q0"":""17""}","[0]","17","",""
"","null","html-keyboard-response","20","283429","0.0-11.0-0.0","SS1618365654882","","","null","","","","","","<p><img src= images/blank.png width =""600"" height = ""600"" style=""position:fixed;top:50%; left:50%; transform: translate(-50%, -50%); border:5px solid black"">","","","","","","","",""
"","4725.609999964945","sequential-stimulus-presentation-old","21","288217","0.0-11.0-1.0","SS1618365654882","trial","","40","500","5225.609999964945","images/stimuli/spore_stims/simple_17_A_b.gif","images/stimuli/spore_stims/simple_13_A_a.gif","forced_short","","1","simple_dissimilar","images/stimuli/spore_stims/simple_13_A_a.gif","","","","",""
"","null","html-keyboard-response","22","289306","0.0-11.0-0.1","SS1618365654882","","","null","","","","","","<p><img src= images/blank.png width =""600"" height = ""600"" style=""position:fixed;top:50%; left:50%; transform: translate(-50%, -50%); border:5px solid black"">","","","","","","","",""
"","2629.8299999907613","sequential-stimulus-presentation-old","23","292445","0.0-11.0-1.1","SS1618365654882","trial","","40","500","3129.8299999907613","images/stimuli/spore_stims/simple_17_A_b.gif","images/stimuli/spore_stims/simple_13_A_a.gif","forced_short","","1","simple_dissimilar","images/stimuli/spore_stims/simple_13_A_a.gif","","","","",""
"","null","html-keyboard-response","24","293328","0.0-11.0-0.2","SS1618365654882","","","null","","","","","","<p><img src= images/blank.png width =""600"" height = ""600"" style=""position:fixed;top:50%; left:50%; transform: translate(-50%, -50%); border:5px solid black"">","","","","","","","",""
"","2451.2800000375137","sequential-stimulus-presentation-old","25","296288","0.0-11.0-1.2","SS1618365654882","trial","","40","500","2951.2800000375137","images/stimuli/spore_stims/simple_17_A_b.gif","images/stimuli/spore_stims/simple_13_A_a.gif","forced_short","","1","simple_dissimilar","images/stimuli/spore_stims/simple_13_A_a.gif","","","","",""
"","null","html-keyboard-response","26","297528","0.0-11.0-0.3","SS1618365654882","","","null","","","","","","<p><img src= images/blank.png width =""600"" height = ""600"" style=""position:fixed;top:50%; left:50%; transform: translate(-50%, -50%); border:5px solid black"">","","","","","","","",""
"","4881.79500005208","sequential-stimulus-presentation-old","27","302914","0.0-11.0-1.3","SS1618365654882","trial","","40","500","5381.79500005208","images/stimuli/spore_stims/simple_17_A_b.gif","images/stimuli/spore_stims/simple_13_A_a.gif","forced_short","","1","simple_dissimilar","images/stimuli/spore_stims/simple_13_A_a.gif","","","","",""
"","3312.569999950938","survey-multi-choice","28","306231","0.0-12.0","SS1618365654882","math_question","","","","","","","","","","","","{""Q0"":""15""}","[0]","15","",""
"","null","html-keyboard-response","29","307230","0.0-13.0-0.0","SS1618365654882","","","null","","","","","","<p><img src= images/blank.png width =""600"" height = ""600"" style=""position:fixed;top:50%; left:50%; transform: translate(-50%, -50%); border:5px solid black"">","","","","","","","",""
"","3332.520000054501","sequential-stimulus-presentation-old","30","310624","0.0-13.0-1.0","SS1618365654882","trial","","40","500","3832.520000054501","images/stimuli/spore_stims/complex_19_A_a.gif","images/stimuli/spore_stims/complex_16_A_b.gif","forced_short","","2","complex_dissimilar","images/stimuli/spore_stims/complex_16_A_b.gif","","","","",""
"","null","html-keyboard-response","31","311685","0.0-13.0-0.1","SS1618365654882","","","null","","","","","","<p><img src= images/blank.png width =""600"" height = ""600"" style=""position:fixed;top:50%; left:50%; transform: translate(-50%, -50%); border:5px solid black"">","","","","","","","",""
"","3437.485000002198","sequential-stimulus-presentation-old","32","315635","0.0-13.0-1.1","SS1618365654882","trial","","40","500","3937.485000002198","images/stimuli/spore_stims/complex_19_A_a.gif","images/stimuli/spore_stims/complex_16_A_b.gif","forced_short","","2","complex_dissimilar","images/stimuli/spore_stims/complex_16_A_b.gif","","","","",""
"","null","html-keyboard-response","33","316787","0.0-13.0-0.2","SS1618365654882","","","null","","","","","","<p><img src= images/blank.png width =""600"" height = ""600"" style=""position:fixed;top:50%; left:50%; transform: translate(-50%, -50%); border:5px solid black"">","","","","","","","",""
"","4059.5099999336526","sequential-stimulus-presentation-old","34","321356","0.0-13.0-1.2","SS1618365654882","trial","","40","500","4559.509999933653","images/stimuli/spore_stims/complex_19_A_a.gif","images/stimuli/spore_stims/complex_16_A_b.gif","forced_short","","2","complex_dissimilar","images/stimuli/spore_stims/complex_19_A_a.gif","","","","",""
"","null","html-keyboard-response","35","322491","0.0-13.0-0.3","SS1618365654882","","","null","","","","","","<p><img src= images/blank.png width =""600"" height = ""600"" style=""position:fixed;top:50%; left:50%; transform: translate(-50%, -50%); border:5px solid black"">","","","","","","","",""
"","3317.410000017844","sequential-stimulus-presentation-old","36","326321","0.0-13.0-1.3","SS1618365654882","trial","","40","500","3817.410000017844","images/stimuli/spore_stims/complex_19_A_a.gif","images/stimuli/spore_stims/complex_16_A_b.gif","forced_short","","2","complex_dissimilar","images/stimuli/spore_stims/complex_19_A_a.gif","","","","",""
"","null","html-keyboard-response","37","327592","0.0-13.0-0.4","SS1618365654882","","","null","","","","","","<p><img src= images/blank.png width =""600"" height = ""600"" style=""position:fixed;top:50%; left:50%; transform: translate(-50%, -50%); border:5px solid black"">","","","","","","","",""
"","3032.7050000196323","sequential-stimulus-presentation-old","38","331138","0.0-13.0-1.4","SS1618365654882","trial","","40","500","3532.7050000196323","images/stimuli/spore_stims/complex_19_A_a.gif","images/stimuli/spore_stims/complex_16_A_b.gif","forced_short","","2","complex_dissimilar","images/stimuli/spore_stims/complex_16_A_b.gif","","","","",""
"","null","html-keyboard-response","39","332282","0.0-13.0-0.5","SS1618365654882","","","null","","","","","","<p><img src= images/blank.png width =""600"" height = ""600"" style=""position:fixed;top:50%; left:50%; transform: translate(-50%, -50%); border:5px solid black"">","","","","","","","",""
"","3060.6399999232963","sequential-stimulus-presentation-old","40","335856","0.0-13.0-1.5","SS1618365654882","trial","","40","500","3560.6399999232963","images/stimuli/spore_stims/complex_19_A_a.gif","images/stimuli/spore_stims/complex_16_A_b.gif","forced_short","","2","complex_dissimilar","images/stimuli/spore_stims/complex_16_A_b.gif","","","","",""
"","3400.720000034198","survey-multi-choice","41","339261","0.0-14.0","SS1618365654882","math_question","","","","","","","","","","","","{""Q0"":""13""}","[0]","13","",""
"","null","html-keyboard-response","42","340086","0.0-15.0-0.0","SS1618365654882","","","null","","","","","","<p><img src= images/blank.png width =""600"" height = ""600"" style=""position:fixed;top:50%; left:50%; transform: translate(-50%, -50%); border:5px solid black"">","","","","","","","",""
"","2195.670000044629","sequential-stimulus-presentation-old","43","342339","0.0-15.0-1.0","SS1618365654882","trial","","40","500","2695.670000044629","images/stimuli/spore_stims/simple_07_A_b.gif","images/stimuli/spore_stims/simple_11_A_a.gif","forced_short","","3","simple_dissimilar","images/stimuli/spore_stims/simple_11_A_a.gif","","","","",""
"","null","html-keyboard-response","44","343401","0.0-15.0-0.1","SS1618365654882","","","null","","","","","","<p><img src= images/blank.png width =""600"" height = ""600"" style=""position:fixed;top:50%; left:50%; transform: translate(-50%, -50%); border:5px solid black"">","","","","","","","",""
"","2914.549999986775","sequential-stimulus-presentation-old","45","346827","0.0-15.0-1.1","SS1618365654882","trial","","40","500","3414.549999986775","images/stimuli/spore_stims/simple_07_A_b.gif","images/stimuli/spore_stims/simple_11_A_a.gif","forced_short","","3","simple_dissimilar","images/stimuli/spore_stims/simple_11_A_a.gif","","","","",""
"","null","html-keyboard-response","46","348088","0.0-15.0-0.2","SS1618365654882","","","null","","","","","","<p><img src= images/blank.png width =""600"" height = ""600"" style=""position:fixed;top:50%; left:50%; transform: translate(-50%, -50%); border:5px solid black"">","","","","","","","",""
"","2463.315000059083","sequential-stimulus-presentation-old","47","351064","0.0-15.0-1.2","SS1618365654882","trial","","40","500","2963.315000059083","images/stimuli/spore_stims/simple_07_A_b.gif","images/stimuli/spore_stims/simple_11_A_a.gif","forced_short","","3","simple_dissimilar","images/stimuli/spore_stims/simple_11_A_a.gif","","","","",""
"","null","html-keyboard-response","48","352276","0.0-15.0-0.3","SS1618365654882","","","null","","","","","","<p><img src= images/blank.png width =""600"" height = ""600"" style=""position:fixed;top:50%; left:50%; transform: translate(-50%, -50%); border:5px solid black"">","","","","","","","",""
"","2593.3550000190735","sequential-stimulus-presentation-old","49","355385","0.0-15.0-1.3","SS1618365654882","trial","","40","500","3093.3550000190735","images/stimuli/spore_stims/simple_07_A_b.gif","images/stimuli/spore_stims/simple_11_A_a.gif","forced_short","","3","simple_dissimilar","images/stimuli/spore_stims/simple_11_A_a.gif","","","","",""
"","null","html-keyboard-response","50","356510","0.0-15.0-0.4","SS1618365654882","","","null","","","","","","<p><img src= images/blank.png width =""600"" height = ""600"" style=""position:fixed;top:50%; left:50%; transform: translate(-50%, -50%); border:5px solid black"">","","","","","","","",""
"","2510.560000082478","sequential-stimulus-presentation-old","51","359535","0.0-15.0-1.4","SS1618365654882","trial","","40","500","3010.560000082478","images/stimuli/spore_stims/simple_07_A_b.gif","images/stimuli/spore_stims/simple_11_A_a.gif","forced_short","","3","simple_dissimilar","images/stimuli/spore_stims/simple_11_A_a.gif","","","","",""
"","3473.6800000537187","survey-multi-choice","52","363014","0.0-16.0","SS1618365654882","math_question","","","","","","","","","","","","{""Q0"":""3""}","[0]","3","",""
"","null","html-keyboard-response","53","364236","0.0-17.0-0.0","SS1618365654882","","","null","","","","","","<p><img src= images/blank.png width =""600"" height = ""600"" style=""position:fixed;top:50%; left:50%; transform: translate(-50%, -50%); border:5px solid black"">","","","","","","","",""
"","6401.460000080988","sequential-stimulus-presentation-old","54","375645","0.0-17.0-1.0","SS1618365654882","trial","","40","500","6901.460000080988","images/stimuli/spore_stims/complex_17_A_b.gif","images/stimuli/spore_stims/complex_20_A_a.gif","forced_long","","4","complex_dissimilar","images/stimuli/spore_stims/complex_20_A_a.gif","","","","",""
"","null","html-keyboard-response","55","376666","0.0-17.0-0.1","SS1618365654882","","","null","","","","","","<p><img src= images/blank.png width =""600"" height = ""600"" style=""position:fixed;top:50%; left:50%; transform: translate(-50%, -50%); border:5px solid black"">","","","","","","","",""
"","4400.454999995418","sequential-stimulus-presentation-old","56","381582","0.0-17.0-1.1","SS1618365654882","trial","","40","500","4900.454999995418","images/stimuli/spore_stims/complex_17_A_b.gif","images/stimuli/spore_stims/complex_20_A_a.gif","forced_long","","4","complex_dissimilar","images/stimuli/spore_stims/complex_20_A_a.gif","","","","",""
"","null","html-keyboard-response","57","382696","0.0-17.0-0.2","SS1618365654882","","","null","","","","","","<p><img src= images/blank.png width =""600"" height = ""600"" style=""position:fixed;top:50%; left:50%; transform: translate(-50%, -50%); border:5px solid black"">","","","","","","","",""
"","2259.1050000628456","sequential-stimulus-presentation-old","58","385471","0.0-17.0-1.2","SS1618365654882","trial","","40","500","2759.1050000628456","images/stimuli/spore_stims/complex_17_A_b.gif","images/stimuli/spore_stims/complex_20_A_a.gif","forced_long","","4","complex_dissimilar","images/stimuli/spore_stims/complex_20_A_a.gif","","","","",""
"","null","html-keyboard-response","59","386705","0.0-17.0-0.3","SS1618365654882","","","null","","","","","","<p><img src= images/blank.png width =""600"" height = ""600"" style=""position:fixed;top:50%; left:50%; transform: translate(-50%, -50%); border:5px solid black"">","","","","","","","",""
"","3025.7250000722706","sequential-stimulus-presentation-old","60","390243","0.0-17.0-1.3","SS1618365654882","trial","","40","500","3525.7250000722706","images/stimuli/spore_stims/complex_17_A_b.gif","images/stimuli/spore_stims/complex_20_A_a.gif","forced_long","","4","complex_dissimilar","images/stimuli/spore_stims/complex_20_A_a.gif","","","","",""
"","3414.145000046119","survey-multi-choice","61","393663","0.0-18.0","SS1618365654882","math_question","","","","","","","","","","","","{""Q0"":""10""}","[0]","10","",""
"","null","html-keyboard-response","62","394632","0.0-19.0-0.0","SS1618365654882","","","null","","","","","","<p><img src= images/blank.png width =""600"" height = ""600"" style=""position:fixed;top:50%; left:50%; transform: translate(-50%, -50%); border:5px solid black"">","","","","","","","",""
"","4616.810000035912","sequential-stimulus-presentation-old","63","399756","0.0-19.0-1.0","SS1618365654882","trial","","40","500","5116.810000035912","images/stimuli/spore_stims/simple_04_A_b.gif","images/stimuli/spore_stims/simple_14_A_a.gif","self_paced","","5","simple_dissimilar","images/stimuli/spore_stims/simple_14_A_a.gif","","","","",""
"","null","html-keyboard-response","64","400577","0.0-19.0-0.1","SS1618365654882","","","null","","","","","","<p><img src= images/blank.png width =""600"" height = ""600"" style=""position:fixed;top:50%; left:50%; transform: translate(-50%, -50%); border:5px solid black"">","","","","","","","",""
"","2033.075000043027","sequential-stimulus-presentation-old","65","403121","0.0-19.0-1.1","SS1618365654882","trial","","40","500","2533.075000043027","images/stimuli/spore_stims/simple_04_A_b.gif","images/stimuli/spore_stims/simple_14_A_a.gif","self_paced","","5","simple_dissimilar","images/stimuli/spore_stims/simple_14_A_a.gif","","","","",""
"","null","html-keyboard-response","66","404086","0.0-19.0-0.2","SS1618365654882","","","null","","","","","","<p><img src= images/blank.png width =""600"" height = ""600"" style=""position:fixed;top:50%; left:50%; transform: translate(-50%, -50%); border:5px solid black"">","","","","","","","",""
"","1704.1850000387058","sequential-stimulus-presentation-old","67","406310","0.0-19.0-1.2","SS1618365654882","trial","","40","500","2204.1850000387058","images/stimuli/spore_stims/simple_04_A_b.gif","images/stimuli/spore_stims/simple_14_A_a.gif","self_paced","","5","simple_dissimilar","images/stimuli/spore_stims/simple_04_A_b.gif","","","","",""
"","null","html-keyboard-response","68","407132","0.0-19.0-0.3","SS1618365654882","","","null","","","","","","<p><img src= images/blank.png width =""600"" height = ""600"" style=""position:fixed;top:50%; left:50%; transform: translate(-50%, -50%); border:5px solid black"">","","","","","","","",""
"","1075.7949999533594","sequential-stimulus-presentation-old","69","408722","0.0-19.0-1.3","SS1618365654882","trial","","40","500","1575.7949999533594","images/stimuli/spore_stims/simple_04_A_b.gif","images/stimuli/spore_stims/simple_14_A_a.gif","self_paced","","5","simple_dissimilar","images/stimuli/spore_stims/simple_14_A_a.gif","","","","",""
"","4061.6900000022724","survey-multi-choice","70","412788","0.0-20.0","SS1618365654882","math_question","","","","","","","","","","","","{""Q0"":""11""}","[0]","11","",""
"","null","html-keyboard-response","71","414052","0.0-21.0-0.0","SS1618365654882","","","null","","","","","","<p><img src= images/blank.png width =""600"" height = ""600"" style=""position:fixed;top:50%; left:50%; transform: translate(-50%, -50%); border:5px solid black"">","","","","","","","",""
"","4439.58499992732","sequential-stimulus-presentation-old","72","423503","0.0-21.0-1.0","SS1618365654882","trial","","40","500","4939.58499992732","images/stimuli/spore_stims/simple_18_A_b.gif","images/stimuli/spore_stims/simple_04_A_a.gif","forced_long","","6","simple_dissimilar","images/stimuli/spore_stims/simple_04_A_a.gif","","","","",""
"","null","html-keyboard-response","73","424686","0.0-21.0-0.1","SS1618365654882","","","null","","","","","","<p><img src= images/blank.png width =""600"" height = ""600"" style=""position:fixed;top:50%; left:50%; transform: translate(-50%, -50%); border:5px solid black"">","","","","","","","",""
"","2507.5700000161305","sequential-stimulus-presentation-old","74","427703","0.0-21.0-1.1","SS1618365654882","trial","","40","500","3007.5700000161305","images/stimuli/spore_stims/simple_18_A_b.gif","images/stimuli/spore_stims/simple_04_A_a.gif","forced_long","","6","simple_dissimilar","images/stimuli/spore_stims/simple_04_A_a.gif","","","","",""
"","null","html-keyboard-response","75","429006","0.0-21.0-0.2","SS1618365654882","","","null","","","","","","<p><img src= images/blank.png width =""600"" height = ""600"" style=""position:fixed;top:50%; left:50%; transform: translate(-50%, -50%); border:5px solid black"">","","","","","","","",""
"","2529.9299999605864","sequential-stimulus-presentation-old","76","432050","0.0-21.0-1.2","SS1618365654882","trial","","40","500","3029.9299999605864","images/stimuli/spore_stims/simple_18_A_b.gif","images/stimuli/spore_stims/simple_04_A_a.gif","forced_long","","6","simple_dissimilar","images/stimuli/spore_stims/simple_18_A_b.gif","","","","",""
"","null","html-keyboard-response","77","432928","0.0-21.0-0.3","SS1618365654882","","","null","","","","","","<p><img src= images/blank.png width =""600"" height = ""600"" style=""position:fixed;top:50%; left:50%; transform: translate(-50%, -50%); border:5px solid black"">","","","","","","","",""
"","1633.1350000109524","sequential-stimulus-presentation-old","78","435076","0.0-21.0-1.3","SS1618365654882","trial","","40","500","2133.1350000109524","images/stimuli/spore_stims/simple_18_A_b.gif","images/stimuli/spore_stims/simple_04_A_a.gif","forced_long","","6","simple_dissimilar","images/stimuli/spore_stims/simple_04_A_a.gif","","","","",""
"","null","html-keyboard-response","79","436289","0.0-21.0-0.4","SS1618365654882","","","null","","","","","","<p><img src= images/blank.png width =""600"" height = ""600"" style=""position:fixed;top:50%; left:50%; transform: translate(-50%, -50%); border:5px solid black"">","","","","","","","",""
"","1653.7449999013916","sequential-stimulus-presentation-old","80","438450","0.0-21.0-1.4","SS1618365654882","trial","","40","500","2153.7449999013916","images/stimuli/spore_stims/simple_18_A_b.gif","images/stimuli/spore_stims/simple_04_A_a.gif","forced_long","","6","simple_dissimilar","images/stimuli/spore_stims/simple_18_A_b.gif","","","","",""
"","null","html-keyboard-response","81","439625","0.0-21.0-0.5","SS1618365654882","","","null","","","","","","<p><img src= images/blank.png width =""600"" height = ""600"" style=""position:fixed;top:50%; left:50%; transform: translate(-50%, -50%); border:5px solid black"">","","","","","","","",""
"","805.5299998959526","sequential-stimulus-presentation-old","82","440937","0.0-21.0-1.5","SS1618365654882","trial","","40","500","1305.5299998959526","images/stimuli/spore_stims/simple_18_A_b.gif","images/stimuli/spore_stims/simple_04_A_a.gif","forced_long","","6","simple_dissimilar","images/stimuli/spore_stims/simple_04_A_a.gif","","","","",""
"","4734.669999917969","survey-multi-choice","83","445677","0.0-22.0","SS1618365654882","math_question","","","","","","","","","","","","{""Q0"":""11""}","[0]","11","",""
"","null","html-keyboard-response","84","446670","0.0-23.0-0.0","SS1618365654882","","","null","","","","","","<p><img src= images/blank.png width =""600"" height = ""600"" style=""position:fixed;top:50%; left:50%; transform: translate(-50%, -50%); border:5px solid black"">","","","","","","","",""
"","4154.240000061691","sequential-stimulus-presentation-old","85","455834","0.0-23.0-1.0","SS1618365654882","trial","","40","500","4654.240000061691","images/stimuli/spore_stims/complex_13_A_b.gif","images/stimuli/spore_stims/complex_08_A_a.gif","forced_long","","7","complex_dissimilar","images/stimuli/spore_stims/complex_08_A_a.gif","","","","",""
"","null","html-keyboard-response","86","457142","0.0-23.0-0.1","SS1618365654882","","","null","","","","","","<p><img src= images/blank.png width =""600"" height = ""600"" style=""position:fixed;top:50%; left:50%; transform: translate(-50%, -50%); border:5px solid black"">","","","","","","","",""
"","2165.1350000174716","sequential-stimulus-presentation-old","87","459823","0.0-23.0-1.1","SS1618365654882","trial","","40","500","2665.1350000174716","images/stimuli/spore_stims/complex_13_A_b.gif","images/stimuli/spore_stims/complex_08_A_a.gif","forced_long","","7","complex_dissimilar","images/stimuli/spore_stims/complex_08_A_a.gif","","","","",""
"","null","html-keyboard-response","88","460968","0.0-23.0-0.2","SS1618365654882","","","null","","","","","","<p><img src= images/blank.png width =""600"" height = ""600"" style=""position:fixed;top:50%; left:50%; transform: translate(-50%, -50%); border:5px solid black"">","","","","","","","",""
"","1515.0500000454485","sequential-stimulus-presentation-old","89","463000","0.0-23.0-1.2","SS1618365654882","trial","","40","500","2015.0500000454485","images/stimuli/spore_stims/complex_13_A_b.gif","images/stimuli/spore_stims/complex_08_A_a.gif","forced_long","","7","complex_dissimilar","images/stimuli/spore_stims/complex_08_A_a.gif","","","","",""
"","null","html-keyboard-response","90","464065","0.0-23.0-0.3","SS1618365654882","","","null","","","","","","<p><img src= images/blank.png width =""600"" height = ""600"" style=""position:fixed;top:50%; left:50%; transform: translate(-50%, -50%); border:5px solid black"">","","","","","","","",""
"","3286.8049999233335","sequential-stimulus-presentation-old","91","467867","0.0-23.0-1.3","SS1618365654882","trial","","40","500","3786.8049999233335","images/stimuli/spore_stims/complex_13_A_b.gif","images/stimuli/spore_stims/complex_08_A_a.gif","forced_long","","7","complex_dissimilar","images/stimuli/spore_stims/complex_08_A_a.gif","","","","",""
"","null","html-keyboard-response","92","468938","0.0-23.0-0.4","SS1618365654882","","","null","","","","","","<p><img src= images/blank.png width =""600"" height = ""600"" style=""position:fixed;top:50%; left:50%; transform: translate(-50%, -50%); border:5px solid black"">","","","","","","","",""
"","1456.7749999696389","sequential-stimulus-presentation-old","93","470910","0.0-23.0-1.4","SS1618365654882","trial","","40","500","1956.7749999696389","images/stimuli/spore_stims/complex_13_A_b.gif","images/stimuli/spore_stims/complex_08_A_a.gif","forced_long","","7","complex_dissimilar","images/stimuli/spore_stims/complex_08_A_a.gif","","","","",""
"","null","html-keyboard-response","94","471917","0.0-23.0-0.5","SS1618365654882","","","null","","","","","","<p><img src= images/blank.png width =""600"" height = ""600"" style=""position:fixed;top:50%; left:50%; transform: translate(-50%, -50%); border:5px solid black"">","","","","","","","",""
"","351.4600000344217","sequential-stimulus-presentation-old","95","472777","0.0-23.0-1.5","SS1618365654882","trial","","40","500","851.4600000344217","images/stimuli/spore_stims/complex_13_A_b.gif","images/stimuli/spore_stims/complex_08_A_a.gif","forced_long","","7","complex_dissimilar","images/stimuli/spore_stims/complex_08_A_a.gif","","","","",""
"","3456.624999991618","survey-multi-choice","96","476240","0.0-24.0","SS1618365654882","math_question","","","","","","","","","","","","{""Q0"":""13""}","[0]","13","",""
"","null","html-keyboard-response","97","477332","0.0-25.0-0.0","SS1618365654882","","","null","","","","","","<p><img src= images/blank.png width =""600"" height = ""600"" style=""position:fixed;top:50%; left:50%; transform: translate(-50%, -50%); border:5px solid black"">","","","","","","","",""
"","2834.389999974519","sequential-stimulus-presentation-old","98","480230","0.0-25.0-1.0","SS1618365654882","trial","","40","500","3334.389999974519","images/stimuli/spore_stims/complex_11_A_a.gif","images/stimuli/spore_stims/complex_14_A_b.gif","forced_short","","8","complex_dissimilar","images/stimuli/spore_stims/complex_14_A_b.gif","","","","",""
"","null","html-keyboard-response","99","481190","0.0-25.0-0.1","SS1618365654882","","","null","","","","","","<p><img src= images/blank.png width =""600"" height = ""600"" style=""position:fixed;top:50%; left:50%; transform: translate(-50%, -50%); border:5px solid black"">","","","","","","","",""
"","2619.21999999322","sequential-stimulus-presentation-old","100","484325","0.0-25.0-1.1","SS1618365654882","trial","","40","500","3119.21999999322","images/stimuli/spore_stims/complex_11_A_a.gif","images/stimuli/spore_stims/complex_14_A_b.gif","forced_short","","8","complex_dissimilar","images/stimuli/spore_stims/complex_14_A_b.gif","","","","",""
"","null","html-keyboard-response","101","485337","0.0-25.0-0.2","SS1618365654882","","","null","","","","","","<p><img src= images/blank.png width =""600"" height = ""600"" style=""position:fixed;top:50%; left:50%; transform: translate(-50%, -50%); border:5px solid black"">","","","","","","","",""
"","1078.440000070259","sequential-stimulus-presentation-old","102","486929","0.0-25.0-1.2","SS1618365654882","trial","","40","500","1578.440000070259","images/stimuli/spore_stims/complex_11_A_a.gif","images/stimuli/spore_stims/complex_14_A_b.gif","forced_short","","8","complex_dissimilar","images/stimuli/spore_stims/complex_14_A_b.gif","","","","",""
"","null","html-keyboard-response","103","487860","0.0-25.0-0.3","SS1618365654882","","","null","","","","","","<p><img src= images/blank.png width =""600"" height = ""600"" style=""position:fixed;top:50%; left:50%; transform: translate(-50%, -50%); border:5px solid black"">","","","","","","","",""
"","651.2199999997392","sequential-stimulus-presentation-old","104","489019","0.0-25.0-1.3","SS1618365654882","trial","","40","500","1151.2199999997392","images/stimuli/spore_stims/complex_11_A_a.gif","images/stimuli/spore_stims/complex_14_A_b.gif","forced_short","","8","complex_dissimilar","images/stimuli/spore_stims/complex_14_A_b.gif","","","","",""
"","3247.665000031702","survey-multi-choice","105","492274","0.0-26.0","SS1618365654882","math_question","","","","","","","","","","","","{""Q0"":""9""}","[0]","9","",""
"","null","html-keyboard-response","106","493198","0.0-27.0-0.0","SS1618365654882","","","null","","","","","","<p><img src= images/blank.png width =""600"" height = ""600"" style=""position:fixed;top:50%; left:50%; transform: translate(-50%, -50%); border:5px solid black"">","","","","","","","",""
"","1501.3199999229982","sequential-stimulus-presentation-old","107","495217","0.0-27.0-1.0","SS1618365654882","trial","","40","500","2001.3199999229982","images/stimuli/spore_stims/simple_01_A_b.gif","images/stimuli/spore_stims/simple_10_A_a.gif","self_paced","","9","simple_dissimilar","images/stimuli/spore_stims/simple_10_A_a.gif","","","","",""
"","null","html-keyboard-response","108","496068","0.0-27.0-0.1","SS1618365654882","","","null","","","","","","<p><img src= images/blank.png width =""600"" height = ""600"" style=""position:fixed;top:50%; left:50%; transform: translate(-50%, -50%); border:5px solid black"">","","","","","","","",""
"","855.9399999212474","sequential-stimulus-presentation-old","109","497438","0.0-27.0-1.1","SS1618365654882","trial","","40","500","1355.9399999212474","images/stimuli/spore_stims/simple_01_A_b.gif","images/stimuli/spore_stims/simple_10_A_a.gif","self_paced","","9","simple_dissimilar","images/stimuli/spore_stims/simple_01_A_b.gif","","","","",""
"","null","html-keyboard-response","110","498371","0.0-27.0-0.2","SS1618365654882","","","null","","","","","","<p><img src= images/blank.png width =""600"" height = ""600"" style=""position:fixed;top:50%; left:50%; transform: translate(-50%, -50%); border:5px solid black"">","","","","","","","",""
"","326.35500002652407","sequential-stimulus-presentation-old","111","499208","0.0-27.0-1.2","SS1618365654882","trial","","40","500","826.3550000265241","images/stimuli/spore_stims/simple_01_A_b.gif","images/stimuli/spore_stims/simple_10_A_a.gif","self_paced","","9","simple_dissimilar","images/stimuli/spore_stims/simple_01_A_b.gif","","","","",""
"","null","html-keyboard-response","112","500396","0.0-27.0-0.3","SS1618365654882","","","null","","","","","","<p><img src= images/blank.png width =""600"" height = ""600"" style=""position:fixed;top:50%; left:50%; transform: translate(-50%, -50%); border:5px solid black"">","","","","","","","",""
"","623.9999999525025","sequential-stimulus-presentation-old","113","501528","0.0-27.0-1.3","SS1618365654882","trial","","40","500","1123.9999999525025","images/stimuli/spore_stims/simple_01_A_b.gif","images/stimuli/spore_stims/simple_10_A_a.gif","self_paced","","9","simple_dissimilar","images/stimuli/spore_stims/simple_10_A_a.gif","","","","",""
"","3543.225000030361","survey-multi-choice","114","505076","0.0-28.0","SS1618365654882","math_question","","","","","","","","","","","","{""Q0"":""11""}","[0]","11","",""
"","null","html-keyboard-response","115","505959","0.0-29.0-0.0","SS1618365654882","","","null","","","","","","<p><img src= images/blank.png width =""600"" height = ""600"" style=""position:fixed;top:50%; left:50%; transform: translate(-50%, -50%); border:5px solid black"">","","","","","","","",""
"","2790.199999930337","sequential-stimulus-presentation-old","116","509260","0.0-29.0-1.0","SS1618365654882","trial","","40","500","3290.199999930337","images/stimuli/spore_stims/complex_10_A_a.gif","images/stimuli/spore_stims/complex_06_A_b.gif","self_paced","","10","complex_dissimilar","images/stimuli/spore_stims/complex_06_A_b.gif","","","","",""
"","null","html-keyboard-response","117","510148","0.0-29.0-0.1","SS1618365654882","","","null","","","","","","<p><img src= images/blank.png width =""600"" height = ""600"" style=""position:fixed;top:50%; left:50%; transform: translate(-50%, -50%); border:5px solid black"">","","","","","","","",""
"","2996.3999999454245","sequential-stimulus-presentation-old","118","513656","0.0-29.0-1.1","SS1618365654882","trial","","40","500","3496.3999999454245","images/stimuli/spore_stims/complex_10_A_a.gif","images/stimuli/spore_stims/complex_06_A_b.gif","self_paced","","10","complex_dissimilar","images/stimuli/spore_stims/complex_10_A_a.gif","","","","",""
"","null","html-keyboard-response","119","514731","0.0-29.0-0.2","SS1618365654882","","","null","","","","","","<p><img src= images/blank.png width =""600"" height = ""600"" style=""position:fixed;top:50%; left:50%; transform: translate(-50%, -50%); border:5px solid black"">","","","","","","","",""
"","1483.7149999802932","sequential-stimulus-presentation-old","120","516723","0.0-29.0-1.2","SS1618365654882","trial","","40","500","1983.7149999802932","images/stimuli/spore_stims/complex_10_A_a.gif","images/stimuli/spore_stims/complex_06_A_b.gif","self_paced","","10","complex_dissimilar","images/stimuli/spore_stims/complex_06_A_b.gif","","","","",""
"","null","html-keyboard-response","121","517644","0.0-29.0-0.3","SS1618365654882","","","null","","","","","","<p><img src= images/blank.png width =""600"" height = ""600"" style=""position:fixed;top:50%; left:50%; transform: translate(-50%, -50%); border:5px solid black"">","","","","","","","",""
"","979.2600000509992","sequential-stimulus-presentation-old","122","519140","0.0-29.0-1.3","SS1618365654882","trial","","40","500","1479.2600000509992","images/stimuli/spore_stims/complex_10_A_a.gif","images/stimuli/spore_stims/complex_06_A_b.gif","self_paced","","10","complex_dissimilar","images/stimuli/spore_stims/complex_06_A_b.gif","","","","",""
"","null","html-keyboard-response","123","520215","0.0-29.0-0.4","SS1618365654882","","","null","","","","","","<p><img src= images/blank.png width =""600"" height = ""600"" style=""position:fixed;top:50%; left:50%; transform: translate(-50%, -50%); border:5px solid black"">","","","","","","","",""
"","1108.790000085719","sequential-stimulus-presentation-old","124","521838","0.0-29.0-1.4","SS1618365654882","trial","","40","500","1608.790000085719","images/stimuli/spore_stims/complex_10_A_a.gif","images/stimuli/spore_stims/complex_06_A_b.gif","self_paced","","10","complex_dissimilar","images/stimuli/spore_stims/complex_06_A_b.gif","","","","",""
"","null","html-keyboard-response","125","523081","0.0-29.0-0.5","SS1618365654882","","","null","","","","","","<p><img src= images/blank.png width =""600"" height = ""600"" style=""position:fixed;top:50%; left:50%; transform: translate(-50%, -50%); border:5px solid black"">","","","","","","","",""
"","406.14500001538545","sequential-stimulus-presentation-old","126","523996","0.0-29.0-1.5","SS1618365654882","trial","","40","500","906.1450000153854","images/stimuli/spore_stims/complex_10_A_a.gif","images/stimuli/spore_stims/complex_06_A_b.gif","self_paced","","10","complex_dissimilar","images/stimuli/spore_stims/complex_10_A_a.gif","","","","",""
"","2827.1200000308454","survey-multi-choice","127","526829","0.0-30.0","SS1618365654882","math_question","","","","","","","","","","","","{""Q0"":""18""}","[0]","18","",""
"","null","html-keyboard-response","128","527994","0.0-31.0-0.0","SS1618365654882","","","null","","","","","","<p><img src= images/blank.png width =""600"" height = ""600"" style=""position:fixed;top:50%; left:50%; transform: translate(-50%, -50%); border:5px solid black"">","","","","","","","",""
"","2931.0749999713153","sequential-stimulus-presentation-old","129","531435","0.0-31.0-1.0","SS1618365654882","trial","","40","500","3431.0749999713153","images/stimuli/spore_stims/complex_04_A_b.gif","images/stimuli/spore_stims/complex_09_A_a.gif","self_paced","","11","complex_dissimilar","images/stimuli/spore_stims/complex_09_A_a.gif","","","","",""
"","null","html-keyboard-response","130","532499","0.0-31.0-0.1","SS1618365654882","","","null","","","","","","<p><img src= images/blank.png width =""600"" height = ""600"" style=""position:fixed;top:50%; left:50%; transform: translate(-50%, -50%); border:5px solid black"">","","","","","","","",""
"","797.6250000065193","sequential-stimulus-presentation-old","131","533813","0.0-31.0-1.1","SS1618365654882","trial","","40","500","1297.6250000065193","images/stimuli/spore_stims/complex_04_A_b.gif","images/stimuli/spore_stims/complex_09_A_a.gif","self_paced","","11","complex_dissimilar","images/stimuli/spore_stims/complex_09_A_a.gif","","","","",""
"","null","html-keyboard-response","132","535100","0.0-31.0-0.2","SS1618365654882","","","null","","","","","","<p><img src= images/blank.png width =""600"" height = ""600"" style=""position:fixed;top:50%; left:50%; transform: translate(-50%, -50%); border:5px solid black"">","","","","","","","",""
"","718.5850000241771","sequential-stimulus-presentation-old","133","536333","0.0-31.0-1.2","SS1618365654882","trial","","40","500","1218.5850000241771","images/stimuli/spore_stims/complex_04_A_b.gif","images/stimuli/spore_stims/complex_09_A_a.gif","self_paced","","11","complex_dissimilar","images/stimuli/spore_stims/complex_09_A_a.gif","","","","",""
"","null","html-keyboard-response","134","537264","0.0-31.0-0.3","SS1618365654882","","","null","","","","","","<p><img src= images/blank.png width =""600"" height = ""600"" style=""position:fixed;top:50%; left:50%; transform: translate(-50%, -50%); border:5px solid black"">","","","","","","","",""
"","1135.2300000144169","sequential-stimulus-presentation-old","135","538906","0.0-31.0-1.3","SS1618365654882","trial","","40","500","1635.2300000144169","images/stimuli/spore_stims/complex_04_A_b.gif","images/stimuli/spore_stims/complex_09_A_a.gif","self_paced","","11","complex_dissimilar","images/stimuli/spore_stims/complex_09_A_a.gif","","","","",""
"","null","html-keyboard-response","136","539988","0.0-31.0-0.4","SS1618365654882","","","null","","","","","","<p><img src= images/blank.png width =""600"" height = ""600"" style=""position:fixed;top:50%; left:50%; transform: translate(-50%, -50%); border:5px solid black"">","","","","","","","",""
"","1123.5800000140443","sequential-stimulus-presentation-old","137","541623","0.0-31.0-1.4","SS1618365654882","trial","","40","500","1623.5800000140443","images/stimuli/spore_stims/complex_04_A_b.gif","images/stimuli/spore_stims/complex_09_A_a.gif","self_paced","","11","complex_dissimilar","images/stimuli/spore_stims/complex_04_A_b.gif","","","","",""
"","null","html-keyboard-response","138","542919","0.0-31.0-0.5","SS1618365654882","","","null","","","","","","<p><img src= images/blank.png width =""600"" height = ""600"" style=""position:fixed;top:50%; left:50%; transform: translate(-50%, -50%); border:5px solid black"">","","","","","","","",""
"","429.36499998904765","sequential-stimulus-presentation-old","139","543861","0.0-31.0-1.5","SS1618365654882","trial","","40","500","929.3649999890476","images/stimuli/spore_stims/complex_04_A_b.gif","images/stimuli/spore_stims/complex_09_A_a.gif","self_paced","","11","complex_dissimilar","images/stimuli/spore_stims/complex_09_A_a.gif","","","","",""
"[{""page_index"":0,""viewing_time"":7190.610000048764}]","7191.040000063367","instructions","140","551057","0.0-32.0","SS1618365654882","instructions","","","","","","","","","","","","","","","",""
"","9992.27000004612","survey-likert","141","561056","0.0-33.0","SS1618365654882","similarity_question","","","","","","","","","","","","{""Q0"":2}","[0]","","images/stimuli/spore_stims/complex_11_A_a.gif","images/stimuli/spore_stims/complex_14_A_b.gif"
"","5270.189999951981","survey-likert","142","566332","0.0-34.0","SS1618365654882","similarity_question","","","","","","","","","","","","{""Q0"":2}","[0]","","images/stimuli/spore_stims/simple_14_A_a.gif","images/stimuli/spore_stims/simple_04_A_b.gif"
"","5157.294999924488","survey-likert","143","571495","0.0-35.0","SS1618365654882","similarity_question","","","","","","","","","","","","{""Q0"":2}","[0]","","images/stimuli/spore_stims/simple_04_A_a.gif","images/stimuli/spore_stims/simple_18_A_b.gif"
"","9637.580000096932","survey-likert","144","581140","0.0-36.0","SS1618365654882","similarity_question","","","","","","","","","","","","{""Q0"":1}","[0]","","images/stimuli/spore_stims/complex_17_A_b.gif","images/stimuli/spore_stims/complex_20_A_a.gif"
"","3228.884999989532","survey-likert","145","584380","0.0-37.0","SS1618365654882","similarity_question","","","","","","","","","","","","{""Q0"":4}","[0]","","images/stimuli/spore_stims/simple_12_A_b.gif","images/stimuli/spore_stims/simple_15_A_a.gif"
"","8111.709999968298","survey-likert","146","592497","0.0-38.0","SS1618365654882","similarity_question","","","","","","","","","","","","{""Q0"":2}","[0]","","images/stimuli/spore_stims/complex_19_A_a.gif","images/stimuli/spore_stims/complex_16_A_b.gif"
"","4890.480000060052","survey-likert","147","597394","0.0-39.0","SS1618365654882","similarity_question","","","","","","","","","","","","{""Q0"":4}","[0]","","images/stimuli/spore_stims/simple_17_A_b.gif","images/stimuli/spore_stims/simple_13_A_a.gif"
"","5964.635000098497","survey-likert","148","603366","0.0-40.0","SS1618365654882","similarity_question","","","","","","","","","","","","{""Q0"":4}","[0]","","images/stimuli/spore_stims/complex_10_A_a.gif","images/stimuli/spore_stims/complex_06_A_b.gif"
"","6791.869999957271","survey-likert","149","610164","0.0-41.0","SS1618365654882","similarity_question","","","","","","","","","","","","{""Q0"":4}","[0]","","images/stimuli/spore_stims/complex_13_A_b.gif","images/stimuli/spore_stims/complex_08_A_a.gif"
"","4493.51000005845","survey-likert","150","614662","0.0-42.0","SS1618365654882","similarity_question","","","","","","","","","","","","{""Q0"":1}","[0]","","images/stimuli/spore_stims/simple_07_A_b.gif","images/stimuli/spore_stims/simple_11_A_a.gif"
"","5253.260000026785","survey-likert","151","619924","0.0-43.0","SS1618365654882","similarity_question","","","","","","","","","","","","{""Q0"":1}","[0]","","images/stimuli/spore_stims/complex_09_A_a.gif","images/stimuli/spore_stims/complex_04_A_b.gif"
"","4276.930000050925","survey-likert","152","624209","0.0-44.0","SS1618365654882","similarity_question","","","","","","","","","","","","{""Q0"":2}","[0]","","images/stimuli/spore_stims/simple_01_A_b.gif","images/stimuli/spore_stims/simple_10_A_a.gif"
"[{""page_index"":0,""viewing_time"":6492.330000037327}]","6492.915000068024","instructions","153","630711","0.0-45.0","SS1618365654882","instructions","","","","","","","","","","","","","","","",""
"","5665.4100000159815","survey-likert","154","636383","0.0-46.0","SS1618365654882","","","","","","","","","images/stimuli/spore_stims/simple_04_A_b.gif","","","","{""Q0"":1}","[0]","","",""
"","11854.100000113249","survey-likert","155","648245","0.0-47.0","SS1618365654882","","","","","","","","","images/stimuli/spore_stims/complex_17_A_b.gif","","","","{""Q0"":4}","[0]","","",""
"","2709.999999962747","survey-likert","156","650962","0.0-48.0","SS1618365654882","","","","","","","","","images/stimuli/spore_stims/complex_13_A_b.gif","","","","{""Q0"":5}","[0]","","",""
"","2556.0249999398366","survey-likert","157","653524","0.0-49.0","SS1618365654882","","","","","","","","","images/stimuli/spore_stims/complex_06_A_b.gif","","","","{""Q0"":5}","[0]","","",""
"","3101.634999969974","survey-likert","158","656631","0.0-50.0","SS1618365654882","","","","","","","","","images/stimuli/spore_stims/complex_19_A_a.gif","","","","{""Q0"":6}","[0]","","",""
"","2856.48499999661","survey-likert","159","659494","0.0-51.0","SS1618365654882","","","","","","","","","images/stimuli/spore_stims/simple_18_A_b.gif","","","","{""Q0"":2}","[0]","","",""
"","4654.814999899827","survey-likert","160","664155","0.0-52.0","SS1618365654882","","","","","","","","","images/stimuli/spore_stims/simple_15_A_a.gif","","","","{""Q0"":1}","[0]","","",""
"","3193.0799999972805","survey-likert","161","667356","0.0-53.0","SS1618365654882","","","","","","","","","images/stimuli/spore_stims/complex_11_A_a.gif","","","","{""Q0"":5}","[0]","","",""
"","2562.030000030063","survey-likert","162","669923","0.0-54.0","SS1618365654882","","","","","","","","","images/stimuli/spore_stims/complex_04_A_b.gif","","","","{""Q0"":5}","[0]","","",""
"","3173.964999965392","survey-likert","163","673103","0.0-55.0","SS1618365654882","","","","","","","","","images/stimuli/spore_stims/simple_07_A_b.gif","","","","{""Q0"":2}","[0]","","",""
"","2197.965000057593","survey-likert","164","675310","0.0-56.0","SS1618365654882","","","","","","","","","images/stimuli/spore_stims/simple_10_A_a.gif","","","","{""Q0"":2}","[0]","","",""
"","3725.775000057183","survey-likert","165","679044","0.0-57.0","SS1618365654882","","","","","","","","","images/stimuli/spore_stims/simple_13_A_a.gif","","","","{""Q0"":1}","[0]","","",""
"[{""page_index"":0,""viewing_time"":2714.6549999015406}]","2715.555000002496","instructions","166","681768","0.0-58.0","SS1618365654882","instructions","","","","","","","","","","","","","","","",""
"","2729.369999957271","demog-age","167","684508","0.0-59.0","SS1618365654882","","","","","","","","","","","","","{""age"":""30""}","","","",""
"","4986.8449999485165","demog-ethnic-US","168","689506","0.0-60.0","SS1618365654882","","","","","","","","","","","","","{""ethnicity"":[""Asian""]}","[0]","","",""
"","7479.365000035614","demog-gender-and-education","169","696996","0.0-61.0","SS1618365654882","","","","","","","","","","","","","{""gender"":""Female"",""education"":""Bachelor's Degree""}","[0,1]","","",""
"","7551.890000002459","survey-text","170","704555","0.0-62.0","SS1618365654882","feedback","","","","","","","","","","","","{""Q0"":""no""}","","","",""
"[{""page_index"":0,""viewing_time"":3768.804999999702}]","3769.1450000274926","instructions","171","708329","0.0-63.0","SS1618365654882","instructions","","","","","","","","","","","","","","","",""
