"view_history","rt","trial_type","trial_index","time_elapsed","internal_node_id","subject","stimulus_type","trial_stimulus","key_press","minimum_viewing_duration","trial_looking_time","block_deviant","block_background","exposure_type","stimulus","block_number","block_type","stimulus_displayed","responses","question_order","math_correct_answer","stimulus_left","stimulus_right"
"[{""page_index"":0,""viewing_time"":2310.9000000113156}]","2311.2700000056066","instructions","0","2312","0.0-0.0","SS1618435870907","","","","","","","","","","","","","","","","",""
"[{""page_index"":0,""viewing_time"":59594.35999998823},{""page_index"":1,""viewing_time"":6687.985000011395}]","66282.65999999712","instructions","1","70608","0.0-1.0","SS1618435870907","instructions","","","","","","","","","","","","","","","",""
"","6730.314999993425","sequential-stimulus-presentation-old","2","77842","0.0-2.0","SS1618435870907","","","40","500","7230.314999993425","null","null","self_paced","","","","","","","","",""
"","54815.91999999364","sequential-stimulus-presentation-old","3","133159","0.0-3.0","SS1618435870907","","","40","500","55315.91999999364","null","null","self_paced","","","","","","","","",""
"[{""page_index"":0,""viewing_time"":264390.5899999954}]","264390.8700000029","instructions","4","397552","0.0-4.0","SS1618435870907","instructions","","","","","","","","","","","","","","","",""
"","1893.96499999566","sequential-stimulus-presentation-old","5","404448","0.0-5.0","SS1618435870907","","","40","500","2393.96499999566","null","null","forced_long","","","","","","","","",""
"","3283.609999998589","sequential-stimulus-presentation-old","6","407792","0.0-6.0","SS1618435870907","","","40","50","3333.609999998589","null","null","forced_long","","","","","","","","",""
"[{""page_index"":0,""viewing_time"":1207.605000003241}]","1207.7050000079907","instructions","7","409000","0.0-7.0","SS1618435870907","instructions","","","","","","","","","","","","","","","",""
"[{""page_index"":0,""viewing_time"":9910.605000011856},{""page_index"":1,""viewing_time"":8176.2349999917205},{""page_index"":2,""viewing_time"":7023.795000000973},{""page_index"":3,""viewing_time"":1088.0299999989802},{""page_index"":4,""viewing_time"":944.2850000050385}]","27143.1450000091","instructions","8","436144","0.0-8.0","SS1618435870907","instructions","","","","","","","","","","","","","","","",""
"","null","html-keyboard-response","9","437076","0.0-9.0-0.0","SS1618435870907","","","null","","","","","","<p><img src= images/blank.png width =""600"" height = ""600"" style=""position:fixed;top:50%; left:50%; transform: translate(-50%, -50%); border:5px solid black"">","","","","","","","",""
"","14816.630000001169","sequential-stimulus-presentation-old","10","452399","0.0-9.0-1.0","SS1618435870907","trial","","40","500","15316.630000001169","images/stimuli/spore_stims/simple_19_A_a.gif","images/stimuli/spore_stims/simple_13_A_b.gif","self_paced","","0","simple_dissimilar","images/stimuli/spore_stims/simple_13_A_b.gif","","","","",""
"","null","html-keyboard-response","11","453403","0.0-9.0-0.1","SS1618435870907","","","null","","","","","","<p><img src= images/blank.png width =""600"" height = ""600"" style=""position:fixed;top:50%; left:50%; transform: translate(-50%, -50%); border:5px solid black"">","","","","","","","",""
"","7301.849999988917","sequential-stimulus-presentation-old","12","461216","0.0-9.0-1.1","SS1618435870907","trial","","40","500","7801.849999988917","images/stimuli/spore_stims/simple_19_A_a.gif","images/stimuli/spore_stims/simple_13_A_b.gif","self_paced","","0","simple_dissimilar","images/stimuli/spore_stims/simple_19_A_a.gif","","","","",""
"","null","html-keyboard-response","13","462098","0.0-9.0-0.2","SS1618435870907","","","null","","","","","","<p><img src= images/blank.png width =""600"" height = ""600"" style=""position:fixed;top:50%; left:50%; transform: translate(-50%, -50%); border:5px solid black"">","","","","","","","",""
"","6262.964999987162","sequential-stimulus-presentation-old","14","468863","0.0-9.0-1.2","SS1618435870907","trial","","40","500","6762.964999987162","images/stimuli/spore_stims/simple_19_A_a.gif","images/stimuli/spore_stims/simple_13_A_b.gif","self_paced","","0","simple_dissimilar","images/stimuli/spore_stims/simple_13_A_b.gif","","","","",""
"","null","html-keyboard-response","15","469909","0.0-9.0-0.3","SS1618435870907","","","null","","","","","","<p><img src= images/blank.png width =""600"" height = ""600"" style=""position:fixed;top:50%; left:50%; transform: translate(-50%, -50%); border:5px solid black"">","","","","","","","",""
"","5412.939999994705","sequential-stimulus-presentation-old","16","475831","0.0-9.0-1.3","SS1618435870907","trial","","40","500","5912.939999994705","images/stimuli/spore_stims/simple_19_A_a.gif","images/stimuli/spore_stims/simple_13_A_b.gif","self_paced","","0","simple_dissimilar","images/stimuli/spore_stims/simple_13_A_b.gif","","","","",""
"","null","html-keyboard-response","17","476715","0.0-9.0-0.4","SS1618435870907","","","null","","","","","","<p><img src= images/blank.png width =""600"" height = ""600"" style=""position:fixed;top:50%; left:50%; transform: translate(-50%, -50%); border:5px solid black"">","","","","","","","",""
"","10461.70999998867","sequential-stimulus-presentation-old","18","487680","0.0-9.0-1.4","SS1618435870907","trial","","40","500","10961.70999998867","images/stimuli/spore_stims/simple_19_A_a.gif","images/stimuli/spore_stims/simple_13_A_b.gif","self_paced","","0","simple_dissimilar","images/stimuli/spore_stims/simple_13_A_b.gif","","","","",""
"","null","html-keyboard-response","19","488936","0.0-9.0-0.5","SS1618435870907","","","null","","","","","","<p><img src= images/blank.png width =""600"" height = ""600"" style=""position:fixed;top:50%; left:50%; transform: translate(-50%, -50%); border:5px solid black"">","","","","","","","",""
"","1240.349999992759","sequential-stimulus-presentation-old","20","490679","0.0-9.0-1.5","SS1618435870907","trial","","40","500","1740.349999992759","images/stimuli/spore_stims/simple_19_A_a.gif","images/stimuli/spore_stims/simple_13_A_b.gif","self_paced","","0","simple_dissimilar","images/stimuli/spore_stims/simple_19_A_a.gif","","","","",""
"","7919.020000001183","survey-multi-choice","21","498601","0.0-10.0","SS1618435870907","math_question","","","","","","","","","","","","{""Q0"":""13""}","[0]","13","",""
"","null","html-keyboard-response","22","499874","0.0-11.0-0.0","SS1618435870907","","","null","","","","","","<p><img src= images/blank.png width =""600"" height = ""600"" style=""position:fixed;top:50%; left:50%; transform: translate(-50%, -50%); border:5px solid black"">","","","","","","","",""
"","8478.07000001194","sequential-stimulus-presentation-old","23","513360","0.0-11.0-1.0","SS1618435870907","trial","","40","500","8978.07000001194","images/stimuli/spore_stims/complex_05_A_a.gif","images/stimuli/spore_stims/complex_01_A_b.gif","forced_long","","1","complex_dissimilar","images/stimuli/spore_stims/complex_01_A_b.gif","","","","",""
"","null","html-keyboard-response","24","514169","0.0-11.0-0.1","SS1618435870907","","","null","","","","","","<p><img src= images/blank.png width =""600"" height = ""600"" style=""position:fixed;top:50%; left:50%; transform: translate(-50%, -50%); border:5px solid black"">","","","","","","","",""
"","6369.679999988875","sequential-stimulus-presentation-old","25","521047","0.0-11.0-1.1","SS1618435870907","trial","","40","500","6869.679999988875","images/stimuli/spore_stims/complex_05_A_a.gif","images/stimuli/spore_stims/complex_01_A_b.gif","forced_long","","1","complex_dissimilar","images/stimuli/spore_stims/complex_01_A_b.gif","","","","",""
"","null","html-keyboard-response","26","521974","0.0-11.0-0.2","SS1618435870907","","","null","","","","","","<p><img src= images/blank.png width =""600"" height = ""600"" style=""position:fixed;top:50%; left:50%; transform: translate(-50%, -50%); border:5px solid black"">","","","","","","","",""
"","5984.060000002501","sequential-stimulus-presentation-old","27","528471","0.0-11.0-1.2","SS1618435870907","trial","","40","500","6484.060000002501","images/stimuli/spore_stims/complex_05_A_a.gif","images/stimuli/spore_stims/complex_01_A_b.gif","forced_long","","1","complex_dissimilar","images/stimuli/spore_stims/complex_01_A_b.gif","","","","",""
"","null","html-keyboard-response","28","529398","0.0-11.0-0.3","SS1618435870907","","","null","","","","","","<p><img src= images/blank.png width =""600"" height = ""600"" style=""position:fixed;top:50%; left:50%; transform: translate(-50%, -50%); border:5px solid black"">","","","","","","","",""
"","11500.725000005332","sequential-stimulus-presentation-old","29","541407","0.0-11.0-1.3","SS1618435870907","trial","","40","500","12000.725000005332","images/stimuli/spore_stims/complex_05_A_a.gif","images/stimuli/spore_stims/complex_01_A_b.gif","forced_long","","1","complex_dissimilar","images/stimuli/spore_stims/complex_01_A_b.gif","","","","",""
"","null","html-keyboard-response","30","542653","0.0-11.0-0.4","SS1618435870907","","","null","","","","","","<p><img src= images/blank.png width =""600"" height = ""600"" style=""position:fixed;top:50%; left:50%; transform: translate(-50%, -50%); border:5px solid black"">","","","","","","","",""
"","379.2549999925541","sequential-stimulus-presentation-old","31","543535","0.0-11.0-1.4","SS1618435870907","trial","","40","500","879.2549999925541","images/stimuli/spore_stims/complex_05_A_a.gif","images/stimuli/spore_stims/complex_01_A_b.gif","forced_long","","1","complex_dissimilar","images/stimuli/spore_stims/complex_01_A_b.gif","","","","",""
"","null","html-keyboard-response","32","544440","0.0-11.0-0.5","SS1618435870907","","","null","","","","","","<p><img src= images/blank.png width =""600"" height = ""600"" style=""position:fixed;top:50%; left:50%; transform: translate(-50%, -50%); border:5px solid black"">","","","","","","","",""
"","2598.939999996219","sequential-stimulus-presentation-old","33","547543","0.0-11.0-1.5","SS1618435870907","trial","","40","500","3098.939999996219","images/stimuli/spore_stims/complex_05_A_a.gif","images/stimuli/spore_stims/complex_01_A_b.gif","forced_long","","1","complex_dissimilar","images/stimuli/spore_stims/complex_01_A_b.gif","","","","",""
"","2982.7150000055553","survey-multi-choice","34","550528","0.0-12.0","SS1618435870907","math_question","","","","","","","","","","","","{""Q0"":""12""}","[0]","12","",""
"","null","html-keyboard-response","35","551692","0.0-13.0-0.0","SS1618435870907","","","null","","","","","","<p><img src= images/blank.png width =""600"" height = ""600"" style=""position:fixed;top:50%; left:50%; transform: translate(-50%, -50%); border:5px solid black"">","","","","","","","",""
"","2966.9250000006286","sequential-stimulus-presentation-old","36","555167","0.0-13.0-1.0","SS1618435870907","trial","","40","500","3466.9250000006286","images/stimuli/spore_stims/complex_15_A_a.gif","images/stimuli/spore_stims/complex_17_A_b.gif","self_paced","","2","complex_dissimilar","images/stimuli/spore_stims/complex_17_A_b.gif","","","","",""
"","null","html-keyboard-response","37","556407","0.0-13.0-0.1","SS1618435870907","","","null","","","","","","<p><img src= images/blank.png width =""600"" height = ""600"" style=""position:fixed;top:50%; left:50%; transform: translate(-50%, -50%); border:5px solid black"">","","","","","","","",""
"","2912.209999994957","sequential-stimulus-presentation-old","38","559827","0.0-13.0-1.1","SS1618435870907","trial","","40","500","3412.209999994957","images/stimuli/spore_stims/complex_15_A_a.gif","images/stimuli/spore_stims/complex_17_A_b.gif","self_paced","","2","complex_dissimilar","images/stimuli/spore_stims/complex_15_A_a.gif","","","","",""
"","null","html-keyboard-response","39","560732","0.0-13.0-0.2","SS1618435870907","","","null","","","","","","<p><img src= images/blank.png width =""600"" height = ""600"" style=""position:fixed;top:50%; left:50%; transform: translate(-50%, -50%); border:5px solid black"">","","","","","","","",""
"","4429.589999999735","sequential-stimulus-presentation-old","40","565665","0.0-13.0-1.2","SS1618435870907","trial","","40","500","4929.589999999735","images/stimuli/spore_stims/complex_15_A_a.gif","images/stimuli/spore_stims/complex_17_A_b.gif","self_paced","","2","complex_dissimilar","images/stimuli/spore_stims/complex_15_A_a.gif","","","","",""
"","null","html-keyboard-response","41","566732","0.0-13.0-0.3","SS1618435870907","","","null","","","","","","<p><img src= images/blank.png width =""600"" height = ""600"" style=""position:fixed;top:50%; left:50%; transform: translate(-50%, -50%); border:5px solid black"">","","","","","","","",""
"","747.3400000017136","sequential-stimulus-presentation-old","42","567991","0.0-13.0-1.3","SS1618435870907","trial","","40","500","1247.3400000017136","images/stimuli/spore_stims/complex_15_A_a.gif","images/stimuli/spore_stims/complex_17_A_b.gif","self_paced","","2","complex_dissimilar","images/stimuli/spore_stims/complex_17_A_b.gif","","","","",""
"","null","html-keyboard-response","43","569278","0.0-13.0-0.4","SS1618435870907","","","null","","","","","","<p><img src= images/blank.png width =""600"" height = ""600"" style=""position:fixed;top:50%; left:50%; transform: translate(-50%, -50%); border:5px solid black"">","","","","","","","",""
"","450.010000000475","sequential-stimulus-presentation-old","44","570231","0.0-13.0-1.4","SS1618435870907","trial","","40","500","950.010000000475","images/stimuli/spore_stims/complex_15_A_a.gif","images/stimuli/spore_stims/complex_17_A_b.gif","self_paced","","2","complex_dissimilar","images/stimuli/spore_stims/complex_17_A_b.gif","","","","",""
"","2399.1449999884935","survey-multi-choice","45","572632","0.0-14.0","SS1618435870907","math_question","","","","","","","","","","","","{""Q0"":""5""}","[0]","5","",""
"","null","html-keyboard-response","46","573908","0.0-15.0-0.0","SS1618435870907","","","null","","","","","","<p><img src= images/blank.png width =""600"" height = ""600"" style=""position:fixed;top:50%; left:50%; transform: translate(-50%, -50%); border:5px solid black"">","","","","","","","",""
"","1781.3899999891873","sequential-stimulus-presentation-old","47","575744","0.0-15.0-1.0","SS1618435870907","trial","","40","500","2281.3899999891873","images/stimuli/spore_stims/simple_12_A_a.gif","images/stimuli/spore_stims/simple_19_A_b.gif","forced_short","","3","simple_dissimilar","images/stimuli/spore_stims/simple_19_A_b.gif","","","","",""
"","null","html-keyboard-response","48","576789","0.0-15.0-0.1","SS1618435870907","","","null","","","","","","<p><img src= images/blank.png width =""600"" height = ""600"" style=""position:fixed;top:50%; left:50%; transform: translate(-50%, -50%); border:5px solid black"">","","","","","","","",""
"","3306.234999996377","sequential-stimulus-presentation-old","49","580599","0.0-15.0-1.1","SS1618435870907","trial","","40","500","3806.234999996377","images/stimuli/spore_stims/simple_12_A_a.gif","images/stimuli/spore_stims/simple_19_A_b.gif","forced_short","","3","simple_dissimilar","images/stimuli/spore_stims/simple_12_A_a.gif","","","","",""
"","null","html-keyboard-response","50","581572","0.0-15.0-0.2","SS1618435870907","","","null","","","","","","<p><img src= images/blank.png width =""600"" height = ""600"" style=""position:fixed;top:50%; left:50%; transform: translate(-50%, -50%); border:5px solid black"">","","","","","","","",""
"","3098.8649999926565","sequential-stimulus-presentation-old","51","585176","0.0-15.0-1.2","SS1618435870907","trial","","40","500","3598.8649999926565","images/stimuli/spore_stims/simple_12_A_a.gif","images/stimuli/spore_stims/simple_19_A_b.gif","forced_short","","3","simple_dissimilar","images/stimuli/spore_stims/simple_19_A_b.gif","","","","",""
"","null","html-keyboard-response","52","586370","0.0-15.0-0.3","SS1618435870907","","","null","","","","","","<p><img src= images/blank.png width =""600"" height = ""600"" style=""position:fixed;top:50%; left:50%; transform: translate(-50%, -50%); border:5px solid black"">","","","","","","","",""
"","2682.8549999918323","sequential-stimulus-presentation-old","53","589561","0.0-15.0-1.3","SS1618435870907","trial","","40","500","3182.8549999918323","images/stimuli/spore_stims/simple_12_A_a.gif","images/stimuli/spore_stims/simple_19_A_b.gif","forced_short","","3","simple_dissimilar","images/stimuli/spore_stims/simple_12_A_a.gif","","","","",""
"","null","html-keyboard-response","54","590778","0.0-15.0-0.4","SS1618435870907","","","null","","","","","","<p><img src= images/blank.png width =""600"" height = ""600"" style=""position:fixed;top:50%; left:50%; transform: translate(-50%, -50%); border:5px solid black"">","","","","","","","",""
"","585.1350000011735","sequential-stimulus-presentation-old","55","591872","0.0-15.0-1.4","SS1618435870907","trial","","40","500","1085.1350000011735","images/stimuli/spore_stims/simple_12_A_a.gif","images/stimuli/spore_stims/simple_19_A_b.gif","forced_short","","3","simple_dissimilar","images/stimuli/spore_stims/simple_19_A_b.gif","","","","",""
"","null","html-keyboard-response","56","592712","0.0-15.0-0.5","SS1618435870907","","","null","","","","","","<p><img src= images/blank.png width =""600"" height = ""600"" style=""position:fixed;top:50%; left:50%; transform: translate(-50%, -50%); border:5px solid black"">","","","","","","","",""
"","2010.0450000027195","sequential-stimulus-presentation-old","57","595232","0.0-15.0-1.5","SS1618435870907","trial","","40","500","2510.0450000027195","images/stimuli/spore_stims/simple_12_A_a.gif","images/stimuli/spore_stims/simple_19_A_b.gif","forced_short","","3","simple_dissimilar","images/stimuli/spore_stims/simple_19_A_b.gif","","","","",""
"","2485.3799999982584","survey-multi-choice","58","597720","0.0-16.0","SS1618435870907","math_question","","","","","","","","","","","","{""Q0"":""10""}","[0]","10","",""
"","null","html-keyboard-response","59","598650","0.0-17.0-0.0","SS1618435870907","","","null","","","","","","<p><img src= images/blank.png width =""600"" height = ""600"" style=""position:fixed;top:50%; left:50%; transform: translate(-50%, -50%); border:5px solid black"">","","","","","","","",""
"","3840.184999993653","sequential-stimulus-presentation-old","60","607496","0.0-17.0-1.0","SS1618435870907","trial","","40","500","4340.184999993653","images/stimuli/spore_stims/complex_01_A_a.gif","images/stimuli/spore_stims/complex_20_A_b.gif","forced_long","","4","complex_dissimilar","images/stimuli/spore_stims/complex_20_A_b.gif","","","","",""
"","null","html-keyboard-response","61","608620","0.0-17.0-0.1","SS1618435870907","","","null","","","","","","<p><img src= images/blank.png width =""600"" height = ""600"" style=""position:fixed;top:50%; left:50%; transform: translate(-50%, -50%); border:5px solid black"">","","","","","","","",""
"","4606.505000003381","sequential-stimulus-presentation-old","62","613735","0.0-17.0-1.1","SS1618435870907","trial","","40","500","5106.505000003381","images/stimuli/spore_stims/complex_01_A_a.gif","images/stimuli/spore_stims/complex_20_A_b.gif","forced_long","","4","complex_dissimilar","images/stimuli/spore_stims/complex_20_A_b.gif","","","","",""
"","null","html-keyboard-response","63","614655","0.0-17.0-0.2","SS1618435870907","","","null","","","","","","<p><img src= images/blank.png width =""600"" height = ""600"" style=""position:fixed;top:50%; left:50%; transform: translate(-50%, -50%); border:5px solid black"">","","","","","","","",""
"","411.1899999988964","sequential-stimulus-presentation-old","64","615575","0.0-17.0-1.2","SS1618435870907","trial","","40","500","911.1899999988964","images/stimuli/spore_stims/complex_01_A_a.gif","images/stimuli/spore_stims/complex_20_A_b.gif","forced_long","","4","complex_dissimilar","images/stimuli/spore_stims/complex_01_A_a.gif","","","","",""
"","null","html-keyboard-response","65","616657","0.0-17.0-0.3","SS1618435870907","","","null","","","","","","<p><img src= images/blank.png width =""600"" height = ""600"" style=""position:fixed;top:50%; left:50%; transform: translate(-50%, -50%); border:5px solid black"">","","","","","","","",""
"","191.04499999957625","sequential-stimulus-presentation-old","66","617352","0.0-17.0-1.3","SS1618435870907","trial","","40","500","691.0449999995762","images/stimuli/spore_stims/complex_01_A_a.gif","images/stimuli/spore_stims/complex_20_A_b.gif","forced_long","","4","complex_dissimilar","images/stimuli/spore_stims/complex_20_A_b.gif","","","","",""
"","null","html-keyboard-response","67","618572","0.0-17.0-0.4","SS1618435870907","","","null","","","","","","<p><img src= images/blank.png width =""600"" height = ""600"" style=""position:fixed;top:50%; left:50%; transform: translate(-50%, -50%); border:5px solid black"">","","","","","","","",""
"","156.9000000017695","sequential-stimulus-presentation-old","68","619231","0.0-17.0-1.4","SS1618435870907","trial","","40","500","656.9000000017695","images/stimuli/spore_stims/complex_01_A_a.gif","images/stimuli/spore_stims/complex_20_A_b.gif","forced_long","","4","complex_dissimilar","images/stimuli/spore_stims/complex_01_A_a.gif","","","","",""
"","2894.1199999972014","survey-multi-choice","69","622128","0.0-18.0","SS1618435870907","math_question","","","","","","","","","","","","{""Q0"":""10""}","[0]","10","",""
"","null","html-keyboard-response","70","623381","0.0-19.0-0.0","SS1618435870907","","","null","","","","","","<p><img src= images/blank.png width =""600"" height = ""600"" style=""position:fixed;top:50%; left:50%; transform: translate(-50%, -50%); border:5px solid black"">","","","","","","","",""
"","2968.3899999945424","sequential-stimulus-presentation-old","71","626856","0.0-19.0-1.0","SS1618435870907","trial","","40","500","3468.3899999945424","images/stimuli/spore_stims/complex_11_A_b.gif","images/stimuli/spore_stims/complex_17_A_a.gif","self_paced","","5","complex_dissimilar","images/stimuli/spore_stims/complex_17_A_a.gif","","","","",""
"","null","html-keyboard-response","72","627983","0.0-19.0-0.1","SS1618435870907","","","null","","","","","","<p><img src= images/blank.png width =""600"" height = ""600"" style=""position:fixed;top:50%; left:50%; transform: translate(-50%, -50%); border:5px solid black"">","","","","","","","",""
"","1269.5300000050338","sequential-stimulus-presentation-old","73","629760","0.0-19.0-1.1","SS1618435870907","trial","","40","500","1769.5300000050338","images/stimuli/spore_stims/complex_11_A_b.gif","images/stimuli/spore_stims/complex_17_A_a.gif","self_paced","","5","complex_dissimilar","images/stimuli/spore_stims/complex_17_A_a.gif","","","","",""
"","null","html-keyboard-response","74","630842","0.0-19.0-0.2","SS1618435870907","","","null","","","","","","<p><img src= images/blank.png width =""600"" height = ""600"" style=""position:fixed;top:50%; left:50%; transform: translate(-50%, -50%); border:5px solid black"">","","","","","","","",""
"","1691.6150000033667","sequential-stimulus-presentation-old","75","633040","0.0-19.0-1.2","SS1618435870907","trial","","40","500","2191.6150000033667","images/stimuli/spore_stims/complex_11_A_b.gif","images/stimuli/spore_stims/complex_17_A_a.gif","self_paced","","5","complex_dissimilar","images/stimuli/spore_stims/complex_17_A_a.gif","","","","",""
"","null","html-keyboard-response","76","634336","0.0-19.0-0.3","SS1618435870907","","","null","","","","","","<p><img src= images/blank.png width =""600"" height = ""600"" style=""position:fixed;top:50%; left:50%; transform: translate(-50%, -50%); border:5px solid black"">","","","","","","","",""
"","2752.200000002631","sequential-stimulus-presentation-old","77","637592","0.0-19.0-1.3","SS1618435870907","trial","","40","500","3252.200000002631","images/stimuli/spore_stims/complex_11_A_b.gif","images/stimuli/spore_stims/complex_17_A_a.gif","self_paced","","5","complex_dissimilar","images/stimuli/spore_stims/complex_11_A_b.gif","","","","",""
"","null","html-keyboard-response","78","638835","0.0-19.0-0.4","SS1618435870907","","","null","","","","","","<p><img src= images/blank.png width =""600"" height = ""600"" style=""position:fixed;top:50%; left:50%; transform: translate(-50%, -50%); border:5px solid black"">","","","","","","","",""
"","712.2399999934714","sequential-stimulus-presentation-old","79","640056","0.0-19.0-1.4","SS1618435870907","trial","","40","500","1212.2399999934714","images/stimuli/spore_stims/complex_11_A_b.gif","images/stimuli/spore_stims/complex_17_A_a.gif","self_paced","","5","complex_dissimilar","images/stimuli/spore_stims/complex_17_A_a.gif","","","","",""
"","null","html-keyboard-response","80","641345","0.0-19.0-0.5","SS1618435870907","","","null","","","","","","<p><img src= images/blank.png width =""600"" height = ""600"" style=""position:fixed;top:50%; left:50%; transform: translate(-50%, -50%); border:5px solid black"">","","","","","","","",""
"","1905.0799999968149","sequential-stimulus-presentation-old","81","643760","0.0-19.0-1.5","SS1618435870907","trial","","40","500","2405.079999996815","images/stimuli/spore_stims/complex_11_A_b.gif","images/stimuli/spore_stims/complex_17_A_a.gif","self_paced","","5","complex_dissimilar","images/stimuli/spore_stims/complex_11_A_b.gif","","","","",""
"","2699.9550000036834","survey-multi-choice","82","646464","0.0-20.0","SS1618435870907","math_question","","","","","","","","","","","","{""Q0"":""12""}","[0]","12","",""
"","null","html-keyboard-response","83","647588","0.0-21.0-0.0","SS1618435870907","","","null","","","","","","<p><img src= images/blank.png width =""600"" height = ""600"" style=""position:fixed;top:50%; left:50%; transform: translate(-50%, -50%); border:5px solid black"">","","","","","","","",""
"","8443.329999994603","sequential-stimulus-presentation-old","84","661049","0.0-21.0-1.0","SS1618435870907","trial","","40","500","8943.329999994603","images/stimuli/spore_stims/simple_10_A_a.gif","images/stimuli/spore_stims/simple_17_A_b.gif","forced_long","","6","simple_dissimilar","images/stimuli/spore_stims/simple_17_A_b.gif","","","","",""
"","null","html-keyboard-response","85","661886","0.0-21.0-0.1","SS1618435870907","","","null","","","","","","<p><img src= images/blank.png width =""600"" height = ""600"" style=""position:fixed;top:50%; left:50%; transform: translate(-50%, -50%); border:5px solid black"">","","","","","","","",""
"","479.38499999872874","sequential-stimulus-presentation-old","86","662879","0.0-21.0-1.1","SS1618435870907","trial","","40","500","979.3849999987287","images/stimuli/spore_stims/simple_10_A_a.gif","images/stimuli/spore_stims/simple_17_A_b.gif","forced_long","","6","simple_dissimilar","images/stimuli/spore_stims/simple_10_A_a.gif","","","","",""
"","null","html-keyboard-response","87","663879","0.0-21.0-0.2","SS1618435870907","","","null","","","","","","<p><img src= images/blank.png width =""600"" height = ""600"" style=""position:fixed;top:50%; left:50%; transform: translate(-50%, -50%); border:5px solid black"">","","","","","","","",""
"","333.7699999974575","sequential-stimulus-presentation-old","88","664719","0.0-21.0-1.2","SS1618435870907","trial","","40","500","833.7699999974575","images/stimuli/spore_stims/simple_10_A_a.gif","images/stimuli/spore_stims/simple_17_A_b.gif","forced_long","","6","simple_dissimilar","images/stimuli/spore_stims/simple_17_A_b.gif","","","","",""
"","null","html-keyboard-response","89","665874","0.0-21.0-0.3","SS1618435870907","","","null","","","","","","<p><img src= images/blank.png width =""600"" height = ""600"" style=""position:fixed;top:50%; left:50%; transform: translate(-50%, -50%); border:5px solid black"">","","","","","","","",""
"","543.5600000055274","sequential-stimulus-presentation-old","90","666920","0.0-21.0-1.3","SS1618435870907","trial","","40","500","1043.5600000055274","images/stimuli/spore_stims/simple_10_A_a.gif","images/stimuli/spore_stims/simple_17_A_b.gif","forced_long","","6","simple_dissimilar","images/stimuli/spore_stims/simple_17_A_b.gif","","","","",""
"","null","html-keyboard-response","91","667786","0.0-21.0-0.4","SS1618435870907","","","null","","","","","","<p><img src= images/blank.png width =""600"" height = ""600"" style=""position:fixed;top:50%; left:50%; transform: translate(-50%, -50%); border:5px solid black"">","","","","","","","",""
"","213.64499999617692","sequential-stimulus-presentation-old","92","668504","0.0-21.0-1.4","SS1618435870907","trial","","40","500","713.6449999961769","images/stimuli/spore_stims/simple_10_A_a.gif","images/stimuli/spore_stims/simple_17_A_b.gif","forced_long","","6","simple_dissimilar","images/stimuli/spore_stims/simple_10_A_a.gif","","","","",""
"","2782.265000001644","survey-multi-choice","93","671288","0.0-22.0","SS1618435870907","math_question","","","","","","","","","","","","{""Q0"":""13""}","[0]","13","",""
"","null","html-keyboard-response","94","672507","0.0-23.0-0.0","SS1618435870907","","","null","","","","","","<p><img src= images/blank.png width =""600"" height = ""600"" style=""position:fixed;top:50%; left:50%; transform: translate(-50%, -50%); border:5px solid black"">","","","","","","","",""
"","312.4650000099791","sequential-stimulus-presentation-old","95","673327","0.0-23.0-1.0","SS1618435870907","trial","","40","500","812.4650000099791","images/stimuli/spore_stims/simple_18_A_b.gif","images/stimuli/spore_stims/simple_05_A_a.gif","self_paced","","7","simple_dissimilar","images/stimuli/spore_stims/simple_05_A_a.gif","","","","",""
"","null","html-keyboard-response","96","674441","0.0-23.0-0.1","SS1618435870907","","","null","","","","","","<p><img src= images/blank.png width =""600"" height = ""600"" style=""position:fixed;top:50%; left:50%; transform: translate(-50%, -50%); border:5px solid black"">","","","","","","","",""
"","559.5549999998184","sequential-stimulus-presentation-old","97","675503","0.0-23.0-1.1","SS1618435870907","trial","","40","500","1059.5549999998184","images/stimuli/spore_stims/simple_18_A_b.gif","images/stimuli/spore_stims/simple_05_A_a.gif","self_paced","","7","simple_dissimilar","images/stimuli/spore_stims/simple_05_A_a.gif","","","","",""
"","null","html-keyboard-response","98","676327","0.0-23.0-0.2","SS1618435870907","","","null","","","","","","<p><img src= images/blank.png width =""600"" height = ""600"" style=""position:fixed;top:50%; left:50%; transform: translate(-50%, -50%); border:5px solid black"">","","","","","","","",""
"","1943.8800000061747","sequential-stimulus-presentation-old","99","678775","0.0-23.0-1.2","SS1618435870907","trial","","40","500","2443.8800000061747","images/stimuli/spore_stims/simple_18_A_b.gif","images/stimuli/spore_stims/simple_05_A_a.gif","self_paced","","7","simple_dissimilar","images/stimuli/spore_stims/simple_18_A_b.gif","","","","",""
"","null","html-keyboard-response","100","680033","0.0-23.0-0.3","SS1618435870907","","","null","","","","","","<p><img src= images/blank.png width =""600"" height = ""600"" style=""position:fixed;top:50%; left:50%; transform: translate(-50%, -50%); border:5px solid black"">","","","","","","","",""
"","399.24999998766","sequential-stimulus-presentation-old","101","680935","0.0-23.0-1.3","SS1618435870907","trial","","40","500","899.24999998766","images/stimuli/spore_stims/simple_18_A_b.gif","images/stimuli/spore_stims/simple_05_A_a.gif","self_paced","","7","simple_dissimilar","images/stimuli/spore_stims/simple_05_A_a.gif","","","","",""
"","null","html-keyboard-response","102","682173","0.0-23.0-0.4","SS1618435870907","","","null","","","","","","<p><img src= images/blank.png width =""600"" height = ""600"" style=""position:fixed;top:50%; left:50%; transform: translate(-50%, -50%); border:5px solid black"">","","","","","","","",""
"","791.0700000065845","sequential-stimulus-presentation-old","103","683472","0.0-23.0-1.4","SS1618435870907","trial","","40","500","1291.0700000065845","images/stimuli/spore_stims/simple_18_A_b.gif","images/stimuli/spore_stims/simple_05_A_a.gif","self_paced","","7","simple_dissimilar","images/stimuli/spore_stims/simple_05_A_a.gif","","","","",""
"","2947.409999993397","survey-multi-choice","104","686424","0.0-24.0","SS1618435870907","math_question","","","","","","","","","","","","{""Q0"":""11""}","[0]","11","",""
"","null","html-keyboard-response","105","687229","0.0-25.0-0.0","SS1618435870907","","","null","","","","","","<p><img src= images/blank.png width =""600"" height = ""600"" style=""position:fixed;top:50%; left:50%; transform: translate(-50%, -50%); border:5px solid black"">","","","","","","","",""
"","52.86999999952968","sequential-stimulus-presentation-old","106","692288","0.0-25.0-1.0","SS1618435870907","trial","","40","500","552.8699999995297","images/stimuli/spore_stims/simple_06_A_b.gif","images/stimuli/spore_stims/simple_03_A_a.gif","forced_long","","8","simple_dissimilar","images/stimuli/spore_stims/simple_03_A_a.gif","","","","",""
"","null","html-keyboard-response","107","693358","0.0-25.0-0.1","SS1618435870907","","","null","","","","","","<p><img src= images/blank.png width =""600"" height = ""600"" style=""position:fixed;top:50%; left:50%; transform: translate(-50%, -50%); border:5px solid black"">","","","","","","","",""
"","51567.714999997406","sequential-stimulus-presentation-old","108","745431","0.0-25.0-1.1","SS1618435870907","trial","","40","500","52067.714999997406","images/stimuli/spore_stims/simple_06_A_b.gif","images/stimuli/spore_stims/simple_03_A_a.gif","forced_long","","8","simple_dissimilar","images/stimuli/spore_stims/simple_03_A_a.gif","","","","",""
"","null","html-keyboard-response","109","746547","0.0-25.0-0.2","SS1618435870907","","","null","","","","","","<p><img src= images/blank.png width =""600"" height = ""600"" style=""position:fixed;top:50%; left:50%; transform: translate(-50%, -50%); border:5px solid black"">","","","","","","","",""
"","196.20999999460764","sequential-stimulus-presentation-old","110","747247","0.0-25.0-1.2","SS1618435870907","trial","","40","500","696.2099999946076","images/stimuli/spore_stims/simple_06_A_b.gif","images/stimuli/spore_stims/simple_03_A_a.gif","forced_long","","8","simple_dissimilar","images/stimuli/spore_stims/simple_03_A_a.gif","","","","",""
"","null","html-keyboard-response","111","748476","0.0-25.0-0.3","SS1618435870907","","","null","","","","","","<p><img src= images/blank.png width =""600"" height = ""600"" style=""position:fixed;top:50%; left:50%; transform: translate(-50%, -50%); border:5px solid black"">","","","","","","","",""
"","1939.0799999964656","sequential-stimulus-presentation-old","112","750919","0.0-25.0-1.3","SS1618435870907","trial","","40","500","2439.0799999964656","images/stimuli/spore_stims/simple_06_A_b.gif","images/stimuli/spore_stims/simple_03_A_a.gif","forced_long","","8","simple_dissimilar","images/stimuli/spore_stims/simple_03_A_a.gif","","","","",""
"","null","html-keyboard-response","113","752013","0.0-25.0-0.4","SS1618435870907","","","null","","","","","","<p><img src= images/blank.png width =""600"" height = ""600"" style=""position:fixed;top:50%; left:50%; transform: translate(-50%, -50%); border:5px solid black"">","","","","","","","",""
"","1434.9550000042655","sequential-stimulus-presentation-old","114","753951","0.0-25.0-1.4","SS1618435870907","trial","","40","500","1934.9550000042655","images/stimuli/spore_stims/simple_06_A_b.gif","images/stimuli/spore_stims/simple_03_A_a.gif","forced_long","","8","simple_dissimilar","images/stimuli/spore_stims/simple_03_A_a.gif","","","","",""
"","null","html-keyboard-response","115","755485","0.0-25.0-0.5","SS1618435870907","","","null","","","","","","<p><img src= images/blank.png width =""600"" height = ""600"" style=""position:fixed;top:50%; left:50%; transform: translate(-50%, -50%); border:5px solid black"">","","","","","","","",""
"","721.3650000048801","sequential-stimulus-presentation-old","116","756711","0.0-25.0-1.5","SS1618435870907","trial","","40","500","1221.3650000048801","images/stimuli/spore_stims/simple_06_A_b.gif","images/stimuli/spore_stims/simple_03_A_a.gif","forced_long","","8","simple_dissimilar","images/stimuli/spore_stims/simple_06_A_b.gif","","","","",""
"","4044.469999993453","survey-multi-choice","117","760759","0.0-26.0","SS1618435870907","math_question","","","","","","","","","","","","{""Q0"":""17""}","[0]","17","",""
"","null","html-keyboard-response","118","761908","0.0-27.0-0.0","SS1618435870907","","","null","","","","","","<p><img src= images/blank.png width =""600"" height = ""600"" style=""position:fixed;top:50%; left:50%; transform: translate(-50%, -50%); border:5px solid black"">","","","","","","","",""
"","1244.4049999903655","sequential-stimulus-presentation-old","119","763207","0.0-27.0-1.0","SS1618435870907","trial","","40","500","1744.4049999903655","images/stimuli/spore_stims/complex_16_A_b.gif","images/stimuli/spore_stims/complex_06_A_a.gif","forced_short","","9","complex_dissimilar","images/stimuli/spore_stims/complex_06_A_a.gif","","","","",""
"","null","html-keyboard-response","120","764078","0.0-27.0-0.1","SS1618435870907","","","null","","","","","","<p><img src= images/blank.png width =""600"" height = ""600"" style=""position:fixed;top:50%; left:50%; transform: translate(-50%, -50%); border:5px solid black"">","","","","","","","",""
"","1195.6650000065565","sequential-stimulus-presentation-old","121","765783","0.0-27.0-1.1","SS1618435870907","trial","","40","500","1695.6650000065565","images/stimuli/spore_stims/complex_16_A_b.gif","images/stimuli/spore_stims/complex_06_A_a.gif","forced_short","","9","complex_dissimilar","images/stimuli/spore_stims/complex_16_A_b.gif","","","","",""
"","null","html-keyboard-response","122","766853","0.0-27.0-0.2","SS1618435870907","","","null","","","","","","<p><img src= images/blank.png width =""600"" height = ""600"" style=""position:fixed;top:50%; left:50%; transform: translate(-50%, -50%); border:5px solid black"">","","","","","","","",""
"","36815.909999990254","sequential-stimulus-presentation-old","123","804174","0.0-27.0-1.2","SS1618435870907","trial","","40","500","37315.909999990254","images/stimuli/spore_stims/complex_16_A_b.gif","images/stimuli/spore_stims/complex_06_A_a.gif","forced_short","","9","complex_dissimilar","images/stimuli/spore_stims/complex_06_A_a.gif","","","","",""
"","null","html-keyboard-response","124","805400","0.0-27.0-0.3","SS1618435870907","","","null","","","","","","<p><img src= images/blank.png width =""600"" height = ""600"" style=""position:fixed;top:50%; left:50%; transform: translate(-50%, -50%); border:5px solid black"">","","","","","","","",""
"","325.9399999951711","sequential-stimulus-presentation-old","125","806238","0.0-27.0-1.3","SS1618435870907","trial","","40","500","825.9399999951711","images/stimuli/spore_stims/complex_16_A_b.gif","images/stimuli/spore_stims/complex_06_A_a.gif","forced_short","","9","complex_dissimilar","images/stimuli/spore_stims/complex_16_A_b.gif","","","","",""
"","2598.360000003595","survey-multi-choice","126","808839","0.0-28.0","SS1618435870907","math_question","","","","","","","","","","","","{""Q0"":""9""}","[0]","9","",""
"","null","html-keyboard-response","127","809726","0.0-29.0-0.0","SS1618435870907","","","null","","","","","","<p><img src= images/blank.png width =""600"" height = ""600"" style=""position:fixed;top:50%; left:50%; transform: translate(-50%, -50%); border:5px solid black"">","","","","","","","",""
"","1425.4150000051595","sequential-stimulus-presentation-old","128","811207","0.0-29.0-1.0","SS1618435870907","trial","","40","500","1925.4150000051595","images/stimuli/spore_stims/complex_18_A_b.gif","images/stimuli/spore_stims/complex_11_A_a.gif","forced_short","","10","complex_dissimilar","images/stimuli/spore_stims/complex_11_A_a.gif","","","","",""
"","null","html-keyboard-response","129","812462","0.0-29.0-0.1","SS1618435870907","","","null","","","","","","<p><img src= images/blank.png width =""600"" height = ""600"" style=""position:fixed;top:50%; left:50%; transform: translate(-50%, -50%); border:5px solid black"">","","","","","","","",""
"","200.11499999964144","sequential-stimulus-presentation-old","130","813166","0.0-29.0-1.1","SS1618435870907","trial","","40","500","700.1149999996414","images/stimuli/spore_stims/complex_18_A_b.gif","images/stimuli/spore_stims/complex_11_A_a.gif","forced_short","","10","complex_dissimilar","images/stimuli/spore_stims/complex_11_A_a.gif","","","","",""
"","null","html-keyboard-response","131","814438","0.0-29.0-0.2","SS1618435870907","","","null","","","","","","<p><img src= images/blank.png width =""600"" height = ""600"" style=""position:fixed;top:50%; left:50%; transform: translate(-50%, -50%); border:5px solid black"">","","","","","","","",""
"","276.18999998958316","sequential-stimulus-presentation-old","132","815223","0.0-29.0-1.2","SS1618435870907","trial","","40","500","776.1899999895832","images/stimuli/spore_stims/complex_18_A_b.gif","images/stimuli/spore_stims/complex_11_A_a.gif","forced_short","","10","complex_dissimilar","images/stimuli/spore_stims/complex_18_A_b.gif","","","","",""
"","null","html-keyboard-response","133","816411","0.0-29.0-0.3","SS1618435870907","","","null","","","","","","<p><img src= images/blank.png width =""600"" height = ""600"" style=""position:fixed;top:50%; left:50%; transform: translate(-50%, -50%); border:5px solid black"">","","","","","","","",""
"","119.05500000284519","sequential-stimulus-presentation-old","134","817038","0.0-29.0-1.3","SS1618435870907","trial","","40","500","619.0550000028452","images/stimuli/spore_stims/complex_18_A_b.gif","images/stimuli/spore_stims/complex_11_A_a.gif","forced_short","","10","complex_dissimilar","images/stimuli/spore_stims/complex_11_A_a.gif","","","","",""
"","null","html-keyboard-response","135","818134","0.0-29.0-0.4","SS1618435870907","","","null","","","","","","<p><img src= images/blank.png width =""600"" height = ""600"" style=""position:fixed;top:50%; left:50%; transform: translate(-50%, -50%); border:5px solid black"">","","","","","","","",""
"","631.294999999227","sequential-stimulus-presentation-old","136","819270","0.0-29.0-1.4","SS1618435870907","trial","","40","500","1131.294999999227","images/stimuli/spore_stims/complex_18_A_b.gif","images/stimuli/spore_stims/complex_11_A_a.gif","forced_short","","10","complex_dissimilar","images/stimuli/spore_stims/complex_18_A_b.gif","","","","",""
"","null","html-keyboard-response","137","820322","0.0-29.0-0.5","SS1618435870907","","","null","","","","","","<p><img src= images/blank.png width =""600"" height = ""600"" style=""position:fixed;top:50%; left:50%; transform: translate(-50%, -50%); border:5px solid black"">","","","","","","","",""
"","461.67000000423286","sequential-stimulus-presentation-old","138","821287","0.0-29.0-1.5","SS1618435870907","trial","","40","500","961.6700000042329","images/stimuli/spore_stims/complex_18_A_b.gif","images/stimuli/spore_stims/complex_11_A_a.gif","forced_short","","10","complex_dissimilar","images/stimuli/spore_stims/complex_11_A_a.gif","","","","",""
"","2491.009999997914","survey-multi-choice","139","823783","0.0-30.0","SS1618435870907","math_question","","","","","","","","","","","","{""Q0"":""18""}","[0]","18","",""
"","null","html-keyboard-response","140","824758","0.0-31.0-0.0","SS1618435870907","","","null","","","","","","<p><img src= images/blank.png width =""600"" height = ""600"" style=""position:fixed;top:50%; left:50%; transform: translate(-50%, -50%); border:5px solid black"">","","","","","","","",""
"","1131.1300000088522","sequential-stimulus-presentation-old","141","825951","0.0-31.0-1.0","SS1618435870907","trial","","40","500","1631.1300000088522","images/stimuli/spore_stims/simple_16_A_a.gif","images/stimuli/spore_stims/simple_05_A_b.gif","forced_short","","11","simple_dissimilar","images/stimuli/spore_stims/simple_05_A_b.gif","","","","",""
"","null","html-keyboard-response","142","827074","0.0-31.0-0.1","SS1618435870907","","","null","","","","","","<p><img src= images/blank.png width =""600"" height = ""600"" style=""position:fixed;top:50%; left:50%; transform: translate(-50%, -50%); border:5px solid black"">","","","","","","","",""
"","219.27499999583233","sequential-stimulus-presentation-old","143","827799","0.0-31.0-1.1","SS1618435870907","trial","","40","500","719.2749999958323","images/stimuli/spore_stims/simple_16_A_a.gif","images/stimuli/spore_stims/simple_05_A_b.gif","forced_short","","11","simple_dissimilar","images/stimuli/spore_stims/simple_16_A_a.gif","","","","",""
"","null","html-keyboard-response","144","828789","0.0-31.0-0.2","SS1618435870907","","","null","","","","","","<p><img src= images/blank.png width =""600"" height = ""600"" style=""position:fixed;top:50%; left:50%; transform: translate(-50%, -50%); border:5px solid black"">","","","","","","","",""
"","346.22000000672415","sequential-stimulus-presentation-old","145","829639","0.0-31.0-1.2","SS1618435870907","trial","","40","500","846.2200000067241","images/stimuli/spore_stims/simple_16_A_a.gif","images/stimuli/spore_stims/simple_05_A_b.gif","forced_short","","11","simple_dissimilar","images/stimuli/spore_stims/simple_16_A_a.gif","","","","",""
"","null","html-keyboard-response","146","830538","0.0-31.0-0.3","SS1618435870907","","","null","","","","","","<p><img src= images/blank.png width =""600"" height = ""600"" style=""position:fixed;top:50%; left:50%; transform: translate(-50%, -50%); border:5px solid black"">","","","","","","","",""
"","1276.7000000021653","sequential-stimulus-presentation-old","147","832319","0.0-31.0-1.3","SS1618435870907","trial","","40","500","1776.7000000021653","images/stimuli/spore_stims/simple_16_A_a.gif","images/stimuli/spore_stims/simple_05_A_b.gif","forced_short","","11","simple_dissimilar","images/stimuli/spore_stims/simple_05_A_b.gif","","","","",""
"[{""page_index"":0,""viewing_time"":4813.159999990603}]","4813.409999987925","instructions","148","837135","0.0-32.0","SS1618435870907","instructions","","","","","","","","","","","","","","","",""
"","4604.5650000014575","survey-likert","149","841743","0.0-33.0","SS1618435870907","similarity_question","","","","","","","","","","","","{""Q0"":4}","[0]","","images/stimuli/spore_stims/complex_17_A_a.gif","images/stimuli/spore_stims/complex_11_A_b.gif"
"","3155.670000007376","survey-likert","150","844903","0.0-34.0","SS1618435870907","similarity_question","","","","","","","","","","","","{""Q0"":4}","[0]","","images/stimuli/spore_stims/simple_19_A_a.gif","images/stimuli/spore_stims/simple_13_A_b.gif"
"","3212.3500000016065","survey-likert","151","848119","0.0-35.0","SS1618435870907","similarity_question","","","","","","","","","","","","{""Q0"":2}","[0]","","images/stimuli/spore_stims/complex_15_A_a.gif","images/stimuli/spore_stims/complex_17_A_b.gif"
"","2203.625000009197","survey-likert","152","850327","0.0-36.0","SS1618435870907","similarity_question","","","","","","","","","","","","{""Q0"":3}","[0]","","images/stimuli/spore_stims/simple_12_A_a.gif","images/stimuli/spore_stims/simple_19_A_b.gif"
"","3580.7849999982864","survey-likert","153","853911","0.0-37.0","SS1618435870907","similarity_question","","","","","","","","","","","","{""Q0"":5}","[0]","","images/stimuli/spore_stims/complex_18_A_b.gif","images/stimuli/spore_stims/complex_11_A_a.gif"
"","2763.4699999907752","survey-likert","154","856679","0.0-38.0","SS1618435870907","similarity_question","","","","","","","","","","","","{""Q0"":5}","[0]","","images/stimuli/spore_stims/complex_01_A_a.gif","images/stimuli/spore_stims/complex_20_A_b.gif"
"","3404.034999999567","survey-likert","155","860087","0.0-39.0","SS1618435870907","similarity_question","","","","","","","","","","","","{""Q0"":3}","[0]","","images/stimuli/spore_stims/simple_17_A_b.gif","images/stimuli/spore_stims/simple_10_A_a.gif"
"","2421.214999994845","survey-likert","156","862512","0.0-40.0","SS1618435870907","similarity_question","","","","","","","","","","","","{""Q0"":3}","[0]","","images/stimuli/spore_stims/simple_03_A_a.gif","images/stimuli/spore_stims/simple_06_A_b.gif"
"","1811.2750000000233","survey-likert","157","864327","0.0-41.0","SS1618435870907","similarity_question","","","","","","","","","","","","{""Q0"":3}","[0]","","images/stimuli/spore_stims/simple_16_A_a.gif","images/stimuli/spore_stims/simple_05_A_b.gif"
"","2580.385000008391","survey-likert","158","866911","0.0-42.0","SS1618435870907","similarity_question","","","","","","","","","","","","{""Q0"":2}","[0]","","images/stimuli/spore_stims/simple_05_A_a.gif","images/stimuli/spore_stims/simple_18_A_b.gif"
"","4051.5549999981886","survey-likert","159","870967","0.0-43.0","SS1618435870907","similarity_question","","","","","","","","","","","","{""Q0"":6}","[0]","","images/stimuli/spore_stims/complex_05_A_a.gif","images/stimuli/spore_stims/complex_01_A_b.gif"
"","3756.420000005164","survey-likert","160","874727","0.0-44.0","SS1618435870907","similarity_question","","","","","","","","","","","","{""Q0"":4}","[0]","","images/stimuli/spore_stims/complex_16_A_b.gif","images/stimuli/spore_stims/complex_06_A_a.gif"
"[{""page_index"":0,""viewing_time"":4020.600000003469}]","4020.9349999931874","instructions","161","878751","0.0-45.0","SS1618435870907","instructions","","","","","","","","","","","","","","","",""
"","3076.115000003483","survey-likert","162","881831","0.0-46.0","SS1618435870907","","","","","","","","","images/stimuli/spore_stims/simple_03_A_a.gif","","","","{""Q0"":0}","[0]","","",""
"","1867.3750000016298","survey-likert","163","883703","0.0-47.0","SS1618435870907","","","","","","","","","images/stimuli/spore_stims/simple_17_A_b.gif","","","","{""Q0"":0}","[0]","","",""
"","2284.2100000125356","survey-likert","164","885991","0.0-48.0","SS1618435870907","","","","","","","","","images/stimuli/spore_stims/complex_17_A_b.gif","","","","{""Q0"":4}","[0]","","",""
"","2731.8450000020675","survey-likert","165","888727","0.0-49.0","SS1618435870907","","","","","","","","","images/stimuli/spore_stims/complex_17_A_a.gif","","","","{""Q0"":4}","[0]","","",""
"","2571.6749999992317","survey-likert","166","891303","0.0-50.0","SS1618435870907","","","","","","","","","images/stimuli/spore_stims/simple_16_A_a.gif","","","","{""Q0"":1}","[0]","","",""
"","1843.9000000071246","survey-likert","167","893151","0.0-51.0","SS1618435870907","","","","","","","","","images/stimuli/spore_stims/simple_19_A_a.gif","","","","{""Q0"":1}","[0]","","",""
"","2155.4100000066683","survey-likert","168","895311","0.0-52.0","SS1618435870907","","","","","","","","","images/stimuli/spore_stims/simple_12_A_a.gif","","","","{""Q0"":0}","[0]","","",""
"","2228.029999998398","survey-likert","169","897543","0.0-53.0","SS1618435870907","","","","","","","","","images/stimuli/spore_stims/complex_06_A_a.gif","","","","{""Q0"":5}","[0]","","",""
"","1867.8300000028685","survey-likert","170","899415","0.0-54.0","SS1618435870907","","","","","","","","","images/stimuli/spore_stims/complex_01_A_a.gif","","","","{""Q0"":4}","[0]","","",""
"","1691.4749999996275","survey-likert","171","901111","0.0-55.0","SS1618435870907","","","","","","","","","images/stimuli/spore_stims/simple_18_A_b.gif","","","","{""Q0"":1}","[0]","","",""
"","11811.75500000245","survey-likert","172","912927","0.0-56.0","SS1618435870907","","","","","","","","","images/stimuli/spore_stims/complex_05_A_a.gif","","","","{""Q0"":5}","[0]","","",""
"","2203.894999998738","survey-likert","173","915135","0.0-57.0","SS1618435870907","","","","","","","","","images/stimuli/spore_stims/complex_11_A_a.gif","","","","{""Q0"":5}","[0]","","",""
"[{""page_index"":0,""viewing_time"":2988.055000008899}]","2988.389999998617","instructions","174","918127","0.0-58.0","SS1618435870907","instructions","","","","","","","","","","","","","","","",""
"","2162.7900000021327","demog-age","175","920295","0.0-59.0","SS1618435870907","","","","","","","","","","","","","{""age"":""22""}","","","",""
"","3233.989999993355","demog-ethnic-US","176","923536","0.0-60.0","SS1618435870907","","","","","","","","","","","","","{""ethnicity"":[""White""]}","[0]","","",""
"","4554.604999997537","demog-gender-and-education","177","928095","0.0-61.0","SS1618435870907","","","","","","","","","","","","","{""gender"":""Male"",""education"":""Master's Degree""}","[0,1]","","",""
"","5242.20000000787","survey-text","178","933343","0.0-62.0","SS1618435870907","feedback","","","","","","","","","","","","{""Q0"":""no""}","","","",""
"[{""page_index"":0,""viewing_time"":1739.625000001979}]","1739.9199999927077","instructions","179","935087","0.0-63.0","SS1618435870907","instructions","","","","","","","","","","","","","","","",""
