"view_history","rt","trial_type","trial_index","time_elapsed","internal_node_id","subject","stimulus_type","trial_stimulus","key_press","minimum_viewing_duration","trial_looking_time","block_deviant","block_background","exposure_type","stimulus","block_number","block_type","stimulus_displayed","responses","question_order","math_correct_answer","stimulus_left","stimulus_right"
"[{""page_index"":0,""viewing_time"":11231.990000000224}]","11232.544999998936","instructions","0","11236","0.0-0.0","SS1618435634240","","","","","","","","","","","","","","","","",""
"[{""page_index"":0,""viewing_time"":11341.46000000328},{""page_index"":1,""viewing_time"":6095.984999999928}]","17437.58499999967","instructions","1","30691","0.0-1.0","SS1618435634240","instructions","","","","","","","","","","","","","","","",""
"","16319.639999994251","sequential-stimulus-presentation-old","2","47519","0.0-2.0","SS1618435634240","","","40","500","16819.63999999425","null","null","self_paced","","","","","","","","",""
"","6025.02000000095","sequential-stimulus-presentation-old","3","54060","0.0-3.0","SS1618435634240","","","40","500","6525.02000000095","null","null","self_paced","","","","","","","","",""
"[{""page_index"":0,""viewing_time"":26997.589999999036}]","26997.864999997546","instructions","4","81060","0.0-4.0","SS1618435634240","instructions","","","","","","","","","","","","","","","",""
"","1865.3449999983422","sequential-stimulus-presentation-old","5","87928","0.0-5.0","SS1618435634240","","","40","500","2365.3449999983422","null","null","forced_long","","","","","","","","",""
"","6415.679999998247","sequential-stimulus-presentation-old","6","94404","0.0-6.0","SS1618435634240","","","40","50","6465.679999998247","null","null","forced_long","","","","","","","","",""
"[{""page_index"":0,""viewing_time"":6854.30500000075}]","6854.435000001104","instructions","7","101259","0.0-7.0","SS1618435634240","instructions","","","","","","","","","","","","","","","",""
"[{""page_index"":0,""viewing_time"":22455.779999996594},{""page_index"":1,""viewing_time"":23159.749999998894},{""page_index"":2,""viewing_time"":12848.27999999834},{""page_index"":3,""viewing_time"":2255.9949999995297},{""page_index"":4,""viewing_time"":1015.4650000040419}]","61735.39999999775","instructions","8","162995","0.0-8.0","SS1618435634240","instructions","","","","","","","","","","","","","","","",""
"","null","html-keyboard-response","9","164045","0.0-9.0-0.0","SS1618435634240","","","null","","","","","","<p><img src= images/blank.png width =""600"" height = ""600"" style=""position:fixed;top:50%; left:50%; transform: translate(-50%, -50%); border:5px solid black"">","","","","","","","",""
"","7375.909999995201","sequential-stimulus-presentation-old","10","171483","0.0-9.0-1.0","SS1618435634240","trial","","40","500","7875.909999995201","images/stimuli/spore_stims/complex_05_A_a.gif","images/stimuli/spore_stims/complex_16_A_b.gif","forced_short","","0","complex_dissimilar","images/stimuli/spore_stims/complex_16_A_b.gif","","","","",""
"","null","html-keyboard-response","11","172596","0.0-9.0-0.1","SS1618435634240","","","null","","","","","","<p><img src= images/blank.png width =""600"" height = ""600"" style=""position:fixed;top:50%; left:50%; transform: translate(-50%, -50%); border:5px solid black"">","","","","","","","",""
"","3841.8600000004517","sequential-stimulus-presentation-old","12","176941","0.0-9.0-1.1","SS1618435634240","trial","","40","500","4341.860000000452","images/stimuli/spore_stims/complex_05_A_a.gif","images/stimuli/spore_stims/complex_16_A_b.gif","forced_short","","0","complex_dissimilar","images/stimuli/spore_stims/complex_05_A_a.gif","","","","",""
"","null","html-keyboard-response","13","177832","0.0-9.0-0.2","SS1618435634240","","","null","","","","","","<p><img src= images/blank.png width =""600"" height = ""600"" style=""position:fixed;top:50%; left:50%; transform: translate(-50%, -50%); border:5px solid black"">","","","","","","","",""
"","4136.220000000321","sequential-stimulus-presentation-old","14","182488","0.0-9.0-1.2","SS1618435634240","trial","","40","500","4636.220000000321","images/stimuli/spore_stims/complex_05_A_a.gif","images/stimuli/spore_stims/complex_16_A_b.gif","forced_short","","0","complex_dissimilar","images/stimuli/spore_stims/complex_16_A_b.gif","","","","",""
"","null","html-keyboard-response","15","183731","0.0-9.0-0.3","SS1618435634240","","","null","","","","","","<p><img src= images/blank.png width =""600"" height = ""600"" style=""position:fixed;top:50%; left:50%; transform: translate(-50%, -50%); border:5px solid black"">","","","","","","","",""
"","3118.46499999956","sequential-stimulus-presentation-old","16","187355","0.0-9.0-1.3","SS1618435634240","trial","","40","500","3618.46499999956","images/stimuli/spore_stims/complex_05_A_a.gif","images/stimuli/spore_stims/complex_16_A_b.gif","forced_short","","0","complex_dissimilar","images/stimuli/spore_stims/complex_16_A_b.gif","","","","",""
"","null","html-keyboard-response","17","188464","0.0-9.0-0.4","SS1618435634240","","","null","","","","","","<p><img src= images/blank.png width =""600"" height = ""600"" style=""position:fixed;top:50%; left:50%; transform: translate(-50%, -50%); border:5px solid black"">","","","","","","","",""
"","3518.5350000028848","sequential-stimulus-presentation-old","18","192500","0.0-9.0-1.4","SS1618435634240","trial","","40","500","4018.5350000028848","images/stimuli/spore_stims/complex_05_A_a.gif","images/stimuli/spore_stims/complex_16_A_b.gif","forced_short","","0","complex_dissimilar","images/stimuli/spore_stims/complex_05_A_a.gif","","","","",""
"","5985.020000000077","survey-multi-choice","19","198491","0.0-10.0","SS1618435634240","math_question","","","","","","","","","","","","{""Q0"":""5""}","[0]","5","",""
"","null","html-keyboard-response","20","199446","0.0-11.0-0.0","SS1618435634240","","","null","","","","","","<p><img src= images/blank.png width =""600"" height = ""600"" style=""position:fixed;top:50%; left:50%; transform: translate(-50%, -50%); border:5px solid black"">","","","","","","","",""
"","4188.434999996389","sequential-stimulus-presentation-old","21","204152","0.0-11.0-1.0","SS1618435634240","trial","","40","500","4688.434999996389","images/stimuli/spore_stims/simple_13_A_a.gif","images/stimuli/spore_stims/simple_16_A_b.gif","self_paced","","1","simple_dissimilar","images/stimuli/spore_stims/simple_16_A_b.gif","","","","",""
"","null","html-keyboard-response","22","204984","0.0-11.0-0.1","SS1618435634240","","","null","","","","","","<p><img src= images/blank.png width =""600"" height = ""600"" style=""position:fixed;top:50%; left:50%; transform: translate(-50%, -50%); border:5px solid black"">","","","","","","","",""
"","2630.315000002156","sequential-stimulus-presentation-old","23","208131","0.0-11.0-1.1","SS1618435634240","trial","","40","500","3130.315000002156","images/stimuli/spore_stims/simple_13_A_a.gif","images/stimuli/spore_stims/simple_16_A_b.gif","self_paced","","1","simple_dissimilar","images/stimuli/spore_stims/simple_16_A_b.gif","","","","",""
"","null","html-keyboard-response","24","209199","0.0-11.0-0.2","SS1618435634240","","","null","","","","","","<p><img src= images/blank.png width =""600"" height = ""600"" style=""position:fixed;top:50%; left:50%; transform: translate(-50%, -50%); border:5px solid black"">","","","","","","","",""
"","2610.085000000254","sequential-stimulus-presentation-old","25","212312","0.0-11.0-1.2","SS1618435634240","trial","","40","500","3110.085000000254","images/stimuli/spore_stims/simple_13_A_a.gif","images/stimuli/spore_stims/simple_16_A_b.gif","self_paced","","1","simple_dissimilar","images/stimuli/spore_stims/simple_13_A_a.gif","","","","",""
"","null","html-keyboard-response","26","213570","0.0-11.0-0.3","SS1618435634240","","","null","","","","","","<p><img src= images/blank.png width =""600"" height = ""600"" style=""position:fixed;top:50%; left:50%; transform: translate(-50%, -50%); border:5px solid black"">","","","","","","","",""
"","1531.2550000016927","sequential-stimulus-presentation-old","27","215607","0.0-11.0-1.3","SS1618435634240","trial","","40","500","2031.2550000016927","images/stimuli/spore_stims/simple_13_A_a.gif","images/stimuli/spore_stims/simple_16_A_b.gif","self_paced","","1","simple_dissimilar","images/stimuli/spore_stims/simple_13_A_a.gif","","","","",""
"","null","html-keyboard-response","28","216507","0.0-11.0-0.4","SS1618435634240","","","null","","","","","","<p><img src= images/blank.png width =""600"" height = ""600"" style=""position:fixed;top:50%; left:50%; transform: translate(-50%, -50%); border:5px solid black"">","","","","","","","",""
"","905.4850000029546","sequential-stimulus-presentation-old","29","217915","0.0-11.0-1.4","SS1618435634240","trial","","40","500","1405.4850000029546","images/stimuli/spore_stims/simple_13_A_a.gif","images/stimuli/spore_stims/simple_16_A_b.gif","self_paced","","1","simple_dissimilar","images/stimuli/spore_stims/simple_16_A_b.gif","","","","",""
"","null","html-keyboard-response","30","218798","0.0-11.0-0.5","SS1618435634240","","","null","","","","","","<p><img src= images/blank.png width =""600"" height = ""600"" style=""position:fixed;top:50%; left:50%; transform: translate(-50%, -50%); border:5px solid black"">","","","","","","","",""
"","423.47999999765307","sequential-stimulus-presentation-old","31","219738","0.0-11.0-1.5","SS1618435634240","trial","","40","500","923.4799999976531","images/stimuli/spore_stims/simple_13_A_a.gif","images/stimuli/spore_stims/simple_16_A_b.gif","self_paced","","1","simple_dissimilar","images/stimuli/spore_stims/simple_16_A_b.gif","","","","",""
"","3167.2299999991083","survey-multi-choice","32","222907","0.0-12.0","SS1618435634240","math_question","","","","","","","","","","","","{""Q0"":""3""}","[0]","3","",""
"","null","html-keyboard-response","33","223880","0.0-13.0-0.0","SS1618435634240","","","null","","","","","","<p><img src= images/blank.png width =""600"" height = ""600"" style=""position:fixed;top:50%; left:50%; transform: translate(-50%, -50%); border:5px solid black"">","","","","","","","",""
"","1515.6699999934062","sequential-stimulus-presentation-old","34","225459","0.0-13.0-1.0","SS1618435634240","trial","","40","500","2015.6699999934062","images/stimuli/spore_stims/complex_06_A_b.gif","images/stimuli/spore_stims/complex_15_A_a.gif","forced_short","","2","complex_dissimilar","images/stimuli/spore_stims/complex_15_A_a.gif","","","","",""
"","null","html-keyboard-response","35","226658","0.0-13.0-0.1","SS1618435634240","","","null","","","","","","<p><img src= images/blank.png width =""600"" height = ""600"" style=""position:fixed;top:50%; left:50%; transform: translate(-50%, -50%); border:5px solid black"">","","","","","","","",""
"","4166.809999995166","sequential-stimulus-presentation-old","36","231344","0.0-13.0-1.1","SS1618435634240","trial","","40","500","4666.809999995166","images/stimuli/spore_stims/complex_06_A_b.gif","images/stimuli/spore_stims/complex_15_A_a.gif","forced_short","","2","complex_dissimilar","images/stimuli/spore_stims/complex_15_A_a.gif","","","","",""
"","null","html-keyboard-response","37","232451","0.0-13.0-0.2","SS1618435634240","","","null","","","","","","<p><img src= images/blank.png width =""600"" height = ""600"" style=""position:fixed;top:50%; left:50%; transform: translate(-50%, -50%); border:5px solid black"">","","","","","","","",""
"","2906.539999996312","sequential-stimulus-presentation-old","38","235864","0.0-13.0-1.2","SS1618435634240","trial","","40","500","3406.539999996312","images/stimuli/spore_stims/complex_06_A_b.gif","images/stimuli/spore_stims/complex_15_A_a.gif","forced_short","","2","complex_dissimilar","images/stimuli/spore_stims/complex_15_A_a.gif","","","","",""
"","null","html-keyboard-response","39","237153","0.0-13.0-0.3","SS1618435634240","","","null","","","","","","<p><img src= images/blank.png width =""600"" height = ""600"" style=""position:fixed;top:50%; left:50%; transform: translate(-50%, -50%); border:5px solid black"">","","","","","","","",""
"","4135.2049999986775","sequential-stimulus-presentation-old","40","241797","0.0-13.0-1.3","SS1618435634240","trial","","40","500","4635.2049999986775","images/stimuli/spore_stims/complex_06_A_b.gif","images/stimuli/spore_stims/complex_15_A_a.gif","forced_short","","2","complex_dissimilar","images/stimuli/spore_stims/complex_06_A_b.gif","","","","",""
"","null","html-keyboard-response","41","242817","0.0-13.0-0.4","SS1618435634240","","","null","","","","","","<p><img src= images/blank.png width =""600"" height = ""600"" style=""position:fixed;top:50%; left:50%; transform: translate(-50%, -50%); border:5px solid black"">","","","","","","","",""
"","1752.714999995078","sequential-stimulus-presentation-old","42","245080","0.0-13.0-1.4","SS1618435634240","trial","","40","500","2252.714999995078","images/stimuli/spore_stims/complex_06_A_b.gif","images/stimuli/spore_stims/complex_15_A_a.gif","forced_short","","2","complex_dissimilar","images/stimuli/spore_stims/complex_15_A_a.gif","","","","",""
"","null","html-keyboard-response","43","246334","0.0-13.0-0.5","SS1618435634240","","","null","","","","","","<p><img src= images/blank.png width =""600"" height = ""600"" style=""position:fixed;top:50%; left:50%; transform: translate(-50%, -50%); border:5px solid black"">","","","","","","","",""
"","1194.9850000019069","sequential-stimulus-presentation-old","44","248044","0.0-13.0-1.5","SS1618435634240","trial","","40","500","1694.9850000019069","images/stimuli/spore_stims/complex_06_A_b.gif","images/stimuli/spore_stims/complex_15_A_a.gif","forced_short","","2","complex_dissimilar","images/stimuli/spore_stims/complex_15_A_a.gif","","","","",""
"","3364.1200000056415","survey-multi-choice","45","251412","0.0-14.0","SS1618435634240","math_question","","","","","","","","","","","","{""Q0"":""9""}","[0]","9","",""
"","null","html-keyboard-response","46","252518","0.0-15.0-0.0","SS1618435634240","","","null","","","","","","<p><img src= images/blank.png width =""600"" height = ""600"" style=""position:fixed;top:50%; left:50%; transform: translate(-50%, -50%); border:5px solid black"">","","","","","","","",""
"","2051.820000000589","sequential-stimulus-presentation-old","47","259655","0.0-15.0-1.0","SS1618435634240","trial","","40","500","2551.820000000589","images/stimuli/spore_stims/simple_08_A_a.gif","images/stimuli/spore_stims/simple_09_A_b.gif","forced_long","","3","simple_dissimilar","images/stimuli/spore_stims/simple_09_A_b.gif","","","","",""
"","null","html-keyboard-response","48","260746","0.0-15.0-0.1","SS1618435634240","","","null","","","","","","<p><img src= images/blank.png width =""600"" height = ""600"" style=""position:fixed;top:50%; left:50%; transform: translate(-50%, -50%); border:5px solid black"">","","","","","","","",""
"","4347.309999997378","sequential-stimulus-presentation-old","49","265596","0.0-15.0-1.1","SS1618435634240","trial","","40","500","4847.309999997378","images/stimuli/spore_stims/simple_08_A_a.gif","images/stimuli/spore_stims/simple_09_A_b.gif","forced_long","","3","simple_dissimilar","images/stimuli/spore_stims/simple_09_A_b.gif","","","","",""
"","null","html-keyboard-response","50","266479","0.0-15.0-0.2","SS1618435634240","","","null","","","","","","<p><img src= images/blank.png width =""600"" height = ""600"" style=""position:fixed;top:50%; left:50%; transform: translate(-50%, -50%); border:5px solid black"">","","","","","","","",""
"","3038.4200000044075","sequential-stimulus-presentation-old","51","270020","0.0-15.0-1.2","SS1618435634240","trial","","40","500","3538.4200000044075","images/stimuli/spore_stims/simple_08_A_a.gif","images/stimuli/spore_stims/simple_09_A_b.gif","forced_long","","3","simple_dissimilar","images/stimuli/spore_stims/simple_08_A_a.gif","","","","",""
"","null","html-keyboard-response","52","270918","0.0-15.0-0.3","SS1618435634240","","","null","","","","","","<p><img src= images/blank.png width =""600"" height = ""600"" style=""position:fixed;top:50%; left:50%; transform: translate(-50%, -50%); border:5px solid black"">","","","","","","","",""
"","2064.5349999977043","sequential-stimulus-presentation-old","53","273487","0.0-15.0-1.3","SS1618435634240","trial","","40","500","2564.5349999977043","images/stimuli/spore_stims/simple_08_A_a.gif","images/stimuli/spore_stims/simple_09_A_b.gif","forced_long","","3","simple_dissimilar","images/stimuli/spore_stims/simple_09_A_b.gif","","","","",""
"","null","html-keyboard-response","54","274376","0.0-15.0-0.4","SS1618435634240","","","null","","","","","","<p><img src= images/blank.png width =""600"" height = ""600"" style=""position:fixed;top:50%; left:50%; transform: translate(-50%, -50%); border:5px solid black"">","","","","","","","",""
"","1244.0399999977672","sequential-stimulus-presentation-old","55","276123","0.0-15.0-1.4","SS1618435634240","trial","","40","500","1744.0399999977672","images/stimuli/spore_stims/simple_08_A_a.gif","images/stimuli/spore_stims/simple_09_A_b.gif","forced_long","","3","simple_dissimilar","images/stimuli/spore_stims/simple_09_A_b.gif","","","","",""
"","null","html-keyboard-response","56","276950","0.0-15.0-0.5","SS1618435634240","","","null","","","","","","<p><img src= images/blank.png width =""600"" height = ""600"" style=""position:fixed;top:50%; left:50%; transform: translate(-50%, -50%); border:5px solid black"">","","","","","","","",""
"","1074.8850000018138","sequential-stimulus-presentation-old","57","278529","0.0-15.0-1.5","SS1618435634240","trial","","40","500","1574.8850000018138","images/stimuli/spore_stims/simple_08_A_a.gif","images/stimuli/spore_stims/simple_09_A_b.gif","forced_long","","3","simple_dissimilar","images/stimuli/spore_stims/simple_09_A_b.gif","","","","",""
"","3166.479999999865","survey-multi-choice","58","281699","0.0-16.0","SS1618435634240","math_question","","","","","","","","","","","","{""Q0"":""11""}","[0]","11","",""
"","null","html-keyboard-response","59","282682","0.0-17.0-0.0","SS1618435634240","","","null","","","","","","<p><img src= images/blank.png width =""600"" height = ""600"" style=""position:fixed;top:50%; left:50%; transform: translate(-50%, -50%); border:5px solid black"">","","","","","","","",""
"","5692.050000005111","sequential-stimulus-presentation-old","60","293376","0.0-17.0-1.0","SS1618435634240","trial","","40","500","6192.050000005111","images/stimuli/spore_stims/complex_05_A_b.gif","images/stimuli/spore_stims/complex_19_A_a.gif","forced_long","","4","complex_dissimilar","images/stimuli/spore_stims/complex_19_A_a.gif","","","","",""
"","null","html-keyboard-response","61","294329","0.0-17.0-0.1","SS1618435634240","","","null","","","","","","<p><img src= images/blank.png width =""600"" height = ""600"" style=""position:fixed;top:50%; left:50%; transform: translate(-50%, -50%); border:5px solid black"">","","","","","","","",""
"","2335.894999996526","sequential-stimulus-presentation-old","62","297181","0.0-17.0-1.1","SS1618435634240","trial","","40","500","2835.894999996526","images/stimuli/spore_stims/complex_05_A_b.gif","images/stimuli/spore_stims/complex_19_A_a.gif","forced_long","","4","complex_dissimilar","images/stimuli/spore_stims/complex_19_A_a.gif","","","","",""
"","null","html-keyboard-response","63","298432","0.0-17.0-0.2","SS1618435634240","","","null","","","","","","<p><img src= images/blank.png width =""600"" height = ""600"" style=""position:fixed;top:50%; left:50%; transform: translate(-50%, -50%); border:5px solid black"">","","","","","","","",""
"","3028.1450000038603","sequential-stimulus-presentation-old","64","301963","0.0-17.0-1.2","SS1618435634240","trial","","40","500","3528.1450000038603","images/stimuli/spore_stims/complex_05_A_b.gif","images/stimuli/spore_stims/complex_19_A_a.gif","forced_long","","4","complex_dissimilar","images/stimuli/spore_stims/complex_05_A_b.gif","","","","",""
"","null","html-keyboard-response","65","302799","0.0-17.0-0.3","SS1618435634240","","","null","","","","","","<p><img src= images/blank.png width =""600"" height = ""600"" style=""position:fixed;top:50%; left:50%; transform: translate(-50%, -50%); border:5px solid black"">","","","","","","","",""
"","1991.8949999992037","sequential-stimulus-presentation-old","66","305311","0.0-17.0-1.3","SS1618435634240","trial","","40","500","2491.8949999992037","images/stimuli/spore_stims/complex_05_A_b.gif","images/stimuli/spore_stims/complex_19_A_a.gif","forced_long","","4","complex_dissimilar","images/stimuli/spore_stims/complex_19_A_a.gif","","","","",""
"","null","html-keyboard-response","67","306398","0.0-17.0-0.4","SS1618435634240","","","null","","","","","","<p><img src= images/blank.png width =""600"" height = ""600"" style=""position:fixed;top:50%; left:50%; transform: translate(-50%, -50%); border:5px solid black"">","","","","","","","",""
"","439.31500000326196","sequential-stimulus-presentation-old","68","307353","0.0-17.0-1.4","SS1618435634240","trial","","40","500","939.315000003262","images/stimuli/spore_stims/complex_05_A_b.gif","images/stimuli/spore_stims/complex_19_A_a.gif","forced_long","","4","complex_dissimilar","images/stimuli/spore_stims/complex_19_A_a.gif","","","","",""
"","null","html-keyboard-response","69","308347","0.0-17.0-0.5","SS1618435634240","","","null","","","","","","<p><img src= images/blank.png width =""600"" height = ""600"" style=""position:fixed;top:50%; left:50%; transform: translate(-50%, -50%); border:5px solid black"">","","","","","","","",""
"","1524.9100000000908","sequential-stimulus-presentation-old","70","310375","0.0-17.0-1.5","SS1618435634240","trial","","40","500","2024.9100000000908","images/stimuli/spore_stims/complex_05_A_b.gif","images/stimuli/spore_stims/complex_19_A_a.gif","forced_long","","4","complex_dissimilar","images/stimuli/spore_stims/complex_05_A_b.gif","","","","",""
"","3874.615000000631","survey-multi-choice","71","314251","0.0-18.0","SS1618435634240","math_question","","","","","","","","","","","","{""Q0"":""4""}","[0]","4","",""
"","null","html-keyboard-response","72","315545","0.0-19.0-0.0","SS1618435634240","","","null","","","","","","<p><img src= images/blank.png width =""600"" height = ""600"" style=""position:fixed;top:50%; left:50%; transform: translate(-50%, -50%); border:5px solid black"">","","","","","","","",""
"","823.8750000018626","sequential-stimulus-presentation-old","73","316887","0.0-19.0-1.0","SS1618435634240","trial","","40","500","1323.8750000018626","images/stimuli/spore_stims/simple_18_A_a.gif","images/stimuli/spore_stims/simple_08_A_b.gif","self_paced","","5","simple_dissimilar","images/stimuli/spore_stims/simple_08_A_b.gif","","","","",""
"","null","html-keyboard-response","74","317891","0.0-19.0-0.1","SS1618435634240","","","null","","","","","","<p><img src= images/blank.png width =""600"" height = ""600"" style=""position:fixed;top:50%; left:50%; transform: translate(-50%, -50%); border:5px solid black"">","","","","","","","",""
"","494.9449999985518","sequential-stimulus-presentation-old","75","318892","0.0-19.0-1.1","SS1618435634240","trial","","40","500","994.9449999985518","images/stimuli/spore_stims/simple_18_A_a.gif","images/stimuli/spore_stims/simple_08_A_b.gif","self_paced","","5","simple_dissimilar","images/stimuli/spore_stims/simple_08_A_b.gif","","","","",""
"","null","html-keyboard-response","76","320068","0.0-19.0-0.2","SS1618435634240","","","null","","","","","","<p><img src= images/blank.png width =""600"" height = ""600"" style=""position:fixed;top:50%; left:50%; transform: translate(-50%, -50%); border:5px solid black"">","","","","","","","",""
"","1091.9600000052014","sequential-stimulus-presentation-old","77","321676","0.0-19.0-1.2","SS1618435634240","trial","","40","500","1591.9600000052014","images/stimuli/spore_stims/simple_18_A_a.gif","images/stimuli/spore_stims/simple_08_A_b.gif","self_paced","","5","simple_dissimilar","images/stimuli/spore_stims/simple_08_A_b.gif","","","","",""
"","null","html-keyboard-response","78","322929","0.0-19.0-0.3","SS1618435634240","","","null","","","","","","<p><img src= images/blank.png width =""600"" height = ""600"" style=""position:fixed;top:50%; left:50%; transform: translate(-50%, -50%); border:5px solid black"">","","","","","","","",""
"","2763.8799999986077","sequential-stimulus-presentation-old","79","326195","0.0-19.0-1.3","SS1618435634240","trial","","40","500","3263.8799999986077","images/stimuli/spore_stims/simple_18_A_a.gif","images/stimuli/spore_stims/simple_08_A_b.gif","self_paced","","5","simple_dissimilar","images/stimuli/spore_stims/simple_18_A_a.gif","","","","",""
"","null","html-keyboard-response","80","327351","0.0-19.0-0.4","SS1618435634240","","","null","","","","","","<p><img src= images/blank.png width =""600"" height = ""600"" style=""position:fixed;top:50%; left:50%; transform: translate(-50%, -50%); border:5px solid black"">","","","","","","","",""
"","1041.9199999960256","sequential-stimulus-presentation-old","81","328896","0.0-19.0-1.4","SS1618435634240","trial","","40","500","1541.9199999960256","images/stimuli/spore_stims/simple_18_A_a.gif","images/stimuli/spore_stims/simple_08_A_b.gif","self_paced","","5","simple_dissimilar","images/stimuli/spore_stims/simple_08_A_b.gif","","","","",""
"","null","html-keyboard-response","82","329704","0.0-19.0-0.5","SS1618435634240","","","null","","","","","","<p><img src= images/blank.png width =""600"" height = ""600"" style=""position:fixed;top:50%; left:50%; transform: translate(-50%, -50%); border:5px solid black"">","","","","","","","",""
"","1043.5900000011316","sequential-stimulus-presentation-old","83","331251","0.0-19.0-1.5","SS1618435634240","trial","","40","500","1543.5900000011316","images/stimuli/spore_stims/simple_18_A_a.gif","images/stimuli/spore_stims/simple_08_A_b.gif","self_paced","","5","simple_dissimilar","images/stimuli/spore_stims/simple_18_A_a.gif","","","","",""
"","4415.304999994987","survey-multi-choice","84","335668","0.0-20.0","SS1618435634240","math_question","","","","","","","","","","","","{""Q0"":""15""}","[0]","15","",""
"","null","html-keyboard-response","85","336957","0.0-21.0-0.0","SS1618435634240","","","null","","","","","","<p><img src= images/blank.png width =""600"" height = ""600"" style=""position:fixed;top:50%; left:50%; transform: translate(-50%, -50%); border:5px solid black"">","","","","","","","",""
"","2095.6500000029337","sequential-stimulus-presentation-old","86","339556","0.0-21.0-1.0","SS1618435634240","trial","","40","500","2595.6500000029337","images/stimuli/spore_stims/complex_09_A_a.gif","images/stimuli/spore_stims/complex_17_A_b.gif","self_paced","","6","complex_dissimilar","images/stimuli/spore_stims/complex_17_A_b.gif","","","","",""
"","null","html-keyboard-response","87","340572","0.0-21.0-0.1","SS1618435634240","","","null","","","","","","<p><img src= images/blank.png width =""600"" height = ""600"" style=""position:fixed;top:50%; left:50%; transform: translate(-50%, -50%); border:5px solid black"">","","","","","","","",""
"","1821.8099999940023","sequential-stimulus-presentation-old","88","342897","0.0-21.0-1.1","SS1618435634240","trial","","40","500","2321.8099999940023","images/stimuli/spore_stims/complex_09_A_a.gif","images/stimuli/spore_stims/complex_17_A_b.gif","self_paced","","6","complex_dissimilar","images/stimuli/spore_stims/complex_17_A_b.gif","","","","",""
"","null","html-keyboard-response","89","344111","0.0-21.0-0.2","SS1618435634240","","","null","","","","","","<p><img src= images/blank.png width =""600"" height = ""600"" style=""position:fixed;top:50%; left:50%; transform: translate(-50%, -50%); border:5px solid black"">","","","","","","","",""
"","1856.659999997646","sequential-stimulus-presentation-old","90","346480","0.0-21.0-1.2","SS1618435634240","trial","","40","500","2356.659999997646","images/stimuli/spore_stims/complex_09_A_a.gif","images/stimuli/spore_stims/complex_17_A_b.gif","self_paced","","6","complex_dissimilar","images/stimuli/spore_stims/complex_17_A_b.gif","","","","",""
"","null","html-keyboard-response","91","347520","0.0-21.0-0.3","SS1618435634240","","","null","","","","","","<p><img src= images/blank.png width =""600"" height = ""600"" style=""position:fixed;top:50%; left:50%; transform: translate(-50%, -50%); border:5px solid black"">","","","","","","","",""
"","928.9700000008452","sequential-stimulus-presentation-old","92","348951","0.0-21.0-1.3","SS1618435634240","trial","","40","500","1428.9700000008452","images/stimuli/spore_stims/complex_09_A_a.gif","images/stimuli/spore_stims/complex_17_A_b.gif","self_paced","","6","complex_dissimilar","images/stimuli/spore_stims/complex_17_A_b.gif","","","","",""
"","null","html-keyboard-response","93","349842","0.0-21.0-0.4","SS1618435634240","","","null","","","","","","<p><img src= images/blank.png width =""600"" height = ""600"" style=""position:fixed;top:50%; left:50%; transform: translate(-50%, -50%); border:5px solid black"">","","","","","","","",""
"","918.8649999996414","sequential-stimulus-presentation-old","94","351265","0.0-21.0-1.4","SS1618435634240","trial","","40","500","1418.8649999996414","images/stimuli/spore_stims/complex_09_A_a.gif","images/stimuli/spore_stims/complex_17_A_b.gif","self_paced","","6","complex_dissimilar","images/stimuli/spore_stims/complex_17_A_b.gif","","","","",""
"","null","html-keyboard-response","95","352309","0.0-21.0-0.5","SS1618435634240","","","null","","","","","","<p><img src= images/blank.png width =""600"" height = ""600"" style=""position:fixed;top:50%; left:50%; transform: translate(-50%, -50%); border:5px solid black"">","","","","","","","",""
"","1041.8449999997392","sequential-stimulus-presentation-old","96","353867","0.0-21.0-1.5","SS1618435634240","trial","","40","500","1541.8449999997392","images/stimuli/spore_stims/complex_09_A_a.gif","images/stimuli/spore_stims/complex_17_A_b.gif","self_paced","","6","complex_dissimilar","images/stimuli/spore_stims/complex_17_A_b.gif","","","","",""
"","2983.1950000007055","survey-multi-choice","97","356853","0.0-22.0","SS1618435634240","math_question","","","","","","","","","","","","{""Q0"":""4""}","[0]","4","",""
"","null","html-keyboard-response","98","357827","0.0-23.0-0.0","SS1618435634240","","","null","","","","","","<p><img src= images/blank.png width =""600"" height = ""600"" style=""position:fixed;top:50%; left:50%; transform: translate(-50%, -50%); border:5px solid black"">","","","","","","","",""
"","3146.1249999993015","sequential-stimulus-presentation-old","99","365987","0.0-23.0-1.0","SS1618435634240","trial","","40","500","3646.1249999993015","images/stimuli/spore_stims/simple_02_A_a.gif","images/stimuli/spore_stims/simple_15_A_b.gif","forced_long","","7","simple_dissimilar","images/stimuli/spore_stims/simple_15_A_b.gif","","","","",""
"","null","html-keyboard-response","100","366883","0.0-23.0-0.1","SS1618435634240","","","null","","","","","","<p><img src= images/blank.png width =""600"" height = ""600"" style=""position:fixed;top:50%; left:50%; transform: translate(-50%, -50%); border:5px solid black"">","","","","","","","",""
"","1054.9650000029942","sequential-stimulus-presentation-old","101","368455","0.0-23.0-1.1","SS1618435634240","trial","","40","500","1554.9650000029942","images/stimuli/spore_stims/simple_02_A_a.gif","images/stimuli/spore_stims/simple_15_A_b.gif","forced_long","","7","simple_dissimilar","images/stimuli/spore_stims/simple_15_A_b.gif","","","","",""
"","null","html-keyboard-response","102","369654","0.0-23.0-0.2","SS1618435634240","","","null","","","","","","<p><img src= images/blank.png width =""600"" height = ""600"" style=""position:fixed;top:50%; left:50%; transform: translate(-50%, -50%); border:5px solid black"">","","","","","","","",""
"","1186.8699999977252","sequential-stimulus-presentation-old","103","371356","0.0-23.0-1.2","SS1618435634240","trial","","40","500","1686.8699999977252","images/stimuli/spore_stims/simple_02_A_a.gif","images/stimuli/spore_stims/simple_15_A_b.gif","forced_long","","7","simple_dissimilar","images/stimuli/spore_stims/simple_15_A_b.gif","","","","",""
"","null","html-keyboard-response","104","372218","0.0-23.0-0.3","SS1618435634240","","","null","","","","","","<p><img src= images/blank.png width =""600"" height = ""600"" style=""position:fixed;top:50%; left:50%; transform: translate(-50%, -50%); border:5px solid black"">","","","","","","","",""
"","751.3700000054087","sequential-stimulus-presentation-old","105","373472","0.0-23.0-1.3","SS1618435634240","trial","","40","500","1251.3700000054087","images/stimuli/spore_stims/simple_02_A_a.gif","images/stimuli/spore_stims/simple_15_A_b.gif","forced_long","","7","simple_dissimilar","images/stimuli/spore_stims/simple_02_A_a.gif","","","","",""
"","null","html-keyboard-response","106","374686","0.0-23.0-0.4","SS1618435634240","","","null","","","","","","<p><img src= images/blank.png width =""600"" height = ""600"" style=""position:fixed;top:50%; left:50%; transform: translate(-50%, -50%); border:5px solid black"">","","","","","","","",""
"","4443.335000003572","sequential-stimulus-presentation-old","107","379639","0.0-23.0-1.4","SS1618435634240","trial","","40","500","4943.335000003572","images/stimuli/spore_stims/simple_02_A_a.gif","images/stimuli/spore_stims/simple_15_A_b.gif","forced_long","","7","simple_dissimilar","images/stimuli/spore_stims/simple_15_A_b.gif","","","","",""
"","null","html-keyboard-response","108","380856","0.0-23.0-0.5","SS1618435634240","","","null","","","","","","<p><img src= images/blank.png width =""600"" height = ""600"" style=""position:fixed;top:50%; left:50%; transform: translate(-50%, -50%); border:5px solid black"">","","","","","","","",""
"","31.47499999613501","sequential-stimulus-presentation-old","109","381403","0.0-23.0-1.5","SS1618435634240","trial","","40","500","531.474999996135","images/stimuli/spore_stims/simple_02_A_a.gif","images/stimuli/spore_stims/simple_15_A_b.gif","forced_long","","7","simple_dissimilar","images/stimuli/spore_stims/simple_15_A_b.gif","","","","",""
"","3550.569999999425","survey-multi-choice","110","384956","0.0-24.0","SS1618435634240","math_question","","","","","","","","","","","","{""Q0"":""7""}","[0]","7","",""
"","null","html-keyboard-response","111","385962","0.0-25.0-0.0","SS1618435634240","","","null","","","","","","<p><img src= images/blank.png width =""600"" height = ""600"" style=""position:fixed;top:50%; left:50%; transform: translate(-50%, -50%); border:5px solid black"">","","","","","","","",""
"","2987.229999998817","sequential-stimulus-presentation-old","112","389011","0.0-25.0-1.0","SS1618435634240","trial","","40","500","3487.229999998817","images/stimuli/spore_stims/simple_06_A_a.gif","images/stimuli/spore_stims/simple_19_A_b.gif","forced_short","","8","simple_dissimilar","images/stimuli/spore_stims/simple_19_A_b.gif","","","","",""
"","null","html-keyboard-response","113","389912","0.0-25.0-0.1","SS1618435634240","","","null","","","","","","<p><img src= images/blank.png width =""600"" height = ""600"" style=""position:fixed;top:50%; left:50%; transform: translate(-50%, -50%); border:5px solid black"">","","","","","","","",""
"","2922.2700000027544","sequential-stimulus-presentation-old","114","393347","0.0-25.0-1.1","SS1618435634240","trial","","40","500","3422.2700000027544","images/stimuli/spore_stims/simple_06_A_a.gif","images/stimuli/spore_stims/simple_19_A_b.gif","forced_short","","8","simple_dissimilar","images/stimuli/spore_stims/simple_19_A_b.gif","","","","",""
"","null","html-keyboard-response","115","394215","0.0-25.0-0.2","SS1618435634240","","","null","","","","","","<p><img src= images/blank.png width =""600"" height = ""600"" style=""position:fixed;top:50%; left:50%; transform: translate(-50%, -50%); border:5px solid black"">","","","","","","","",""
"","1681.189999995695","sequential-stimulus-presentation-old","116","396399","0.0-25.0-1.2","SS1618435634240","trial","","40","500","2181.189999995695","images/stimuli/spore_stims/simple_06_A_a.gif","images/stimuli/spore_stims/simple_19_A_b.gif","forced_short","","8","simple_dissimilar","images/stimuli/spore_stims/simple_19_A_b.gif","","","","",""
"","null","html-keyboard-response","117","397544","0.0-25.0-0.3","SS1618435634240","","","null","","","","","","<p><img src= images/blank.png width =""600"" height = ""600"" style=""position:fixed;top:50%; left:50%; transform: translate(-50%, -50%); border:5px solid black"">","","","","","","","",""
"","2443.4949999995297","sequential-stimulus-presentation-old","118","400492","0.0-25.0-1.3","SS1618435634240","trial","","40","500","2943.4949999995297","images/stimuli/spore_stims/simple_06_A_a.gif","images/stimuli/spore_stims/simple_19_A_b.gif","forced_short","","8","simple_dissimilar","images/stimuli/spore_stims/simple_19_A_b.gif","","","","",""
"","null","html-keyboard-response","119","401726","0.0-25.0-0.4","SS1618435634240","","","null","","","","","","<p><img src= images/blank.png width =""600"" height = ""600"" style=""position:fixed;top:50%; left:50%; transform: translate(-50%, -50%); border:5px solid black"">","","","","","","","",""
"","3162.225000000035","sequential-stimulus-presentation-old","120","405392","0.0-25.0-1.4","SS1618435634240","trial","","40","500","3662.225000000035","images/stimuli/spore_stims/simple_06_A_a.gif","images/stimuli/spore_stims/simple_19_A_b.gif","forced_short","","8","simple_dissimilar","images/stimuli/spore_stims/simple_06_A_a.gif","","","","",""
"","4386.744999996154","survey-multi-choice","121","409780","0.0-26.0","SS1618435634240","math_question","","","","","","","","","","","","{""Q0"":""14""}","[0]","14","",""
"","null","html-keyboard-response","122","410779","0.0-27.0-0.0","SS1618435634240","","","null","","","","","","<p><img src= images/blank.png width =""600"" height = ""600"" style=""position:fixed;top:50%; left:50%; transform: translate(-50%, -50%); border:5px solid black"">","","","","","","","",""
"","5002.874999998312","sequential-stimulus-presentation-old","123","420784","0.0-27.0-1.0","SS1618435634240","trial","","40","500","5502.874999998312","images/stimuli/spore_stims/complex_14_A_a.gif","images/stimuli/spore_stims/complex_03_A_b.gif","forced_long","","9","complex_dissimilar","images/stimuli/spore_stims/complex_03_A_b.gif","","","","",""
"","null","html-keyboard-response","124","421733","0.0-27.0-0.1","SS1618435634240","","","null","","","","","","<p><img src= images/blank.png width =""600"" height = ""600"" style=""position:fixed;top:50%; left:50%; transform: translate(-50%, -50%); border:5px solid black"">","","","","","","","",""
"","461.8149999951129","sequential-stimulus-presentation-old","125","422711","0.0-27.0-1.1","SS1618435634240","trial","","40","500","961.8149999951129","images/stimuli/spore_stims/complex_14_A_a.gif","images/stimuli/spore_stims/complex_03_A_b.gif","forced_long","","9","complex_dissimilar","images/stimuli/spore_stims/complex_03_A_b.gif","","","","",""
"","null","html-keyboard-response","126","423900","0.0-27.0-0.2","SS1618435634240","","","null","","","","","","<p><img src= images/blank.png width =""600"" height = ""600"" style=""position:fixed;top:50%; left:50%; transform: translate(-50%, -50%); border:5px solid black"">","","","","","","","",""
"","775.7449999990058","sequential-stimulus-presentation-old","127","425196","0.0-27.0-1.2","SS1618435634240","trial","","40","500","1275.7449999990058","images/stimuli/spore_stims/complex_14_A_a.gif","images/stimuli/spore_stims/complex_03_A_b.gif","forced_long","","9","complex_dissimilar","images/stimuli/spore_stims/complex_03_A_b.gif","","","","",""
"","null","html-keyboard-response","128","426235","0.0-27.0-0.3","SS1618435634240","","","null","","","","","","<p><img src= images/blank.png width =""600"" height = ""600"" style=""position:fixed;top:50%; left:50%; transform: translate(-50%, -50%); border:5px solid black"">","","","","","","","",""
"","331.1900000044261","sequential-stimulus-presentation-old","129","427069","0.0-27.0-1.3","SS1618435634240","trial","","40","500","831.1900000044261","images/stimuli/spore_stims/complex_14_A_a.gif","images/stimuli/spore_stims/complex_03_A_b.gif","forced_long","","9","complex_dissimilar","images/stimuli/spore_stims/complex_03_A_b.gif","","","","",""
"","4928.939999997965","survey-multi-choice","130","432003","0.0-28.0","SS1618435634240","math_question","","","","","","","","","","","","{""Q0"":""13""}","[0]","13","",""
"","null","html-keyboard-response","131","433182","0.0-29.0-0.0","SS1618435634240","","","null","","","","","","<p><img src= images/blank.png width =""600"" height = ""600"" style=""position:fixed;top:50%; left:50%; transform: translate(-50%, -50%); border:5px solid black"">","","","","","","","",""
"","1191.7150000008405","sequential-stimulus-presentation-old","132","434438","0.0-29.0-1.0","SS1618435634240","trial","","40","500","1691.7150000008405","images/stimuli/spore_stims/simple_09_A_a.gif","images/stimuli/spore_stims/simple_12_A_b.gif","forced_short","","10","simple_dissimilar","images/stimuli/spore_stims/simple_12_A_b.gif","","","","",""
"","null","html-keyboard-response","133","435250","0.0-29.0-0.1","SS1618435634240","","","null","","","","","","<p><img src= images/blank.png width =""600"" height = ""600"" style=""position:fixed;top:50%; left:50%; transform: translate(-50%, -50%); border:5px solid black"">","","","","","","","",""
"","3354.1350000014063","sequential-stimulus-presentation-old","134","439108","0.0-29.0-1.1","SS1618435634240","trial","","40","500","3854.1350000014063","images/stimuli/spore_stims/simple_09_A_a.gif","images/stimuli/spore_stims/simple_12_A_b.gif","forced_short","","10","simple_dissimilar","images/stimuli/spore_stims/simple_12_A_b.gif","","","","",""
"","null","html-keyboard-response","135","439916","0.0-29.0-0.2","SS1618435634240","","","null","","","","","","<p><img src= images/blank.png width =""600"" height = ""600"" style=""position:fixed;top:50%; left:50%; transform: translate(-50%, -50%); border:5px solid black"">","","","","","","","",""
"","1092.514999996638","sequential-stimulus-presentation-old","136","441519","0.0-29.0-1.2","SS1618435634240","trial","","40","500","1592.514999996638","images/stimuli/spore_stims/simple_09_A_a.gif","images/stimuli/spore_stims/simple_12_A_b.gif","forced_short","","10","simple_dissimilar","images/stimuli/spore_stims/simple_12_A_b.gif","","","","",""
"","null","html-keyboard-response","137","442559","0.0-29.0-0.3","SS1618435634240","","","null","","","","","","<p><img src= images/blank.png width =""600"" height = ""600"" style=""position:fixed;top:50%; left:50%; transform: translate(-50%, -50%); border:5px solid black"">","","","","","","","",""
"","988.0499999999302","sequential-stimulus-presentation-old","138","444059","0.0-29.0-1.3","SS1618435634240","trial","","40","500","1488.0499999999302","images/stimuli/spore_stims/simple_09_A_a.gif","images/stimuli/spore_stims/simple_12_A_b.gif","forced_short","","10","simple_dissimilar","images/stimuli/spore_stims/simple_12_A_b.gif","","","","",""
"","null","html-keyboard-response","139","444932","0.0-29.0-0.4","SS1618435634240","","","null","","","","","","<p><img src= images/blank.png width =""600"" height = ""600"" style=""position:fixed;top:50%; left:50%; transform: translate(-50%, -50%); border:5px solid black"">","","","","","","","",""
"","2398.189999999886","sequential-stimulus-presentation-old","140","447844","0.0-29.0-1.4","SS1618435634240","trial","","40","500","2898.189999999886","images/stimuli/spore_stims/simple_09_A_a.gif","images/stimuli/spore_stims/simple_12_A_b.gif","forced_short","","10","simple_dissimilar","images/stimuli/spore_stims/simple_09_A_a.gif","","","","",""
"","4126.374999999825","survey-multi-choice","141","451979","0.0-30.0","SS1618435634240","math_question","","","","","","","","","","","","{""Q0"":""13""}","[0]","13","",""
"","null","html-keyboard-response","142","452923","0.0-31.0-0.0","SS1618435634240","","","null","","","","","","<p><img src= images/blank.png width =""600"" height = ""600"" style=""position:fixed;top:50%; left:50%; transform: translate(-50%, -50%); border:5px solid black"">","","","","","","","",""
"","2576.6200000070967","sequential-stimulus-presentation-old","143","456003","0.0-31.0-1.0","SS1618435634240","trial","","40","500","3076.6200000070967","images/stimuli/spore_stims/complex_16_A_a.gif","images/stimuli/spore_stims/complex_10_A_b.gif","self_paced","","11","complex_dissimilar","images/stimuli/spore_stims/complex_10_A_b.gif","","","","",""
"","null","html-keyboard-response","144","457060","0.0-31.0-0.1","SS1618435634240","","","null","","","","","","<p><img src= images/blank.png width =""600"" height = ""600"" style=""position:fixed;top:50%; left:50%; transform: translate(-50%, -50%); border:5px solid black"">","","","","","","","",""
"","891.8049999992945","sequential-stimulus-presentation-old","145","458463","0.0-31.0-1.1","SS1618435634240","trial","","40","500","1391.8049999992945","images/stimuli/spore_stims/complex_16_A_a.gif","images/stimuli/spore_stims/complex_10_A_b.gif","self_paced","","11","complex_dissimilar","images/stimuli/spore_stims/complex_10_A_b.gif","","","","",""
"","null","html-keyboard-response","146","459710","0.0-31.0-0.2","SS1618435634240","","","null","","","","","","<p><img src= images/blank.png width =""600"" height = ""600"" style=""position:fixed;top:50%; left:50%; transform: translate(-50%, -50%); border:5px solid black"">","","","","","","","",""
"","51.61500000394881","sequential-stimulus-presentation-old","147","460275","0.0-31.0-1.2","SS1618435634240","trial","","40","500","551.6150000039488","images/stimuli/spore_stims/complex_16_A_a.gif","images/stimuli/spore_stims/complex_10_A_b.gif","self_paced","","11","complex_dissimilar","images/stimuli/spore_stims/complex_10_A_b.gif","","","","",""
"","null","html-keyboard-response","148","461349","0.0-31.0-0.3","SS1618435634240","","","null","","","","","","<p><img src= images/blank.png width =""600"" height = ""600"" style=""position:fixed;top:50%; left:50%; transform: translate(-50%, -50%); border:5px solid black"">","","","","","","","",""
"","269.60999999573687","sequential-stimulus-presentation-old","149","462138","0.0-31.0-1.3","SS1618435634240","trial","","40","500","769.6099999957369","images/stimuli/spore_stims/complex_16_A_a.gif","images/stimuli/spore_stims/complex_10_A_b.gif","self_paced","","11","complex_dissimilar","images/stimuli/spore_stims/complex_10_A_b.gif","","","","",""
"[{""page_index"":0,""viewing_time"":8014.81000000058}]","8015.019999998913","instructions","150","470155","0.0-32.0","SS1618435634240","instructions","","","","","","","","","","","","","","","",""
"","8965.669999997772","survey-likert","151","479123","0.0-33.0","SS1618435634240","similarity_question","","","","","","","","","","","","{""Q0"":0}","[0]","","images/stimuli/spore_stims/complex_19_A_a.gif","images/stimuli/spore_stims/complex_05_A_b.gif"
"","6578.770000000077","survey-likert","152","485707","0.0-34.0","SS1618435634240","similarity_question","","","","","","","","","","","","{""Q0"":6}","[0]","","images/stimuli/spore_stims/simple_09_A_a.gif","images/stimuli/spore_stims/simple_12_A_b.gif"
"","6395.295000002079","survey-likert","153","492107","0.0-35.0","SS1618435634240","similarity_question","","","","","","","","","","","","{""Q0"":1}","[0]","","images/stimuli/spore_stims/complex_06_A_b.gif","images/stimuli/spore_stims/complex_15_A_a.gif"
"","4220.14499999932","survey-likert","154","496332","0.0-36.0","SS1618435634240","similarity_question","","","","","","","","","","","","{""Q0"":1}","[0]","","images/stimuli/spore_stims/complex_05_A_a.gif","images/stimuli/spore_stims/complex_16_A_b.gif"
"","4721.319999996922","survey-likert","155","501059","0.0-37.0","SS1618435634240","similarity_question","","","","","","","","","","","","{""Q0"":2}","[0]","","images/stimuli/spore_stims/simple_08_A_a.gif","images/stimuli/spore_stims/simple_09_A_b.gif"
"","9835.175000000163","survey-likert","156","510899","0.0-38.0","SS1618435634240","similarity_question","","","","","","","","","","","","{""Q0"":4}","[0]","","images/stimuli/spore_stims/simple_15_A_b.gif","images/stimuli/spore_stims/simple_02_A_a.gif"
"","4898.7300000008545","survey-likert","157","515803","0.0-39.0","SS1618435634240","similarity_question","","","","","","","","","","","","{""Q0"":1}","[0]","","images/stimuli/spore_stims/complex_10_A_b.gif","images/stimuli/spore_stims/complex_16_A_a.gif"
"","3939.830000002985","survey-likert","158","519748","0.0-40.0","SS1618435634240","similarity_question","","","","","","","","","","","","{""Q0"":1}","[0]","","images/stimuli/spore_stims/simple_16_A_b.gif","images/stimuli/spore_stims/simple_13_A_a.gif"
"","3250.6450000000186","survey-likert","159","523004","0.0-41.0","SS1618435634240","similarity_question","","","","","","","","","","","","{""Q0"":2}","[0]","","images/stimuli/spore_stims/simple_06_A_a.gif","images/stimuli/spore_stims/simple_19_A_b.gif"
"","2547.1550000002608","survey-likert","160","525556","0.0-42.0","SS1618435634240","similarity_question","","","","","","","","","","","","{""Q0"":1}","[0]","","images/stimuli/spore_stims/simple_18_A_a.gif","images/stimuli/spore_stims/simple_08_A_b.gif"
"","5441.585000000545","survey-likert","161","531003","0.0-43.0","SS1618435634240","similarity_question","","","","","","","","","","","","{""Q0"":0}","[0]","","images/stimuli/spore_stims/complex_09_A_a.gif","images/stimuli/spore_stims/complex_17_A_b.gif"
"","3627.419999997015","survey-likert","162","534635","0.0-44.0","SS1618435634240","similarity_question","","","","","","","","","","","","{""Q0"":0}","[0]","","images/stimuli/spore_stims/complex_03_A_b.gif","images/stimuli/spore_stims/complex_14_A_a.gif"
"[{""page_index"":0,""viewing_time"":4697.7150000019465}]","4697.8749999979045","instructions","163","539338","0.0-45.0","SS1618435634240","instructions","","","","","","","","","","","","","","","",""
"","5374.524999999208","survey-likert","164","544715","0.0-46.0","SS1618435634240","","","","","","","","","images/stimuli/spore_stims/complex_17_A_b.gif","","","","{""Q0"":5}","[0]","","",""
"","3027.3000000016764","survey-likert","165","547747","0.0-47.0","SS1618435634240","","","","","","","","","images/stimuli/spore_stims/complex_03_A_b.gif","","","","{""Q0"":4}","[0]","","",""
"","3075.015000002226","survey-likert","166","550827","0.0-48.0","SS1618435634240","","","","","","","","","images/stimuli/spore_stims/simple_18_A_a.gif","","","","{""Q0"":1}","[0]","","",""
"","3265.360000004759","survey-likert","167","554099","0.0-49.0","SS1618435634240","","","","","","","","","images/stimuli/spore_stims/complex_16_A_a.gif","","","","{""Q0"":6}","[0]","","",""
"","2035.2250000069616","survey-likert","168","556139","0.0-50.0","SS1618435634240","","","","","","","","","images/stimuli/spore_stims/simple_12_A_b.gif","","","","{""Q0"":0}","[0]","","",""
"","2986.8749999951106","survey-likert","169","559131","0.0-51.0","SS1618435634240","","","","","","","","","images/stimuli/spore_stims/complex_05_A_a.gif","","","","{""Q0"":5}","[0]","","",""
"","1699.2199999948498","survey-likert","170","560836","0.0-52.0","SS1618435634240","","","","","","","","","images/stimuli/spore_stims/complex_05_A_b.gif","","","","{""Q0"":5}","[0]","","",""
"","3338.850000000093","survey-likert","171","564179","0.0-53.0","SS1618435634240","","","","","","","","","images/stimuli/spore_stims/simple_02_A_a.gif","","","","{""Q0"":0}","[0]","","",""
"","2307.4249999991152","survey-likert","172","566491","0.0-54.0","SS1618435634240","","","","","","","","","images/stimuli/spore_stims/simple_13_A_a.gif","","","","{""Q0"":0}","[0]","","",""
"","3138.4650000035763","survey-likert","173","569635","0.0-55.0","SS1618435634240","","","","","","","","","images/stimuli/spore_stims/complex_06_A_b.gif","","","","{""Q0"":4}","[0]","","",""
"","4219.919999995851","survey-likert","174","573859","0.0-56.0","SS1618435634240","","","","","","","","","images/stimuli/spore_stims/simple_19_A_b.gif","","","","{""Q0"":2}","[0]","","",""
"","8043.210000003455","survey-likert","175","581907","0.0-57.0","SS1618435634240","","","","","","","","","images/stimuli/spore_stims/simple_09_A_b.gif","","","","{""Q0"":0}","[0]","","",""
"[{""page_index"":0,""viewing_time"":2611.9650000036927}]","2612.135000003036","instructions","176","584523","0.0-58.0","SS1618435634240","instructions","","","","","","","","","","","","","","","",""
"","3188.695000004256","demog-age","177","587716","0.0-59.0","SS1618435634240","","","","","","","","","","","","","{""age"":""20""}","","","",""
"","5987.269999997807","demog-ethnic-US","178","593708","0.0-60.0","SS1618435634240","","","","","","","","","","","","","{""ethnicity"":[""White""]}","[0]","","",""
"","12273.945000000764","demog-gender-and-education","179","605987","0.0-61.0","SS1618435634240","","","","","","","","","","","","","{""gender"":""Male"",""education"":""High school diploma""}","[0,1]","","",""
"","13506.529999998747","survey-text","180","619500","0.0-62.0","SS1618435634240","feedback","","","","","","","","","","","","{""Q0"":""No issues from me""}","","","",""
"[{""page_index"":0,""viewing_time"":1869.6200000048848}]","1869.7450000036042","instructions","181","621372","0.0-63.0","SS1618435634240","instructions","","","","","","","","","","","","","","","",""
