"view_history","rt","trial_type","trial_index","time_elapsed","internal_node_id","subject","stimulus_type","trial_stimulus","key_press","minimum_viewing_duration","trial_looking_time","block_deviant","block_background","exposure_type","stimulus","block_number","block_type","stimulus_displayed","responses","question_order","math_correct_answer","stimulus_left","stimulus_right"
"[{""page_index"":0,""viewing_time"":23630.2999999607}]","23630.904999910854","instructions","0","23632","0.0-0.0","SS1618435893240","","","","","","","","","","","","","","","","",""
"[{""page_index"":0,""viewing_time"":14394.625000073574},{""page_index"":1,""viewing_time"":5754.96499997098}]","20149.91000003647","instructions","1","45792","0.0-1.0","SS1618435893240","instructions","","","","","","","","","","","","","","","",""
"","13156.584999989718","sequential-stimulus-presentation-old","2","59451","0.0-2.0","SS1618435893240","","","40","500","13656.584999989718","null","null","self_paced","","","","","","","","",""
"","24902.760000084527","sequential-stimulus-presentation-old","3","84870","0.0-3.0","SS1618435893240","","","40","500","25402.760000084527","null","null","self_paced","","","","","","","","",""
"[{""page_index"":0,""viewing_time"":13420.50000000745}]","13420.894999988377","instructions","4","98292","0.0-4.0","SS1618435893240","instructions","","","","","","","","","","","","","","","",""
"","5128.209999995306","sequential-stimulus-presentation-old","5","108424","0.0-5.0","SS1618435893240","","","40","500","5628.209999995306","null","null","forced_long","","","","","","","","",""
"","4397.92999997735","sequential-stimulus-presentation-old","6","112881","0.0-6.0","SS1618435893240","","","40","50","4447.92999997735","null","null","forced_long","","","","","","","","",""
"[{""page_index"":0,""viewing_time"":3547.729999991134}]","3547.969999955967","instructions","7","116430","0.0-7.0","SS1618435893240","instructions","","","","","","","","","","","","","","","",""
"[{""page_index"":0,""viewing_time"":8834.894999978133},{""page_index"":1,""viewing_time"":9090.014999965206},{""page_index"":2,""viewing_time"":6201.195000088774},{""page_index"":3,""viewing_time"":1618.6349999625236},{""page_index"":4,""viewing_time"":1235.080000013113}]","26980.08500004653","instructions","8","143411","0.0-8.0","SS1618435893240","instructions","","","","","","","","","","","","","","","",""
"","null","html-keyboard-response","9","144383","0.0-9.0-0.0","SS1618435893240","","","null","","","","","","<p><img src= images/blank.png width =""600"" height = ""600"" style=""position:fixed;top:50%; left:50%; transform: translate(-50%, -50%); border:5px solid black"">","","","","","","","",""
"","2342.2699999064207","sequential-stimulus-presentation-old","10","146788","0.0-9.0-1.0","SS1618435893240","trial","","40","500","2842.2699999064207","images/stimuli/spore_stims/simple_11_A_b.gif","images/stimuli/spore_stims/simple_03_A_a.gif","forced_short","","0","simple_dissimilar","images/stimuli/spore_stims/simple_03_A_a.gif","","","","",""
"","null","html-keyboard-response","11","147836","0.0-9.0-0.1","SS1618435893240","","","null","","","","","","<p><img src= images/blank.png width =""600"" height = ""600"" style=""position:fixed;top:50%; left:50%; transform: translate(-50%, -50%); border:5px solid black"">","","","","","","","",""
"","13443.614999996498","sequential-stimulus-presentation-old","12","161790","0.0-9.0-1.1","SS1618435893240","trial","","40","500","13943.614999996498","images/stimuli/spore_stims/simple_11_A_b.gif","images/stimuli/spore_stims/simple_03_A_a.gif","forced_short","","0","simple_dissimilar","images/stimuli/spore_stims/simple_03_A_a.gif","","","","",""
"","null","html-keyboard-response","13","162796","0.0-9.0-0.2","SS1618435893240","","","null","","","","","","<p><img src= images/blank.png width =""600"" height = ""600"" style=""position:fixed;top:50%; left:50%; transform: translate(-50%, -50%); border:5px solid black"">","","","","","","","",""
"","9115.78999995254","sequential-stimulus-presentation-old","14","172415","0.0-9.0-1.2","SS1618435893240","trial","","40","500","9615.78999995254","images/stimuli/spore_stims/simple_11_A_b.gif","images/stimuli/spore_stims/simple_03_A_a.gif","forced_short","","0","simple_dissimilar","images/stimuli/spore_stims/simple_03_A_a.gif","","","","",""
"","null","html-keyboard-response","15","173313","0.0-9.0-0.3","SS1618435893240","","","null","","","","","","<p><img src= images/blank.png width =""600"" height = ""600"" style=""position:fixed;top:50%; left:50%; transform: translate(-50%, -50%); border:5px solid black"">","","","","","","","",""
"","6079.039999982342","sequential-stimulus-presentation-old","16","179896","0.0-9.0-1.3","SS1618435893240","trial","","40","500","6579.039999982342","images/stimuli/spore_stims/simple_11_A_b.gif","images/stimuli/spore_stims/simple_03_A_a.gif","forced_short","","0","simple_dissimilar","images/stimuli/spore_stims/simple_03_A_a.gif","","","","",""
"","null","html-keyboard-response","17","181070","0.0-9.0-0.4","SS1618435893240","","","null","","","","","","<p><img src= images/blank.png width =""600"" height = ""600"" style=""position:fixed;top:50%; left:50%; transform: translate(-50%, -50%); border:5px solid black"">","","","","","","","",""
"","5003.97000007797","sequential-stimulus-presentation-old","18","186577","0.0-9.0-1.4","SS1618435893240","trial","","40","500","5503.97000007797","images/stimuli/spore_stims/simple_11_A_b.gif","images/stimuli/spore_stims/simple_03_A_a.gif","forced_short","","0","simple_dissimilar","images/stimuli/spore_stims/simple_11_A_b.gif","","","","",""
"","null","html-keyboard-response","19","187560","0.0-9.0-0.5","SS1618435893240","","","null","","","","","","<p><img src= images/blank.png width =""600"" height = ""600"" style=""position:fixed;top:50%; left:50%; transform: translate(-50%, -50%); border:5px solid black"">","","","","","","","",""
"","4962.494999985211","sequential-stimulus-presentation-old","20","193025","0.0-9.0-1.5","SS1618435893240","trial","","40","500","5462.494999985211","images/stimuli/spore_stims/simple_11_A_b.gif","images/stimuli/spore_stims/simple_03_A_a.gif","forced_short","","0","simple_dissimilar","images/stimuli/spore_stims/simple_03_A_a.gif","","","","",""
"","5540.685000014491","survey-multi-choice","21","198569","0.0-10.0","SS1618435893240","math_question","","","","","","","","","","","","{""Q0"":""10""}","[0]","10","",""
"","null","html-keyboard-response","22","199537","0.0-11.0-0.0","SS1618435893240","","","null","","","","","","<p><img src= images/blank.png width =""600"" height = ""600"" style=""position:fixed;top:50%; left:50%; transform: translate(-50%, -50%); border:5px solid black"">","","","","","","","",""
"","1663.4850000264123","sequential-stimulus-presentation-old","23","206218","0.0-11.0-1.0","SS1618435893240","trial","","40","500","2163.4850000264123","images/stimuli/spore_stims/complex_18_A_b.gif","images/stimuli/spore_stims/complex_05_A_a.gif","forced_long","","1","complex_dissimilar","images/stimuli/spore_stims/complex_05_A_a.gif","","","","",""
"","null","html-keyboard-response","24","207196","0.0-11.0-0.1","SS1618435893240","","","null","","","","","","<p><img src= images/blank.png width =""600"" height = ""600"" style=""position:fixed;top:50%; left:50%; transform: translate(-50%, -50%); border:5px solid black"">","","","","","","","",""
"","9175.18999997992","sequential-stimulus-presentation-old","25","216884","0.0-11.0-1.1","SS1618435893240","trial","","40","500","9675.18999997992","images/stimuli/spore_stims/complex_18_A_b.gif","images/stimuli/spore_stims/complex_05_A_a.gif","forced_long","","1","complex_dissimilar","images/stimuli/spore_stims/complex_05_A_a.gif","","","","",""
"","null","html-keyboard-response","26","218067","0.0-11.0-0.2","SS1618435893240","","","null","","","","","","<p><img src= images/blank.png width =""600"" height = ""600"" style=""position:fixed;top:50%; left:50%; transform: translate(-50%, -50%); border:5px solid black"">","","","","","","","",""
"","8283.095000078902","sequential-stimulus-presentation-old","27","226853","0.0-11.0-1.2","SS1618435893240","trial","","40","500","8783.095000078902","images/stimuli/spore_stims/complex_18_A_b.gif","images/stimuli/spore_stims/complex_05_A_a.gif","forced_long","","1","complex_dissimilar","images/stimuli/spore_stims/complex_05_A_a.gif","","","","",""
"","null","html-keyboard-response","28","227957","0.0-11.0-0.3","SS1618435893240","","","null","","","","","","<p><img src= images/blank.png width =""600"" height = ""600"" style=""position:fixed;top:50%; left:50%; transform: translate(-50%, -50%); border:5px solid black"">","","","","","","","",""
"","7362.5499999616295","sequential-stimulus-presentation-old","29","235822","0.0-11.0-1.3","SS1618435893240","trial","","40","500","7862.5499999616295","images/stimuli/spore_stims/complex_18_A_b.gif","images/stimuli/spore_stims/complex_05_A_a.gif","forced_long","","1","complex_dissimilar","images/stimuli/spore_stims/complex_05_A_a.gif","","","","",""
"","3230.4400000721216","survey-multi-choice","30","239054","0.0-12.0","SS1618435893240","math_question","","","","","","","","","","","","{""Q0"":""5""}","[0]","5","",""
"","null","html-keyboard-response","31","240050","0.0-13.0-0.0","SS1618435893240","","","null","","","","","","<p><img src= images/blank.png width =""600"" height = ""600"" style=""position:fixed;top:50%; left:50%; transform: translate(-50%, -50%); border:5px solid black"">","","","","","","","",""
"","6584.090000018477","sequential-stimulus-presentation-old","32","247143","0.0-13.0-1.0","SS1618435893240","trial","","40","500","7084.090000018477","images/stimuli/spore_stims/simple_02_A_b.gif","images/stimuli/spore_stims/simple_06_A_a.gif","self_paced","","2","simple_dissimilar","images/stimuli/spore_stims/simple_06_A_a.gif","","","","",""
"","null","html-keyboard-response","33","248187","0.0-13.0-0.1","SS1618435893240","","","null","","","","","","<p><img src= images/blank.png width =""600"" height = ""600"" style=""position:fixed;top:50%; left:50%; transform: translate(-50%, -50%); border:5px solid black"">","","","","","","","",""
"","7986.6399999009445","sequential-stimulus-presentation-old","34","256680","0.0-13.0-1.1","SS1618435893240","trial","","40","500","8486.639999900945","images/stimuli/spore_stims/simple_02_A_b.gif","images/stimuli/spore_stims/simple_06_A_a.gif","self_paced","","2","simple_dissimilar","images/stimuli/spore_stims/simple_06_A_a.gif","","","","",""
"","null","html-keyboard-response","35","257887","0.0-13.0-0.2","SS1618435893240","","","null","","","","","","<p><img src= images/blank.png width =""600"" height = ""600"" style=""position:fixed;top:50%; left:50%; transform: translate(-50%, -50%); border:5px solid black"">","","","","","","","",""
"","8475.699999951757","sequential-stimulus-presentation-old","36","266881","0.0-13.0-1.2","SS1618435893240","trial","","40","500","8975.699999951757","images/stimuli/spore_stims/simple_02_A_b.gif","images/stimuli/spore_stims/simple_06_A_a.gif","self_paced","","2","simple_dissimilar","images/stimuli/spore_stims/simple_06_A_a.gif","","","","",""
"","null","html-keyboard-response","37","267775","0.0-13.0-0.3","SS1618435893240","","","null","","","","","","<p><img src= images/blank.png width =""600"" height = ""600"" style=""position:fixed;top:50%; left:50%; transform: translate(-50%, -50%); border:5px solid black"">","","","","","","","",""
"","7987.584999995306","sequential-stimulus-presentation-old","38","276266","0.0-13.0-1.3","SS1618435893240","trial","","40","500","8487.584999995306","images/stimuli/spore_stims/simple_02_A_b.gif","images/stimuli/spore_stims/simple_06_A_a.gif","self_paced","","2","simple_dissimilar","images/stimuli/spore_stims/simple_06_A_a.gif","","","","",""
"","null","html-keyboard-response","39","277094","0.0-13.0-0.4","SS1618435893240","","","null","","","","","","<p><img src= images/blank.png width =""600"" height = ""600"" style=""position:fixed;top:50%; left:50%; transform: translate(-50%, -50%); border:5px solid black"">","","","","","","","",""
"","9711.974999983795","sequential-stimulus-presentation-old","40","287315","0.0-13.0-1.4","SS1618435893240","trial","","40","500","10211.974999983795","images/stimuli/spore_stims/simple_02_A_b.gif","images/stimuli/spore_stims/simple_06_A_a.gif","self_paced","","2","simple_dissimilar","images/stimuli/spore_stims/simple_06_A_a.gif","","","","",""
"","3767.035000026226","survey-multi-choice","41","291084","0.0-14.0","SS1618435893240","math_question","","","","","","","","","","","","{""Q0"":""4""}","[0]","4","",""
"","null","html-keyboard-response","42","292220","0.0-15.0-0.0","SS1618435893240","","","null","","","","","","<p><img src= images/blank.png width =""600"" height = ""600"" style=""position:fixed;top:50%; left:50%; transform: translate(-50%, -50%); border:5px solid black"">","","","","","","","",""
"","1267.7700000349432","sequential-stimulus-presentation-old","43","293548","0.0-15.0-1.0","SS1618435893240","trial","","40","500","1767.7700000349432","images/stimuli/spore_stims/complex_01_A_a.gif","images/stimuli/spore_stims/complex_11_A_b.gif","forced_short","","3","complex_dissimilar","images/stimuli/spore_stims/complex_11_A_b.gif","","","","",""
"","null","html-keyboard-response","44","294611","0.0-15.0-0.1","SS1618435893240","","","null","","","","","","<p><img src= images/blank.png width =""600"" height = ""600"" style=""position:fixed;top:50%; left:50%; transform: translate(-50%, -50%); border:5px solid black"">","","","","","","","",""
"","8218.915000092238","sequential-stimulus-presentation-old","45","303333","0.0-15.0-1.1","SS1618435893240","trial","","40","500","8718.915000092238","images/stimuli/spore_stims/complex_01_A_a.gif","images/stimuli/spore_stims/complex_11_A_b.gif","forced_short","","3","complex_dissimilar","images/stimuli/spore_stims/complex_11_A_b.gif","","","","",""
"","null","html-keyboard-response","46","304316","0.0-15.0-0.2","SS1618435893240","","","null","","","","","","<p><img src= images/blank.png width =""600"" height = ""600"" style=""position:fixed;top:50%; left:50%; transform: translate(-50%, -50%); border:5px solid black"">","","","","","","","",""
"","9531.805000035092","sequential-stimulus-presentation-old","47","314350","0.0-15.0-1.2","SS1618435893240","trial","","40","500","10031.805000035092","images/stimuli/spore_stims/complex_01_A_a.gif","images/stimuli/spore_stims/complex_11_A_b.gif","forced_short","","3","complex_dissimilar","images/stimuli/spore_stims/complex_11_A_b.gif","","","","",""
"","null","html-keyboard-response","48","315416","0.0-15.0-0.3","SS1618435893240","","","null","","","","","","<p><img src= images/blank.png width =""600"" height = ""600"" style=""position:fixed;top:50%; left:50%; transform: translate(-50%, -50%); border:5px solid black"">","","","","","","","",""
"","9409.979999996722","sequential-stimulus-presentation-old","49","325336","0.0-15.0-1.3","SS1618435893240","trial","","40","500","9909.979999996722","images/stimuli/spore_stims/complex_01_A_a.gif","images/stimuli/spore_stims/complex_11_A_b.gif","forced_short","","3","complex_dissimilar","images/stimuli/spore_stims/complex_11_A_b.gif","","","","",""
"","null","html-keyboard-response","50","326353","0.0-15.0-0.4","SS1618435893240","","","null","","","","","","<p><img src= images/blank.png width =""600"" height = ""600"" style=""position:fixed;top:50%; left:50%; transform: translate(-50%, -50%); border:5px solid black"">","","","","","","","",""
"","30260.189999942668","sequential-stimulus-presentation-old","51","357114","0.0-15.0-1.4","SS1618435893240","trial","","40","500","30760.189999942668","images/stimuli/spore_stims/complex_01_A_a.gif","images/stimuli/spore_stims/complex_11_A_b.gif","forced_short","","3","complex_dissimilar","images/stimuli/spore_stims/complex_01_A_a.gif","","","","",""
"","null","html-keyboard-response","52","358333","0.0-15.0-0.5","SS1618435893240","","","null","","","","","","<p><img src= images/blank.png width =""600"" height = ""600"" style=""position:fixed;top:50%; left:50%; transform: translate(-50%, -50%); border:5px solid black"">","","","","","","","",""
"","7566.980000003241","sequential-stimulus-presentation-old","53","366403","0.0-15.0-1.5","SS1618435893240","trial","","40","500","8066.980000003241","images/stimuli/spore_stims/complex_01_A_a.gif","images/stimuli/spore_stims/complex_11_A_b.gif","forced_short","","3","complex_dissimilar","images/stimuli/spore_stims/complex_01_A_a.gif","","","","",""
"","4231.269999989308","survey-multi-choice","54","370637","0.0-16.0","SS1618435893240","math_question","","","","","","","","","","","","{""Q0"":""14""}","[0]","14","",""
"","null","html-keyboard-response","55","371538","0.0-17.0-0.0","SS1618435893240","","","null","","","","","","<p><img src= images/blank.png width =""600"" height = ""600"" style=""position:fixed;top:50%; left:50%; transform: translate(-50%, -50%); border:5px solid black"">","","","","","","","",""
"","7033.779999939725","sequential-stimulus-presentation-old","56","379077","0.0-17.0-1.0","SS1618435893240","trial","","40","500","7533.779999939725","images/stimuli/spore_stims/complex_13_A_b.gif","images/stimuli/spore_stims/complex_06_A_a.gif","self_paced","","4","complex_dissimilar","images/stimuli/spore_stims/complex_06_A_a.gif","","","","",""
"","null","html-keyboard-response","57","380025","0.0-17.0-0.1","SS1618435893240","","","null","","","","","","<p><img src= images/blank.png width =""600"" height = ""600"" style=""position:fixed;top:50%; left:50%; transform: translate(-50%, -50%); border:5px solid black"">","","","","","","","",""
"","7092.39499992691","sequential-stimulus-presentation-old","58","387621","0.0-17.0-1.1","SS1618435893240","trial","","40","500","7592.39499992691","images/stimuli/spore_stims/complex_13_A_b.gif","images/stimuli/spore_stims/complex_06_A_a.gif","self_paced","","4","complex_dissimilar","images/stimuli/spore_stims/complex_06_A_a.gif","","","","",""
"","null","html-keyboard-response","59","388477","0.0-17.0-0.2","SS1618435893240","","","null","","","","","","<p><img src= images/blank.png width =""600"" height = ""600"" style=""position:fixed;top:50%; left:50%; transform: translate(-50%, -50%); border:5px solid black"">","","","","","","","",""
"","9317.715000011958","sequential-stimulus-presentation-old","60","398303","0.0-17.0-1.2","SS1618435893240","trial","","40","500","9817.715000011958","images/stimuli/spore_stims/complex_13_A_b.gif","images/stimuli/spore_stims/complex_06_A_a.gif","self_paced","","4","complex_dissimilar","images/stimuli/spore_stims/complex_06_A_a.gif","","","","",""
"","null","html-keyboard-response","61","399410","0.0-17.0-0.3","SS1618435893240","","","null","","","","","","<p><img src= images/blank.png width =""600"" height = ""600"" style=""position:fixed;top:50%; left:50%; transform: translate(-50%, -50%); border:5px solid black"">","","","","","","","",""
"","8430.689999950118","sequential-stimulus-presentation-old","62","408344","0.0-17.0-1.3","SS1618435893240","trial","","40","500","8930.689999950118","images/stimuli/spore_stims/complex_13_A_b.gif","images/stimuli/spore_stims/complex_06_A_a.gif","self_paced","","4","complex_dissimilar","images/stimuli/spore_stims/complex_13_A_b.gif","","","","",""
"","null","html-keyboard-response","63","409274","0.0-17.0-0.4","SS1618435893240","","","null","","","","","","<p><img src= images/blank.png width =""600"" height = ""600"" style=""position:fixed;top:50%; left:50%; transform: translate(-50%, -50%); border:5px solid black"">","","","","","","","",""
"","6867.57999996189","sequential-stimulus-presentation-old","64","416649","0.0-17.0-1.4","SS1618435893240","trial","","40","500","7367.57999996189","images/stimuli/spore_stims/complex_13_A_b.gif","images/stimuli/spore_stims/complex_06_A_a.gif","self_paced","","4","complex_dissimilar","images/stimuli/spore_stims/complex_06_A_a.gif","","","","",""
"","null","html-keyboard-response","65","417840","0.0-17.0-0.5","SS1618435893240","","","null","","","","","","<p><img src= images/blank.png width =""600"" height = ""600"" style=""position:fixed;top:50%; left:50%; transform: translate(-50%, -50%); border:5px solid black"">","","","","","","","",""
"","7116.334999911487","sequential-stimulus-presentation-old","66","425466","0.0-17.0-1.5","SS1618435893240","trial","","40","500","7616.334999911487","images/stimuli/spore_stims/complex_13_A_b.gif","images/stimuli/spore_stims/complex_06_A_a.gif","self_paced","","4","complex_dissimilar","images/stimuli/spore_stims/complex_06_A_a.gif","","","","",""
"","3131.9750000257045","survey-multi-choice","67","428600","0.0-18.0","SS1618435893240","math_question","","","","","","","","","","","","{""Q0"":""9""}","[0]","9","",""
"","null","html-keyboard-response","68","429601","0.0-19.0-0.0","SS1618435893240","","","null","","","","","","<p><img src= images/blank.png width =""600"" height = ""600"" style=""position:fixed;top:50%; left:50%; transform: translate(-50%, -50%); border:5px solid black"">","","","","","","","",""
"","2900.7250000722706","sequential-stimulus-presentation-old","69","432563","0.0-19.0-1.0","SS1618435893240","trial","","40","500","3400.7250000722706","images/stimuli/spore_stims/simple_07_A_b.gif","images/stimuli/spore_stims/simple_13_A_a.gif","forced_short","","5","simple_dissimilar","images/stimuli/spore_stims/simple_13_A_a.gif","","","","",""
"","null","html-keyboard-response","70","433668","0.0-19.0-0.1","SS1618435893240","","","null","","","","","","<p><img src= images/blank.png width =""600"" height = ""600"" style=""position:fixed;top:50%; left:50%; transform: translate(-50%, -50%); border:5px solid black"">","","","","","","","",""
"","6622.089999960735","sequential-stimulus-presentation-old","71","440805","0.0-19.0-1.1","SS1618435893240","trial","","40","500","7122.089999960735","images/stimuli/spore_stims/simple_07_A_b.gif","images/stimuli/spore_stims/simple_13_A_a.gif","forced_short","","5","simple_dissimilar","images/stimuli/spore_stims/simple_13_A_a.gif","","","","",""
"","null","html-keyboard-response","72","442101","0.0-19.0-0.2","SS1618435893240","","","null","","","","","","<p><img src= images/blank.png width =""600"" height = ""600"" style=""position:fixed;top:50%; left:50%; transform: translate(-50%, -50%); border:5px solid black"">","","","","","","","",""
"","9997.325000003912","sequential-stimulus-presentation-old","73","452606","0.0-19.0-1.2","SS1618435893240","trial","","40","500","10497.325000003912","images/stimuli/spore_stims/simple_07_A_b.gif","images/stimuli/spore_stims/simple_13_A_a.gif","forced_short","","5","simple_dissimilar","images/stimuli/spore_stims/simple_13_A_a.gif","","","","",""
"","null","html-keyboard-response","74","453563","0.0-19.0-0.3","SS1618435893240","","","null","","","","","","<p><img src= images/blank.png width =""600"" height = ""600"" style=""position:fixed;top:50%; left:50%; transform: translate(-50%, -50%); border:5px solid black"">","","","","","","","",""
"","6707.605000003241","sequential-stimulus-presentation-old","75","460774","0.0-19.0-1.3","SS1618435893240","trial","","40","500","7207.605000003241","images/stimuli/spore_stims/simple_07_A_b.gif","images/stimuli/spore_stims/simple_13_A_a.gif","forced_short","","5","simple_dissimilar","images/stimuli/spore_stims/simple_13_A_a.gif","","","","",""
"","null","html-keyboard-response","76","461965","0.0-19.0-0.4","SS1618435893240","","","null","","","","","","<p><img src= images/blank.png width =""600"" height = ""600"" style=""position:fixed;top:50%; left:50%; transform: translate(-50%, -50%); border:5px solid black"">","","","","","","","",""
"","10991.904999944381","sequential-stimulus-presentation-old","77","473463","0.0-19.0-1.4","SS1618435893240","trial","","40","500","11491.904999944381","images/stimuli/spore_stims/simple_07_A_b.gif","images/stimuli/spore_stims/simple_13_A_a.gif","forced_short","","5","simple_dissimilar","images/stimuli/spore_stims/simple_13_A_a.gif","","","","",""
"","2475.5599999334663","survey-multi-choice","78","475940","0.0-20.0","SS1618435893240","math_question","","","","","","","","","","","","{""Q0"":""14""}","[0]","14","",""
"","null","html-keyboard-response","79","477119","0.0-21.0-0.0","SS1618435893240","","","null","","","","","","<p><img src= images/blank.png width =""600"" height = ""600"" style=""position:fixed;top:50%; left:50%; transform: translate(-50%, -50%); border:5px solid black"">","","","","","","","",""
"","1632.8649999340996","sequential-stimulus-presentation-old","80","478815","0.0-21.0-1.0","SS1618435893240","trial","","40","500","2132.8649999340996","images/stimuli/spore_stims/complex_17_A_a.gif","images/stimuli/spore_stims/complex_15_A_b.gif","forced_short","","6","complex_dissimilar","images/stimuli/spore_stims/complex_15_A_b.gif","","","","",""
"","null","html-keyboard-response","81","479935","0.0-21.0-0.1","SS1618435893240","","","null","","","","","","<p><img src= images/blank.png width =""600"" height = ""600"" style=""position:fixed;top:50%; left:50%; transform: translate(-50%, -50%); border:5px solid black"">","","","","","","","",""
"","6692.140000057407","sequential-stimulus-presentation-old","82","487137","0.0-21.0-1.1","SS1618435893240","trial","","40","500","7192.140000057407","images/stimuli/spore_stims/complex_17_A_a.gif","images/stimuli/spore_stims/complex_15_A_b.gif","forced_short","","6","complex_dissimilar","images/stimuli/spore_stims/complex_17_A_a.gif","","","","",""
"","null","html-keyboard-response","83","488034","0.0-21.0-0.2","SS1618435893240","","","null","","","","","","<p><img src= images/blank.png width =""600"" height = ""600"" style=""position:fixed;top:50%; left:50%; transform: translate(-50%, -50%); border:5px solid black"">","","","","","","","",""
"","6695.435000001453","sequential-stimulus-presentation-old","84","495233","0.0-21.0-1.2","SS1618435893240","trial","","40","500","7195.435000001453","images/stimuli/spore_stims/complex_17_A_a.gif","images/stimuli/spore_stims/complex_15_A_b.gif","forced_short","","6","complex_dissimilar","images/stimuli/spore_stims/complex_15_A_b.gif","","","","",""
"","null","html-keyboard-response","85","496475","0.0-21.0-0.3","SS1618435893240","","","null","","","","","","<p><img src= images/blank.png width =""600"" height = ""600"" style=""position:fixed;top:50%; left:50%; transform: translate(-50%, -50%); border:5px solid black"">","","","","","","","",""
"","9488.424999988638","sequential-stimulus-presentation-old","86","506475","0.0-21.0-1.3","SS1618435893240","trial","","40","500","9988.424999988638","images/stimuli/spore_stims/complex_17_A_a.gif","images/stimuli/spore_stims/complex_15_A_b.gif","forced_short","","6","complex_dissimilar","images/stimuli/spore_stims/complex_15_A_b.gif","","","","",""
"","null","html-keyboard-response","87","507299","0.0-21.0-0.4","SS1618435893240","","","null","","","","","","<p><img src= images/blank.png width =""600"" height = ""600"" style=""position:fixed;top:50%; left:50%; transform: translate(-50%, -50%); border:5px solid black"">","","","","","","","",""
"","5672.164999996312","sequential-stimulus-presentation-old","88","513475","0.0-21.0-1.4","SS1618435893240","trial","","40","500","6172.164999996312","images/stimuli/spore_stims/complex_17_A_a.gif","images/stimuli/spore_stims/complex_15_A_b.gif","forced_short","","6","complex_dissimilar","images/stimuli/spore_stims/complex_15_A_b.gif","","","","",""
"","null","html-keyboard-response","89","514541","0.0-21.0-0.5","SS1618435893240","","","null","","","","","","<p><img src= images/blank.png width =""600"" height = ""600"" style=""position:fixed;top:50%; left:50%; transform: translate(-50%, -50%); border:5px solid black"">","","","","","","","",""
"","7975.570000009611","sequential-stimulus-presentation-old","90","523020","0.0-21.0-1.5","SS1618435893240","trial","","40","500","8475.570000009611","images/stimuli/spore_stims/complex_17_A_a.gif","images/stimuli/spore_stims/complex_15_A_b.gif","forced_short","","6","complex_dissimilar","images/stimuli/spore_stims/complex_15_A_b.gif","","","","",""
"","3698.149999952875","survey-multi-choice","91","526720","0.0-22.0","SS1618435893240","math_question","","","","","","","","","","","","{""Q0"":""15""}","[0]","15","",""
"","null","html-keyboard-response","92","527564","0.0-23.0-0.0","SS1618435893240","","","null","","","","","","<p><img src= images/blank.png width =""600"" height = ""600"" style=""position:fixed;top:50%; left:50%; transform: translate(-50%, -50%); border:5px solid black"">","","","","","","","",""
"","7202.359999995679","sequential-stimulus-presentation-old","93","535270","0.0-23.0-1.0","SS1618435893240","trial","","40","500","7702.359999995679","images/stimuli/spore_stims/complex_05_A_b.gif","images/stimuli/spore_stims/complex_11_A_a.gif","self_paced","","7","complex_dissimilar","images/stimuli/spore_stims/complex_11_A_a.gif","","","","",""
"","null","html-keyboard-response","94","536089","0.0-23.0-0.1","SS1618435893240","","","null","","","","","","<p><img src= images/blank.png width =""600"" height = ""600"" style=""position:fixed;top:50%; left:50%; transform: translate(-50%, -50%); border:5px solid black"">","","","","","","","",""
"","8758.039999986067","sequential-stimulus-presentation-old","95","545350","0.0-23.0-1.1","SS1618435893240","trial","","40","500","9258.039999986067","images/stimuli/spore_stims/complex_05_A_b.gif","images/stimuli/spore_stims/complex_11_A_a.gif","self_paced","","7","complex_dissimilar","images/stimuli/spore_stims/complex_11_A_a.gif","","","","",""
"","null","html-keyboard-response","96","546616","0.0-23.0-0.2","SS1618435893240","","","null","","","","","","<p><img src= images/blank.png width =""600"" height = ""600"" style=""position:fixed;top:50%; left:50%; transform: translate(-50%, -50%); border:5px solid black"">","","","","","","","",""
"","9224.95499998331","sequential-stimulus-presentation-old","97","556344","0.0-23.0-1.2","SS1618435893240","trial","","40","500","9724.95499998331","images/stimuli/spore_stims/complex_05_A_b.gif","images/stimuli/spore_stims/complex_11_A_a.gif","self_paced","","7","complex_dissimilar","images/stimuli/spore_stims/complex_11_A_a.gif","","","","",""
"","null","html-keyboard-response","98","557411","0.0-23.0-0.3","SS1618435893240","","","null","","","","","","<p><img src= images/blank.png width =""600"" height = ""600"" style=""position:fixed;top:50%; left:50%; transform: translate(-50%, -50%); border:5px solid black"">","","","","","","","",""
"","6934.570000041276","sequential-stimulus-presentation-old","99","564849","0.0-23.0-1.3","SS1618435893240","trial","","40","500","7434.570000041276","images/stimuli/spore_stims/complex_05_A_b.gif","images/stimuli/spore_stims/complex_11_A_a.gif","self_paced","","7","complex_dissimilar","images/stimuli/spore_stims/complex_11_A_a.gif","","","","",""
"","null","html-keyboard-response","100","565941","0.0-23.0-0.4","SS1618435893240","","","null","","","","","","<p><img src= images/blank.png width =""600"" height = ""600"" style=""position:fixed;top:50%; left:50%; transform: translate(-50%, -50%); border:5px solid black"">","","","","","","","",""
"","7393.724999972619","sequential-stimulus-presentation-old","101","573842","0.0-23.0-1.4","SS1618435893240","trial","","40","500","7893.724999972619","images/stimuli/spore_stims/complex_05_A_b.gif","images/stimuli/spore_stims/complex_11_A_a.gif","self_paced","","7","complex_dissimilar","images/stimuli/spore_stims/complex_11_A_a.gif","","","","",""
"","null","html-keyboard-response","102","575015","0.0-23.0-0.5","SS1618435893240","","","null","","","","","","<p><img src= images/blank.png width =""600"" height = ""600"" style=""position:fixed;top:50%; left:50%; transform: translate(-50%, -50%); border:5px solid black"">","","","","","","","",""
"","6269.535000086762","sequential-stimulus-presentation-old","103","581802","0.0-23.0-1.5","SS1618435893240","trial","","40","500","6769.535000086762","images/stimuli/spore_stims/complex_05_A_b.gif","images/stimuli/spore_stims/complex_11_A_a.gif","self_paced","","7","complex_dissimilar","images/stimuli/spore_stims/complex_11_A_a.gif","","","","",""
"","4179.080000030808","survey-multi-choice","104","585984","0.0-24.0","SS1618435893240","math_question","","","","","","","","","","","","{""Q0"":""14""}","[0]","14","",""
"","null","html-keyboard-response","105","586974","0.0-25.0-0.0","SS1618435893240","","","null","","","","","","<p><img src= images/blank.png width =""600"" height = ""600"" style=""position:fixed;top:50%; left:50%; transform: translate(-50%, -50%); border:5px solid black"">","","","","","","","",""
"","1289.035000023432","sequential-stimulus-presentation-old","106","593268","0.0-25.0-1.0","SS1618435893240","trial","","40","500","1789.035000023432","images/stimuli/spore_stims/complex_06_A_b.gif","images/stimuli/spore_stims/complex_20_A_a.gif","forced_long","","8","complex_dissimilar","images/stimuli/spore_stims/complex_20_A_a.gif","","","","",""
"","null","html-keyboard-response","107","594465","0.0-25.0-0.1","SS1618435893240","","","null","","","","","","<p><img src= images/blank.png width =""600"" height = ""600"" style=""position:fixed;top:50%; left:50%; transform: translate(-50%, -50%); border:5px solid black"">","","","","","","","",""
"","5809.865000075661","sequential-stimulus-presentation-old","108","600789","0.0-25.0-1.1","SS1618435893240","trial","","40","500","6309.865000075661","images/stimuli/spore_stims/complex_06_A_b.gif","images/stimuli/spore_stims/complex_20_A_a.gif","forced_long","","8","complex_dissimilar","images/stimuli/spore_stims/complex_06_A_b.gif","","","","",""
"","null","html-keyboard-response","109","601827","0.0-25.0-0.2","SS1618435893240","","","null","","","","","","<p><img src= images/blank.png width =""600"" height = ""600"" style=""position:fixed;top:50%; left:50%; transform: translate(-50%, -50%); border:5px solid black"">","","","","","","","",""
"","8019.399999990128","sequential-stimulus-presentation-old","110","610350","0.0-25.0-1.2","SS1618435893240","trial","","40","500","8519.399999990128","images/stimuli/spore_stims/complex_06_A_b.gif","images/stimuli/spore_stims/complex_20_A_a.gif","forced_long","","8","complex_dissimilar","images/stimuli/spore_stims/complex_20_A_a.gif","","","","",""
"","null","html-keyboard-response","111","611217","0.0-25.0-0.3","SS1618435893240","","","null","","","","","","<p><img src= images/blank.png width =""600"" height = ""600"" style=""position:fixed;top:50%; left:50%; transform: translate(-50%, -50%); border:5px solid black"">","","","","","","","",""
"","7869.674999965355","sequential-stimulus-presentation-old","112","619591","0.0-25.0-1.3","SS1618435893240","trial","","40","500","8369.674999965355","images/stimuli/spore_stims/complex_06_A_b.gif","images/stimuli/spore_stims/complex_20_A_a.gif","forced_long","","8","complex_dissimilar","images/stimuli/spore_stims/complex_20_A_a.gif","","","","",""
"","null","html-keyboard-response","113","620604","0.0-25.0-0.4","SS1618435893240","","","null","","","","","","<p><img src= images/blank.png width =""600"" height = ""600"" style=""position:fixed;top:50%; left:50%; transform: translate(-50%, -50%); border:5px solid black"">","","","","","","","",""
"","7065.3000000165775","sequential-stimulus-presentation-old","114","628183","0.0-25.0-1.4","SS1618435893240","trial","","40","500","7565.3000000165775","images/stimuli/spore_stims/complex_06_A_b.gif","images/stimuli/spore_stims/complex_20_A_a.gif","forced_long","","8","complex_dissimilar","images/stimuli/spore_stims/complex_06_A_b.gif","","","","",""
"","3111.6199999814853","survey-multi-choice","115","631297","0.0-26.0","SS1618435893240","math_question","","","","","","","","","","","","{""Q0"":""15""}","[0]","15","",""
"","null","html-keyboard-response","116","632482","0.0-27.0-0.0","SS1618435893240","","","null","","","","","","<p><img src= images/blank.png width =""600"" height = ""600"" style=""position:fixed;top:50%; left:50%; transform: translate(-50%, -50%); border:5px solid black"">","","","","","","","",""
"","1146.7750000301749","sequential-stimulus-presentation-old","117","638632","0.0-27.0-1.0","SS1618435893240","trial","","40","500","1646.7750000301749","images/stimuli/spore_stims/simple_18_A_a.gif","images/stimuli/spore_stims/simple_06_A_b.gif","forced_long","","9","simple_dissimilar","images/stimuli/spore_stims/simple_06_A_b.gif","","","","",""
"","null","html-keyboard-response","118","639513","0.0-27.0-0.1","SS1618435893240","","","null","","","","","","<p><img src= images/blank.png width =""600"" height = ""600"" style=""position:fixed;top:50%; left:50%; transform: translate(-50%, -50%); border:5px solid black"">","","","","","","","",""
"","12001.530000008643","sequential-stimulus-presentation-old","119","652018","0.0-27.0-1.1","SS1618435893240","trial","","40","500","12501.530000008643","images/stimuli/spore_stims/simple_18_A_a.gif","images/stimuli/spore_stims/simple_06_A_b.gif","forced_long","","9","simple_dissimilar","images/stimuli/spore_stims/simple_18_A_a.gif","","","","",""
"","null","html-keyboard-response","120","653162","0.0-27.0-0.2","SS1618435893240","","","null","","","","","","<p><img src= images/blank.png width =""600"" height = ""600"" style=""position:fixed;top:50%; left:50%; transform: translate(-50%, -50%); border:5px solid black"">","","","","","","","",""
"","6906.019999994896","sequential-stimulus-presentation-old","121","660571","0.0-27.0-1.2","SS1618435893240","trial","","40","500","7406.019999994896","images/stimuli/spore_stims/simple_18_A_a.gif","images/stimuli/spore_stims/simple_06_A_b.gif","forced_long","","9","simple_dissimilar","images/stimuli/spore_stims/simple_06_A_b.gif","","","","",""
"","null","html-keyboard-response","122","661619","0.0-27.0-0.3","SS1618435893240","","","null","","","","","","<p><img src= images/blank.png width =""600"" height = ""600"" style=""position:fixed;top:50%; left:50%; transform: translate(-50%, -50%); border:5px solid black"">","","","","","","","",""
"","8489.185000071302","sequential-stimulus-presentation-old","123","670612","0.0-27.0-1.3","SS1618435893240","trial","","40","500","8989.185000071302","images/stimuli/spore_stims/simple_18_A_a.gif","images/stimuli/spore_stims/simple_06_A_b.gif","forced_long","","9","simple_dissimilar","images/stimuli/spore_stims/simple_06_A_b.gif","","","","",""
"","2674.6350000612438","survey-multi-choice","124","673290","0.0-28.0","SS1618435893240","math_question","","","","","","","","","","","","{""Q0"":""7""}","[0]","7","",""
"","null","html-keyboard-response","125","674567","0.0-29.0-0.0","SS1618435893240","","","null","","","","","","<p><img src= images/blank.png width =""600"" height = ""600"" style=""position:fixed;top:50%; left:50%; transform: translate(-50%, -50%); border:5px solid black"">","","","","","","","",""
"","7623.490000027232","sequential-stimulus-presentation-old","126","682701","0.0-29.0-1.0","SS1618435893240","trial","","40","500","8123.490000027232","images/stimuli/spore_stims/simple_10_A_b.gif","images/stimuli/spore_stims/simple_16_A_a.gif","self_paced","","10","simple_dissimilar","images/stimuli/spore_stims/simple_16_A_a.gif","","","","",""
"","null","html-keyboard-response","127","683734","0.0-29.0-0.1","SS1618435893240","","","null","","","","","","<p><img src= images/blank.png width =""600"" height = ""600"" style=""position:fixed;top:50%; left:50%; transform: translate(-50%, -50%); border:5px solid black"">","","","","","","","",""
"","7455.7300000451505","sequential-stimulus-presentation-old","128","691694","0.0-29.0-1.1","SS1618435893240","trial","","40","500","7955.7300000451505","images/stimuli/spore_stims/simple_10_A_b.gif","images/stimuli/spore_stims/simple_16_A_a.gif","self_paced","","10","simple_dissimilar","images/stimuli/spore_stims/simple_16_A_a.gif","","","","",""
"","null","html-keyboard-response","129","692903","0.0-29.0-0.2","SS1618435893240","","","null","","","","","","<p><img src= images/blank.png width =""600"" height = ""600"" style=""position:fixed;top:50%; left:50%; transform: translate(-50%, -50%); border:5px solid black"">","","","","","","","",""
"","7208.074999973178","sequential-stimulus-presentation-old","130","700615","0.0-29.0-1.2","SS1618435893240","trial","","40","500","7708.074999973178","images/stimuli/spore_stims/simple_10_A_b.gif","images/stimuli/spore_stims/simple_16_A_a.gif","self_paced","","10","simple_dissimilar","images/stimuli/spore_stims/simple_16_A_a.gif","","","","",""
"","null","html-keyboard-response","131","701640","0.0-29.0-0.3","SS1618435893240","","","null","","","","","","<p><img src= images/blank.png width =""600"" height = ""600"" style=""position:fixed;top:50%; left:50%; transform: translate(-50%, -50%); border:5px solid black"">","","","","","","","",""
"","8815.530000021681","sequential-stimulus-presentation-old","132","710960","0.0-29.0-1.3","SS1618435893240","trial","","40","500","9315.530000021681","images/stimuli/spore_stims/simple_10_A_b.gif","images/stimuli/spore_stims/simple_16_A_a.gif","self_paced","","10","simple_dissimilar","images/stimuli/spore_stims/simple_10_A_b.gif","","","","",""
"","3881.599999964237","survey-multi-choice","133","714845","0.0-30.0","SS1618435893240","math_question","","","","","","","","","","","","{""Q0"":""14""}","[0]","14","",""
"","null","html-keyboard-response","134","715980","0.0-31.0-0.0","SS1618435893240","","","null","","","","","","<p><img src= images/blank.png width =""600"" height = ""600"" style=""position:fixed;top:50%; left:50%; transform: translate(-50%, -50%); border:5px solid black"">","","","","","","","",""
"","1020.6049999687821","sequential-stimulus-presentation-old","135","722017","0.0-31.0-1.0","SS1618435893240","trial","","40","500","1520.604999968782","images/stimuli/spore_stims/simple_09_A_a.gif","images/stimuli/spore_stims/simple_15_A_b.gif","forced_long","","11","simple_dissimilar","images/stimuli/spore_stims/simple_15_A_b.gif","","","","",""
"","null","html-keyboard-response","136","722882","0.0-31.0-0.1","SS1618435893240","","","null","","","","","","<p><img src= images/blank.png width =""600"" height = ""600"" style=""position:fixed;top:50%; left:50%; transform: translate(-50%, -50%); border:5px solid black"">","","","","","","","",""
"","8846.929999999702","sequential-stimulus-presentation-old","137","732234","0.0-31.0-1.1","SS1618435893240","trial","","40","500","9346.929999999702","images/stimuli/spore_stims/simple_09_A_a.gif","images/stimuli/spore_stims/simple_15_A_b.gif","forced_long","","11","simple_dissimilar","images/stimuli/spore_stims/simple_15_A_b.gif","","","","",""
"","null","html-keyboard-response","138","733325","0.0-31.0-0.2","SS1618435893240","","","null","","","","","","<p><img src= images/blank.png width =""600"" height = ""600"" style=""position:fixed;top:50%; left:50%; transform: translate(-50%, -50%); border:5px solid black"">","","","","","","","",""
"","8089.225000003353","sequential-stimulus-presentation-old","139","741923","0.0-31.0-1.2","SS1618435893240","trial","","40","500","8589.225000003353","images/stimuli/spore_stims/simple_09_A_a.gif","images/stimuli/spore_stims/simple_15_A_b.gif","forced_long","","11","simple_dissimilar","images/stimuli/spore_stims/simple_15_A_b.gif","","","","",""
"","null","html-keyboard-response","140","743055","0.0-31.0-0.3","SS1618435893240","","","null","","","","","","<p><img src= images/blank.png width =""600"" height = ""600"" style=""position:fixed;top:50%; left:50%; transform: translate(-50%, -50%); border:5px solid black"">","","","","","","","",""
"","8022.3799999803305","sequential-stimulus-presentation-old","141","751581","0.0-31.0-1.3","SS1618435893240","trial","","40","500","8522.37999998033","images/stimuli/spore_stims/simple_09_A_a.gif","images/stimuli/spore_stims/simple_15_A_b.gif","forced_long","","11","simple_dissimilar","images/stimuli/spore_stims/simple_15_A_b.gif","","","","",""
"","null","html-keyboard-response","142","752824","0.0-31.0-0.4","SS1618435893240","","","null","","","","","","<p><img src= images/blank.png width =""600"" height = ""600"" style=""position:fixed;top:50%; left:50%; transform: translate(-50%, -50%); border:5px solid black"">","","","","","","","",""
"","6389.239999931306","sequential-stimulus-presentation-old","143","759717","0.0-31.0-1.4","SS1618435893240","trial","","40","500","6889.239999931306","images/stimuli/spore_stims/simple_09_A_a.gif","images/stimuli/spore_stims/simple_15_A_b.gif","forced_long","","11","simple_dissimilar","images/stimuli/spore_stims/simple_09_A_a.gif","","","","",""
"","null","html-keyboard-response","144","760538","0.0-31.0-0.5","SS1618435893240","","","null","","","","","","<p><img src= images/blank.png width =""600"" height = ""600"" style=""position:fixed;top:50%; left:50%; transform: translate(-50%, -50%); border:5px solid black"">","","","","","","","",""
"","7668.290000059642","sequential-stimulus-presentation-old","145","768710","0.0-31.0-1.5","SS1618435893240","trial","","40","500","8168.290000059642","images/stimuli/spore_stims/simple_09_A_a.gif","images/stimuli/spore_stims/simple_15_A_b.gif","forced_long","","11","simple_dissimilar","images/stimuli/spore_stims/simple_09_A_a.gif","","","","",""
"[{""page_index"":0,""viewing_time"":5553.150000050664}]","5553.420000011101","instructions","146","774266","0.0-32.0","SS1618435893240","instructions","","","","","","","","","","","","","","","",""
"","15607.259999960661","survey-likert","147","789876","0.0-33.0","SS1618435893240","similarity_question","","","","","","","","","","","","{""Q0"":0}","[0]","","images/stimuli/spore_stims/complex_17_A_a.gif","images/stimuli/spore_stims/complex_15_A_b.gif"
"","8664.92000001017","survey-likert","148","798544","0.0-34.0","SS1618435893240","similarity_question","","","","","","","","","","","","{""Q0"":3}","[0]","","images/stimuli/spore_stims/simple_16_A_a.gif","images/stimuli/spore_stims/simple_10_A_b.gif"
"","2833.0900000873953","survey-likert","149","801381","0.0-35.0","SS1618435893240","similarity_question","","","","","","","","","","","","{""Q0"":3}","[0]","","images/stimuli/spore_stims/simple_03_A_a.gif","images/stimuli/spore_stims/simple_11_A_b.gif"
"","2760.8649999601766","survey-likert","150","804146","0.0-36.0","SS1618435893240","similarity_question","","","","","","","","","","","","{""Q0"":3}","[0]","","images/stimuli/spore_stims/simple_06_A_a.gif","images/stimuli/spore_stims/simple_02_A_b.gif"
"","11393.154999939725","survey-likert","151","815542","0.0-37.0","SS1618435893240","similarity_question","","","","","","","","","","","","{""Q0"":2}","[0]","","images/stimuli/spore_stims/complex_13_A_b.gif","images/stimuli/spore_stims/complex_06_A_a.gif"
"","7881.624999921769","survey-likert","152","823429","0.0-38.0","SS1618435893240","similarity_question","","","","","","","","","","","","{""Q0"":2}","[0]","","images/stimuli/spore_stims/complex_06_A_b.gif","images/stimuli/spore_stims/complex_20_A_a.gif"
"","5446.9750000862405","survey-likert","153","828879","0.0-39.0","SS1618435893240","similarity_question","","","","","","","","","","","","{""Q0"":1}","[0]","","images/stimuli/spore_stims/complex_11_A_a.gif","images/stimuli/spore_stims/complex_05_A_b.gif"
"","5039.355000015348","survey-likert","154","833922","0.0-40.0","SS1618435893240","similarity_question","","","","","","","","","","","","{""Q0"":1}","[0]","","images/stimuli/spore_stims/complex_05_A_a.gif","images/stimuli/spore_stims/complex_18_A_b.gif"
"","3960.6400000629947","survey-likert","155","837885","0.0-41.0","SS1618435893240","similarity_question","","","","","","","","","","","","{""Q0"":3}","[0]","","images/stimuli/spore_stims/simple_13_A_a.gif","images/stimuli/spore_stims/simple_07_A_b.gif"
"","1902.875000028871","survey-likert","156","839791","0.0-42.0","SS1618435893240","similarity_question","","","","","","","","","","","","{""Q0"":3}","[0]","","images/stimuli/spore_stims/simple_06_A_b.gif","images/stimuli/spore_stims/simple_18_A_a.gif"
"","2016.8150000972673","survey-likert","157","841811","0.0-43.0","SS1618435893240","similarity_question","","","","","","","","","","","","{""Q0"":3}","[0]","","images/stimuli/spore_stims/simple_09_A_a.gif","images/stimuli/spore_stims/simple_15_A_b.gif"
"","7328.084999928251","survey-likert","158","849142","0.0-44.0","SS1618435893240","similarity_question","","","","","","","","","","","","{""Q0"":0}","[0]","","images/stimuli/spore_stims/complex_01_A_a.gif","images/stimuli/spore_stims/complex_11_A_b.gif"
"[{""page_index"":0,""viewing_time"":7387.379999971017}]","7387.654999969527","instructions","159","856533","0.0-45.0","SS1618435893240","instructions","","","","","","","","","","","","","","","",""
"","2881.0750000411645","survey-likert","160","859418","0.0-46.0","SS1618435893240","","","","","","","","","images/stimuli/spore_stims/simple_03_A_a.gif","","","","{""Q0"":0}","[0]","","",""
"","21153.66999991238","survey-likert","161","880575","0.0-47.0","SS1618435893240","","","","","","","","","images/stimuli/spore_stims/complex_15_A_b.gif","","","","{""Q0"":2}","[0]","","",""
"","3019.609999959357","survey-likert","162","883597","0.0-48.0","SS1618435893240","","","","","","","","","images/stimuli/spore_stims/simple_06_A_b.gif","","","","{""Q0"":0}","[0]","","",""
"","1832.9300000332296","survey-likert","163","885433","0.0-49.0","SS1618435893240","","","","","","","","","images/stimuli/spore_stims/simple_15_A_b.gif","","","","{""Q0"":0}","[0]","","",""
"","3702.5549999671057","survey-likert","164","889139","0.0-50.0","SS1618435893240","","","","","","","","","images/stimuli/spore_stims/complex_01_A_a.gif","","","","{""Q0"":2}","[0]","","",""
"","1836.1450000666082","survey-likert","165","890979","0.0-51.0","SS1618435893240","","","","","","","","","images/stimuli/spore_stims/simple_06_A_a.gif","","","","{""Q0"":0}","[0]","","",""
"","7079.965000040829","survey-likert","166","898062","0.0-52.0","SS1618435893240","","","","","","","","","images/stimuli/spore_stims/complex_06_A_b.gif","","","","{""Q0"":2}","[0]","","",""
"","3596.5200000209734","survey-likert","167","901662","0.0-53.0","SS1618435893240","","","","","","","","","images/stimuli/spore_stims/complex_18_A_b.gif","","","","{""Q0"":4}","[0]","","",""
"","3450.070000020787","survey-likert","168","905115","0.0-54.0","SS1618435893240","","","","","","","","","images/stimuli/spore_stims/complex_11_A_a.gif","","","","{""Q0"":5}","[0]","","",""
"","1754.3150000274181","survey-likert","169","906873","0.0-55.0","SS1618435893240","","","","","","","","","images/stimuli/spore_stims/simple_10_A_b.gif","","","","{""Q0"":0}","[0]","","",""
"","4721.680000075139","survey-likert","170","911599","0.0-56.0","SS1618435893240","","","","","","","","","images/stimuli/spore_stims/complex_06_A_a.gif","","","","{""Q0"":2}","[0]","","",""
"","1867.050000000745","survey-likert","171","913471","0.0-57.0","SS1618435893240","","","","","","","","","images/stimuli/spore_stims/simple_07_A_b.gif","","","","{""Q0"":0}","[0]","","",""
"[{""page_index"":0,""viewing_time"":3141.745000029914}]","3142.0550000621006","instructions","172","916616","0.0-58.0","SS1618435893240","instructions","","","","","","","","","","","","","","","",""
"","3770.284999976866","demog-age","173","920390","0.0-59.0","SS1618435893240","","","","","","","","","","","","","{""age"":""19""}","","","",""
"","4807.53500002902","demog-ethnic-US","174","925202","0.0-60.0","SS1618435893240","","","","","","","","","","","","","{""ethnicity"":[""White""]}","[0]","","",""
"","12468.005000031553","demog-gender-and-education","175","937674","0.0-61.0","SS1618435893240","","","","","","","","","","","","","{""gender"":""Male"",""education"":""High school diploma""}","[0,1]","","",""
"","31763.889999943785","survey-text","176","969442","0.0-62.0","SS1618435893240","feedback","","","","","","","","","","","","{""Q0"":""I had fun looking at the spore creatures! :)""}","","","",""
"[{""page_index"":0,""viewing_time"":4210.289999959059}]","4210.534999961965","instructions","177","973655","0.0-63.0","SS1618435893240","instructions","","","","","","","","","","","","","","","",""
