"view_history","rt","trial_type","trial_index","time_elapsed","internal_node_id","subject","stimulus_type","trial_stimulus","key_press","minimum_viewing_duration","trial_looking_time","block_deviant","block_background","exposure_type","stimulus","block_number","block_type","stimulus_displayed","responses","question_order","math_correct_answer","stimulus_left","stimulus_right"
"[{""page_index"":0,""viewing_time"":9072.51500012353}]","9073.70000006631","instructions","0","9075","0.0-0.0","SS1618365710264","","","","","","","","","","","","","","","","",""
"[{""page_index"":0,""viewing_time"":23485.674999887124},{""page_index"":1,""viewing_time"":3712.8500000108033}]","27199.054999975488","instructions","1","38280","0.0-1.0","SS1618365710264","instructions","","","","","","","","","","","","","","","",""
"","7439.719999907538","sequential-stimulus-presentation-old","2","46227","0.0-2.0","SS1618365710264","","","40","500","7939.719999907538","null","null","self_paced","","","","","","","","",""
"","4094.630000181496","sequential-stimulus-presentation-old","3","50828","0.0-3.0","SS1618365710264","","","40","500","4594.630000181496","null","null","self_paced","","","","","","","","",""
"[{""page_index"":0,""viewing_time"":33499.74999995902}]","33500.25499984622","instructions","4","84330","0.0-4.0","SS1618365710264","instructions","","","","","","","","","","","","","","","",""
"","6524.0099998191","sequential-stimulus-presentation-old","5","95860","0.0-5.0","SS1618365710264","","","40","500","7024.0099998191","null","null","forced_long","","","","","","","","",""
"","3244.2350001074374","sequential-stimulus-presentation-old","6","99160","0.0-6.0","SS1618365710264","","","40","50","3294.2350001074374","null","null","forced_long","","","","","","","","",""
"[{""page_index"":0,""viewing_time"":3935.6299999635667}]","3936.100000049919","instructions","7","103098","0.0-7.0","SS1618365710264","instructions","","","","","","","","","","","","","","","",""
"[{""page_index"":0,""viewing_time"":5885.0600000005215},{""page_index"":1,""viewing_time"":9717.39499992691},{""page_index"":2,""viewing_time"":3111.7300000041723},{""page_index"":3,""viewing_time"":1191.9350000098348},{""page_index"":4,""viewing_time"":1018.0099999997765}]","20924.60500006564","instructions","8","124025","0.0-8.0","SS1618365710264","instructions","","","","","","","","","","","","","","","",""
"","null","html-keyboard-response","9","124932","0.0-9.0-0.0","SS1618365710264","","","null","","","","","","<p><img src= images/blank.png width =""600"" height = ""600"" style=""position:fixed;top:50%; left:50%; transform: translate(-50%, -50%); border:5px solid black"">","","","","","","","",""
"","5679.135000100359","sequential-stimulus-presentation-old","10","131119","0.0-9.0-1.0","SS1618365710264","trial","","40","500","6179.135000100359","images/stimuli/spore_stims/complex_12_A_a.gif","images/stimuli/spore_stims/complex_01_A_b.gif","self_paced","","0","complex_dissimilar","images/stimuli/spore_stims/complex_01_A_b.gif","","","","",""
"","null","html-keyboard-response","11","132140","0.0-9.0-0.1","SS1618365710264","","","null","","","","","","<p><img src= images/blank.png width =""600"" height = ""600"" style=""position:fixed;top:50%; left:50%; transform: translate(-50%, -50%); border:5px solid black"">","","","","","","","",""
"","4612.554999999702","sequential-stimulus-presentation-old","12","137257","0.0-9.0-1.1","SS1618365710264","trial","","40","500","5112.554999999702","images/stimuli/spore_stims/complex_12_A_a.gif","images/stimuli/spore_stims/complex_01_A_b.gif","self_paced","","0","complex_dissimilar","images/stimuli/spore_stims/complex_01_A_b.gif","","","","",""
"","null","html-keyboard-response","13","138476","0.0-9.0-0.2","SS1618365710264","","","null","","","","","","<p><img src= images/blank.png width =""600"" height = ""600"" style=""position:fixed;top:50%; left:50%; transform: translate(-50%, -50%); border:5px solid black"">","","","","","","","",""
"","5943.63999995403","sequential-stimulus-presentation-old","14","144927","0.0-9.0-1.2","SS1618365710264","trial","","40","500","6443.63999995403","images/stimuli/spore_stims/complex_12_A_a.gif","images/stimuli/spore_stims/complex_01_A_b.gif","self_paced","","0","complex_dissimilar","images/stimuli/spore_stims/complex_01_A_b.gif","","","","",""
"","null","html-keyboard-response","15","146141","0.0-9.0-0.3","SS1618365710264","","","null","","","","","","<p><img src= images/blank.png width =""600"" height = ""600"" style=""position:fixed;top:50%; left:50%; transform: translate(-50%, -50%); border:5px solid black"">","","","","","","","",""
"","8208.869999973103","sequential-stimulus-presentation-old","16","154857","0.0-9.0-1.3","SS1618365710264","trial","","40","500","8708.869999973103","images/stimuli/spore_stims/complex_12_A_a.gif","images/stimuli/spore_stims/complex_01_A_b.gif","self_paced","","0","complex_dissimilar","images/stimuli/spore_stims/complex_12_A_a.gif","","","","",""
"","null","html-keyboard-response","17","155691","0.0-9.0-0.4","SS1618365710264","","","null","","","","","","<p><img src= images/blank.png width =""600"" height = ""600"" style=""position:fixed;top:50%; left:50%; transform: translate(-50%, -50%); border:5px solid black"">","","","","","","","",""
"","1308.8299999944866","sequential-stimulus-presentation-old","18","157513","0.0-9.0-1.4","SS1618365710264","trial","","40","500","1808.8299999944866","images/stimuli/spore_stims/complex_12_A_a.gif","images/stimuli/spore_stims/complex_01_A_b.gif","self_paced","","0","complex_dissimilar","images/stimuli/spore_stims/complex_12_A_a.gif","","","","",""
"","3240.880000172183","survey-multi-choice","19","160760","0.0-10.0","SS1618365710264","math_question","","","","","","","","","","","","{""Q0"":""10""}","[0]","10","",""
"","null","html-keyboard-response","20","161810","0.0-11.0-0.0","SS1618365710264","","","null","","","","","","<p><img src= images/blank.png width =""600"" height = ""600"" style=""position:fixed;top:50%; left:50%; transform: translate(-50%, -50%); border:5px solid black"">","","","","","","","",""
"","4376.3300001155585","sequential-stimulus-presentation-old","21","166246","0.0-11.0-1.0","SS1618365710264","trial","","40","500","4876.3300001155585","images/stimuli/spore_stims/simple_09_A_a.gif","images/stimuli/spore_stims/simple_18_A_b.gif","forced_short","","1","simple_dissimilar","images/stimuli/spore_stims/simple_18_A_b.gif","","","","",""
"","null","html-keyboard-response","22","167280","0.0-11.0-0.1","SS1618365710264","","","null","","","","","","<p><img src= images/blank.png width =""600"" height = ""600"" style=""position:fixed;top:50%; left:50%; transform: translate(-50%, -50%); border:5px solid black"">","","","","","","","",""
"","4584.574999986216","sequential-stimulus-presentation-old","23","172373","0.0-11.0-1.1","SS1618365710264","trial","","40","500","5084.574999986216","images/stimuli/spore_stims/simple_09_A_a.gif","images/stimuli/spore_stims/simple_18_A_b.gif","forced_short","","1","simple_dissimilar","images/stimuli/spore_stims/simple_18_A_b.gif","","","","",""
"","null","html-keyboard-response","24","173199","0.0-11.0-0.2","SS1618365710264","","","null","","","","","","<p><img src= images/blank.png width =""600"" height = ""600"" style=""position:fixed;top:50%; left:50%; transform: translate(-50%, -50%); border:5px solid black"">","","","","","","","",""
"","392.4800001550466","sequential-stimulus-presentation-old","25","174100","0.0-11.0-1.2","SS1618365710264","trial","","40","500","892.4800001550466","images/stimuli/spore_stims/simple_09_A_a.gif","images/stimuli/spore_stims/simple_18_A_b.gif","forced_short","","1","simple_dissimilar","images/stimuli/spore_stims/simple_18_A_b.gif","","","","",""
"","null","html-keyboard-response","26","175028","0.0-11.0-0.3","SS1618365710264","","","null","","","","","","<p><img src= images/blank.png width =""600"" height = ""600"" style=""position:fixed;top:50%; left:50%; transform: translate(-50%, -50%); border:5px solid black"">","","","","","","","",""
"","681.455000070855","sequential-stimulus-presentation-old","27","176216","0.0-11.0-1.3","SS1618365710264","trial","","40","500","1181.455000070855","images/stimuli/spore_stims/simple_09_A_a.gif","images/stimuli/spore_stims/simple_18_A_b.gif","forced_short","","1","simple_dissimilar","images/stimuli/spore_stims/simple_18_A_b.gif","","","","",""
"","3472.1850000787526","survey-multi-choice","28","179693","0.0-12.0","SS1618365710264","math_question","","","","","","","","","","","","{""Q0"":""11""}","[0]","11","",""
"","null","html-keyboard-response","29","180937","0.0-13.0-0.0","SS1618365710264","","","null","","","","","","<p><img src= images/blank.png width =""600"" height = ""600"" style=""position:fixed;top:50%; left:50%; transform: translate(-50%, -50%); border:5px solid black"">","","","","","","","",""
"","2456.484999973327","sequential-stimulus-presentation-old","30","183451","0.0-13.0-1.0","SS1618365710264","trial","","40","500","2956.484999973327","images/stimuli/spore_stims/simple_17_A_a.gif","images/stimuli/spore_stims/simple_16_A_b.gif","forced_short","","2","simple_dissimilar","images/stimuli/spore_stims/simple_16_A_b.gif","","","","",""
"","null","html-keyboard-response","31","184571","0.0-13.0-0.1","SS1618365710264","","","null","","","","","","<p><img src= images/blank.png width =""600"" height = ""600"" style=""position:fixed;top:50%; left:50%; transform: translate(-50%, -50%); border:5px solid black"">","","","","","","","",""
"","5029.790000058711","sequential-stimulus-presentation-old","32","190113","0.0-13.0-1.1","SS1618365710264","trial","","40","500","5529.790000058711","images/stimuli/spore_stims/simple_17_A_a.gif","images/stimuli/spore_stims/simple_16_A_b.gif","forced_short","","2","simple_dissimilar","images/stimuli/spore_stims/simple_17_A_a.gif","","","","",""
"","null","html-keyboard-response","33","191356","0.0-13.0-0.2","SS1618365710264","","","null","","","","","","<p><img src= images/blank.png width =""600"" height = ""600"" style=""position:fixed;top:50%; left:50%; transform: translate(-50%, -50%); border:5px solid black"">","","","","","","","",""
"","3171.725000021979","sequential-stimulus-presentation-old","34","195034","0.0-13.0-1.2","SS1618365710264","trial","","40","500","3671.725000021979","images/stimuli/spore_stims/simple_17_A_a.gif","images/stimuli/spore_stims/simple_16_A_b.gif","forced_short","","2","simple_dissimilar","images/stimuli/spore_stims/simple_16_A_b.gif","","","","",""
"","null","html-keyboard-response","35","196250","0.0-13.0-0.3","SS1618365710264","","","null","","","","","","<p><img src= images/blank.png width =""600"" height = ""600"" style=""position:fixed;top:50%; left:50%; transform: translate(-50%, -50%); border:5px solid black"">","","","","","","","",""
"","3895.465000066906","sequential-stimulus-presentation-old","36","200655","0.0-13.0-1.3","SS1618365710264","trial","","40","500","4395.465000066906","images/stimuli/spore_stims/simple_17_A_a.gif","images/stimuli/spore_stims/simple_16_A_b.gif","forced_short","","2","simple_dissimilar","images/stimuli/spore_stims/simple_16_A_b.gif","","","","",""
"","null","html-keyboard-response","37","201784","0.0-13.0-0.4","SS1618365710264","","","null","","","","","","<p><img src= images/blank.png width =""600"" height = ""600"" style=""position:fixed;top:50%; left:50%; transform: translate(-50%, -50%); border:5px solid black"">","","","","","","","",""
"","1821.6600001323968","sequential-stimulus-presentation-old","38","204116","0.0-13.0-1.4","SS1618365710264","trial","","40","500","2321.660000132397","images/stimuli/spore_stims/simple_17_A_a.gif","images/stimuli/spore_stims/simple_16_A_b.gif","forced_short","","2","simple_dissimilar","images/stimuli/spore_stims/simple_16_A_b.gif","","","","",""
"","null","html-keyboard-response","39","205409","0.0-13.0-0.5","SS1618365710264","","","null","","","","","","<p><img src= images/blank.png width =""600"" height = ""600"" style=""position:fixed;top:50%; left:50%; transform: translate(-50%, -50%); border:5px solid black"">","","","","","","","",""
"","563.6999998241663","sequential-stimulus-presentation-old","40","206484","0.0-13.0-1.5","SS1618365710264","trial","","40","500","1063.6999998241663","images/stimuli/spore_stims/simple_17_A_a.gif","images/stimuli/spore_stims/simple_16_A_b.gif","forced_short","","2","simple_dissimilar","images/stimuli/spore_stims/simple_16_A_b.gif","","","","",""
"","3722.605000017211","survey-multi-choice","41","210213","0.0-14.0","SS1618365710264","math_question","","","","","","","","","","","","{""Q0"":""8""}","[0]","8","",""
"","null","html-keyboard-response","42","211250","0.0-15.0-0.0","SS1618365710264","","","null","","","","","","<p><img src= images/blank.png width =""600"" height = ""600"" style=""position:fixed;top:50%; left:50%; transform: translate(-50%, -50%); border:5px solid black"">","","","","","","","",""
"","3356.5199999138713","sequential-stimulus-presentation-old","43","219619","0.0-15.0-1.0","SS1618365710264","trial","","40","500","3856.5199999138713","images/stimuli/spore_stims/complex_18_A_a.gif","images/stimuli/spore_stims/complex_06_A_b.gif","forced_long","","3","complex_dissimilar","images/stimuli/spore_stims/complex_06_A_b.gif","","","","",""
"","null","html-keyboard-response","44","220806","0.0-15.0-0.1","SS1618365710264","","","null","","","","","","<p><img src= images/blank.png width =""600"" height = ""600"" style=""position:fixed;top:50%; left:50%; transform: translate(-50%, -50%); border:5px solid black"">","","","","","","","",""
"","6052.735000150278","sequential-stimulus-presentation-old","45","227370","0.0-15.0-1.1","SS1618365710264","trial","","40","500","6552.735000150278","images/stimuli/spore_stims/complex_18_A_a.gif","images/stimuli/spore_stims/complex_06_A_b.gif","forced_long","","3","complex_dissimilar","images/stimuli/spore_stims/complex_06_A_b.gif","","","","",""
"","null","html-keyboard-response","46","228606","0.0-15.0-0.2","SS1618365710264","","","null","","","","","","<p><img src= images/blank.png width =""600"" height = ""600"" style=""position:fixed;top:50%; left:50%; transform: translate(-50%, -50%); border:5px solid black"">","","","","","","","",""
"","5897.2100000828505","sequential-stimulus-presentation-old","47","235014","0.0-15.0-1.2","SS1618365710264","trial","","40","500","6397.2100000828505","images/stimuli/spore_stims/complex_18_A_a.gif","images/stimuli/spore_stims/complex_06_A_b.gif","forced_long","","3","complex_dissimilar","images/stimuli/spore_stims/complex_06_A_b.gif","","","","",""
"","null","html-keyboard-response","48","236250","0.0-15.0-0.3","SS1618365710264","","","null","","","","","","<p><img src= images/blank.png width =""600"" height = ""600"" style=""position:fixed;top:50%; left:50%; transform: translate(-50%, -50%); border:5px solid black"">","","","","","","","",""
"","2155.2450000308454","sequential-stimulus-presentation-old","49","238916","0.0-15.0-1.3","SS1618365710264","trial","","40","500","2655.2450000308454","images/stimuli/spore_stims/complex_18_A_a.gif","images/stimuli/spore_stims/complex_06_A_b.gif","forced_long","","3","complex_dissimilar","images/stimuli/spore_stims/complex_06_A_b.gif","","","","",""
"","null","html-keyboard-response","50","239844","0.0-15.0-0.4","SS1618365710264","","","null","","","","","","<p><img src= images/blank.png width =""600"" height = ""600"" style=""position:fixed;top:50%; left:50%; transform: translate(-50%, -50%); border:5px solid black"">","","","","","","","",""
"","10633.854999905452","sequential-stimulus-presentation-old","51","250989","0.0-15.0-1.4","SS1618365710264","trial","","40","500","11133.854999905452","images/stimuli/spore_stims/complex_18_A_a.gif","images/stimuli/spore_stims/complex_06_A_b.gif","forced_long","","3","complex_dissimilar","images/stimuli/spore_stims/complex_18_A_a.gif","","","","",""
"","2532.810000004247","survey-multi-choice","52","253527","0.0-16.0","SS1618365710264","math_question","","","","","","","","","","","","{""Q0"":""4""}","[0]","4","",""
"","null","html-keyboard-response","53","254829","0.0-17.0-0.0","SS1618365710264","","","null","","","","","","<p><img src= images/blank.png width =""600"" height = ""600"" style=""position:fixed;top:50%; left:50%; transform: translate(-50%, -50%); border:5px solid black"">","","","","","","","",""
"","1177.1050000097603","sequential-stimulus-presentation-old","54","256066","0.0-17.0-1.0","SS1618365710264","trial","","40","500","1677.1050000097603","images/stimuli/spore_stims/complex_11_A_b.gif","images/stimuli/spore_stims/complex_17_A_a.gif","forced_short","","4","complex_dissimilar","images/stimuli/spore_stims/complex_17_A_a.gif","","","","",""
"","null","html-keyboard-response","55","257078","0.0-17.0-0.1","SS1618365710264","","","null","","","","","","<p><img src= images/blank.png width =""600"" height = ""600"" style=""position:fixed;top:50%; left:50%; transform: translate(-50%, -50%); border:5px solid black"">","","","","","","","",""
"","4173.570000100881","sequential-stimulus-presentation-old","56","261763","0.0-17.0-1.1","SS1618365710264","trial","","40","500","4673.570000100881","images/stimuli/spore_stims/complex_11_A_b.gif","images/stimuli/spore_stims/complex_17_A_a.gif","forced_short","","4","complex_dissimilar","images/stimuli/spore_stims/complex_11_A_b.gif","","","","",""
"","null","html-keyboard-response","57","262928","0.0-17.0-0.2","SS1618365710264","","","null","","","","","","<p><img src= images/blank.png width =""600"" height = ""600"" style=""position:fixed;top:50%; left:50%; transform: translate(-50%, -50%); border:5px solid black"">","","","","","","","",""
"","3088.640000205487","sequential-stimulus-presentation-old","58","266531","0.0-17.0-1.2","SS1618365710264","trial","","40","500","3588.640000205487","images/stimuli/spore_stims/complex_11_A_b.gif","images/stimuli/spore_stims/complex_17_A_a.gif","forced_short","","4","complex_dissimilar","images/stimuli/spore_stims/complex_17_A_a.gif","","","","",""
"","null","html-keyboard-response","59","267484","0.0-17.0-0.3","SS1618365710264","","","null","","","","","","<p><img src= images/blank.png width =""600"" height = ""600"" style=""position:fixed;top:50%; left:50%; transform: translate(-50%, -50%); border:5px solid black"">","","","","","","","",""
"","3620.1700000092387","sequential-stimulus-presentation-old","60","271617","0.0-17.0-1.3","SS1618365710264","trial","","40","500","4120.170000009239","images/stimuli/spore_stims/complex_11_A_b.gif","images/stimuli/spore_stims/complex_17_A_a.gif","forced_short","","4","complex_dissimilar","images/stimuli/spore_stims/complex_17_A_a.gif","","","","",""
"","2477.0800000987947","survey-multi-choice","61","274102","0.0-18.0","SS1618365710264","math_question","","","","","","","","","","","","{""Q0"":""5""}","[0]","5","",""
"","null","html-keyboard-response","62","275101","0.0-19.0-0.0","SS1618365710264","","","null","","","","","","<p><img src= images/blank.png width =""600"" height = ""600"" style=""position:fixed;top:50%; left:50%; transform: translate(-50%, -50%); border:5px solid black"">","","","","","","","",""
"","3079.3850000482053","sequential-stimulus-presentation-old","63","278694","0.0-19.0-1.0","SS1618365710264","trial","","40","500","3579.3850000482053","images/stimuli/spore_stims/simple_12_A_a.gif","images/stimuli/spore_stims/simple_07_A_b.gif","self_paced","","5","simple_dissimilar","images/stimuli/spore_stims/simple_07_A_b.gif","","","","",""
"","null","html-keyboard-response","64","279761","0.0-19.0-0.1","SS1618365710264","","","null","","","","","","<p><img src= images/blank.png width =""600"" height = ""600"" style=""position:fixed;top:50%; left:50%; transform: translate(-50%, -50%); border:5px solid black"">","","","","","","","",""
"","2556.27500009723","sequential-stimulus-presentation-old","65","282830","0.0-19.0-1.1","SS1618365710264","trial","","40","500","3056.27500009723","images/stimuli/spore_stims/simple_12_A_a.gif","images/stimuli/spore_stims/simple_07_A_b.gif","self_paced","","5","simple_dissimilar","images/stimuli/spore_stims/simple_07_A_b.gif","","","","",""
"","null","html-keyboard-response","66","283916","0.0-19.0-0.2","SS1618365710264","","","null","","","","","","<p><img src= images/blank.png width =""600"" height = ""600"" style=""position:fixed;top:50%; left:50%; transform: translate(-50%, -50%); border:5px solid black"">","","","","","","","",""
"","217.27999998256564","sequential-stimulus-presentation-old","67","284646","0.0-19.0-1.2","SS1618365710264","trial","","40","500","717.2799999825656","images/stimuli/spore_stims/simple_12_A_a.gif","images/stimuli/spore_stims/simple_07_A_b.gif","self_paced","","5","simple_dissimilar","images/stimuli/spore_stims/simple_07_A_b.gif","","","","",""
"","null","html-keyboard-response","68","285633","0.0-19.0-0.3","SS1618365710264","","","null","","","","","","<p><img src= images/blank.png width =""600"" height = ""600"" style=""position:fixed;top:50%; left:50%; transform: translate(-50%, -50%); border:5px solid black"">","","","","","","","",""
"","2472.1349999308586","sequential-stimulus-presentation-old","69","288618","0.0-19.0-1.3","SS1618365710264","trial","","40","500","2972.1349999308586","images/stimuli/spore_stims/simple_12_A_a.gif","images/stimuli/spore_stims/simple_07_A_b.gif","self_paced","","5","simple_dissimilar","images/stimuli/spore_stims/simple_07_A_b.gif","","","","",""
"","3117.755000013858","survey-multi-choice","70","291744","0.0-20.0","SS1618365710264","math_question","","","","","","","","","","","","{""Q0"":""12""}","[0]","12","",""
"","null","html-keyboard-response","71","292680","0.0-21.0-0.0","SS1618365710264","","","null","","","","","","<p><img src= images/blank.png width =""600"" height = ""600"" style=""position:fixed;top:50%; left:50%; transform: translate(-50%, -50%); border:5px solid black"">","","","","","","","",""
"","4763.060000026599","sequential-stimulus-presentation-old","72","302454","0.0-21.0-1.0","SS1618365710264","trial","","40","500","5263.060000026599","images/stimuli/spore_stims/complex_14_A_a.gif","images/stimuli/spore_stims/complex_17_A_b.gif","forced_long","","6","complex_dissimilar","images/stimuli/spore_stims/complex_17_A_b.gif","","","","",""
"","null","html-keyboard-response","73","303575","0.0-21.0-0.1","SS1618365710264","","","null","","","","","","<p><img src= images/blank.png width =""600"" height = ""600"" style=""position:fixed;top:50%; left:50%; transform: translate(-50%, -50%); border:5px solid black"">","","","","","","","",""
"","5203.525000018999","sequential-stimulus-presentation-old","74","309291","0.0-21.0-1.1","SS1618365710264","trial","","40","500","5703.525000018999","images/stimuli/spore_stims/complex_14_A_a.gif","images/stimuli/spore_stims/complex_17_A_b.gif","forced_long","","6","complex_dissimilar","images/stimuli/spore_stims/complex_17_A_b.gif","","","","",""
"","null","html-keyboard-response","75","310546","0.0-21.0-0.2","SS1618365710264","","","null","","","","","","<p><img src= images/blank.png width =""600"" height = ""600"" style=""position:fixed;top:50%; left:50%; transform: translate(-50%, -50%); border:5px solid black"">","","","","","","","",""
"","10366.89000017941","sequential-stimulus-presentation-old","76","321417","0.0-21.0-1.2","SS1618365710264","trial","","40","500","10866.89000017941","images/stimuli/spore_stims/complex_14_A_a.gif","images/stimuli/spore_stims/complex_17_A_b.gif","forced_long","","6","complex_dissimilar","images/stimuli/spore_stims/complex_14_A_a.gif","","","","",""
"","null","html-keyboard-response","77","322564","0.0-21.0-0.3","SS1618365710264","","","null","","","","","","<p><img src= images/blank.png width =""600"" height = ""600"" style=""position:fixed;top:50%; left:50%; transform: translate(-50%, -50%); border:5px solid black"">","","","","","","","",""
"","2903.184999944642","sequential-stimulus-presentation-old","78","325985","0.0-21.0-1.3","SS1618365710264","trial","","40","500","3403.184999944642","images/stimuli/spore_stims/complex_14_A_a.gif","images/stimuli/spore_stims/complex_17_A_b.gif","forced_long","","6","complex_dissimilar","images/stimuli/spore_stims/complex_17_A_b.gif","","","","",""
"","null","html-keyboard-response","79","327267","0.0-21.0-0.4","SS1618365710264","","","null","","","","","","<p><img src= images/blank.png width =""600"" height = ""600"" style=""position:fixed;top:50%; left:50%; transform: translate(-50%, -50%); border:5px solid black"">","","","","","","","",""
"","6543.640000047162","sequential-stimulus-presentation-old","80","334326","0.0-21.0-1.4","SS1618365710264","trial","","40","500","7043.640000047162","images/stimuli/spore_stims/complex_14_A_a.gif","images/stimuli/spore_stims/complex_17_A_b.gif","forced_long","","6","complex_dissimilar","images/stimuli/spore_stims/complex_14_A_a.gif","","","","",""
"","null","html-keyboard-response","81","335595","0.0-21.0-0.5","SS1618365710264","","","null","","","","","","<p><img src= images/blank.png width =""600"" height = ""600"" style=""position:fixed;top:50%; left:50%; transform: translate(-50%, -50%); border:5px solid black"">","","","","","","","",""
"","2916.6049999184906","sequential-stimulus-presentation-old","82","339026","0.0-21.0-1.5","SS1618365710264","trial","","40","500","3416.6049999184906","images/stimuli/spore_stims/complex_14_A_a.gif","images/stimuli/spore_stims/complex_17_A_b.gif","forced_long","","6","complex_dissimilar","images/stimuli/spore_stims/complex_17_A_b.gif","","","","",""
"","2440.9350000787526","survey-multi-choice","83","341477","0.0-22.0","SS1618365710264","math_question","","","","","","","","","","","","{""Q0"":""11""}","[0]","11","",""
"","null","html-keyboard-response","84","342469","0.0-23.0-0.0","SS1618365710264","","","null","","","","","","<p><img src= images/blank.png width =""600"" height = ""600"" style=""position:fixed;top:50%; left:50%; transform: translate(-50%, -50%); border:5px solid black"">","","","","","","","",""
"","2766.2900001741946","sequential-stimulus-presentation-old","85","345743","0.0-23.0-1.0","SS1618365710264","trial","","40","500","3266.2900001741946","images/stimuli/spore_stims/simple_14_A_a.gif","images/stimuli/spore_stims/simple_08_A_b.gif","self_paced","","7","simple_dissimilar","images/stimuli/spore_stims/simple_08_A_b.gif","","","","",""
"","null","html-keyboard-response","86","347050","0.0-23.0-0.1","SS1618365710264","","","null","","","","","","<p><img src= images/blank.png width =""600"" height = ""600"" style=""position:fixed;top:50%; left:50%; transform: translate(-50%, -50%); border:5px solid black"">","","","","","","","",""
"","353.815000038594","sequential-stimulus-presentation-old","87","347917","0.0-23.0-1.1","SS1618365710264","trial","","40","500","853.815000038594","images/stimuli/spore_stims/simple_14_A_a.gif","images/stimuli/spore_stims/simple_08_A_b.gif","self_paced","","7","simple_dissimilar","images/stimuli/spore_stims/simple_08_A_b.gif","","","","",""
"","null","html-keyboard-response","88","348803","0.0-23.0-0.2","SS1618365710264","","","null","","","","","","<p><img src= images/blank.png width =""600"" height = ""600"" style=""position:fixed;top:50%; left:50%; transform: translate(-50%, -50%); border:5px solid black"">","","","","","","","",""
"","1816.7549998033792","sequential-stimulus-presentation-old","89","351129","0.0-23.0-1.2","SS1618365710264","trial","","40","500","2316.754999803379","images/stimuli/spore_stims/simple_14_A_a.gif","images/stimuli/spore_stims/simple_08_A_b.gif","self_paced","","7","simple_dissimilar","images/stimuli/spore_stims/simple_08_A_b.gif","","","","",""
"","null","html-keyboard-response","90","352085","0.0-23.0-0.3","SS1618365710264","","","null","","","","","","<p><img src= images/blank.png width =""600"" height = ""600"" style=""position:fixed;top:50%; left:50%; transform: translate(-50%, -50%); border:5px solid black"">","","","","","","","",""
"","1642.045000102371","sequential-stimulus-presentation-old","91","354238","0.0-23.0-1.3","SS1618365710264","trial","","40","500","2142.045000102371","images/stimuli/spore_stims/simple_14_A_a.gif","images/stimuli/spore_stims/simple_08_A_b.gif","self_paced","","7","simple_dissimilar","images/stimuli/spore_stims/simple_08_A_b.gif","","","","",""
"","null","html-keyboard-response","92","355111","0.0-23.0-0.4","SS1618365710264","","","null","","","","","","<p><img src= images/blank.png width =""600"" height = ""600"" style=""position:fixed;top:50%; left:50%; transform: translate(-50%, -50%); border:5px solid black"">","","","","","","","",""
"","3025.2749999053776","sequential-stimulus-presentation-old","93","358651","0.0-23.0-1.4","SS1618365710264","trial","","40","500","3525.2749999053776","images/stimuli/spore_stims/simple_14_A_a.gif","images/stimuli/spore_stims/simple_08_A_b.gif","self_paced","","7","simple_dissimilar","images/stimuli/spore_stims/simple_08_A_b.gif","","","","",""
"","2377.9849999118596","survey-multi-choice","94","361038","0.0-24.0","SS1618365710264","math_question","","","","","","","","","","","","{""Q0"":""5""}","[0]","5","",""
"","null","html-keyboard-response","95","362119","0.0-25.0-0.0","SS1618365710264","","","null","","","","","","<p><img src= images/blank.png width =""600"" height = ""600"" style=""position:fixed;top:50%; left:50%; transform: translate(-50%, -50%); border:5px solid black"">","","","","","","","",""
"","6038.480000104755","sequential-stimulus-presentation-old","96","368225","0.0-25.0-1.0","SS1618365710264","trial","","40","500","6538.480000104755","images/stimuli/spore_stims/complex_07_A_a.gif","images/stimuli/spore_stims/complex_04_A_b.gif","forced_short","","8","complex_dissimilar","images/stimuli/spore_stims/complex_04_A_b.gif","","","","",""
"","null","html-keyboard-response","97","369070","0.0-25.0-0.1","SS1618365710264","","","null","","","","","","<p><img src= images/blank.png width =""600"" height = ""600"" style=""position:fixed;top:50%; left:50%; transform: translate(-50%, -50%); border:5px solid black"">","","","","","","","",""
"","10660.915000131354","sequential-stimulus-presentation-old","98","380249","0.0-25.0-1.1","SS1618365710264","trial","","40","500","11160.915000131354","images/stimuli/spore_stims/complex_07_A_a.gif","images/stimuli/spore_stims/complex_04_A_b.gif","forced_short","","8","complex_dissimilar","images/stimuli/spore_stims/complex_04_A_b.gif","","","","",""
"","null","html-keyboard-response","99","381162","0.0-25.0-0.2","SS1618365710264","","","null","","","","","","<p><img src= images/blank.png width =""600"" height = ""600"" style=""position:fixed;top:50%; left:50%; transform: translate(-50%, -50%); border:5px solid black"">","","","","","","","",""
"","3744.2699999082834","sequential-stimulus-presentation-old","100","385419","0.0-25.0-1.2","SS1618365710264","trial","","40","500","4244.269999908283","images/stimuli/spore_stims/complex_07_A_a.gif","images/stimuli/spore_stims/complex_04_A_b.gif","forced_short","","8","complex_dissimilar","images/stimuli/spore_stims/complex_04_A_b.gif","","","","",""
"","null","html-keyboard-response","101","386696","0.0-25.0-0.3","SS1618365710264","","","null","","","","","","<p><img src= images/blank.png width =""600"" height = ""600"" style=""position:fixed;top:50%; left:50%; transform: translate(-50%, -50%); border:5px solid black"">","","","","","","","",""
"","10339.4500000868","sequential-stimulus-presentation-old","102","397543","0.0-25.0-1.3","SS1618365710264","trial","","40","500","10839.4500000868","images/stimuli/spore_stims/complex_07_A_a.gif","images/stimuli/spore_stims/complex_04_A_b.gif","forced_short","","8","complex_dissimilar","images/stimuli/spore_stims/complex_04_A_b.gif","","","","",""
"","null","html-keyboard-response","103","398589","0.0-25.0-0.4","SS1618365710264","","","null","","","","","","<p><img src= images/blank.png width =""600"" height = ""600"" style=""position:fixed;top:50%; left:50%; transform: translate(-50%, -50%); border:5px solid black"">","","","","","","","",""
"","3510.3899999521673","sequential-stimulus-presentation-old","104","402613","0.0-25.0-1.4","SS1618365710264","trial","","40","500","4010.3899999521673","images/stimuli/spore_stims/complex_07_A_a.gif","images/stimuli/spore_stims/complex_04_A_b.gif","forced_short","","8","complex_dissimilar","images/stimuli/spore_stims/complex_04_A_b.gif","","","","",""
"","null","html-keyboard-response","105","403859","0.0-25.0-0.5","SS1618365710264","","","null","","","","","","<p><img src= images/blank.png width =""600"" height = ""600"" style=""position:fixed;top:50%; left:50%; transform: translate(-50%, -50%); border:5px solid black"">","","","","","","","",""
"","3679.9749999772757","sequential-stimulus-presentation-old","106","408048","0.0-25.0-1.5","SS1618365710264","trial","","40","500","4179.974999977276","images/stimuli/spore_stims/complex_07_A_a.gif","images/stimuli/spore_stims/complex_04_A_b.gif","forced_short","","8","complex_dissimilar","images/stimuli/spore_stims/complex_04_A_b.gif","","","","",""
"","4647.2100000828505","survey-multi-choice","107","412704","0.0-26.0","SS1618365710264","math_question","","","","","","","","","","","","{""Q0"":""13""}","[0]","13","",""
"","null","html-keyboard-response","108","413944","0.0-27.0-0.0","SS1618365710264","","","null","","","","","","<p><img src= images/blank.png width =""600"" height = ""600"" style=""position:fixed;top:50%; left:50%; transform: translate(-50%, -50%); border:5px solid black"">","","","","","","","",""
"","12207.369999960065","sequential-stimulus-presentation-old","109","431169","0.0-27.0-1.0","SS1618365710264","trial","","40","500","12707.369999960065","images/stimuli/spore_stims/simple_15_A_b.gif","images/stimuli/spore_stims/simple_02_A_a.gif","forced_long","","9","simple_dissimilar","images/stimuli/spore_stims/simple_02_A_a.gif","","","","",""
"","null","html-keyboard-response","110","432137","0.0-27.0-0.1","SS1618365710264","","","null","","","","","","<p><img src= images/blank.png width =""600"" height = ""600"" style=""position:fixed;top:50%; left:50%; transform: translate(-50%, -50%); border:5px solid black"">","","","","","","","",""
"","1897.730000084266","sequential-stimulus-presentation-old","111","434551","0.0-27.0-1.1","SS1618365710264","trial","","40","500","2397.730000084266","images/stimuli/spore_stims/simple_15_A_b.gif","images/stimuli/spore_stims/simple_02_A_a.gif","forced_long","","9","simple_dissimilar","images/stimuli/spore_stims/simple_02_A_a.gif","","","","",""
"","null","html-keyboard-response","112","435444","0.0-27.0-0.2","SS1618365710264","","","null","","","","","","<p><img src= images/blank.png width =""600"" height = ""600"" style=""position:fixed;top:50%; left:50%; transform: translate(-50%, -50%); border:5px solid black"">","","","","","","","",""
"","1656.2149999663234","sequential-stimulus-presentation-old","113","437610","0.0-27.0-1.2","SS1618365710264","trial","","40","500","2156.2149999663234","images/stimuli/spore_stims/simple_15_A_b.gif","images/stimuli/spore_stims/simple_02_A_a.gif","forced_long","","9","simple_dissimilar","images/stimuli/spore_stims/simple_02_A_a.gif","","","","",""
"","null","html-keyboard-response","114","438663","0.0-27.0-0.3","SS1618365710264","","","null","","","","","","<p><img src= images/blank.png width =""600"" height = ""600"" style=""position:fixed;top:50%; left:50%; transform: translate(-50%, -50%); border:5px solid black"">","","","","","","","",""
"","322.39499990828335","sequential-stimulus-presentation-old","115","439500","0.0-27.0-1.3","SS1618365710264","trial","","40","500","822.3949999082834","images/stimuli/spore_stims/simple_15_A_b.gif","images/stimuli/spore_stims/simple_02_A_a.gif","forced_long","","9","simple_dissimilar","images/stimuli/spore_stims/simple_02_A_a.gif","","","","",""
"","null","html-keyboard-response","116","440639","0.0-27.0-0.4","SS1618365710264","","","null","","","","","","<p><img src= images/blank.png width =""600"" height = ""600"" style=""position:fixed;top:50%; left:50%; transform: translate(-50%, -50%); border:5px solid black"">","","","","","","","",""
"","918.4000000823289","sequential-stimulus-presentation-old","117","442065","0.0-27.0-1.4","SS1618365710264","trial","","40","500","1418.400000082329","images/stimuli/spore_stims/simple_15_A_b.gif","images/stimuli/spore_stims/simple_02_A_a.gif","forced_long","","9","simple_dissimilar","images/stimuli/spore_stims/simple_02_A_a.gif","","","","",""
"","2227.7699999976903","survey-multi-choice","118","444304","0.0-28.0","SS1618365710264","math_question","","","","","","","","","","","","{""Q0"":""5""}","[0]","5","",""
"","null","html-keyboard-response","119","445478","0.0-29.0-0.0","SS1618365710264","","","null","","","","","","<p><img src= images/blank.png width =""600"" height = ""600"" style=""position:fixed;top:50%; left:50%; transform: translate(-50%, -50%); border:5px solid black"">","","","","","","","",""
"","5785.729999886826","sequential-stimulus-presentation-old","120","456282","0.0-29.0-1.0","SS1618365710264","trial","","40","500","6285.729999886826","images/stimuli/spore_stims/simple_05_A_a.gif","images/stimuli/spore_stims/simple_03_A_b.gif","forced_long","","10","simple_dissimilar","images/stimuli/spore_stims/simple_03_A_b.gif","","","","",""
"","null","html-keyboard-response","121","457175","0.0-29.0-0.1","SS1618365710264","","","null","","","","","","<p><img src= images/blank.png width =""600"" height = ""600"" style=""position:fixed;top:50%; left:50%; transform: translate(-50%, -50%); border:5px solid black"">","","","","","","","",""
"","1282.7699999324977","sequential-stimulus-presentation-old","122","458973","0.0-29.0-1.1","SS1618365710264","trial","","40","500","1782.7699999324977","images/stimuli/spore_stims/simple_05_A_a.gif","images/stimuli/spore_stims/simple_03_A_b.gif","forced_long","","10","simple_dissimilar","images/stimuli/spore_stims/simple_03_A_b.gif","","","","",""
"","null","html-keyboard-response","123","459813","0.0-29.0-0.2","SS1618365710264","","","null","","","","","","<p><img src= images/blank.png width =""600"" height = ""600"" style=""position:fixed;top:50%; left:50%; transform: translate(-50%, -50%); border:5px solid black"">","","","","","","","",""
"","1464.0900001395494","sequential-stimulus-presentation-old","124","461790","0.0-29.0-1.2","SS1618365710264","trial","","40","500","1964.0900001395494","images/stimuli/spore_stims/simple_05_A_a.gif","images/stimuli/spore_stims/simple_03_A_b.gif","forced_long","","10","simple_dissimilar","images/stimuli/spore_stims/simple_03_A_b.gif","","","","",""
"","null","html-keyboard-response","125","462750","0.0-29.0-0.3","SS1618365710264","","","null","","","","","","<p><img src= images/blank.png width =""600"" height = ""600"" style=""position:fixed;top:50%; left:50%; transform: translate(-50%, -50%); border:5px solid black"">","","","","","","","",""
"","3234.2850000131875","sequential-stimulus-presentation-old","126","466503","0.0-29.0-1.3","SS1618365710264","trial","","40","500","3734.2850000131875","images/stimuli/spore_stims/simple_05_A_a.gif","images/stimuli/spore_stims/simple_03_A_b.gif","forced_long","","10","simple_dissimilar","images/stimuli/spore_stims/simple_03_A_b.gif","","","","",""
"","5534.160000039265","survey-multi-choice","127","472048","0.0-30.0","SS1618365710264","math_question","","","","","","","","","","","","{""Q0"":""17""}","[0]","17","",""
"","null","html-keyboard-response","128","473209","0.0-31.0-0.0","SS1618365710264","","","null","","","","","","<p><img src= images/blank.png width =""600"" height = ""600"" style=""position:fixed;top:50%; left:50%; transform: translate(-50%, -50%); border:5px solid black"">","","","","","","","",""
"","8797.990000108257","sequential-stimulus-presentation-old","129","482528","0.0-31.0-1.0","SS1618365710264","trial","","40","500","9297.990000108257","images/stimuli/spore_stims/complex_19_A_b.gif","images/stimuli/spore_stims/complex_20_A_a.gif","self_paced","","11","complex_dissimilar","images/stimuli/spore_stims/complex_20_A_a.gif","","","","",""
"","null","html-keyboard-response","130","483608","0.0-31.0-0.1","SS1618365710264","","","null","","","","","","<p><img src= images/blank.png width =""600"" height = ""600"" style=""position:fixed;top:50%; left:50%; transform: translate(-50%, -50%); border:5px solid black"">","","","","","","","",""
"","4011.875000083819","sequential-stimulus-presentation-old","131","488137","0.0-31.0-1.1","SS1618365710264","trial","","40","500","4511.875000083819","images/stimuli/spore_stims/complex_19_A_b.gif","images/stimuli/spore_stims/complex_20_A_a.gif","self_paced","","11","complex_dissimilar","images/stimuli/spore_stims/complex_20_A_a.gif","","","","",""
"","null","html-keyboard-response","132","489258","0.0-31.0-0.2","SS1618365710264","","","null","","","","","","<p><img src= images/blank.png width =""600"" height = ""600"" style=""position:fixed;top:50%; left:50%; transform: translate(-50%, -50%); border:5px solid black"">","","","","","","","",""
"","3963.800000026822","sequential-stimulus-presentation-old","133","493742","0.0-31.0-1.2","SS1618365710264","trial","","40","500","4463.800000026822","images/stimuli/spore_stims/complex_19_A_b.gif","images/stimuli/spore_stims/complex_20_A_a.gif","self_paced","","11","complex_dissimilar","images/stimuli/spore_stims/complex_20_A_a.gif","","","","",""
"","null","html-keyboard-response","134","494567","0.0-31.0-0.3","SS1618365710264","","","null","","","","","","<p><img src= images/blank.png width =""600"" height = ""600"" style=""position:fixed;top:50%; left:50%; transform: translate(-50%, -50%); border:5px solid black"">","","","","","","","",""
"","3003.8299998268485","sequential-stimulus-presentation-old","135","498081","0.0-31.0-1.3","SS1618365710264","trial","","40","500","3503.8299998268485","images/stimuli/spore_stims/complex_19_A_b.gif","images/stimuli/spore_stims/complex_20_A_a.gif","self_paced","","11","complex_dissimilar","images/stimuli/spore_stims/complex_20_A_a.gif","","","","",""
"","null","html-keyboard-response","136","498910","0.0-31.0-0.4","SS1618365710264","","","null","","","","","","<p><img src= images/blank.png width =""600"" height = ""600"" style=""position:fixed;top:50%; left:50%; transform: translate(-50%, -50%); border:5px solid black"">","","","","","","","",""
"","3098.3150000683963","sequential-stimulus-presentation-old","137","502526","0.0-31.0-1.4","SS1618365710264","trial","","40","500","3598.3150000683963","images/stimuli/spore_stims/complex_19_A_b.gif","images/stimuli/spore_stims/complex_20_A_a.gif","self_paced","","11","complex_dissimilar","images/stimuli/spore_stims/complex_20_A_a.gif","","","","",""
"[{""page_index"":0,""viewing_time"":9047.324999934062}]","9047.864999854937","instructions","138","511586","0.0-32.0","SS1618365710264","instructions","","","","","","","","","","","","","","","",""
"","18945.18500007689","survey-likert","139","530545","0.0-33.0","SS1618365710264","similarity_question","","","","","","","","","","","","{""Q0"":2}","[0]","","images/stimuli/spore_stims/simple_05_A_a.gif","images/stimuli/spore_stims/simple_03_A_b.gif"
"","6527.955000055954","survey-likert","140","537087","0.0-34.0","SS1618365710264","similarity_question","","","","","","","","","","","","{""Q0"":2}","[0]","","images/stimuli/spore_stims/simple_18_A_b.gif","images/stimuli/spore_stims/simple_09_A_a.gif"
"","19431.580000091344","survey-likert","141","556532","0.0-35.0","SS1618365710264","similarity_question","","","","","","","","","","","","{""Q0"":1}","[0]","","images/stimuli/spore_stims/complex_14_A_a.gif","images/stimuli/spore_stims/complex_17_A_b.gif"
"","5365.349999861792","survey-likert","142","561911","0.0-36.0","SS1618365710264","similarity_question","","","","","","","","","","","","{""Q0"":1}","[0]","","images/stimuli/spore_stims/complex_06_A_b.gif","images/stimuli/spore_stims/complex_18_A_a.gif"
"","9624.814999988303","survey-likert","143","571554","0.0-37.0","SS1618365710264","similarity_question","","","","","","","","","","","","{""Q0"":0}","[0]","","images/stimuli/spore_stims/complex_12_A_a.gif","images/stimuli/spore_stims/complex_01_A_b.gif"
"","5415.240000002086","survey-likert","144","576978","0.0-38.0","SS1618365710264","similarity_question","","","","","","","","","","","","{""Q0"":1}","[0]","","images/stimuli/spore_stims/complex_20_A_a.gif","images/stimuli/spore_stims/complex_19_A_b.gif"
"","6453.59000004828","survey-likert","145","583447","0.0-39.0","SS1618365710264","similarity_question","","","","","","","","","","","","{""Q0"":5}","[0]","","images/stimuli/spore_stims/simple_15_A_b.gif","images/stimuli/spore_stims/simple_02_A_a.gif"
"","9862.199999857694","survey-likert","146","593323","0.0-40.0","SS1618365710264","similarity_question","","","","","","","","","","","","{""Q0"":5}","[0]","","images/stimuli/spore_stims/simple_17_A_a.gif","images/stimuli/spore_stims/simple_16_A_b.gif"
"","9710.36499994807","survey-likert","147","603050","0.0-41.0","SS1618365710264","similarity_question","","","","","","","","","","","","{""Q0"":2}","[0]","","images/stimuli/spore_stims/complex_17_A_a.gif","images/stimuli/spore_stims/complex_11_A_b.gif"
"","5750.159999821335","survey-likert","148","608809","0.0-42.0","SS1618365710264","similarity_question","","","","","","","","","","","","{""Q0"":2}","[0]","","images/stimuli/spore_stims/complex_04_A_b.gif","images/stimuli/spore_stims/complex_07_A_a.gif"
"","9824.35499993153","survey-likert","149","618650","0.0-43.0","SS1618365710264","similarity_question","","","","","","","","","","","","{""Q0"":4}","[0]","","images/stimuli/spore_stims/simple_07_A_b.gif","images/stimuli/spore_stims/simple_12_A_a.gif"
"","3881.095000077039","survey-likert","150","622542","0.0-44.0","SS1618365710264","similarity_question","","","","","","","","","","","","{""Q0"":2}","[0]","","images/stimuli/spore_stims/simple_08_A_b.gif","images/stimuli/spore_stims/simple_14_A_a.gif"
"[{""page_index"":0,""viewing_time"":3728.944999864325}]","3729.5399999711663","instructions","151","626285","0.0-45.0","SS1618365710264","instructions","","","","","","","","","","","","","","","",""
"","11177.339999936521","survey-likert","152","637475","0.0-46.0","SS1618365710264","","","","","","","","","images/stimuli/spore_stims/complex_20_A_a.gif","","","","{""Q0"":4}","[0]","","",""
"","6905.874999938533","survey-likert","153","644393","0.0-47.0","SS1618365710264","","","","","","","","","images/stimuli/spore_stims/simple_07_A_b.gif","","","","{""Q0"":2}","[0]","","",""
"","8095.29500012286","survey-likert","154","652503","0.0-48.0","SS1618365710264","","","","","","","","","images/stimuli/spore_stims/simple_09_A_a.gif","","","","{""Q0"":1}","[0]","","",""
"","4699.164999881759","survey-likert","155","657215","0.0-49.0","SS1618365710264","","","","","","","","","images/stimuli/spore_stims/simple_16_A_b.gif","","","","{""Q0"":2}","[0]","","",""
"","4926.484999945387","survey-likert","156","662157","0.0-50.0","SS1618365710264","","","","","","","","","images/stimuli/spore_stims/complex_01_A_b.gif","","","","{""Q0"":4}","[0]","","",""
"","4424.400000134483","survey-likert","157","666595","0.0-51.0","SS1618365710264","","","","","","","","","images/stimuli/spore_stims/complex_06_A_b.gif","","","","{""Q0"":4}","[0]","","",""
"","8120.875000022352","survey-likert","158","674733","0.0-52.0","SS1618365710264","","","","","","","","","images/stimuli/spore_stims/complex_11_A_b.gif","","","","{""Q0"":5}","[0]","","",""
"","8841.074999887496","survey-likert","159","683588","0.0-53.0","SS1618365710264","","","","","","","","","images/stimuli/spore_stims/complex_04_A_b.gif","","","","{""Q0"":5}","[0]","","",""
"","4430.4400000255555","survey-likert","160","688034","0.0-54.0","SS1618365710264","","","","","","","","","images/stimuli/spore_stims/simple_14_A_a.gif","","","","{""Q0"":2}","[0]","","",""
"","7904.469999950379","survey-likert","161","695952","0.0-55.0","SS1618365710264","","","","","","","","","images/stimuli/spore_stims/simple_02_A_a.gif","","","","{""Q0"":0}","[0]","","",""
"","7812.124999938533","survey-likert","162","703779","0.0-56.0","SS1618365710264","","","","","","","","","images/stimuli/spore_stims/complex_14_A_a.gif","","","","{""Q0"":6}","[0]","","",""
"","5519.219999900088","survey-likert","163","709312","0.0-57.0","SS1618365710264","","","","","","","","","images/stimuli/spore_stims/simple_03_A_b.gif","","","","{""Q0"":2}","[0]","","",""
"[{""page_index"":0,""viewing_time"":1364.6750000771135}]","1365.17500015907","instructions","164","710692","0.0-58.0","SS1618365710264","instructions","","","","","","","","","","","","","","","",""
"","2487.605000147596","demog-age","165","713197","0.0-59.0","SS1618365710264","","","","","","","","","","","","","{""age"":""22""}","","","",""
"","26857.964999973774","demog-ethnic-US","166","740076","0.0-60.0","SS1618365710264","","","","","","","","","","","","","{""ethnicity"":[""White""]}","[0]","","",""
"","26705.195000162348","demog-gender-and-education","167","766800","0.0-61.0","SS1618365710264","","","","","","","","","","","","","{""gender"":""Female"",""education"":""Associate Degree/Technical certification""}","[0,1]","","",""
"","30138.61000002362","survey-text","168","796955","0.0-62.0","SS1618365710264","feedback","","","","","","","","","","","","{""Q0"":""Instructions could be a little clearer""}","","","",""
"[{""page_index"":0,""viewing_time"":2035.304999910295}]","2035.829999949783","instructions","169","799005","0.0-63.0","SS1618365710264","instructions","","","","","","","","","","","","","","","",""
