"view_history","rt","trial_type","trial_index","time_elapsed","internal_node_id","subject","stimulus_type","trial_stimulus","key_press","minimum_viewing_duration","trial_looking_time","block_deviant","block_background","exposure_type","stimulus","block_number","block_type","stimulus_displayed","responses","question_order","math_correct_answer","stimulus_left","stimulus_right"
"[{""page_index"":0,""viewing_time"":7214.304999999513}]","7217.059999999037","instructions","0","7223","0.0-0.0","SS1618435834866","","","","","","","","","","","","","","","","",""
"[{""page_index"":0,""viewing_time"":11609.164999999848},{""page_index"":1,""viewing_time"":3692.895000000135}]","15302.959999999075","instructions","1","24532","0.0-1.0","SS1618435834866","instructions","","","","","","","","","","","","","","","",""
"","3925.1949999998033","sequential-stimulus-presentation-old","2","28966","0.0-2.0","SS1618435834866","","","40","500","4425.194999999803","null","null","self_paced","","","","","","","","",""
"","2430.884999999762","sequential-stimulus-presentation-old","3","31901","0.0-3.0","SS1618435834866","","","40","500","2930.884999999762","null","null","self_paced","","","","","","","","",""
"[{""page_index"":0,""viewing_time"":14770.205000000715}]","14771.129999999175","instructions","4","46675","0.0-4.0","SS1618435834866","instructions","","","","","","","","","","","","","","","",""
"","607.0450000006531","sequential-stimulus-presentation-old","5","52292","0.0-5.0","SS1618435834866","","","40","500","1107.045000000653","null","null","forced_long","","","","","","","","",""
"","2952.549999999974","sequential-stimulus-presentation-old","6","55300","0.0-6.0","SS1618435834866","","","40","50","3002.549999999974","null","null","forced_long","","","","","","","","",""
"[{""page_index"":0,""viewing_time"":4894.430000000284}]","4895.29500000026","instructions","7","60198","0.0-7.0","SS1618435834866","instructions","","","","","","","","","","","","","","","",""
"[{""page_index"":0,""viewing_time"":8591.92499999881},{""page_index"":1,""viewing_time"":13455.57000000008},{""page_index"":2,""viewing_time"":4455.164999999397},{""page_index"":3,""viewing_time"":1865.9350000016275},{""page_index"":4,""viewing_time"":901.8249999990076}]","29271.489999999176","instructions","8","89473","0.0-8.0","SS1618435834866","instructions","","","","","","","","","","","","","","","",""
"","null","html-keyboard-response","9","90720","0.0-9.0-0.0","SS1618435834866","","","null","","","","","","<p><img src= images/blank.png width =""600"" height = ""600"" style=""position:fixed;top:50%; left:50%; transform: translate(-50%, -50%); border:5px solid black"">","","","","","","","",""
"","460.4299999991781","sequential-stimulus-presentation-old","10","96189","0.0-9.0-1.0","SS1618435834866","trial","","40","500","960.4299999991781","images/stimuli/spore_stims/complex_13_A_b.gif","images/stimuli/spore_stims/complex_19_A_a.gif","forced_long","","0","complex_dissimilar","images/stimuli/spore_stims/complex_19_A_a.gif","","","","",""
"","null","html-keyboard-response","11","97180","0.0-9.0-0.1","SS1618435834866","","","null","","","","","","<p><img src= images/blank.png width =""600"" height = ""600"" style=""position:fixed;top:50%; left:50%; transform: translate(-50%, -50%); border:5px solid black"">","","","","","","","",""
"","712.4699999985751","sequential-stimulus-presentation-old","12","98397","0.0-9.0-1.1","SS1618435834866","trial","","40","500","1212.469999998575","images/stimuli/spore_stims/complex_13_A_b.gif","images/stimuli/spore_stims/complex_19_A_a.gif","forced_long","","0","complex_dissimilar","images/stimuli/spore_stims/complex_13_A_b.gif","","","","",""
"","null","html-keyboard-response","13","99388","0.0-9.0-0.2","SS1618435834866","","","null","","","","","","<p><img src= images/blank.png width =""600"" height = ""600"" style=""position:fixed;top:50%; left:50%; transform: translate(-50%, -50%); border:5px solid black"">","","","","","","","",""
"","791.5300000004208","sequential-stimulus-presentation-old","14","100684","0.0-9.0-1.2","SS1618435834866","trial","","40","500","1291.5300000004208","images/stimuli/spore_stims/complex_13_A_b.gif","images/stimuli/spore_stims/complex_19_A_a.gif","forced_long","","0","complex_dissimilar","images/stimuli/spore_stims/complex_19_A_a.gif","","","","",""
"","null","html-keyboard-response","15","101807","0.0-9.0-0.3","SS1618435834866","","","null","","","","","","<p><img src= images/blank.png width =""600"" height = ""600"" style=""position:fixed;top:50%; left:50%; transform: translate(-50%, -50%); border:5px solid black"">","","","","","","","",""
"","2011.0999999997148","sequential-stimulus-presentation-old","16","104324","0.0-9.0-1.3","SS1618435834866","trial","","40","500","2511.099999999715","images/stimuli/spore_stims/complex_13_A_b.gif","images/stimuli/spore_stims/complex_19_A_a.gif","forced_long","","0","complex_dissimilar","images/stimuli/spore_stims/complex_13_A_b.gif","","","","",""
"","null","html-keyboard-response","17","105588","0.0-9.0-0.4","SS1618435834866","","","null","","","","","","<p><img src= images/blank.png width =""600"" height = ""600"" style=""position:fixed;top:50%; left:50%; transform: translate(-50%, -50%); border:5px solid black"">","","","","","","","",""
"","2560.11000000035","sequential-stimulus-presentation-old","18","108654","0.0-9.0-1.4","SS1618435834866","trial","","40","500","3060.11000000035","images/stimuli/spore_stims/complex_13_A_b.gif","images/stimuli/spore_stims/complex_19_A_a.gif","forced_long","","0","complex_dissimilar","images/stimuli/spore_stims/complex_19_A_a.gif","","","","",""
"","3021.6449999989127","survey-multi-choice","19","111687","0.0-10.0","SS1618435834866","math_question","","","","","","","","","","","","{""Q0"":""9""}","[0]","9","",""
"","null","html-keyboard-response","20","112613","0.0-11.0-0.0","SS1618435834866","","","null","","","","","","<p><img src= images/blank.png width =""600"" height = ""600"" style=""position:fixed;top:50%; left:50%; transform: translate(-50%, -50%); border:5px solid black"">","","","","","","","",""
"","3128.534999999829","sequential-stimulus-presentation-old","21","120751","0.0-11.0-1.0","SS1618435834866","trial","","40","500","3628.534999999829","images/stimuli/spore_stims/simple_09_A_b.gif","images/stimuli/spore_stims/simple_10_A_a.gif","forced_long","","1","simple_dissimilar","images/stimuli/spore_stims/simple_10_A_a.gif","","","","",""
"","null","html-keyboard-response","22","121607","0.0-11.0-0.1","SS1618435834866","","","null","","","","","","<p><img src= images/blank.png width =""600"" height = ""600"" style=""position:fixed;top:50%; left:50%; transform: translate(-50%, -50%); border:5px solid black"">","","","","","","","",""
"","594.3150000002643","sequential-stimulus-presentation-old","23","122708","0.0-11.0-1.1","SS1618435834866","trial","","40","500","1094.3150000002643","images/stimuli/spore_stims/simple_09_A_b.gif","images/stimuli/spore_stims/simple_10_A_a.gif","forced_long","","1","simple_dissimilar","images/stimuli/spore_stims/simple_10_A_a.gif","","","","",""
"","null","html-keyboard-response","24","123918","0.0-11.0-0.2","SS1618435834866","","","null","","","","","","<p><img src= images/blank.png width =""600"" height = ""600"" style=""position:fixed;top:50%; left:50%; transform: translate(-50%, -50%); border:5px solid black"">","","","","","","","",""
"","1174.1750000001048","sequential-stimulus-presentation-old","25","125598","0.0-11.0-1.2","SS1618435834866","trial","","40","500","1674.1750000001048","images/stimuli/spore_stims/simple_09_A_b.gif","images/stimuli/spore_stims/simple_10_A_a.gif","forced_long","","1","simple_dissimilar","images/stimuli/spore_stims/simple_10_A_a.gif","","","","",""
"","null","html-keyboard-response","26","126679","0.0-11.0-0.3","SS1618435834866","","","null","","","","","","<p><img src= images/blank.png width =""600"" height = ""600"" style=""position:fixed;top:50%; left:50%; transform: translate(-50%, -50%); border:5px solid black"">","","","","","","","",""
"","794.0949999993027","sequential-stimulus-presentation-old","27","127979","0.0-11.0-1.3","SS1618435834866","trial","","40","500","1294.0949999993027","images/stimuli/spore_stims/simple_09_A_b.gif","images/stimuli/spore_stims/simple_10_A_a.gif","forced_long","","1","simple_dissimilar","images/stimuli/spore_stims/simple_09_A_b.gif","","","","",""
"","null","html-keyboard-response","28","128938","0.0-11.0-0.4","SS1618435834866","","","null","","","","","","<p><img src= images/blank.png width =""600"" height = ""600"" style=""position:fixed;top:50%; left:50%; transform: translate(-50%, -50%); border:5px solid black"">","","","","","","","",""
"","1143.7449999993842","sequential-stimulus-presentation-old","29","130589","0.0-11.0-1.4","SS1618435834866","trial","","40","500","1643.7449999993842","images/stimuli/spore_stims/simple_09_A_b.gif","images/stimuli/spore_stims/simple_10_A_a.gif","forced_long","","1","simple_dissimilar","images/stimuli/spore_stims/simple_09_A_b.gif","","","","",""
"","3899.575000001263","survey-multi-choice","30","134494","0.0-12.0","SS1618435834866","math_question","","","","","","","","","","","","{""Q0"":""12""}","[0]","12","",""
"","null","html-keyboard-response","31","135359","0.0-13.0-0.0","SS1618435834866","","","null","","","","","","<p><img src= images/blank.png width =""600"" height = ""600"" style=""position:fixed;top:50%; left:50%; transform: translate(-50%, -50%); border:5px solid black"">","","","","","","","",""
"","1172.2500000014552","sequential-stimulus-presentation-old","32","137037","0.0-13.0-1.0","SS1618435834866","trial","","40","500","1672.2500000014552","images/stimuli/spore_stims/simple_04_A_a.gif","images/stimuli/spore_stims/simple_14_A_b.gif","self_paced","","2","simple_dissimilar","images/stimuli/spore_stims/simple_14_A_b.gif","","","","",""
"","null","html-keyboard-response","33","138190","0.0-13.0-0.1","SS1618435834866","","","null","","","","","","<p><img src= images/blank.png width =""600"" height = ""600"" style=""position:fixed;top:50%; left:50%; transform: translate(-50%, -50%); border:5px solid black"">","","","","","","","",""
"","1234.0750000003027","sequential-stimulus-presentation-old","34","139933","0.0-13.0-1.1","SS1618435834866","trial","","40","500","1734.0750000003027","images/stimuli/spore_stims/simple_04_A_a.gif","images/stimuli/spore_stims/simple_14_A_b.gif","self_paced","","2","simple_dissimilar","images/stimuli/spore_stims/simple_14_A_b.gif","","","","",""
"","null","html-keyboard-response","35","141213","0.0-13.0-0.2","SS1618435834866","","","null","","","","","","<p><img src= images/blank.png width =""600"" height = ""600"" style=""position:fixed;top:50%; left:50%; transform: translate(-50%, -50%); border:5px solid black"">","","","","","","","",""
"","1167.8300000003364","sequential-stimulus-presentation-old","36","142885","0.0-13.0-1.2","SS1618435834866","trial","","40","500","1667.8300000003364","images/stimuli/spore_stims/simple_04_A_a.gif","images/stimuli/spore_stims/simple_14_A_b.gif","self_paced","","2","simple_dissimilar","images/stimuli/spore_stims/simple_04_A_a.gif","","","","",""
"","null","html-keyboard-response","37","144015","0.0-13.0-0.3","SS1618435834866","","","null","","","","","","<p><img src= images/blank.png width =""600"" height = ""600"" style=""position:fixed;top:50%; left:50%; transform: translate(-50%, -50%); border:5px solid black"">","","","","","","","",""
"","268.9450000016077","sequential-stimulus-presentation-old","38","144790","0.0-13.0-1.3","SS1618435834866","trial","","40","500","768.9450000016077","images/stimuli/spore_stims/simple_04_A_a.gif","images/stimuli/spore_stims/simple_14_A_b.gif","self_paced","","2","simple_dissimilar","images/stimuli/spore_stims/simple_14_A_b.gif","","","","",""
"","null","html-keyboard-response","39","145616","0.0-13.0-0.4","SS1618435834866","","","null","","","","","","<p><img src= images/blank.png width =""600"" height = ""600"" style=""position:fixed;top:50%; left:50%; transform: translate(-50%, -50%); border:5px solid black"">","","","","","","","",""
"","354.34999999962747","sequential-stimulus-presentation-old","40","146476","0.0-13.0-1.4","SS1618435834866","trial","","40","500","854.3499999996275","images/stimuli/spore_stims/simple_04_A_a.gif","images/stimuli/spore_stims/simple_14_A_b.gif","self_paced","","2","simple_dissimilar","images/stimuli/spore_stims/simple_04_A_a.gif","","","","",""
"","null","html-keyboard-response","41","147399","0.0-13.0-0.5","SS1618435834866","","","null","","","","","","<p><img src= images/blank.png width =""600"" height = ""600"" style=""position:fixed;top:50%; left:50%; transform: translate(-50%, -50%); border:5px solid black"">","","","","","","","",""
"","236.82999999984168","sequential-stimulus-presentation-old","42","148141","0.0-13.0-1.5","SS1618435834866","trial","","40","500","736.8299999998417","images/stimuli/spore_stims/simple_04_A_a.gif","images/stimuli/spore_stims/simple_14_A_b.gif","self_paced","","2","simple_dissimilar","images/stimuli/spore_stims/simple_14_A_b.gif","","","","",""
"","2751.524999999674","survey-multi-choice","43","150899","0.0-14.0","SS1618435834866","math_question","","","","","","","","","","","","{""Q0"":""15""}","[0]","15","",""
"","null","html-keyboard-response","44","151926","0.0-15.0-0.0","SS1618435834866","","","null","","","","","","<p><img src= images/blank.png width =""600"" height = ""600"" style=""position:fixed;top:50%; left:50%; transform: translate(-50%, -50%); border:5px solid black"">","","","","","","","",""
"","432.9550000001909","sequential-stimulus-presentation-old","45","152869","0.0-15.0-1.0","SS1618435834866","trial","","40","500","932.9550000001909","images/stimuli/spore_stims/complex_15_A_a.gif","images/stimuli/spore_stims/complex_04_A_b.gif","self_paced","","3","complex_dissimilar","images/stimuli/spore_stims/complex_04_A_b.gif","","","","",""
"","null","html-keyboard-response","46","153836","0.0-15.0-0.1","SS1618435834866","","","null","","","","","","<p><img src= images/blank.png width =""600"" height = ""600"" style=""position:fixed;top:50%; left:50%; transform: translate(-50%, -50%); border:5px solid black"">","","","","","","","",""
"","874.0900000011607","sequential-stimulus-presentation-old","47","155214","0.0-15.0-1.1","SS1618435834866","trial","","40","500","1374.0900000011607","images/stimuli/spore_stims/complex_15_A_a.gif","images/stimuli/spore_stims/complex_04_A_b.gif","self_paced","","3","complex_dissimilar","images/stimuli/spore_stims/complex_04_A_b.gif","","","","",""
"","null","html-keyboard-response","48","156354","0.0-15.0-0.2","SS1618435834866","","","null","","","","","","<p><img src= images/blank.png width =""600"" height = ""600"" style=""position:fixed;top:50%; left:50%; transform: translate(-50%, -50%); border:5px solid black"">","","","","","","","",""
"","983.4399999999732","sequential-stimulus-presentation-old","49","157845","0.0-15.0-1.2","SS1618435834866","trial","","40","500","1483.4399999999732","images/stimuli/spore_stims/complex_15_A_a.gif","images/stimuli/spore_stims/complex_04_A_b.gif","self_paced","","3","complex_dissimilar","images/stimuli/spore_stims/complex_04_A_b.gif","","","","",""
"","null","html-keyboard-response","50","159024","0.0-15.0-0.3","SS1618435834866","","","null","","","","","","<p><img src= images/blank.png width =""600"" height = ""600"" style=""position:fixed;top:50%; left:50%; transform: translate(-50%, -50%); border:5px solid black"">","","","","","","","",""
"","995.6249999995343","sequential-stimulus-presentation-old","51","160526","0.0-15.0-1.3","SS1618435834866","trial","","40","500","1495.6249999995343","images/stimuli/spore_stims/complex_15_A_a.gif","images/stimuli/spore_stims/complex_04_A_b.gif","self_paced","","3","complex_dissimilar","images/stimuli/spore_stims/complex_04_A_b.gif","","","","",""
"","null","html-keyboard-response","52","161459","0.0-15.0-0.4","SS1618435834866","","","null","","","","","","<p><img src= images/blank.png width =""600"" height = ""600"" style=""position:fixed;top:50%; left:50%; transform: translate(-50%, -50%); border:5px solid black"">","","","","","","","",""
"","280.4050000013376","sequential-stimulus-presentation-old","53","162246","0.0-15.0-1.4","SS1618435834866","trial","","40","500","780.4050000013376","images/stimuli/spore_stims/complex_15_A_a.gif","images/stimuli/spore_stims/complex_04_A_b.gif","self_paced","","3","complex_dissimilar","images/stimuli/spore_stims/complex_04_A_b.gif","","","","",""
"","null","html-keyboard-response","54","163274","0.0-15.0-0.5","SS1618435834866","","","null","","","","","","<p><img src= images/blank.png width =""600"" height = ""600"" style=""position:fixed;top:50%; left:50%; transform: translate(-50%, -50%); border:5px solid black"">","","","","","","","",""
"","650.7399999991176","sequential-stimulus-presentation-old","55","164429","0.0-15.0-1.5","SS1618435834866","trial","","40","500","1150.7399999991176","images/stimuli/spore_stims/complex_15_A_a.gif","images/stimuli/spore_stims/complex_04_A_b.gif","self_paced","","3","complex_dissimilar","images/stimuli/spore_stims/complex_04_A_b.gif","","","","",""
"","2891.369999999355","survey-multi-choice","56","167327","0.0-16.0","SS1618435834866","math_question","","","","","","","","","","","","{""Q0"":""14""}","[0]","14","",""
"","null","html-keyboard-response","57","168401","0.0-17.0-0.0","SS1618435834866","","","null","","","","","","<p><img src= images/blank.png width =""600"" height = ""600"" style=""position:fixed;top:50%; left:50%; transform: translate(-50%, -50%); border:5px solid black"">","","","","","","","",""
"","1067.004999998957","sequential-stimulus-presentation-old","58","169526","0.0-17.0-1.0","SS1618435834866","trial","","40","500","1567.004999998957","images/stimuli/spore_stims/simple_05_A_a.gif","images/stimuli/spore_stims/simple_17_A_b.gif","forced_short","","4","simple_dissimilar","images/stimuli/spore_stims/simple_17_A_b.gif","","","","",""
"","null","html-keyboard-response","59","170607","0.0-17.0-0.1","SS1618435834866","","","null","","","","","","<p><img src= images/blank.png width =""600"" height = ""600"" style=""position:fixed;top:50%; left:50%; transform: translate(-50%, -50%); border:5px solid black"">","","","","","","","",""
"","1069.2699999999604","sequential-stimulus-presentation-old","60","172182","0.0-17.0-1.1","SS1618435834866","trial","","40","500","1569.2699999999604","images/stimuli/spore_stims/simple_05_A_a.gif","images/stimuli/spore_stims/simple_17_A_b.gif","forced_short","","4","simple_dissimilar","images/stimuli/spore_stims/simple_17_A_b.gif","","","","",""
"","null","html-keyboard-response","61","173479","0.0-17.0-0.2","SS1618435834866","","","null","","","","","","<p><img src= images/blank.png width =""600"" height = ""600"" style=""position:fixed;top:50%; left:50%; transform: translate(-50%, -50%); border:5px solid black"">","","","","","","","",""
"","946.814999999362","sequential-stimulus-presentation-old","62","174933","0.0-17.0-1.2","SS1618435834866","trial","","40","500","1446.814999999362","images/stimuli/spore_stims/simple_05_A_a.gif","images/stimuli/spore_stims/simple_17_A_b.gif","forced_short","","4","simple_dissimilar","images/stimuli/spore_stims/simple_17_A_b.gif","","","","",""
"","null","html-keyboard-response","63","175989","0.0-17.0-0.3","SS1618435834866","","","null","","","","","","<p><img src= images/blank.png width =""600"" height = ""600"" style=""position:fixed;top:50%; left:50%; transform: translate(-50%, -50%); border:5px solid black"">","","","","","","","",""
"","850.8600000004517","sequential-stimulus-presentation-old","64","177350","0.0-17.0-1.3","SS1618435834866","trial","","40","500","1350.8600000004517","images/stimuli/spore_stims/simple_05_A_a.gif","images/stimuli/spore_stims/simple_17_A_b.gif","forced_short","","4","simple_dissimilar","images/stimuli/spore_stims/simple_17_A_b.gif","","","","",""
"","null","html-keyboard-response","65","178630","0.0-17.0-0.4","SS1618435834866","","","null","","","","","","<p><img src= images/blank.png width =""600"" height = ""600"" style=""position:fixed;top:50%; left:50%; transform: translate(-50%, -50%); border:5px solid black"">","","","","","","","",""
"","574.3000000002212","sequential-stimulus-presentation-old","66","179710","0.0-17.0-1.4","SS1618435834866","trial","","40","500","1074.3000000002212","images/stimuli/spore_stims/simple_05_A_a.gif","images/stimuli/spore_stims/simple_17_A_b.gif","forced_short","","4","simple_dissimilar","images/stimuli/spore_stims/simple_17_A_b.gif","","","","",""
"","null","html-keyboard-response","67","180755","0.0-17.0-0.5","SS1618435834866","","","null","","","","","","<p><img src= images/blank.png width =""600"" height = ""600"" style=""position:fixed;top:50%; left:50%; transform: translate(-50%, -50%); border:5px solid black"">","","","","","","","",""
"","895.4999999987194","sequential-stimulus-presentation-old","68","182157","0.0-17.0-1.5","SS1618435834866","trial","","40","500","1395.4999999987194","images/stimuli/spore_stims/simple_05_A_a.gif","images/stimuli/spore_stims/simple_17_A_b.gif","forced_short","","4","simple_dissimilar","images/stimuli/spore_stims/simple_17_A_b.gif","","","","",""
"","2624.594999999332","survey-multi-choice","69","184790","0.0-18.0","SS1618435834866","math_question","","","","","","","","","","","","{""Q0"":""10""}","[0]","10","",""
"","null","html-keyboard-response","70","185996","0.0-19.0-0.0","SS1618435834866","","","null","","","","","","<p><img src= images/blank.png width =""600"" height = ""600"" style=""position:fixed;top:50%; left:50%; transform: translate(-50%, -50%); border:5px solid black"">","","","","","","","",""
"","683.789999999135","sequential-stimulus-presentation-old","71","186741","0.0-19.0-1.0","SS1618435834866","trial","","40","500","1183.789999999135","images/stimuli/spore_stims/simple_19_A_a.gif","images/stimuli/spore_stims/simple_16_A_b.gif","forced_short","","5","simple_dissimilar","images/stimuli/spore_stims/simple_16_A_b.gif","","","","",""
"","null","html-keyboard-response","72","188031","0.0-19.0-0.1","SS1618435834866","","","null","","","","","","<p><img src= images/blank.png width =""600"" height = ""600"" style=""position:fixed;top:50%; left:50%; transform: translate(-50%, -50%); border:5px solid black"">","","","","","","","",""
"","137.94500000041444","sequential-stimulus-presentation-old","73","188678","0.0-19.0-1.1","SS1618435834866","trial","","40","500","637.9450000004144","images/stimuli/spore_stims/simple_19_A_a.gif","images/stimuli/spore_stims/simple_16_A_b.gif","forced_short","","5","simple_dissimilar","images/stimuli/spore_stims/simple_16_A_b.gif","","","","",""
"","null","html-keyboard-response","74","189867","0.0-19.0-0.2","SS1618435834866","","","null","","","","","","<p><img src= images/blank.png width =""600"" height = ""600"" style=""position:fixed;top:50%; left:50%; transform: translate(-50%, -50%); border:5px solid black"">","","","","","","","",""
"","43.689999998605344","sequential-stimulus-presentation-old","75","190421","0.0-19.0-1.2","SS1618435834866","trial","","40","500","543.6899999986053","images/stimuli/spore_stims/simple_19_A_a.gif","images/stimuli/spore_stims/simple_16_A_b.gif","forced_short","","5","simple_dissimilar","images/stimuli/spore_stims/simple_16_A_b.gif","","","","",""
"","null","html-keyboard-response","76","191514","0.0-19.0-0.3","SS1618435834866","","","null","","","","","","<p><img src= images/blank.png width =""600"" height = ""600"" style=""position:fixed;top:50%; left:50%; transform: translate(-50%, -50%); border:5px solid black"">","","","","","","","",""
"","54.08500000156346","sequential-stimulus-presentation-old","77","192077","0.0-19.0-1.3","SS1618435834866","trial","","40","500","554.0850000015635","images/stimuli/spore_stims/simple_19_A_a.gif","images/stimuli/spore_stims/simple_16_A_b.gif","forced_short","","5","simple_dissimilar","images/stimuli/spore_stims/simple_16_A_b.gif","","","","",""
"","null","html-keyboard-response","78","192923","0.0-19.0-0.4","SS1618435834866","","","null","","","","","","<p><img src= images/blank.png width =""600"" height = ""600"" style=""position:fixed;top:50%; left:50%; transform: translate(-50%, -50%); border:5px solid black"">","","","","","","","",""
"","467.04499999943073","sequential-stimulus-presentation-old","79","193902","0.0-19.0-1.4","SS1618435834866","trial","","40","500","967.0449999994307","images/stimuli/spore_stims/simple_19_A_a.gif","images/stimuli/spore_stims/simple_16_A_b.gif","forced_short","","5","simple_dissimilar","images/stimuli/spore_stims/simple_19_A_a.gif","","","","",""
"","2319.4700000003504","survey-multi-choice","80","196233","0.0-20.0","SS1618435834866","math_question","","","","","","","","","","","","{""Q0"":""11""}","[0]","11","",""
"","null","html-keyboard-response","81","197500","0.0-21.0-0.0","SS1618435834866","","","null","","","","","","<p><img src= images/blank.png width =""600"" height = ""600"" style=""position:fixed;top:50%; left:50%; transform: translate(-50%, -50%); border:5px solid black"">","","","","","","","",""
"","1043.5149999993737","sequential-stimulus-presentation-old","82","203557","0.0-21.0-1.0","SS1618435834866","trial","","40","500","1543.5149999993737","images/stimuli/spore_stims/complex_14_A_b.gif","images/stimuli/spore_stims/complex_05_A_a.gif","forced_long","","6","complex_dissimilar","images/stimuli/spore_stims/complex_05_A_a.gif","","","","",""
"","null","html-keyboard-response","83","204499","0.0-21.0-0.1","SS1618435834866","","","null","","","","","","<p><img src= images/blank.png width =""600"" height = ""600"" style=""position:fixed;top:50%; left:50%; transform: translate(-50%, -50%); border:5px solid black"">","","","","","","","",""
"","160.954999999376","sequential-stimulus-presentation-old","84","205165","0.0-21.0-1.1","SS1618435834866","trial","","40","500","660.954999999376","images/stimuli/spore_stims/complex_14_A_b.gif","images/stimuli/spore_stims/complex_05_A_a.gif","forced_long","","6","complex_dissimilar","images/stimuli/spore_stims/complex_05_A_a.gif","","","","",""
"","null","html-keyboard-response","85","206176","0.0-21.0-0.2","SS1618435834866","","","null","","","","","","<p><img src= images/blank.png width =""600"" height = ""600"" style=""position:fixed;top:50%; left:50%; transform: translate(-50%, -50%); border:5px solid black"">","","","","","","","",""
"","209.86999999877298","sequential-stimulus-presentation-old","86","206892","0.0-21.0-1.2","SS1618435834866","trial","","40","500","709.869999998773","images/stimuli/spore_stims/complex_14_A_b.gif","images/stimuli/spore_stims/complex_05_A_a.gif","forced_long","","6","complex_dissimilar","images/stimuli/spore_stims/complex_05_A_a.gif","","","","",""
"","null","html-keyboard-response","87","207761","0.0-21.0-0.3","SS1618435834866","","","null","","","","","","<p><img src= images/blank.png width =""600"" height = ""600"" style=""position:fixed;top:50%; left:50%; transform: translate(-50%, -50%); border:5px solid black"">","","","","","","","",""
"","258.7249999996857","sequential-stimulus-presentation-old","88","208525","0.0-21.0-1.3","SS1618435834866","trial","","40","500","758.7249999996857","images/stimuli/spore_stims/complex_14_A_b.gif","images/stimuli/spore_stims/complex_05_A_a.gif","forced_long","","6","complex_dissimilar","images/stimuli/spore_stims/complex_14_A_b.gif","","","","",""
"","null","html-keyboard-response","89","209531","0.0-21.0-0.4","SS1618435834866","","","null","","","","","","<p><img src= images/blank.png width =""600"" height = ""600"" style=""position:fixed;top:50%; left:50%; transform: translate(-50%, -50%); border:5px solid black"">","","","","","","","",""
"","185.7199999995064","sequential-stimulus-presentation-old","90","210222","0.0-21.0-1.4","SS1618435834866","trial","","40","500","685.7199999995064","images/stimuli/spore_stims/complex_14_A_b.gif","images/stimuli/spore_stims/complex_05_A_a.gif","forced_long","","6","complex_dissimilar","images/stimuli/spore_stims/complex_05_A_a.gif","","","","",""
"","null","html-keyboard-response","91","211197","0.0-21.0-0.5","SS1618435834866","","","null","","","","","","<p><img src= images/blank.png width =""600"" height = ""600"" style=""position:fixed;top:50%; left:50%; transform: translate(-50%, -50%); border:5px solid black"">","","","","","","","",""
"","1312.2300000013493","sequential-stimulus-presentation-old","92","213015","0.0-21.0-1.5","SS1618435834866","trial","","40","500","1812.2300000013493","images/stimuli/spore_stims/complex_14_A_b.gif","images/stimuli/spore_stims/complex_05_A_a.gif","forced_long","","6","complex_dissimilar","images/stimuli/spore_stims/complex_14_A_b.gif","","","","",""
"","2369.4950000008394","survey-multi-choice","93","215395","0.0-22.0","SS1618435834866","math_question","","","","","","","","","","","","{""Q0"":""8""}","[0]","8","",""
"","null","html-keyboard-response","94","216526","0.0-23.0-0.0","SS1618435834866","","","null","","","","","","<p><img src= images/blank.png width =""600"" height = ""600"" style=""position:fixed;top:50%; left:50%; transform: translate(-50%, -50%); border:5px solid black"">","","","","","","","",""
"","293.47000000052503","sequential-stimulus-presentation-old","95","221827","0.0-23.0-1.0","SS1618435834866","trial","","40","500","793.470000000525","images/stimuli/spore_stims/simple_20_A_b.gif","images/stimuli/spore_stims/simple_08_A_a.gif","forced_long","","7","simple_dissimilar","images/stimuli/spore_stims/simple_08_A_a.gif","","","","",""
"","null","html-keyboard-response","96","222686","0.0-23.0-0.1","SS1618435834866","","","null","","","","","","<p><img src= images/blank.png width =""600"" height = ""600"" style=""position:fixed;top:50%; left:50%; transform: translate(-50%, -50%); border:5px solid black"">","","","","","","","",""
"","1219.264999999723","sequential-stimulus-presentation-old","97","224415","0.0-23.0-1.1","SS1618435834866","trial","","40","500","1719.264999999723","images/stimuli/spore_stims/simple_20_A_b.gif","images/stimuli/spore_stims/simple_08_A_a.gif","forced_long","","7","simple_dissimilar","images/stimuli/spore_stims/simple_20_A_b.gif","","","","",""
"","null","html-keyboard-response","98","225518","0.0-23.0-0.2","SS1618435834866","","","null","","","","","","<p><img src= images/blank.png width =""600"" height = ""600"" style=""position:fixed;top:50%; left:50%; transform: translate(-50%, -50%); border:5px solid black"">","","","","","","","",""
"","679.2949999999255","sequential-stimulus-presentation-old","99","226710","0.0-23.0-1.2","SS1618435834866","trial","","40","500","1179.2949999999255","images/stimuli/spore_stims/simple_20_A_b.gif","images/stimuli/spore_stims/simple_08_A_a.gif","forced_long","","7","simple_dissimilar","images/stimuli/spore_stims/simple_20_A_b.gif","","","","",""
"","null","html-keyboard-response","100","227825","0.0-23.0-0.3","SS1618435834866","","","null","","","","","","<p><img src= images/blank.png width =""600"" height = ""600"" style=""position:fixed;top:50%; left:50%; transform: translate(-50%, -50%); border:5px solid black"">","","","","","","","",""
"","530.9450000004435","sequential-stimulus-presentation-old","101","228862","0.0-23.0-1.3","SS1618435834866","trial","","40","500","1030.9450000004435","images/stimuli/spore_stims/simple_20_A_b.gif","images/stimuli/spore_stims/simple_08_A_a.gif","forced_long","","7","simple_dissimilar","images/stimuli/spore_stims/simple_08_A_a.gif","","","","",""
"","2828.4899999998743","survey-multi-choice","102","231701","0.0-24.0","SS1618435834866","math_question","","","","","","","","","","","","{""Q0"":""4""}","[0]","4","",""
"","null","html-keyboard-response","103","232780","0.0-25.0-0.0","SS1618435834866","","","null","","","","","","<p><img src= images/blank.png width =""600"" height = ""600"" style=""position:fixed;top:50%; left:50%; transform: translate(-50%, -50%); border:5px solid black"">","","","","","","","",""
"","218.3800000002666","sequential-stimulus-presentation-old","104","233510","0.0-25.0-1.0","SS1618435834866","trial","","40","500","718.3800000002666","images/stimuli/spore_stims/simple_11_A_a.gif","images/stimuli/spore_stims/simple_01_A_b.gif","self_paced","","8","simple_dissimilar","images/stimuli/spore_stims/simple_01_A_b.gif","","","","",""
"","null","html-keyboard-response","105","234445","0.0-25.0-0.1","SS1618435834866","","","null","","","","","","<p><img src= images/blank.png width =""600"" height = ""600"" style=""position:fixed;top:50%; left:50%; transform: translate(-50%, -50%); border:5px solid black"">","","","","","","","",""
"","798.7600000015227","sequential-stimulus-presentation-old","106","235750","0.0-25.0-1.1","SS1618435834866","trial","","40","500","1298.7600000015227","images/stimuli/spore_stims/simple_11_A_a.gif","images/stimuli/spore_stims/simple_01_A_b.gif","self_paced","","8","simple_dissimilar","images/stimuli/spore_stims/simple_01_A_b.gif","","","","",""
"","null","html-keyboard-response","107","236742","0.0-25.0-0.2","SS1618435834866","","","null","","","","","","<p><img src= images/blank.png width =""600"" height = ""600"" style=""position:fixed;top:50%; left:50%; transform: translate(-50%, -50%); border:5px solid black"">","","","","","","","",""
"","549.6849999999686","sequential-stimulus-presentation-old","108","237798","0.0-25.0-1.2","SS1618435834866","trial","","40","500","1049.6849999999686","images/stimuli/spore_stims/simple_11_A_a.gif","images/stimuli/spore_stims/simple_01_A_b.gif","self_paced","","8","simple_dissimilar","images/stimuli/spore_stims/simple_01_A_b.gif","","","","",""
"","null","html-keyboard-response","109","238929","0.0-25.0-0.3","SS1618435834866","","","null","","","","","","<p><img src= images/blank.png width =""600"" height = ""600"" style=""position:fixed;top:50%; left:50%; transform: translate(-50%, -50%); border:5px solid black"">","","","","","","","",""
"","537.7050000006566","sequential-stimulus-presentation-old","110","239975","0.0-25.0-1.3","SS1618435834866","trial","","40","500","1037.7050000006566","images/stimuli/spore_stims/simple_11_A_a.gif","images/stimuli/spore_stims/simple_01_A_b.gif","self_paced","","8","simple_dissimilar","images/stimuli/spore_stims/simple_11_A_a.gif","","","","",""
"","3349.435000000056","survey-multi-choice","111","243333","0.0-26.0","SS1618435834866","math_question","","","","","","","","","","","","{""Q0"":""13""}","[0]","13","",""
"","null","html-keyboard-response","112","244643","0.0-27.0-0.0","SS1618435834866","","","null","","","","","","<p><img src= images/blank.png width =""600"" height = ""600"" style=""position:fixed;top:50%; left:50%; transform: translate(-50%, -50%); border:5px solid black"">","","","","","","","",""
"","2530.5900000003166","sequential-stimulus-presentation-old","113","247232","0.0-27.0-1.0","SS1618435834866","trial","","40","500","3030.5900000003166","images/stimuli/spore_stims/complex_11_A_a.gif","images/stimuli/spore_stims/complex_16_A_b.gif","forced_short","","9","complex_dissimilar","images/stimuli/spore_stims/complex_16_A_b.gif","","","","",""
"","null","html-keyboard-response","114","248171","0.0-27.0-0.1","SS1618435834866","","","null","","","","","","<p><img src= images/blank.png width =""600"" height = ""600"" style=""position:fixed;top:50%; left:50%; transform: translate(-50%, -50%); border:5px solid black"">","","","","","","","",""
"","762.6049999999232","sequential-stimulus-presentation-old","115","249446","0.0-27.0-1.1","SS1618435834866","trial","","40","500","1262.6049999999232","images/stimuli/spore_stims/complex_11_A_a.gif","images/stimuli/spore_stims/complex_16_A_b.gif","forced_short","","9","complex_dissimilar","images/stimuli/spore_stims/complex_16_A_b.gif","","","","",""
"","null","html-keyboard-response","116","250697","0.0-27.0-0.2","SS1618435834866","","","null","","","","","","<p><img src= images/blank.png width =""600"" height = ""600"" style=""position:fixed;top:50%; left:50%; transform: translate(-50%, -50%); border:5px solid black"">","","","","","","","",""
"","233.33000000094762","sequential-stimulus-presentation-old","117","251438","0.0-27.0-1.2","SS1618435834866","trial","","40","500","733.3300000009476","images/stimuli/spore_stims/complex_11_A_a.gif","images/stimuli/spore_stims/complex_16_A_b.gif","forced_short","","9","complex_dissimilar","images/stimuli/spore_stims/complex_16_A_b.gif","","","","",""
"","null","html-keyboard-response","118","252438","0.0-27.0-0.3","SS1618435834866","","","null","","","","","","<p><img src= images/blank.png width =""600"" height = ""600"" style=""position:fixed;top:50%; left:50%; transform: translate(-50%, -50%); border:5px solid black"">","","","","","","","",""
"","157.81000000057975","sequential-stimulus-presentation-old","119","253102","0.0-27.0-1.3","SS1618435834866","trial","","40","500","657.8100000005797","images/stimuli/spore_stims/complex_11_A_a.gif","images/stimuli/spore_stims/complex_16_A_b.gif","forced_short","","9","complex_dissimilar","images/stimuli/spore_stims/complex_16_A_b.gif","","","","",""
"","null","html-keyboard-response","120","254338","0.0-27.0-0.4","SS1618435834866","","","null","","","","","","<p><img src= images/blank.png width =""600"" height = ""600"" style=""position:fixed;top:50%; left:50%; transform: translate(-50%, -50%); border:5px solid black"">","","","","","","","",""
"","848.6499999999069","sequential-stimulus-presentation-old","121","255694","0.0-27.0-1.4","SS1618435834866","trial","","40","500","1348.6499999999069","images/stimuli/spore_stims/complex_11_A_a.gif","images/stimuli/spore_stims/complex_16_A_b.gif","forced_short","","9","complex_dissimilar","images/stimuli/spore_stims/complex_11_A_a.gif","","","","",""
"","2583.1900000012247","survey-multi-choice","122","258286","0.0-28.0","SS1618435834866","math_question","","","","","","","","","","","","{""Q0"":""11""}","[0]","11","",""
"","null","html-keyboard-response","123","259355","0.0-29.0-0.0","SS1618435834866","","","null","","","","","","<p><img src= images/blank.png width =""600"" height = ""600"" style=""position:fixed;top:50%; left:50%; transform: translate(-50%, -50%); border:5px solid black"">","","","","","","","",""
"","1017.3150000009919","sequential-stimulus-presentation-old","124","260431","0.0-29.0-1.0","SS1618435834866","trial","","40","500","1517.3150000009919","images/stimuli/spore_stims/complex_15_A_b.gif","images/stimuli/spore_stims/complex_13_A_a.gif","forced_short","","10","complex_dissimilar","images/stimuli/spore_stims/complex_13_A_a.gif","","","","",""
"","null","html-keyboard-response","125","261500","0.0-29.0-0.1","SS1618435834866","","","null","","","","","","<p><img src= images/blank.png width =""600"" height = ""600"" style=""position:fixed;top:50%; left:50%; transform: translate(-50%, -50%); border:5px solid black"">","","","","","","","",""
"","422.51000000035856","sequential-stimulus-presentation-old","126","262430","0.0-29.0-1.1","SS1618435834866","trial","","40","500","922.5100000003586","images/stimuli/spore_stims/complex_15_A_b.gif","images/stimuli/spore_stims/complex_13_A_a.gif","forced_short","","10","complex_dissimilar","images/stimuli/spore_stims/complex_13_A_a.gif","","","","",""
"","null","html-keyboard-response","127","263352","0.0-29.0-0.2","SS1618435834866","","","null","","","","","","<p><img src= images/blank.png width =""600"" height = ""600"" style=""position:fixed;top:50%; left:50%; transform: translate(-50%, -50%); border:5px solid black"">","","","","","","","",""
"","82.22500000009313","sequential-stimulus-presentation-old","128","263942","0.0-29.0-1.2","SS1618435834866","trial","","40","500","582.2250000000931","images/stimuli/spore_stims/complex_15_A_b.gif","images/stimuli/spore_stims/complex_13_A_a.gif","forced_short","","10","complex_dissimilar","images/stimuli/spore_stims/complex_13_A_a.gif","","","","",""
"","null","html-keyboard-response","129","264863","0.0-29.0-0.3","SS1618435834866","","","null","","","","","","<p><img src= images/blank.png width =""600"" height = ""600"" style=""position:fixed;top:50%; left:50%; transform: translate(-50%, -50%); border:5px solid black"">","","","","","","","",""
"","319.6250000000582","sequential-stimulus-presentation-old","130","265694","0.0-29.0-1.3","SS1618435834866","trial","","40","500","819.6250000000582","images/stimuli/spore_stims/complex_15_A_b.gif","images/stimuli/spore_stims/complex_13_A_a.gif","forced_short","","10","complex_dissimilar","images/stimuli/spore_stims/complex_15_A_b.gif","","","","",""
"","null","html-keyboard-response","131","266761","0.0-29.0-0.4","SS1618435834866","","","null","","","","","","<p><img src= images/blank.png width =""600"" height = ""600"" style=""position:fixed;top:50%; left:50%; transform: translate(-50%, -50%); border:5px solid black"">","","","","","","","",""
"","850.7600000011735","sequential-stimulus-presentation-old","132","268119","0.0-29.0-1.4","SS1618435834866","trial","","40","500","1350.7600000011735","images/stimuli/spore_stims/complex_15_A_b.gif","images/stimuli/spore_stims/complex_13_A_a.gif","forced_short","","10","complex_dissimilar","images/stimuli/spore_stims/complex_13_A_a.gif","","","","",""
"","null","html-keyboard-response","133","269128","0.0-29.0-0.5","SS1618435834866","","","null","","","","","","<p><img src= images/blank.png width =""600"" height = ""600"" style=""position:fixed;top:50%; left:50%; transform: translate(-50%, -50%); border:5px solid black"">","","","","","","","",""
"","574.5800000004238","sequential-stimulus-presentation-old","134","270214","0.0-29.0-1.5","SS1618435834866","trial","","40","500","1074.5800000004238","images/stimuli/spore_stims/complex_15_A_b.gif","images/stimuli/spore_stims/complex_13_A_a.gif","forced_short","","10","complex_dissimilar","images/stimuli/spore_stims/complex_13_A_a.gif","","","","",""
"","3060.224999999278","survey-multi-choice","135","273286","0.0-30.0","SS1618435834866","math_question","","","","","","","","","","","","{""Q0"":""7""}","[0]","7","",""
"","null","html-keyboard-response","136","274491","0.0-31.0-0.0","SS1618435834866","","","null","","","","","","<p><img src= images/blank.png width =""600"" height = ""600"" style=""position:fixed;top:50%; left:50%; transform: translate(-50%, -50%); border:5px solid black"">","","","","","","","",""
"","975.5449999993434","sequential-stimulus-presentation-old","137","275974","0.0-31.0-1.0","SS1618435834866","trial","","40","500","1475.5449999993434","images/stimuli/spore_stims/complex_12_A_a.gif","images/stimuli/spore_stims/complex_07_A_b.gif","self_paced","","11","complex_dissimilar","images/stimuli/spore_stims/complex_07_A_b.gif","","","","",""
"","null","html-keyboard-response","138","277213","0.0-31.0-0.1","SS1618435834866","","","null","","","","","","<p><img src= images/blank.png width =""600"" height = ""600"" style=""position:fixed;top:50%; left:50%; transform: translate(-50%, -50%); border:5px solid black"">","","","","","","","",""
"","882.6150000003981","sequential-stimulus-presentation-old","139","278607","0.0-31.0-1.1","SS1618435834866","trial","","40","500","1382.6150000003981","images/stimuli/spore_stims/complex_12_A_a.gif","images/stimuli/spore_stims/complex_07_A_b.gif","self_paced","","11","complex_dissimilar","images/stimuli/spore_stims/complex_07_A_b.gif","","","","",""
"","null","html-keyboard-response","140","279667","0.0-31.0-0.2","SS1618435834866","","","null","","","","","","<p><img src= images/blank.png width =""600"" height = ""600"" style=""position:fixed;top:50%; left:50%; transform: translate(-50%, -50%); border:5px solid black"">","","","","","","","",""
"","352.4500000003027","sequential-stimulus-presentation-old","141","280527","0.0-31.0-1.2","SS1618435834866","trial","","40","500","852.4500000003027","images/stimuli/spore_stims/complex_12_A_a.gif","images/stimuli/spore_stims/complex_07_A_b.gif","self_paced","","11","complex_dissimilar","images/stimuli/spore_stims/complex_07_A_b.gif","","","","",""
"","null","html-keyboard-response","142","281799","0.0-31.0-0.3","SS1618435834866","","","null","","","","","","<p><img src= images/blank.png width =""600"" height = ""600"" style=""position:fixed;top:50%; left:50%; transform: translate(-50%, -50%); border:5px solid black"">","","","","","","","",""
"","163.2200000003795","sequential-stimulus-presentation-old","143","282470","0.0-31.0-1.3","SS1618435834866","trial","","40","500","663.2200000003795","images/stimuli/spore_stims/complex_12_A_a.gif","images/stimuli/spore_stims/complex_07_A_b.gif","self_paced","","11","complex_dissimilar","images/stimuli/spore_stims/complex_07_A_b.gif","","","","",""
"","null","html-keyboard-response","144","283449","0.0-31.0-0.4","SS1618435834866","","","null","","","","","","<p><img src= images/blank.png width =""600"" height = ""600"" style=""position:fixed;top:50%; left:50%; transform: translate(-50%, -50%); border:5px solid black"">","","","","","","","",""
"","235.8700000004028","sequential-stimulus-presentation-old","145","284198","0.0-31.0-1.4","SS1618435834866","trial","","40","500","735.8700000004028","images/stimuli/spore_stims/complex_12_A_a.gif","images/stimuli/spore_stims/complex_07_A_b.gif","self_paced","","11","complex_dissimilar","images/stimuli/spore_stims/complex_07_A_b.gif","","","","",""
"","null","html-keyboard-response","146","285078","0.0-31.0-0.5","SS1618435834866","","","null","","","","","","<p><img src= images/blank.png width =""600"" height = ""600"" style=""position:fixed;top:50%; left:50%; transform: translate(-50%, -50%); border:5px solid black"">","","","","","","","",""
"","141.909999998461","sequential-stimulus-presentation-old","147","285727","0.0-31.0-1.5","SS1618435834866","trial","","40","500","641.909999998461","images/stimuli/spore_stims/complex_12_A_a.gif","images/stimuli/spore_stims/complex_07_A_b.gif","self_paced","","11","complex_dissimilar","images/stimuli/spore_stims/complex_07_A_b.gif","","","","",""
"[{""page_index"":0,""viewing_time"":3726.6600000002654}]","3727.5700000009383","instructions","148","289464","0.0-32.0","SS1618435834866","instructions","","","","","","","","","","","","","","","",""
"","7215.935000000172","survey-likert","149","296689","0.0-33.0","SS1618435834866","similarity_question","","","","","","","","","","","","{""Q0"":3}","[0]","","images/stimuli/spore_stims/complex_14_A_b.gif","images/stimuli/spore_stims/complex_05_A_a.gif"
"","4885.88499999966","survey-likert","150","301605","0.0-34.0","SS1618435834866","similarity_question","","","","","","","","","","","","{""Q0"":2}","[0]","","images/stimuli/spore_stims/simple_17_A_b.gif","images/stimuli/spore_stims/simple_05_A_a.gif"
"","4072.949999999779","survey-likert","151","305710","0.0-35.0","SS1618435834866","similarity_question","","","","","","","","","","","","{""Q0"":4}","[0]","","images/stimuli/spore_stims/simple_20_A_b.gif","images/stimuli/spore_stims/simple_08_A_a.gif"
"","7588.190000000352","survey-likert","152","313328","0.0-36.0","SS1618435834866","similarity_question","","","","","","","","","","","","{""Q0"":2}","[0]","","images/stimuli/spore_stims/complex_13_A_a.gif","images/stimuli/spore_stims/complex_15_A_b.gif"
"","3443.7449999986566","survey-likert","153","316803","0.0-37.0","SS1618435834866","similarity_question","","","","","","","","","","","","{""Q0"":1}","[0]","","images/stimuli/spore_stims/complex_07_A_b.gif","images/stimuli/spore_stims/complex_12_A_a.gif"
"","3387.125000001164","survey-likert","154","320223","0.0-38.0","SS1618435834866","similarity_question","","","","","","","","","","","","{""Q0"":1}","[0]","","images/stimuli/spore_stims/complex_16_A_b.gif","images/stimuli/spore_stims/complex_11_A_a.gif"
"","2962.289999999455","survey-likert","155","323216","0.0-39.0","SS1618435834866","similarity_question","","","","","","","","","","","","{""Q0"":2}","[0]","","images/stimuli/spore_stims/simple_11_A_a.gif","images/stimuli/spore_stims/simple_01_A_b.gif"
"","3031.2950000007404","survey-likert","156","326275","0.0-40.0","SS1618435834866","similarity_question","","","","","","","","","","","","{""Q0"":3}","[0]","","images/stimuli/spore_stims/simple_19_A_a.gif","images/stimuli/spore_stims/simple_16_A_b.gif"
"","3007.7250000013155","survey-likert","157","329313","0.0-41.0","SS1618435834866","similarity_question","","","","","","","","","","","","{""Q0"":4}","[0]","","images/stimuli/spore_stims/simple_04_A_a.gif","images/stimuli/spore_stims/simple_14_A_b.gif"
"","2568.1149999999907","survey-likert","158","331912","0.0-42.0","SS1618435834866","similarity_question","","","","","","","","","","","","{""Q0"":5}","[0]","","images/stimuli/spore_stims/simple_10_A_a.gif","images/stimuli/spore_stims/simple_09_A_b.gif"
"","3671.3099999997066","survey-likert","159","335614","0.0-43.0","SS1618435834866","similarity_question","","","","","","","","","","","","{""Q0"":2}","[0]","","images/stimuli/spore_stims/complex_15_A_a.gif","images/stimuli/spore_stims/complex_04_A_b.gif"
"","2635.544999999169","survey-likert","160","338280","0.0-44.0","SS1618435834866","similarity_question","","","","","","","","","","","","{""Q0"":1}","[0]","","images/stimuli/spore_stims/complex_13_A_b.gif","images/stimuli/spore_stims/complex_19_A_a.gif"
"[{""page_index"":0,""viewing_time"":4642.4200000001}]","4643.420000000333","instructions","161","342947","0.0-45.0","SS1618435834866","instructions","","","","","","","","","","","","","","","",""
"","4644.215000000317","survey-likert","162","347606","0.0-46.0","SS1618435834866","","","","","","","","","images/stimuli/spore_stims/simple_04_A_a.gif","","","","{""Q0"":1}","[0]","","",""
"","3740.2299999993993","survey-likert","163","351375","0.0-47.0","SS1618435834866","","","","","","","","","images/stimuli/spore_stims/simple_01_A_b.gif","","","","{""Q0"":0}","[0]","","",""
"","3819.864999999467","survey-likert","164","355223","0.0-48.0","SS1618435834866","","","","","","","","","images/stimuli/spore_stims/complex_13_A_b.gif","","","","{""Q0"":5}","[0]","","",""
"","2678.40500000061","survey-likert","165","357933","0.0-49.0","SS1618435834866","","","","","","","","","images/stimuli/spore_stims/complex_12_A_a.gif","","","","{""Q0"":6}","[0]","","",""
"","2294.0350000007893","survey-likert","166","360251","0.0-50.0","SS1618435834866","","","","","","","","","images/stimuli/spore_stims/complex_16_A_b.gif","","","","{""Q0"":5}","[0]","","",""
"","2254.2400000001653","survey-likert","167","362535","0.0-51.0","SS1618435834866","","","","","","","","","images/stimuli/spore_stims/simple_08_A_a.gif","","","","{""Q0"":1}","[0]","","",""
"","1892.0649999999441","survey-likert","168","364458","0.0-52.0","SS1618435834866","","","","","","","","","images/stimuli/spore_stims/complex_13_A_a.gif","","","","{""Q0"":5}","[0]","","",""
"","2760.524999999674","survey-likert","169","367249","0.0-53.0","SS1618435834866","","","","","","","","","images/stimuli/spore_stims/simple_19_A_a.gif","","","","{""Q0"":2}","[0]","","",""
"","2545.215000000084","survey-likert","170","369828","0.0-54.0","SS1618435834866","","","","","","","","","images/stimuli/spore_stims/complex_15_A_a.gif","","","","{""Q0"":6}","[0]","","",""
"","2958.544999999518","survey-likert","171","372817","0.0-55.0","SS1618435834866","","","","","","","","","images/stimuli/spore_stims/simple_09_A_b.gif","","","","{""Q0"":0}","[0]","","",""
"","3558.3000000006286","survey-likert","172","376406","0.0-56.0","SS1618435834866","","","","","","","","","images/stimuli/spore_stims/simple_17_A_b.gif","","","","{""Q0"":0}","[0]","","",""
"","3623.7750000000233","survey-likert","173","380063","0.0-57.0","SS1618435834866","","","","","","","","","images/stimuli/spore_stims/complex_05_A_a.gif","","","","{""Q0"":4}","[0]","","",""
"[{""page_index"":0,""viewing_time"":1846.1349999997765}]","1847.4800000003888","instructions","174","381942","0.0-58.0","SS1618435834866","instructions","","","","","","","","","","","","","","","",""
"","3203.1100000003935","demog-age","175","385170","0.0-59.0","SS1618435834866","","","","","","","","","","","","","{""age"":""33""}","","","",""
"","3184.1050000002724","demog-ethnic-US","176","388377","0.0-60.0","SS1618435834866","","","","","","","","","","","","","{""ethnicity"":[""White""]}","[0]","","",""
"","4029.869999998482","demog-gender-and-education","177","392439","0.0-61.0","SS1618435834866","","","","","","","","","","","","","{""gender"":""Male"",""education"":""Bachelor's Degree""}","[0,1]","","",""
"","12493.950000000012","survey-text","178","404971","0.0-62.0","SS1618435834866","feedback","","","","","","","","","","","","{""Q0"":""N/A""}","","","",""
"[{""page_index"":0,""viewing_time"":1221.970000000496}]","1222.9850000003353","instructions","179","406207","0.0-63.0","SS1618435834866","instructions","","","","","","","","","","","","","","","",""
