"view_history","rt","trial_type","trial_index","time_elapsed","internal_node_id","subject","stimulus_type","trial_stimulus","key_press","minimum_viewing_duration","trial_looking_time","block_deviant","block_background","exposure_type","stimulus","block_number","block_type","stimulus_displayed","responses","question_order","math_correct_answer","stimulus_left","stimulus_right"
"[{""page_index"":0,""viewing_time"":31349.869999976363}]","31351.610000012442","instructions","0","31355","0.0-0.0","SS1618365797386","","","","","","","","","","","","","","","","",""
"[{""page_index"":0,""viewing_time"":21215.855000016745},{""page_index"":1,""viewing_time"":7903.98499998264}]","29120.599999965634","instructions","1","62481","0.0-1.0","SS1618365797386","instructions","","","","","","","","","","","","","","","",""
"","12116.920000000391","sequential-stimulus-presentation-old","2","75104","0.0-2.0","SS1618365797386","","","40","500","12616.920000000391","null","null","self_paced","","","","","","","","",""
"","6943.970000022091","sequential-stimulus-presentation-old","3","82552","0.0-3.0","SS1618365797386","","","40","500","7443.970000022091","null","null","self_paced","","","","","","","","",""
"[{""page_index"":0,""viewing_time"":28814.459999965038}]","28814.97499998659","instructions","4","111368","0.0-4.0","SS1618365797386","instructions","","","","","","","","","","","","","","","",""
"","2012.0200000237674","sequential-stimulus-presentation-old","5","118385","0.0-5.0","SS1618365797386","","","40","500","2512.0200000237674","null","null","forced_long","","","","","","","","",""
"","4361.9549999712035","sequential-stimulus-presentation-old","6","122801","0.0-6.0","SS1618365797386","","","40","50","4411.9549999712035","null","null","forced_long","","","","","","","","",""
"[{""page_index"":0,""viewing_time"":9141.554999980144}]","9142.735000001267","instructions","7","131946","0.0-7.0","SS1618365797386","instructions","","","","","","","","","","","","","","","",""
"[{""page_index"":0,""viewing_time"":14221.194999990985},{""page_index"":1,""viewing_time"":19327.739999978803},{""page_index"":2,""viewing_time"":6871.474999992643},{""page_index"":3,""viewing_time"":2392.0149999903515},{""page_index"":4,""viewing_time"":2215.985000017099}]","45028.939999989234","instructions","8","176976","0.0-8.0","SS1618365797386","instructions","","","","","","","","","","","","","","","",""
"","null","html-keyboard-response","9","177987","0.0-9.0-0.0","SS1618365797386","","","null","","","","","","<p><img src= images/blank.png width =""600"" height = ""600"" style=""position:fixed;top:50%; left:50%; transform: translate(-50%, -50%); border:5px solid black"">","","","","","","","",""
"","799.170000012964","sequential-stimulus-presentation-old","10","183795","0.0-9.0-1.0","SS1618365797386","trial","","40","500","1299.170000012964","images/stimuli/spore_stims/complex_05_A_b.gif","images/stimuli/spore_stims/complex_17_A_a.gif","forced_long","","0","complex_dissimilar","images/stimuli/spore_stims/complex_17_A_a.gif","","","","",""
"","null","html-keyboard-response","11","184869","0.0-9.0-0.1","SS1618365797386","","","null","","","","","","<p><img src= images/blank.png width =""600"" height = ""600"" style=""position:fixed;top:50%; left:50%; transform: translate(-50%, -50%); border:5px solid black"">","","","","","","","",""
"","246377.1050000214","sequential-stimulus-presentation-old","12","431754","0.0-9.0-1.1","SS1618365797386","trial","","40","500","246877.1050000214","images/stimuli/spore_stims/complex_05_A_b.gif","images/stimuli/spore_stims/complex_17_A_a.gif","forced_long","","0","complex_dissimilar","images/stimuli/spore_stims/complex_17_A_a.gif","","","","",""
"","null","html-keyboard-response","13","432643","0.0-9.0-0.2","SS1618365797386","","","null","","","","","","<p><img src= images/blank.png width =""600"" height = ""600"" style=""position:fixed;top:50%; left:50%; transform: translate(-50%, -50%); border:5px solid black"">","","","","","","","",""
"","22491.459999990184","sequential-stimulus-presentation-old","14","455640","0.0-9.0-1.2","SS1618365797386","trial","","40","500","22991.459999990184","images/stimuli/spore_stims/complex_05_A_b.gif","images/stimuli/spore_stims/complex_17_A_a.gif","forced_long","","0","complex_dissimilar","images/stimuli/spore_stims/complex_17_A_a.gif","","","","",""
"","null","html-keyboard-response","15","456449","0.0-9.0-0.3","SS1618365797386","","","null","","","","","","<p><img src= images/blank.png width =""600"" height = ""600"" style=""position:fixed;top:50%; left:50%; transform: translate(-50%, -50%); border:5px solid black"">","","","","","","","",""
"","10961.039999965578","sequential-stimulus-presentation-old","16","467916","0.0-9.0-1.3","SS1618365797386","trial","","40","500","11461.039999965578","images/stimuli/spore_stims/complex_05_A_b.gif","images/stimuli/spore_stims/complex_17_A_a.gif","forced_long","","0","complex_dissimilar","images/stimuli/spore_stims/complex_05_A_b.gif","","","","",""
"","4435.385000018869","survey-multi-choice","17","472418","0.0-10.0","SS1618365797386","math_question","","","","","","","","","","","","{""Q0"":""7""}","[0]","7","",""
"","null","html-keyboard-response","18","473226","0.0-11.0-0.0","SS1618365797386","","","null","","","","","","<p><img src= images/blank.png width =""600"" height = ""600"" style=""position:fixed;top:50%; left:50%; transform: translate(-50%, -50%); border:5px solid black"">","","","","","","","",""
"","1058.6300000431947","sequential-stimulus-presentation-old","19","479297","0.0-11.0-1.0","SS1618365797386","trial","","40","500","1558.6300000431947","images/stimuli/spore_stims/simple_15_A_b.gif","images/stimuli/spore_stims/simple_14_A_a.gif","forced_long","","1","simple_dissimilar","images/stimuli/spore_stims/simple_14_A_a.gif","","","","",""
"","null","html-keyboard-response","20","480428","0.0-11.0-0.1","SS1618365797386","","","null","","","","","","<p><img src= images/blank.png width =""600"" height = ""600"" style=""position:fixed;top:50%; left:50%; transform: translate(-50%, -50%); border:5px solid black"">","","","","","","","",""
"","17099.400000006426","sequential-stimulus-presentation-old","21","498034","0.0-11.0-1.1","SS1618365797386","trial","","40","500","17599.400000006426","images/stimuli/spore_stims/simple_15_A_b.gif","images/stimuli/spore_stims/simple_14_A_a.gif","forced_long","","1","simple_dissimilar","images/stimuli/spore_stims/simple_15_A_b.gif","","","","",""
"","null","html-keyboard-response","22","499213","0.0-11.0-0.2","SS1618365797386","","","null","","","","","","<p><img src= images/blank.png width =""600"" height = ""600"" style=""position:fixed;top:50%; left:50%; transform: translate(-50%, -50%); border:5px solid black"">","","","","","","","",""
"","13256.899999978486","sequential-stimulus-presentation-old","23","512976","0.0-11.0-1.2","SS1618365797386","trial","","40","500","13756.899999978486","images/stimuli/spore_stims/simple_15_A_b.gif","images/stimuli/spore_stims/simple_14_A_a.gif","forced_long","","1","simple_dissimilar","images/stimuli/spore_stims/simple_14_A_a.gif","","","","",""
"","null","html-keyboard-response","24","514273","0.0-11.0-0.3","SS1618365797386","","","null","","","","","","<p><img src= images/blank.png width =""600"" height = ""600"" style=""position:fixed;top:50%; left:50%; transform: translate(-50%, -50%); border:5px solid black"">","","","","","","","",""
"","10278.775000013411","sequential-stimulus-presentation-old","25","525057","0.0-11.0-1.3","SS1618365797386","trial","","40","500","10778.775000013411","images/stimuli/spore_stims/simple_15_A_b.gif","images/stimuli/spore_stims/simple_14_A_a.gif","forced_long","","1","simple_dissimilar","images/stimuli/spore_stims/simple_14_A_a.gif","","","","",""
"","null","html-keyboard-response","26","525966","0.0-11.0-0.4","SS1618365797386","","","null","","","","","","<p><img src= images/blank.png width =""600"" height = ""600"" style=""position:fixed;top:50%; left:50%; transform: translate(-50%, -50%); border:5px solid black"">","","","","","","","",""
"","17641.56499999808","sequential-stimulus-presentation-old","27","544114","0.0-11.0-1.4","SS1618365797386","trial","","40","500","18141.56499999808","images/stimuli/spore_stims/simple_15_A_b.gif","images/stimuli/spore_stims/simple_14_A_a.gif","forced_long","","1","simple_dissimilar","images/stimuli/spore_stims/simple_15_A_b.gif","","","","",""
"","5121.615000010934","survey-multi-choice","28","549241","0.0-12.0","SS1618365797386","math_question","","","","","","","","","","","","{""Q0"":""14""}","[0]","14","",""
"","null","html-keyboard-response","29","550247","0.0-13.0-0.0","SS1618365797386","","","null","","","","","","<p><img src= images/blank.png width =""600"" height = ""600"" style=""position:fixed;top:50%; left:50%; transform: translate(-50%, -50%); border:5px solid black"">","","","","","","","",""
"","1339.96000001207","sequential-stimulus-presentation-old","30","551644","0.0-13.0-1.0","SS1618365797386","trial","","40","500","1839.96000001207","images/stimuli/spore_stims/complex_03_A_a.gif","images/stimuli/spore_stims/complex_12_A_b.gif","forced_short","","2","complex_dissimilar","images/stimuli/spore_stims/complex_12_A_b.gif","","","","",""
"","null","html-keyboard-response","31","552865","0.0-13.0-0.1","SS1618365797386","","","null","","","","","","<p><img src= images/blank.png width =""600"" height = ""600"" style=""position:fixed;top:50%; left:50%; transform: translate(-50%, -50%); border:5px solid black"">","","","","","","","",""
"","14152.189999993425","sequential-stimulus-presentation-old","32","567523","0.0-13.0-1.1","SS1618365797386","trial","","40","500","14652.189999993425","images/stimuli/spore_stims/complex_03_A_a.gif","images/stimuli/spore_stims/complex_12_A_b.gif","forced_short","","2","complex_dissimilar","images/stimuli/spore_stims/complex_12_A_b.gif","","","","",""
"","null","html-keyboard-response","33","568737","0.0-13.0-0.2","SS1618365797386","","","null","","","","","","<p><img src= images/blank.png width =""600"" height = ""600"" style=""position:fixed;top:50%; left:50%; transform: translate(-50%, -50%); border:5px solid black"">","","","","","","","",""
"","9620.01999997301","sequential-stimulus-presentation-old","34","578863","0.0-13.0-1.2","SS1618365797386","trial","","40","500","10120.01999997301","images/stimuli/spore_stims/complex_03_A_a.gif","images/stimuli/spore_stims/complex_12_A_b.gif","forced_short","","2","complex_dissimilar","images/stimuli/spore_stims/complex_12_A_b.gif","","","","",""
"","null","html-keyboard-response","35","579876","0.0-13.0-0.3","SS1618365797386","","","null","","","","","","<p><img src= images/blank.png width =""600"" height = ""600"" style=""position:fixed;top:50%; left:50%; transform: translate(-50%, -50%); border:5px solid black"">","","","","","","","",""
"","11295.699999958742","sequential-stimulus-presentation-old","36","591677","0.0-13.0-1.3","SS1618365797386","trial","","40","500","11795.699999958742","images/stimuli/spore_stims/complex_03_A_a.gif","images/stimuli/spore_stims/complex_12_A_b.gif","forced_short","","2","complex_dissimilar","images/stimuli/spore_stims/complex_03_A_a.gif","","","","",""
"","null","html-keyboard-response","37","592507","0.0-13.0-0.4","SS1618365797386","","","null","","","","","","<p><img src= images/blank.png width =""600"" height = ""600"" style=""position:fixed;top:50%; left:50%; transform: translate(-50%, -50%); border:5px solid black"">","","","","","","","",""
"","13358.699999982491","sequential-stimulus-presentation-old","38","606372","0.0-13.0-1.4","SS1618365797386","trial","","40","500","13858.699999982491","images/stimuli/spore_stims/complex_03_A_a.gif","images/stimuli/spore_stims/complex_12_A_b.gif","forced_short","","2","complex_dissimilar","images/stimuli/spore_stims/complex_03_A_a.gif","","","","",""
"","3361.080000002403","survey-multi-choice","39","609737","0.0-14.0","SS1618365797386","math_question","","","","","","","","","","","","{""Q0"":""10""}","[0]","10","",""
"","null","html-keyboard-response","40","610752","0.0-15.0-0.0","SS1618365797386","","","null","","","","","","<p><img src= images/blank.png width =""600"" height = ""600"" style=""position:fixed;top:50%; left:50%; transform: translate(-50%, -50%); border:5px solid black"">","","","","","","","",""
"","954.0500000002794","sequential-stimulus-presentation-old","41","616713","0.0-15.0-1.0","SS1618365797386","trial","","40","500","1454.0500000002794","images/stimuli/spore_stims/complex_07_A_b.gif","images/stimuli/spore_stims/complex_05_A_a.gif","forced_long","","3","complex_dissimilar","images/stimuli/spore_stims/complex_05_A_a.gif","","","","",""
"","null","html-keyboard-response","42","617629","0.0-15.0-0.1","SS1618365797386","","","null","","","","","","<p><img src= images/blank.png width =""600"" height = ""600"" style=""position:fixed;top:50%; left:50%; transform: translate(-50%, -50%); border:5px solid black"">","","","","","","","",""
"","11475.634999980684","sequential-stimulus-presentation-old","43","629611","0.0-15.0-1.1","SS1618365797386","trial","","40","500","11975.634999980684","images/stimuli/spore_stims/complex_07_A_b.gif","images/stimuli/spore_stims/complex_05_A_a.gif","forced_long","","3","complex_dissimilar","images/stimuli/spore_stims/complex_05_A_a.gif","","","","",""
"","null","html-keyboard-response","44","630604","0.0-15.0-0.2","SS1618365797386","","","null","","","","","","<p><img src= images/blank.png width =""600"" height = ""600"" style=""position:fixed;top:50%; left:50%; transform: translate(-50%, -50%); border:5px solid black"">","","","","","","","",""
"","23222.82499994617","sequential-stimulus-presentation-old","45","654332","0.0-15.0-1.2","SS1618365797386","trial","","40","500","23722.82499994617","images/stimuli/spore_stims/complex_07_A_b.gif","images/stimuli/spore_stims/complex_05_A_a.gif","forced_long","","3","complex_dissimilar","images/stimuli/spore_stims/complex_05_A_a.gif","","","","",""
"","null","html-keyboard-response","46","655439","0.0-15.0-0.3","SS1618365797386","","","null","","","","","","<p><img src= images/blank.png width =""600"" height = ""600"" style=""position:fixed;top:50%; left:50%; transform: translate(-50%, -50%); border:5px solid black"">","","","","","","","",""
"","12946.5949999867","sequential-stimulus-presentation-old","47","668893","0.0-15.0-1.3","SS1618365797386","trial","","40","500","13446.5949999867","images/stimuli/spore_stims/complex_07_A_b.gif","images/stimuli/spore_stims/complex_05_A_a.gif","forced_long","","3","complex_dissimilar","images/stimuli/spore_stims/complex_05_A_a.gif","","","","",""
"","null","html-keyboard-response","48","669900","0.0-15.0-0.4","SS1618365797386","","","null","","","","","","<p><img src= images/blank.png width =""600"" height = ""600"" style=""position:fixed;top:50%; left:50%; transform: translate(-50%, -50%); border:5px solid black"">","","","","","","","",""
"","9171.660000050906","sequential-stimulus-presentation-old","49","679578","0.0-15.0-1.4","SS1618365797386","trial","","40","500","9671.660000050906","images/stimuli/spore_stims/complex_07_A_b.gif","images/stimuli/spore_stims/complex_05_A_a.gif","forced_long","","3","complex_dissimilar","images/stimuli/spore_stims/complex_05_A_a.gif","","","","",""
"","3721.770000003744","survey-multi-choice","50","683305","0.0-16.0","SS1618365797386","math_question","","","","","","","","","","","","{""Q0"":""7""}","[0]","7","",""
"","null","html-keyboard-response","51","684445","0.0-17.0-0.0","SS1618365797386","","","null","","","","","","<p><img src= images/blank.png width =""600"" height = ""600"" style=""position:fixed;top:50%; left:50%; transform: translate(-50%, -50%); border:5px solid black"">","","","","","","","",""
"","7085.450000013225","sequential-stimulus-presentation-old","52","691587","0.0-17.0-1.0","SS1618365797386","trial","","40","500","7585.450000013225","images/stimuli/spore_stims/simple_10_A_b.gif","images/stimuli/spore_stims/simple_05_A_a.gif","forced_short","","4","simple_dissimilar","images/stimuli/spore_stims/simple_05_A_a.gif","","","","",""
"","null","html-keyboard-response","53","692799","0.0-17.0-0.1","SS1618365797386","","","null","","","","","","<p><img src= images/blank.png width =""600"" height = ""600"" style=""position:fixed;top:50%; left:50%; transform: translate(-50%, -50%); border:5px solid black"">","","","","","","","",""
"","18178.294999990612","sequential-stimulus-presentation-old","54","711489","0.0-17.0-1.1","SS1618365797386","trial","","40","500","18678.294999990612","images/stimuli/spore_stims/simple_10_A_b.gif","images/stimuli/spore_stims/simple_05_A_a.gif","forced_short","","4","simple_dissimilar","images/stimuli/spore_stims/simple_05_A_a.gif","","","","",""
"","null","html-keyboard-response","55","712301","0.0-17.0-0.2","SS1618365797386","","","null","","","","","","<p><img src= images/blank.png width =""600"" height = ""600"" style=""position:fixed;top:50%; left:50%; transform: translate(-50%, -50%); border:5px solid black"">","","","","","","","",""
"","15850.135000015143","sequential-stimulus-presentation-old","56","728659","0.0-17.0-1.2","SS1618365797386","trial","","40","500","16350.135000015143","images/stimuli/spore_stims/simple_10_A_b.gif","images/stimuli/spore_stims/simple_05_A_a.gif","forced_short","","4","simple_dissimilar","images/stimuli/spore_stims/simple_05_A_a.gif","","","","",""
"","null","html-keyboard-response","57","729856","0.0-17.0-0.3","SS1618365797386","","","null","","","","","","<p><img src= images/blank.png width =""600"" height = ""600"" style=""position:fixed;top:50%; left:50%; transform: translate(-50%, -50%); border:5px solid black"">","","","","","","","",""
"","11300.41500000516","sequential-stimulus-presentation-old","58","741663","0.0-17.0-1.3","SS1618365797386","trial","","40","500","11800.41500000516","images/stimuli/spore_stims/simple_10_A_b.gif","images/stimuli/spore_stims/simple_05_A_a.gif","forced_short","","4","simple_dissimilar","images/stimuli/spore_stims/simple_05_A_a.gif","","","","",""
"","null","html-keyboard-response","59","742851","0.0-17.0-0.4","SS1618365797386","","","null","","","","","","<p><img src= images/blank.png width =""600"" height = ""600"" style=""position:fixed;top:50%; left:50%; transform: translate(-50%, -50%); border:5px solid black"">","","","","","","","",""
"","14811.969999980647","sequential-stimulus-presentation-old","60","758170","0.0-17.0-1.4","SS1618365797386","trial","","40","500","15311.969999980647","images/stimuli/spore_stims/simple_10_A_b.gif","images/stimuli/spore_stims/simple_05_A_a.gif","forced_short","","4","simple_dissimilar","images/stimuli/spore_stims/simple_10_A_b.gif","","","","",""
"","null","html-keyboard-response","61","759362","0.0-17.0-0.5","SS1618365797386","","","null","","","","","","<p><img src= images/blank.png width =""600"" height = ""600"" style=""position:fixed;top:50%; left:50%; transform: translate(-50%, -50%); border:5px solid black"">","","","","","","","",""
"","13458.505000045989","sequential-stimulus-presentation-old","62","773328","0.0-17.0-1.5","SS1618365797386","trial","","40","500","13958.505000045989","images/stimuli/spore_stims/simple_10_A_b.gif","images/stimuli/spore_stims/simple_05_A_a.gif","forced_short","","4","simple_dissimilar","images/stimuli/spore_stims/simple_10_A_b.gif","","","","",""
"","3291.1549999844283","survey-multi-choice","63","776626","0.0-18.0","SS1618365797386","math_question","","","","","","","","","","","","{""Q0"":""9""}","[0]","9","",""
"","null","html-keyboard-response","64","777750","0.0-19.0-0.0","SS1618365797386","","","null","","","","","","<p><img src= images/blank.png width =""600"" height = ""600"" style=""position:fixed;top:50%; left:50%; transform: translate(-50%, -50%); border:5px solid black"">","","","","","","","",""
"","15770.129999960773","sequential-stimulus-presentation-old","65","794027","0.0-19.0-1.0","SS1618365797386","trial","","40","500","16270.129999960773","images/stimuli/spore_stims/simple_16_A_a.gif","images/stimuli/spore_stims/simple_07_A_b.gif","self_paced","","5","simple_dissimilar","images/stimuli/spore_stims/simple_07_A_b.gif","","","","",""
"","null","html-keyboard-response","66","795198","0.0-19.0-0.1","SS1618365797386","","","null","","","","","","<p><img src= images/blank.png width =""600"" height = ""600"" style=""position:fixed;top:50%; left:50%; transform: translate(-50%, -50%); border:5px solid black"">","","","","","","","",""
"","15692.645000002813","sequential-stimulus-presentation-old","67","811398","0.0-19.0-1.1","SS1618365797386","trial","","40","500","16192.645000002813","images/stimuli/spore_stims/simple_16_A_a.gif","images/stimuli/spore_stims/simple_07_A_b.gif","self_paced","","5","simple_dissimilar","images/stimuli/spore_stims/simple_07_A_b.gif","","","","",""
"","null","html-keyboard-response","68","812273","0.0-19.0-0.2","SS1618365797386","","","null","","","","","","<p><img src= images/blank.png width =""600"" height = ""600"" style=""position:fixed;top:50%; left:50%; transform: translate(-50%, -50%); border:5px solid black"">","","","","","","","",""
"","10148.764999990817","sequential-stimulus-presentation-old","69","822933","0.0-19.0-1.2","SS1618365797386","trial","","40","500","10648.764999990817","images/stimuli/spore_stims/simple_16_A_a.gif","images/stimuli/spore_stims/simple_07_A_b.gif","self_paced","","5","simple_dissimilar","images/stimuli/spore_stims/simple_07_A_b.gif","","","","",""
"","null","html-keyboard-response","70","824152","0.0-19.0-0.3","SS1618365797386","","","null","","","","","","<p><img src= images/blank.png width =""600"" height = ""600"" style=""position:fixed;top:50%; left:50%; transform: translate(-50%, -50%); border:5px solid black"">","","","","","","","",""
"","7828.030000033323","sequential-stimulus-presentation-old","71","832488","0.0-19.0-1.3","SS1618365797386","trial","","40","500","8328.030000033323","images/stimuli/spore_stims/simple_16_A_a.gif","images/stimuli/spore_stims/simple_07_A_b.gif","self_paced","","5","simple_dissimilar","images/stimuli/spore_stims/simple_07_A_b.gif","","","","",""
"","null","html-keyboard-response","72","833621","0.0-19.0-0.4","SS1618365797386","","","null","","","","","","<p><img src= images/blank.png width =""600"" height = ""600"" style=""position:fixed;top:50%; left:50%; transform: translate(-50%, -50%); border:5px solid black"">","","","","","","","",""
"","10096.049999992829","sequential-stimulus-presentation-old","73","844226","0.0-19.0-1.4","SS1618365797386","trial","","40","500","10596.049999992829","images/stimuli/spore_stims/simple_16_A_a.gif","images/stimuli/spore_stims/simple_07_A_b.gif","self_paced","","5","simple_dissimilar","images/stimuli/spore_stims/simple_07_A_b.gif","","","","",""
"","3817.5049999845214","survey-multi-choice","74","848048","0.0-20.0","SS1618365797386","math_question","","","","","","","","","","","","{""Q0"":""8""}","[0]","8","",""
"","null","html-keyboard-response","75","849075","0.0-21.0-0.0","SS1618365797386","","","null","","","","","","<p><img src= images/blank.png width =""600"" height = ""600"" style=""position:fixed;top:50%; left:50%; transform: translate(-50%, -50%); border:5px solid black"">","","","","","","","",""
"","5482.740000006743","sequential-stimulus-presentation-old","76","855064","0.0-21.0-1.0","SS1618365797386","trial","","40","500","5982.740000006743","images/stimuli/spore_stims/simple_03_A_a.gif","images/stimuli/spore_stims/simple_04_A_b.gif","self_paced","","6","simple_dissimilar","images/stimuli/spore_stims/simple_04_A_b.gif","","","","",""
"","null","html-keyboard-response","77","856070","0.0-21.0-0.1","SS1618365797386","","","null","","","","","","<p><img src= images/blank.png width =""600"" height = ""600"" style=""position:fixed;top:50%; left:50%; transform: translate(-50%, -50%); border:5px solid black"">","","","","","","","",""
"","7928.214999963529","sequential-stimulus-presentation-old","78","864505","0.0-21.0-1.1","SS1618365797386","trial","","40","500","8428.21499996353","images/stimuli/spore_stims/simple_03_A_a.gif","images/stimuli/spore_stims/simple_04_A_b.gif","self_paced","","6","simple_dissimilar","images/stimuli/spore_stims/simple_03_A_a.gif","","","","",""
"","null","html-keyboard-response","79","865806","0.0-21.0-0.2","SS1618365797386","","","null","","","","","","<p><img src= images/blank.png width =""600"" height = ""600"" style=""position:fixed;top:50%; left:50%; transform: translate(-50%, -50%); border:5px solid black"">","","","","","","","",""
"","10980.770000023767","sequential-stimulus-presentation-old","80","877294","0.0-21.0-1.2","SS1618365797386","trial","","40","500","11480.770000023767","images/stimuli/spore_stims/simple_03_A_a.gif","images/stimuli/spore_stims/simple_04_A_b.gif","self_paced","","6","simple_dissimilar","images/stimuli/spore_stims/simple_04_A_b.gif","","","","",""
"","null","html-keyboard-response","81","878160","0.0-21.0-0.3","SS1618365797386","","","null","","","","","","<p><img src= images/blank.png width =""600"" height = ""600"" style=""position:fixed;top:50%; left:50%; transform: translate(-50%, -50%); border:5px solid black"">","","","","","","","",""
"","10677.325000055134","sequential-stimulus-presentation-old","82","889345","0.0-21.0-1.3","SS1618365797386","trial","","40","500","11177.325000055134","images/stimuli/spore_stims/simple_03_A_a.gif","images/stimuli/spore_stims/simple_04_A_b.gif","self_paced","","6","simple_dissimilar","images/stimuli/spore_stims/simple_03_A_a.gif","","","","",""
"","null","html-keyboard-response","83","890379","0.0-21.0-0.4","SS1618365797386","","","null","","","","","","<p><img src= images/blank.png width =""600"" height = ""600"" style=""position:fixed;top:50%; left:50%; transform: translate(-50%, -50%); border:5px solid black"">","","","","","","","",""
"","4355.719999992289","sequential-stimulus-presentation-old","84","895242","0.0-21.0-1.4","SS1618365797386","trial","","40","500","4855.719999992289","images/stimuli/spore_stims/simple_03_A_a.gif","images/stimuli/spore_stims/simple_04_A_b.gif","self_paced","","6","simple_dissimilar","images/stimuli/spore_stims/simple_04_A_b.gif","","","","",""
"","6216.394999995828","survey-multi-choice","85","901464","0.0-22.0","SS1618365797386","math_question","","","","","","","","","","","","{""Q0"":""15""}","[0]","15","",""
"","null","html-keyboard-response","86","902692","0.0-23.0-0.0","SS1618365797386","","","null","","","","","","<p><img src= images/blank.png width =""600"" height = ""600"" style=""position:fixed;top:50%; left:50%; transform: translate(-50%, -50%); border:5px solid black"">","","","","","","","",""
"","606.5299999900162","sequential-stimulus-presentation-old","87","908307","0.0-23.0-1.0","SS1618365797386","trial","","40","500","1106.5299999900162","images/stimuli/spore_stims/simple_13_A_a.gif","images/stimuli/spore_stims/simple_19_A_b.gif","forced_long","","7","simple_dissimilar","images/stimuli/spore_stims/simple_19_A_b.gif","","","","",""
"","null","html-keyboard-response","88","909207","0.0-23.0-0.1","SS1618365797386","","","null","","","","","","<p><img src= images/blank.png width =""600"" height = ""600"" style=""position:fixed;top:50%; left:50%; transform: translate(-50%, -50%); border:5px solid black"">","","","","","","","",""
"","4996.889999951236","sequential-stimulus-presentation-old","89","914712","0.0-23.0-1.1","SS1618365797386","trial","","40","500","5496.889999951236","images/stimuli/spore_stims/simple_13_A_a.gif","images/stimuli/spore_stims/simple_19_A_b.gif","forced_long","","7","simple_dissimilar","images/stimuli/spore_stims/simple_19_A_b.gif","","","","",""
"","null","html-keyboard-response","90","915715","0.0-23.0-0.2","SS1618365797386","","","null","","","","","","<p><img src= images/blank.png width =""600"" height = ""600"" style=""position:fixed;top:50%; left:50%; transform: translate(-50%, -50%); border:5px solid black"">","","","","","","","",""
"","4676.5550000127405","sequential-stimulus-presentation-old","91","920900","0.0-23.0-1.2","SS1618365797386","trial","","40","500","5176.5550000127405","images/stimuli/spore_stims/simple_13_A_a.gif","images/stimuli/spore_stims/simple_19_A_b.gif","forced_long","","7","simple_dissimilar","images/stimuli/spore_stims/simple_19_A_b.gif","","","","",""
"","null","html-keyboard-response","92","921726","0.0-23.0-0.3","SS1618365797386","","","null","","","","","","<p><img src= images/blank.png width =""600"" height = ""600"" style=""position:fixed;top:50%; left:50%; transform: translate(-50%, -50%); border:5px solid black"">","","","","","","","",""
"","5768.160000036005","sequential-stimulus-presentation-old","93","928005","0.0-23.0-1.3","SS1618365797386","trial","","40","500","6268.160000036005","images/stimuli/spore_stims/simple_13_A_a.gif","images/stimuli/spore_stims/simple_19_A_b.gif","forced_long","","7","simple_dissimilar","images/stimuli/spore_stims/simple_19_A_b.gif","","","","",""
"","4629.795000015292","survey-multi-choice","94","932641","0.0-24.0","SS1618365797386","math_question","","","","","","","","","","","","{""Q0"":""11""}","[0]","11","",""
"","null","html-keyboard-response","95","933537","0.0-25.0-0.0","SS1618365797386","","","null","","","","","","<p><img src= images/blank.png width =""600"" height = ""600"" style=""position:fixed;top:50%; left:50%; transform: translate(-50%, -50%); border:5px solid black"">","","","","","","","",""
"","5755.030000000261","sequential-stimulus-presentation-old","96","939350","0.0-25.0-1.0","SS1618365797386","trial","","40","500","6255.030000000261","images/stimuli/spore_stims/complex_18_A_a.gif","images/stimuli/spore_stims/complex_01_A_b.gif","forced_short","","8","complex_dissimilar","images/stimuli/spore_stims/complex_01_A_b.gif","","","","",""
"","null","html-keyboard-response","97","940371","0.0-25.0-0.1","SS1618365797386","","","null","","","","","","<p><img src= images/blank.png width =""600"" height = ""600"" style=""position:fixed;top:50%; left:50%; transform: translate(-50%, -50%); border:5px solid black"">","","","","","","","",""
"","6501.845000020694","sequential-stimulus-presentation-old","98","947382","0.0-25.0-1.1","SS1618365797386","trial","","40","500","7001.845000020694","images/stimuli/spore_stims/complex_18_A_a.gif","images/stimuli/spore_stims/complex_01_A_b.gif","forced_short","","8","complex_dissimilar","images/stimuli/spore_stims/complex_01_A_b.gif","","","","",""
"","null","html-keyboard-response","99","948203","0.0-25.0-0.2","SS1618365797386","","","null","","","","","","<p><img src= images/blank.png width =""600"" height = ""600"" style=""position:fixed;top:50%; left:50%; transform: translate(-50%, -50%); border:5px solid black"">","","","","","","","",""
"","4848.944999976084","sequential-stimulus-presentation-old","100","953561","0.0-25.0-1.2","SS1618365797386","trial","","40","500","5348.944999976084","images/stimuli/spore_stims/complex_18_A_a.gif","images/stimuli/spore_stims/complex_01_A_b.gif","forced_short","","8","complex_dissimilar","images/stimuli/spore_stims/complex_01_A_b.gif","","","","",""
"","null","html-keyboard-response","101","954732","0.0-25.0-0.3","SS1618365797386","","","null","","","","","","<p><img src= images/blank.png width =""600"" height = ""600"" style=""position:fixed;top:50%; left:50%; transform: translate(-50%, -50%); border:5px solid black"">","","","","","","","",""
"","3519.5199999725446","sequential-stimulus-presentation-old","102","958761","0.0-25.0-1.3","SS1618365797386","trial","","40","500","4019.5199999725446","images/stimuli/spore_stims/complex_18_A_a.gif","images/stimuli/spore_stims/complex_01_A_b.gif","forced_short","","8","complex_dissimilar","images/stimuli/spore_stims/complex_01_A_b.gif","","","","",""
"","null","html-keyboard-response","103","959715","0.0-25.0-0.4","SS1618365797386","","","null","","","","","","<p><img src= images/blank.png width =""600"" height = ""600"" style=""position:fixed;top:50%; left:50%; transform: translate(-50%, -50%); border:5px solid black"">","","","","","","","",""
"","6113.6149999802","sequential-stimulus-presentation-old","104","966341","0.0-25.0-1.4","SS1618365797386","trial","","40","500","6613.6149999802","images/stimuli/spore_stims/complex_18_A_a.gif","images/stimuli/spore_stims/complex_01_A_b.gif","forced_short","","8","complex_dissimilar","images/stimuli/spore_stims/complex_01_A_b.gif","","","","",""
"","2829.4650000170805","survey-multi-choice","105","969177","0.0-26.0","SS1618365797386","math_question","","","","","","","","","","","","{""Q0"":""10""}","[0]","10","",""
"","null","html-keyboard-response","106","970092","0.0-27.0-0.0","SS1618365797386","","","null","","","","","","<p><img src= images/blank.png width =""600"" height = ""600"" style=""position:fixed;top:50%; left:50%; transform: translate(-50%, -50%); border:5px solid black"">","","","","","","","",""
"","5615.575000003446","sequential-stimulus-presentation-old","107","976216","0.0-27.0-1.0","SS1618365797386","trial","","40","500","6115.575000003446","images/stimuli/spore_stims/complex_09_A_b.gif","images/stimuli/spore_stims/complex_07_A_a.gif","self_paced","","9","complex_dissimilar","images/stimuli/spore_stims/complex_07_A_a.gif","","","","",""
"","null","html-keyboard-response","108","977396","0.0-27.0-0.1","SS1618365797386","","","null","","","","","","<p><img src= images/blank.png width =""600"" height = ""600"" style=""position:fixed;top:50%; left:50%; transform: translate(-50%, -50%); border:5px solid black"">","","","","","","","",""
"","4436.350000032689","sequential-stimulus-presentation-old","109","982341","0.0-27.0-1.1","SS1618365797386","trial","","40","500","4936.350000032689","images/stimuli/spore_stims/complex_09_A_b.gif","images/stimuli/spore_stims/complex_07_A_a.gif","self_paced","","9","complex_dissimilar","images/stimuli/spore_stims/complex_07_A_a.gif","","","","",""
"","null","html-keyboard-response","110","983456","0.0-27.0-0.2","SS1618365797386","","","null","","","","","","<p><img src= images/blank.png width =""600"" height = ""600"" style=""position:fixed;top:50%; left:50%; transform: translate(-50%, -50%); border:5px solid black"">","","","","","","","",""
"","4439.650000014808","sequential-stimulus-presentation-old","111","988405","0.0-27.0-1.2","SS1618365797386","trial","","40","500","4939.650000014808","images/stimuli/spore_stims/complex_09_A_b.gif","images/stimuli/spore_stims/complex_07_A_a.gif","self_paced","","9","complex_dissimilar","images/stimuli/spore_stims/complex_07_A_a.gif","","","","",""
"","null","html-keyboard-response","112","989317","0.0-27.0-0.3","SS1618365797386","","","null","","","","","","<p><img src= images/blank.png width =""600"" height = ""600"" style=""position:fixed;top:50%; left:50%; transform: translate(-50%, -50%); border:5px solid black"">","","","","","","","",""
"","6845.695000025444","sequential-stimulus-presentation-old","113","996673","0.0-27.0-1.3","SS1618365797386","trial","","40","500","7345.695000025444","images/stimuli/spore_stims/complex_09_A_b.gif","images/stimuli/spore_stims/complex_07_A_a.gif","self_paced","","9","complex_dissimilar","images/stimuli/spore_stims/complex_07_A_a.gif","","","","",""
"","4147.22000004258","survey-multi-choice","114","1000826","0.0-28.0","SS1618365797386","math_question","","","","","","","","","","","","{""Q0"":""9""}","[0]","9","",""
"","null","html-keyboard-response","115","1001941","0.0-29.0-0.0","SS1618365797386","","","null","","","","","","<p><img src= images/blank.png width =""600"" height = ""600"" style=""position:fixed;top:50%; left:50%; transform: translate(-50%, -50%); border:5px solid black"">","","","","","","","",""
"","2379.2450000182725","sequential-stimulus-presentation-old","116","1004378","0.0-29.0-1.0","SS1618365797386","trial","","40","500","2879.2450000182725","images/stimuli/spore_stims/simple_18_A_b.gif","images/stimuli/spore_stims/simple_19_A_a.gif","forced_short","","10","simple_dissimilar","images/stimuli/spore_stims/simple_19_A_a.gif","","","","",""
"","null","html-keyboard-response","117","1005668","0.0-29.0-0.1","SS1618365797386","","","null","","","","","","<p><img src= images/blank.png width =""600"" height = ""600"" style=""position:fixed;top:50%; left:50%; transform: translate(-50%, -50%); border:5px solid black"">","","","","","","","",""
"","4623.019999999087","sequential-stimulus-presentation-old","118","1010799","0.0-29.0-1.1","SS1618365797386","trial","","40","500","5123.019999999087","images/stimuli/spore_stims/simple_18_A_b.gif","images/stimuli/spore_stims/simple_19_A_a.gif","forced_short","","10","simple_dissimilar","images/stimuli/spore_stims/simple_19_A_a.gif","","","","",""
"","null","html-keyboard-response","119","1011938","0.0-29.0-0.2","SS1618365797386","","","null","","","","","","<p><img src= images/blank.png width =""600"" height = ""600"" style=""position:fixed;top:50%; left:50%; transform: translate(-50%, -50%); border:5px solid black"">","","","","","","","",""
"","6204.744999995455","sequential-stimulus-presentation-old","120","1018651","0.0-29.0-1.2","SS1618365797386","trial","","40","500","6704.744999995455","images/stimuli/spore_stims/simple_18_A_b.gif","images/stimuli/spore_stims/simple_19_A_a.gif","forced_short","","10","simple_dissimilar","images/stimuli/spore_stims/simple_19_A_a.gif","","","","",""
"","null","html-keyboard-response","121","1019547","0.0-29.0-0.3","SS1618365797386","","","null","","","","","","<p><img src= images/blank.png width =""600"" height = ""600"" style=""position:fixed;top:50%; left:50%; transform: translate(-50%, -50%); border:5px solid black"">","","","","","","","",""
"","4174.995000008494","sequential-stimulus-presentation-old","122","1024231","0.0-29.0-1.3","SS1618365797386","trial","","40","500","4674.995000008494","images/stimuli/spore_stims/simple_18_A_b.gif","images/stimuli/spore_stims/simple_19_A_a.gif","forced_short","","10","simple_dissimilar","images/stimuli/spore_stims/simple_19_A_a.gif","","","","",""
"","3362.599999993108","survey-multi-choice","123","1027601","0.0-30.0","SS1618365797386","math_question","","","","","","","","","","","","{""Q0"":""16""}","[0]","16","",""
"","null","html-keyboard-response","124","1028879","0.0-31.0-0.0","SS1618365797386","","","null","","","","","","<p><img src= images/blank.png width =""600"" height = ""600"" style=""position:fixed;top:50%; left:50%; transform: translate(-50%, -50%); border:5px solid black"">","","","","","","","",""
"","3790.9600000130013","sequential-stimulus-presentation-old","125","1033180","0.0-31.0-1.0","SS1618365797386","trial","","40","500","4290.960000013001","images/stimuli/spore_stims/complex_08_A_a.gif","images/stimuli/spore_stims/complex_13_A_b.gif","self_paced","","11","complex_dissimilar","images/stimuli/spore_stims/complex_13_A_b.gif","","","","",""
"","null","html-keyboard-response","126","1034374","0.0-31.0-0.1","SS1618365797386","","","null","","","","","","<p><img src= images/blank.png width =""600"" height = ""600"" style=""position:fixed;top:50%; left:50%; transform: translate(-50%, -50%); border:5px solid black"">","","","","","","","",""
"","6628.609999956097","sequential-stimulus-presentation-old","127","1041512","0.0-31.0-1.1","SS1618365797386","trial","","40","500","7128.609999956097","images/stimuli/spore_stims/complex_08_A_a.gif","images/stimuli/spore_stims/complex_13_A_b.gif","self_paced","","11","complex_dissimilar","images/stimuli/spore_stims/complex_08_A_a.gif","","","","",""
"","null","html-keyboard-response","128","1042808","0.0-31.0-0.2","SS1618365797386","","","null","","","","","","<p><img src= images/blank.png width =""600"" height = ""600"" style=""position:fixed;top:50%; left:50%; transform: translate(-50%, -50%); border:5px solid black"">","","","","","","","",""
"","7368.750000023283","sequential-stimulus-presentation-old","129","1050688","0.0-31.0-1.2","SS1618365797386","trial","","40","500","7868.750000023283","images/stimuli/spore_stims/complex_08_A_a.gif","images/stimuli/spore_stims/complex_13_A_b.gif","self_paced","","11","complex_dissimilar","images/stimuli/spore_stims/complex_13_A_b.gif","","","","",""
"","null","html-keyboard-response","130","1051535","0.0-31.0-0.3","SS1618365797386","","","null","","","","","","<p><img src= images/blank.png width =""600"" height = ""600"" style=""position:fixed;top:50%; left:50%; transform: translate(-50%, -50%); border:5px solid black"">","","","","","","","",""
"","5862.675000040326","sequential-stimulus-presentation-old","131","1057907","0.0-31.0-1.3","SS1618365797386","trial","","40","500","6362.675000040326","images/stimuli/spore_stims/complex_08_A_a.gif","images/stimuli/spore_stims/complex_13_A_b.gif","self_paced","","11","complex_dissimilar","images/stimuli/spore_stims/complex_13_A_b.gif","","","","",""
"","null","html-keyboard-response","132","1059108","0.0-31.0-0.4","SS1618365797386","","","null","","","","","","<p><img src= images/blank.png width =""600"" height = ""600"" style=""position:fixed;top:50%; left:50%; transform: translate(-50%, -50%); border:5px solid black"">","","","","","","","",""
"","5993.109999981243","sequential-stimulus-presentation-old","133","1065611","0.0-31.0-1.4","SS1618365797386","trial","","40","500","6493.109999981243","images/stimuli/spore_stims/complex_08_A_a.gif","images/stimuli/spore_stims/complex_13_A_b.gif","self_paced","","11","complex_dissimilar","images/stimuli/spore_stims/complex_13_A_b.gif","","","","",""
"","null","html-keyboard-response","134","1066650","0.0-31.0-0.5","SS1618365797386","","","null","","","","","","<p><img src= images/blank.png width =""600"" height = ""600"" style=""position:fixed;top:50%; left:50%; transform: translate(-50%, -50%); border:5px solid black"">","","","","","","","",""
"","11006.114999996498","sequential-stimulus-presentation-old","135","1078167","0.0-31.0-1.5","SS1618365797386","trial","","40","500","11506.114999996498","images/stimuli/spore_stims/complex_08_A_a.gif","images/stimuli/spore_stims/complex_13_A_b.gif","self_paced","","11","complex_dissimilar","images/stimuli/spore_stims/complex_08_A_a.gif","","","","",""
"[{""page_index"":0,""viewing_time"":5666.915000008885}]","5667.495000001509","instructions","136","1083840","0.0-32.0","SS1618365797386","instructions","","","","","","","","","","","","","","","",""
"","13977.019999991171","survey-likert","137","1097826","0.0-33.0","SS1618365797386","similarity_question","","","","","","","","","","","","{""Q0"":4}","[0]","","images/stimuli/spore_stims/simple_19_A_b.gif","images/stimuli/spore_stims/simple_13_A_a.gif"
"","11805.274999991525","survey-likert","138","1109641","0.0-34.0","SS1618365797386","similarity_question","","","","","","","","","","","","{""Q0"":2}","[0]","","images/stimuli/spore_stims/complex_07_A_b.gif","images/stimuli/spore_stims/complex_05_A_a.gif"
"","5677.604999975301","survey-likert","139","1115328","0.0-35.0","SS1618365797386","similarity_question","","","","","","","","","","","","{""Q0"":4}","[0]","","images/stimuli/spore_stims/simple_03_A_a.gif","images/stimuli/spore_stims/simple_04_A_b.gif"
"","7047.120000002906","survey-likert","140","1122386","0.0-36.0","SS1618365797386","similarity_question","","","","","","","","","","","","{""Q0"":5}","[0]","","images/stimuli/spore_stims/simple_05_A_a.gif","images/stimuli/spore_stims/simple_10_A_b.gif"
"","6172.889999987092","survey-likert","141","1128568","0.0-37.0","SS1618365797386","similarity_question","","","","","","","","","","","","{""Q0"":4}","[0]","","images/stimuli/spore_stims/complex_13_A_b.gif","images/stimuli/spore_stims/complex_08_A_a.gif"
"","4196.504999999888","survey-likert","142","1132780","0.0-38.0","SS1618365797386","similarity_question","","","","","","","","","","","","{""Q0"":3}","[0]","","images/stimuli/spore_stims/simple_18_A_b.gif","images/stimuli/spore_stims/simple_19_A_a.gif"
"","4913.345000008121","survey-likert","143","1137712","0.0-39.0","SS1618365797386","similarity_question","","","","","","","","","","","","{""Q0"":2}","[0]","","images/stimuli/spore_stims/simple_16_A_a.gif","images/stimuli/spore_stims/simple_07_A_b.gif"
"","8285.740000021178","survey-likert","144","1146009","0.0-40.0","SS1618365797386","similarity_question","","","","","","","","","","","","{""Q0"":1}","[0]","","images/stimuli/spore_stims/complex_05_A_b.gif","images/stimuli/spore_stims/complex_17_A_a.gif"
"","6532.230000011623","survey-likert","145","1152554","0.0-41.0","SS1618365797386","similarity_question","","","","","","","","","","","","{""Q0"":4}","[0]","","images/stimuli/spore_stims/complex_09_A_b.gif","images/stimuli/spore_stims/complex_07_A_a.gif"
"","6981.060000020079","survey-likert","146","1159544","0.0-42.0","SS1618365797386","similarity_question","","","","","","","","","","","","{""Q0"":4}","[0]","","images/stimuli/spore_stims/complex_18_A_a.gif","images/stimuli/spore_stims/complex_01_A_b.gif"
"","3165.324999950826","survey-likert","147","1162720","0.0-43.0","SS1618365797386","similarity_question","","","","","","","","","","","","{""Q0"":5}","[0]","","images/stimuli/spore_stims/simple_15_A_b.gif","images/stimuli/spore_stims/simple_14_A_a.gif"
"","5428.955000010319","survey-likert","148","1168161","0.0-44.0","SS1618365797386","similarity_question","","","","","","","","","","","","{""Q0"":2}","[0]","","images/stimuli/spore_stims/complex_12_A_b.gif","images/stimuli/spore_stims/complex_03_A_a.gif"
"[{""page_index"":0,""viewing_time"":7503.555000002962}]","7504.100000020117","instructions","149","1175672","0.0-45.0","SS1618365797386","instructions","","","","","","","","","","","","","","","",""
"","7276.145000010729","survey-likert","150","1182961","0.0-46.0","SS1618365797386","","","","","","","","","images/stimuli/spore_stims/complex_09_A_b.gif","","","","{""Q0"":5}","[0]","","",""
"","3654.144999978598","survey-likert","151","1186625","0.0-47.0","SS1618365797386","","","","","","","","","images/stimuli/spore_stims/simple_05_A_a.gif","","","","{""Q0"":0}","[0]","","",""
"","3510.46999997925","survey-likert","152","1190145","0.0-48.0","SS1618365797386","","","","","","","","","images/stimuli/spore_stims/complex_01_A_b.gif","","","","{""Q0"":5}","[0]","","",""
"","2876.4199999859557","survey-likert","153","1193032","0.0-49.0","SS1618365797386","","","","","","","","","images/stimuli/spore_stims/complex_12_A_b.gif","","","","{""Q0"":6}","[0]","","",""
"","4687.67499999376","survey-likert","154","1197729","0.0-50.0","SS1618365797386","","","","","","","","","images/stimuli/spore_stims/simple_15_A_b.gif","","","","{""Q0"":1}","[0]","","",""
"","4742.469999997411","survey-likert","155","1202481","0.0-51.0","SS1618365797386","","","","","","","","","images/stimuli/spore_stims/simple_04_A_b.gif","","","","{""Q0"":1}","[0]","","",""
"","4476.805000042077","survey-likert","156","1206970","0.0-52.0","SS1618365797386","","","","","","","","","images/stimuli/spore_stims/complex_08_A_a.gif","","","","{""Q0"":5}","[0]","","",""
"","5027.255000022706","survey-likert","157","1212008","0.0-53.0","SS1618365797386","","","","","","","","","images/stimuli/spore_stims/simple_18_A_b.gif","","","","{""Q0"":3}","[0]","","",""
"","3406.475000025239","survey-likert","158","1215425","0.0-54.0","SS1618365797386","","","","","","","","","images/stimuli/spore_stims/simple_19_A_b.gif","","","","{""Q0"":3}","[0]","","",""
"","3557.4999999953434","survey-likert","159","1218993","0.0-55.0","SS1618365797386","","","","","","","","","images/stimuli/spore_stims/complex_05_A_a.gif","","","","{""Q0"":4}","[0]","","",""
"","4123.044999956619","survey-likert","160","1223130","0.0-56.0","SS1618365797386","","","","","","","","","images/stimuli/spore_stims/complex_17_A_a.gif","","","","{""Q0"":4}","[0]","","",""
"","4810.019999975339","survey-likert","161","1227954","0.0-57.0","SS1618365797386","","","","","","","","","images/stimuli/spore_stims/simple_16_A_a.gif","","","","{""Q0"":2}","[0]","","",""
"[{""page_index"":0,""viewing_time"":2416.8250000220723}]","2417.4350000103004","instructions","162","1230384","0.0-58.0","SS1618365797386","instructions","","","","","","","","","","","","","","","",""
"","3043.7899999669753","demog-age","163","1233488","0.0-59.0","SS1618365797386","","","","","","","","","","","","","{""age"":""22""}","","","",""
"","8233.639999991283","demog-ethnic-US","164","1241868","0.0-60.0","SS1618365797386","","","","","","","","","","","","","{""ethnicity"":[""Hispanic or Latino"",""White""]}","[0]","","",""
"","30882.589999993797","demog-gender-and-education","165","1272761","0.0-61.0","SS1618365797386","","","","","","","","","","","","","{""gender"":""Male"",""education"":""High school diploma""}","[0,1]","","",""
"","52575.55000000866","survey-text","166","1325353","0.0-62.0","SS1618365797386","feedback","","","","","","","","","","","","{""Q0"":""Very few creatures actually dissapeared.""}","","","",""
"[{""page_index"":0,""viewing_time"":3808.2850000355393}]","3808.8100000168197","instructions","167","1329168","0.0-63.0","SS1618365797386","instructions","","","","","","","","","","","","","","","",""
