"view_history","rt","trial_type","trial_index","time_elapsed","internal_node_id","subject","stimulus_type","trial_stimulus","key_press","minimum_viewing_duration","trial_looking_time","block_deviant","block_background","exposure_type","stimulus","block_number","block_type","stimulus_displayed","responses","question_order","math_correct_answer","stimulus_left","stimulus_right"
"[{""page_index"":0,""viewing_time"":23979.965000005905}]","23982.2699999786","instructions","0","23984","0.0-0.0","SS1618435646437","","","","","","","","","","","","","","","","",""
"[{""page_index"":0,""viewing_time"":14945.355000032578},{""page_index"":1,""viewing_time"":9583.204999973532}]","24529.020000016317","instructions","1","50524","0.0-1.0","SS1618435646437","instructions","","","","","","","","","","","","","","","",""
"","11300.88000005344","sequential-stimulus-presentation-old","2","62332","0.0-2.0","SS1618435646437","","","40","500","11800.88000005344","null","null","self_paced","","","","","","","","",""
"","3671.2249999982305","sequential-stimulus-presentation-old","3","66507","0.0-3.0","SS1618435646437","","","40","500","4171.2249999982305","null","null","self_paced","","","","","","","","",""
"[{""page_index"":0,""viewing_time"":14234.415000013541}]","14234.914999979082","instructions","4","80744","0.0-4.0","SS1618435646437","instructions","","","","","","","","","","","","","","","",""
"","733.5899999598041","sequential-stimulus-presentation-old","5","86483","0.0-5.0","SS1618435646437","","","40","500","1233.5899999598041","null","null","forced_long","","","","","","","","",""
"","4906.979999970645","sequential-stimulus-presentation-old","6","91443","0.0-6.0","SS1618435646437","","","40","50","4956.979999970645","null","null","forced_long","","","","","","","","",""
"[{""page_index"":0,""viewing_time"":4963.815000024624}]","4964.170000050217","instructions","7","96409","0.0-7.0","SS1618435646437","instructions","","","","","","","","","","","","","","","",""
"[{""page_index"":0,""viewing_time"":8532.109999970999},{""page_index"":1,""viewing_time"":17302.160000021104},{""page_index"":2,""viewing_time"":4184.124999970663},{""page_index"":3,""viewing_time"":1640.3500000014901},{""page_index"":4,""viewing_time"":1535.715000005439}]","33194.86499996856","instructions","8","129605","0.0-8.0","SS1618435646437","instructions","","","","","","","","","","","","","","","",""
"","null","html-keyboard-response","9","130741","0.0-9.0-0.0","SS1618435646437","","","null","","","","","","<p><img src= images/blank.png width =""600"" height = ""600"" style=""position:fixed;top:50%; left:50%; transform: translate(-50%, -50%); border:5px solid black"">","","","","","","","",""
"","576.2199999880977","sequential-stimulus-presentation-old","10","136323","0.0-9.0-1.0","SS1618435646437","trial","","40","500","1076.2199999880977","images/stimuli/spore_stims/complex_04_A_a.gif","images/stimuli/spore_stims/complex_03_A_b.gif","forced_long","","0","complex_dissimilar","images/stimuli/spore_stims/complex_03_A_b.gif","","","","",""
"","null","html-keyboard-response","11","137584","0.0-9.0-0.1","SS1618435646437","","","null","","","","","","<p><img src= images/blank.png width =""600"" height = ""600"" style=""position:fixed;top:50%; left:50%; transform: translate(-50%, -50%); border:5px solid black"">","","","","","","","",""
"","2986.2300000386313","sequential-stimulus-presentation-old","12","141075","0.0-9.0-1.1","SS1618435646437","trial","","40","500","3486.2300000386313","images/stimuli/spore_stims/complex_04_A_a.gif","images/stimuli/spore_stims/complex_03_A_b.gif","forced_long","","0","complex_dissimilar","images/stimuli/spore_stims/complex_03_A_b.gif","","","","",""
"","null","html-keyboard-response","13","142014","0.0-9.0-0.2","SS1618435646437","","","null","","","","","","<p><img src= images/blank.png width =""600"" height = ""600"" style=""position:fixed;top:50%; left:50%; transform: translate(-50%, -50%); border:5px solid black"">","","","","","","","",""
"","5516.650000005029","sequential-stimulus-presentation-old","14","148043","0.0-9.0-1.2","SS1618435646437","trial","","40","500","6016.650000005029","images/stimuli/spore_stims/complex_04_A_a.gif","images/stimuli/spore_stims/complex_03_A_b.gif","forced_long","","0","complex_dissimilar","images/stimuli/spore_stims/complex_04_A_a.gif","","","","",""
"","null","html-keyboard-response","15","148930","0.0-9.0-0.3","SS1618435646437","","","null","","","","","","<p><img src= images/blank.png width =""600"" height = ""600"" style=""position:fixed;top:50%; left:50%; transform: translate(-50%, -50%); border:5px solid black"">","","","","","","","",""
"","1431.2599999830127","sequential-stimulus-presentation-old","16","150867","0.0-9.0-1.3","SS1618435646437","trial","","40","500","1931.2599999830127","images/stimuli/spore_stims/complex_04_A_a.gif","images/stimuli/spore_stims/complex_03_A_b.gif","forced_long","","0","complex_dissimilar","images/stimuli/spore_stims/complex_03_A_b.gif","","","","",""
"","3917.230000020936","survey-multi-choice","17","154788","0.0-10.0","SS1618435646437","math_question","","","","","","","","","","","","{""Q0"":""6""}","[0]","6","",""
"","null","html-keyboard-response","18","156058","0.0-11.0-0.0","SS1618435646437","","","null","","","","","","<p><img src= images/blank.png width =""600"" height = ""600"" style=""position:fixed;top:50%; left:50%; transform: translate(-50%, -50%); border:5px solid black"">","","","","","","","",""
"","2972.5849999813363","sequential-stimulus-presentation-old","19","159539","0.0-11.0-1.0","SS1618435646437","trial","","40","500","3472.5849999813363","images/stimuli/spore_stims/simple_08_A_b.gif","images/stimuli/spore_stims/simple_13_A_a.gif","self_paced","","1","simple_dissimilar","images/stimuli/spore_stims/simple_13_A_a.gif","","","","",""
"","null","html-keyboard-response","20","160764","0.0-11.0-0.1","SS1618435646437","","","null","","","","","","<p><img src= images/blank.png width =""600"" height = ""600"" style=""position:fixed;top:50%; left:50%; transform: translate(-50%, -50%); border:5px solid black"">","","","","","","","",""
"","3837.299999955576","sequential-stimulus-presentation-old","21","165108","0.0-11.0-1.1","SS1618435646437","trial","","40","500","4337.299999955576","images/stimuli/spore_stims/simple_08_A_b.gif","images/stimuli/spore_stims/simple_13_A_a.gif","self_paced","","1","simple_dissimilar","images/stimuli/spore_stims/simple_08_A_b.gif","","","","",""
"","null","html-keyboard-response","22","166045","0.0-11.0-0.2","SS1618435646437","","","null","","","","","","<p><img src= images/blank.png width =""600"" height = ""600"" style=""position:fixed;top:50%; left:50%; transform: translate(-50%, -50%); border:5px solid black"">","","","","","","","",""
"","2231.140000047162","sequential-stimulus-presentation-old","23","168788","0.0-11.0-1.2","SS1618435646437","trial","","40","500","2731.140000047162","images/stimuli/spore_stims/simple_08_A_b.gif","images/stimuli/spore_stims/simple_13_A_a.gif","self_paced","","1","simple_dissimilar","images/stimuli/spore_stims/simple_13_A_a.gif","","","","",""
"","null","html-keyboard-response","24","169964","0.0-11.0-0.3","SS1618435646437","","","null","","","","","","<p><img src= images/blank.png width =""600"" height = ""600"" style=""position:fixed;top:50%; left:50%; transform: translate(-50%, -50%); border:5px solid black"">","","","","","","","",""
"","1844.135000021197","sequential-stimulus-presentation-old","25","172324","0.0-11.0-1.3","SS1618435646437","trial","","40","500","2344.135000021197","images/stimuli/spore_stims/simple_08_A_b.gif","images/stimuli/spore_stims/simple_13_A_a.gif","self_paced","","1","simple_dissimilar","images/stimuli/spore_stims/simple_13_A_a.gif","","","","",""
"","5763.470000005327","survey-multi-choice","26","178090","0.0-12.0","SS1618435646437","math_question","","","","","","","","","","","","{""Q0"":""4""}","[0]","4","",""
"","null","html-keyboard-response","27","178999","0.0-13.0-0.0","SS1618435646437","","","null","","","","","","<p><img src= images/blank.png width =""600"" height = ""600"" style=""position:fixed;top:50%; left:50%; transform: translate(-50%, -50%); border:5px solid black"">","","","","","","","",""
"","8374.420000007376","sequential-stimulus-presentation-old","28","192379","0.0-13.0-1.0","SS1618435646437","trial","","40","500","8874.420000007376","images/stimuli/spore_stims/complex_10_A_a.gif","images/stimuli/spore_stims/complex_20_A_b.gif","forced_long","","2","complex_dissimilar","images/stimuli/spore_stims/complex_20_A_b.gif","","","","",""
"","null","html-keyboard-response","29","193428","0.0-13.0-0.1","SS1618435646437","","","null","","","","","","<p><img src= images/blank.png width =""600"" height = ""600"" style=""position:fixed;top:50%; left:50%; transform: translate(-50%, -50%); border:5px solid black"">","","","","","","","",""
"","6263.2400000002235","sequential-stimulus-presentation-old","30","200196","0.0-13.0-1.1","SS1618435646437","trial","","40","500","6763.2400000002235","images/stimuli/spore_stims/complex_10_A_a.gif","images/stimuli/spore_stims/complex_20_A_b.gif","forced_long","","2","complex_dissimilar","images/stimuli/spore_stims/complex_10_A_a.gif","","","","",""
"","null","html-keyboard-response","31","201218","0.0-13.0-0.2","SS1618435646437","","","null","","","","","","<p><img src= images/blank.png width =""600"" height = ""600"" style=""position:fixed;top:50%; left:50%; transform: translate(-50%, -50%); border:5px solid black"">","","","","","","","",""
"","3514.1200000070967","sequential-stimulus-presentation-old","32","205243","0.0-13.0-1.2","SS1618435646437","trial","","40","500","4014.1200000070967","images/stimuli/spore_stims/complex_10_A_a.gif","images/stimuli/spore_stims/complex_20_A_b.gif","forced_long","","2","complex_dissimilar","images/stimuli/spore_stims/complex_10_A_a.gif","","","","",""
"","null","html-keyboard-response","33","206284","0.0-13.0-0.3","SS1618435646437","","","null","","","","","","<p><img src= images/blank.png width =""600"" height = ""600"" style=""position:fixed;top:50%; left:50%; transform: translate(-50%, -50%); border:5px solid black"">","","","","","","","",""
"","2534.135000023525","sequential-stimulus-presentation-old","34","209323","0.0-13.0-1.3","SS1618435646437","trial","","40","500","3034.135000023525","images/stimuli/spore_stims/complex_10_A_a.gif","images/stimuli/spore_stims/complex_20_A_b.gif","forced_long","","2","complex_dissimilar","images/stimuli/spore_stims/complex_20_A_b.gif","","","","",""
"","null","html-keyboard-response","35","210246","0.0-13.0-0.4","SS1618435646437","","","null","","","","","","<p><img src= images/blank.png width =""600"" height = ""600"" style=""position:fixed;top:50%; left:50%; transform: translate(-50%, -50%); border:5px solid black"">","","","","","","","",""
"","3027.479999989737","sequential-stimulus-presentation-old","36","213788","0.0-13.0-1.4","SS1618435646437","trial","","40","500","3527.479999989737","images/stimuli/spore_stims/complex_10_A_a.gif","images/stimuli/spore_stims/complex_20_A_b.gif","forced_long","","2","complex_dissimilar","images/stimuli/spore_stims/complex_20_A_b.gif","","","","",""
"","4582.150000031106","survey-multi-choice","37","218375","0.0-14.0","SS1618435646437","math_question","","","","","","","","","","","","{""Q0"":""10""}","[0]","10","",""
"","null","html-keyboard-response","38","219547","0.0-15.0-0.0","SS1618435646437","","","null","","","","","","<p><img src= images/blank.png width =""600"" height = ""600"" style=""position:fixed;top:50%; left:50%; transform: translate(-50%, -50%); border:5px solid black"">","","","","","","","",""
"","10104.980000003707","sequential-stimulus-presentation-old","39","229707","0.0-15.0-1.0","SS1618435646437","trial","","40","500","10604.980000003707","images/stimuli/spore_stims/simple_05_A_a.gif","images/stimuli/spore_stims/simple_14_A_b.gif","forced_short","","3","simple_dissimilar","images/stimuli/spore_stims/simple_14_A_b.gif","","","","",""
"","null","html-keyboard-response","40","230657","0.0-15.0-0.1","SS1618435646437","","","null","","","","","","<p><img src= images/blank.png width =""600"" height = ""600"" style=""position:fixed;top:50%; left:50%; transform: translate(-50%, -50%); border:5px solid black"">","","","","","","","",""
"","3849.5899999979883","sequential-stimulus-presentation-old","41","235011","0.0-15.0-1.1","SS1618435646437","trial","","40","500","4349.589999997988","images/stimuli/spore_stims/simple_05_A_a.gif","images/stimuli/spore_stims/simple_14_A_b.gif","forced_short","","3","simple_dissimilar","images/stimuli/spore_stims/simple_14_A_b.gif","","","","",""
"","null","html-keyboard-response","42","235982","0.0-15.0-0.2","SS1618435646437","","","null","","","","","","<p><img src= images/blank.png width =""600"" height = ""600"" style=""position:fixed;top:50%; left:50%; transform: translate(-50%, -50%); border:5px solid black"">","","","","","","","",""
"","2275.514999986626","sequential-stimulus-presentation-old","43","238763","0.0-15.0-1.2","SS1618435646437","trial","","40","500","2775.514999986626","images/stimuli/spore_stims/simple_05_A_a.gif","images/stimuli/spore_stims/simple_14_A_b.gif","forced_short","","3","simple_dissimilar","images/stimuli/spore_stims/simple_05_A_a.gif","","","","",""
"","null","html-keyboard-response","44","239845","0.0-15.0-0.3","SS1618435646437","","","null","","","","","","<p><img src= images/blank.png width =""600"" height = ""600"" style=""position:fixed;top:50%; left:50%; transform: translate(-50%, -50%); border:5px solid black"">","","","","","","","",""
"","3093.7550000380725","sequential-stimulus-presentation-old","45","243443","0.0-15.0-1.3","SS1618435646437","trial","","40","500","3593.7550000380725","images/stimuli/spore_stims/simple_05_A_a.gif","images/stimuli/spore_stims/simple_14_A_b.gif","forced_short","","3","simple_dissimilar","images/stimuli/spore_stims/simple_14_A_b.gif","","","","",""
"","null","html-keyboard-response","46","244609","0.0-15.0-0.4","SS1618435646437","","","null","","","","","","<p><img src= images/blank.png width =""600"" height = ""600"" style=""position:fixed;top:50%; left:50%; transform: translate(-50%, -50%); border:5px solid black"">","","","","","","","",""
"","2393.8150000176392","sequential-stimulus-presentation-old","47","247507","0.0-15.0-1.4","SS1618435646437","trial","","40","500","2893.8150000176392","images/stimuli/spore_stims/simple_05_A_a.gif","images/stimuli/spore_stims/simple_14_A_b.gif","forced_short","","3","simple_dissimilar","images/stimuli/spore_stims/simple_05_A_a.gif","","","","",""
"","3428.635000018403","survey-multi-choice","48","250940","0.0-16.0","SS1618435646437","math_question","","","","","","","","","","","","{""Q0"":""11""}","[0]","11","",""
"","null","html-keyboard-response","49","251994","0.0-17.0-0.0","SS1618435646437","","","null","","","","","","<p><img src= images/blank.png width =""600"" height = ""600"" style=""position:fixed;top:50%; left:50%; transform: translate(-50%, -50%); border:5px solid black"">","","","","","","","",""
"","5768.709999974817","sequential-stimulus-presentation-old","50","258267","0.0-17.0-1.0","SS1618435646437","trial","","40","500","6268.709999974817","images/stimuli/spore_stims/simple_12_A_a.gif","images/stimuli/spore_stims/simple_11_A_b.gif","self_paced","","4","simple_dissimilar","images/stimuli/spore_stims/simple_11_A_b.gif","","","","",""
"","null","html-keyboard-response","51","259552","0.0-17.0-0.1","SS1618435646437","","","null","","","","","","<p><img src= images/blank.png width =""600"" height = ""600"" style=""position:fixed;top:50%; left:50%; transform: translate(-50%, -50%); border:5px solid black"">","","","","","","","",""
"","2172.5399999995716","sequential-stimulus-presentation-old","52","262235","0.0-17.0-1.1","SS1618435646437","trial","","40","500","2672.5399999995716","images/stimuli/spore_stims/simple_12_A_a.gif","images/stimuli/spore_stims/simple_11_A_b.gif","self_paced","","4","simple_dissimilar","images/stimuli/spore_stims/simple_11_A_b.gif","","","","",""
"","null","html-keyboard-response","53","263443","0.0-17.0-0.2","SS1618435646437","","","null","","","","","","<p><img src= images/blank.png width =""600"" height = ""600"" style=""position:fixed;top:50%; left:50%; transform: translate(-50%, -50%); border:5px solid black"">","","","","","","","",""
"","615.9350000089034","sequential-stimulus-presentation-old","54","264563","0.0-17.0-1.2","SS1618435646437","trial","","40","500","1115.9350000089034","images/stimuli/spore_stims/simple_12_A_a.gif","images/stimuli/spore_stims/simple_11_A_b.gif","self_paced","","4","simple_dissimilar","images/stimuli/spore_stims/simple_11_A_b.gif","","","","",""
"","null","html-keyboard-response","55","265868","0.0-17.0-0.3","SS1618435646437","","","null","","","","","","<p><img src= images/blank.png width =""600"" height = ""600"" style=""position:fixed;top:50%; left:50%; transform: translate(-50%, -50%); border:5px solid black"">","","","","","","","",""
"","2240.8249999862164","sequential-stimulus-presentation-old","56","268619","0.0-17.0-1.3","SS1618435646437","trial","","40","500","2740.8249999862164","images/stimuli/spore_stims/simple_12_A_a.gif","images/stimuli/spore_stims/simple_11_A_b.gif","self_paced","","4","simple_dissimilar","images/stimuli/spore_stims/simple_12_A_a.gif","","","","",""
"","null","html-keyboard-response","57","269440","0.0-17.0-0.4","SS1618435646437","","","null","","","","","","<p><img src= images/blank.png width =""600"" height = ""600"" style=""position:fixed;top:50%; left:50%; transform: translate(-50%, -50%); border:5px solid black"">","","","","","","","",""
"","1145.7449999870732","sequential-stimulus-presentation-old","58","271090","0.0-17.0-1.4","SS1618435646437","trial","","40","500","1645.7449999870732","images/stimuli/spore_stims/simple_12_A_a.gif","images/stimuli/spore_stims/simple_11_A_b.gif","self_paced","","4","simple_dissimilar","images/stimuli/spore_stims/simple_12_A_a.gif","","","","",""
"","4206.400000024587","survey-multi-choice","59","275299","0.0-18.0","SS1618435646437","math_question","","","","","","","","","","","","{""Q0"":""11""}","[0]","11","",""
"","null","html-keyboard-response","60","276137","0.0-19.0-0.0","SS1618435646437","","","null","","","","","","<p><img src= images/blank.png width =""600"" height = ""600"" style=""position:fixed;top:50%; left:50%; transform: translate(-50%, -50%); border:5px solid black"">","","","","","","","",""
"","12715.230000030715","sequential-stimulus-presentation-old","61","288907","0.0-19.0-1.0","SS1618435646437","trial","","40","500","13215.230000030715","images/stimuli/spore_stims/complex_14_A_a.gif","images/stimuli/spore_stims/complex_01_A_b.gif","forced_short","","5","complex_dissimilar","images/stimuli/spore_stims/complex_01_A_b.gif","","","","",""
"","null","html-keyboard-response","62","289732","0.0-19.0-0.1","SS1618435646437","","","null","","","","","","<p><img src= images/blank.png width =""600"" height = ""600"" style=""position:fixed;top:50%; left:50%; transform: translate(-50%, -50%); border:5px solid black"">","","","","","","","",""
"","7878.710000019055","sequential-stimulus-presentation-old","63","298115","0.0-19.0-1.1","SS1618435646437","trial","","40","500","8378.710000019055","images/stimuli/spore_stims/complex_14_A_a.gif","images/stimuli/spore_stims/complex_01_A_b.gif","forced_short","","5","complex_dissimilar","images/stimuli/spore_stims/complex_01_A_b.gif","","","","",""
"","null","html-keyboard-response","64","299430","0.0-19.0-0.2","SS1618435646437","","","null","","","","","","<p><img src= images/blank.png width =""600"" height = ""600"" style=""position:fixed;top:50%; left:50%; transform: translate(-50%, -50%); border:5px solid black"">","","","","","","","",""
"","3055.6999999680556","sequential-stimulus-presentation-old","65","303003","0.0-19.0-1.2","SS1618435646437","trial","","40","500","3555.6999999680556","images/stimuli/spore_stims/complex_14_A_a.gif","images/stimuli/spore_stims/complex_01_A_b.gif","forced_short","","5","complex_dissimilar","images/stimuli/spore_stims/complex_01_A_b.gif","","","","",""
"","null","html-keyboard-response","66","304114","0.0-19.0-0.3","SS1618435646437","","","null","","","","","","<p><img src= images/blank.png width =""600"" height = ""600"" style=""position:fixed;top:50%; left:50%; transform: translate(-50%, -50%); border:5px solid black"">","","","","","","","",""
"","13744.680000003427","sequential-stimulus-presentation-old","67","318363","0.0-19.0-1.3","SS1618435646437","trial","","40","500","14244.680000003427","images/stimuli/spore_stims/complex_14_A_a.gif","images/stimuli/spore_stims/complex_01_A_b.gif","forced_short","","5","complex_dissimilar","images/stimuli/spore_stims/complex_01_A_b.gif","","","","",""
"","null","html-keyboard-response","68","319640","0.0-19.0-0.4","SS1618435646437","","","null","","","","","","<p><img src= images/blank.png width =""600"" height = ""600"" style=""position:fixed;top:50%; left:50%; transform: translate(-50%, -50%); border:5px solid black"">","","","","","","","",""
"","323.499999998603","sequential-stimulus-presentation-old","69","320474","0.0-19.0-1.4","SS1618435646437","trial","","40","500","823.499999998603","images/stimuli/spore_stims/complex_14_A_a.gif","images/stimuli/spore_stims/complex_01_A_b.gif","forced_short","","5","complex_dissimilar","images/stimuli/spore_stims/complex_01_A_b.gif","","","","",""
"","null","html-keyboard-response","70","321423","0.0-19.0-0.5","SS1618435646437","","","null","","","","","","<p><img src= images/blank.png width =""600"" height = ""600"" style=""position:fixed;top:50%; left:50%; transform: translate(-50%, -50%); border:5px solid black"">","","","","","","","",""
"","1365.2200000360608","sequential-stimulus-presentation-old","71","323299","0.0-19.0-1.5","SS1618435646437","trial","","40","500","1865.2200000360608","images/stimuli/spore_stims/complex_14_A_a.gif","images/stimuli/spore_stims/complex_01_A_b.gif","forced_short","","5","complex_dissimilar","images/stimuli/spore_stims/complex_01_A_b.gif","","","","",""
"","5554.9299999838695","survey-multi-choice","72","328857","0.0-20.0","SS1618435646437","math_question","","","","","","","","","","","","{""Q0"":""7""}","[0]","7","",""
"","null","html-keyboard-response","73","329739","0.0-21.0-0.0","SS1618435646437","","","null","","","","","","<p><img src= images/blank.png width =""600"" height = ""600"" style=""position:fixed;top:50%; left:50%; transform: translate(-50%, -50%); border:5px solid black"">","","","","","","","",""
"","2225.4650000249967","sequential-stimulus-presentation-old","74","336970","0.0-21.0-1.0","SS1618435646437","trial","","40","500","2725.4650000249967","images/stimuli/spore_stims/simple_06_A_a.gif","images/stimuli/spore_stims/simple_05_A_b.gif","forced_long","","6","simple_dissimilar","images/stimuli/spore_stims/simple_05_A_b.gif","","","","",""
"","null","html-keyboard-response","75","338204","0.0-21.0-0.1","SS1618435646437","","","null","","","","","","<p><img src= images/blank.png width =""600"" height = ""600"" style=""position:fixed;top:50%; left:50%; transform: translate(-50%, -50%); border:5px solid black"">","","","","","","","",""
"","1270.5500000156462","sequential-stimulus-presentation-old","76","339979","0.0-21.0-1.1","SS1618435646437","trial","","40","500","1770.5500000156462","images/stimuli/spore_stims/simple_06_A_a.gif","images/stimuli/spore_stims/simple_05_A_b.gif","forced_long","","6","simple_dissimilar","images/stimuli/spore_stims/simple_05_A_b.gif","","","","",""
"","null","html-keyboard-response","77","340796","0.0-21.0-0.2","SS1618435646437","","","null","","","","","","<p><img src= images/blank.png width =""600"" height = ""600"" style=""position:fixed;top:50%; left:50%; transform: translate(-50%, -50%); border:5px solid black"">","","","","","","","",""
"","1949.3750000256114","sequential-stimulus-presentation-old","78","343251","0.0-21.0-1.2","SS1618435646437","trial","","40","500","2449.3750000256114","images/stimuli/spore_stims/simple_06_A_a.gif","images/stimuli/spore_stims/simple_05_A_b.gif","forced_long","","6","simple_dissimilar","images/stimuli/spore_stims/simple_06_A_a.gif","","","","",""
"","null","html-keyboard-response","79","344263","0.0-21.0-0.3","SS1618435646437","","","null","","","","","","<p><img src= images/blank.png width =""600"" height = ""600"" style=""position:fixed;top:50%; left:50%; transform: translate(-50%, -50%); border:5px solid black"">","","","","","","","",""
"","5087.765000003856","sequential-stimulus-presentation-old","80","349866","0.0-21.0-1.3","SS1618435646437","trial","","40","500","5587.765000003856","images/stimuli/spore_stims/simple_06_A_a.gif","images/stimuli/spore_stims/simple_05_A_b.gif","forced_long","","6","simple_dissimilar","images/stimuli/spore_stims/simple_05_A_b.gif","","","","",""
"","null","html-keyboard-response","81","350833","0.0-21.0-0.4","SS1618435646437","","","null","","","","","","<p><img src= images/blank.png width =""600"" height = ""600"" style=""position:fixed;top:50%; left:50%; transform: translate(-50%, -50%); border:5px solid black"">","","","","","","","",""
"","1045.140000001993","sequential-stimulus-presentation-old","82","352387","0.0-21.0-1.4","SS1618435646437","trial","","40","500","1545.140000001993","images/stimuli/spore_stims/simple_06_A_a.gif","images/stimuli/spore_stims/simple_05_A_b.gif","forced_long","","6","simple_dissimilar","images/stimuli/spore_stims/simple_06_A_a.gif","","","","",""
"","null","html-keyboard-response","83","353528","0.0-21.0-0.5","SS1618435646437","","","null","","","","","","<p><img src= images/blank.png width =""600"" height = ""600"" style=""position:fixed;top:50%; left:50%; transform: translate(-50%, -50%); border:5px solid black"">","","","","","","","",""
"","1330.240000039339","sequential-stimulus-presentation-old","84","355363","0.0-21.0-1.5","SS1618435646437","trial","","40","500","1830.240000039339","images/stimuli/spore_stims/simple_06_A_a.gif","images/stimuli/spore_stims/simple_05_A_b.gif","forced_long","","6","simple_dissimilar","images/stimuli/spore_stims/simple_05_A_b.gif","","","","",""
"","3906.060000008438","survey-multi-choice","85","359273","0.0-22.0","SS1618435646437","math_question","","","","","","","","","","","","{""Q0"":""13""}","[0]","13","",""
"","null","html-keyboard-response","86","360342","0.0-23.0-0.0","SS1618435646437","","","null","","","","","","<p><img src= images/blank.png width =""600"" height = ""600"" style=""position:fixed;top:50%; left:50%; transform: translate(-50%, -50%); border:5px solid black"">","","","","","","","",""
"","8035.8199999900535","sequential-stimulus-presentation-old","87","368435","0.0-23.0-1.0","SS1618435646437","trial","","40","500","8535.819999990053","images/stimuli/spore_stims/complex_05_A_b.gif","images/stimuli/spore_stims/complex_02_A_a.gif","forced_short","","7","complex_dissimilar","images/stimuli/spore_stims/complex_02_A_a.gif","","","","",""
"","null","html-keyboard-response","88","369723","0.0-23.0-0.1","SS1618435646437","","","null","","","","","","<p><img src= images/blank.png width =""600"" height = ""600"" style=""position:fixed;top:50%; left:50%; transform: translate(-50%, -50%); border:5px solid black"">","","","","","","","",""
"","1482.434999954421","sequential-stimulus-presentation-old","89","371715","0.0-23.0-1.1","SS1618435646437","trial","","40","500","1982.434999954421","images/stimuli/spore_stims/complex_05_A_b.gif","images/stimuli/spore_stims/complex_02_A_a.gif","forced_short","","7","complex_dissimilar","images/stimuli/spore_stims/complex_02_A_a.gif","","","","",""
"","null","html-keyboard-response","90","372982","0.0-23.0-0.2","SS1618435646437","","","null","","","","","","<p><img src= images/blank.png width =""600"" height = ""600"" style=""position:fixed;top:50%; left:50%; transform: translate(-50%, -50%); border:5px solid black"">","","","","","","","",""
"","2556.5349999815226","sequential-stimulus-presentation-old","91","376043","0.0-23.0-1.2","SS1618435646437","trial","","40","500","3056.5349999815226","images/stimuli/spore_stims/complex_05_A_b.gif","images/stimuli/spore_stims/complex_02_A_a.gif","forced_short","","7","complex_dissimilar","images/stimuli/spore_stims/complex_02_A_a.gif","","","","",""
"","null","html-keyboard-response","92","377071","0.0-23.0-0.3","SS1618435646437","","","null","","","","","","<p><img src= images/blank.png width =""600"" height = ""600"" style=""position:fixed;top:50%; left:50%; transform: translate(-50%, -50%); border:5px solid black"">","","","","","","","",""
"","1681.9799999939278","sequential-stimulus-presentation-old","93","379268","0.0-23.0-1.3","SS1618435646437","trial","","40","500","2181.979999993928","images/stimuli/spore_stims/complex_05_A_b.gif","images/stimuli/spore_stims/complex_02_A_a.gif","forced_short","","7","complex_dissimilar","images/stimuli/spore_stims/complex_02_A_a.gif","","","","",""
"","null","html-keyboard-response","94","380195","0.0-23.0-0.4","SS1618435646437","","","null","","","","","","<p><img src= images/blank.png width =""600"" height = ""600"" style=""position:fixed;top:50%; left:50%; transform: translate(-50%, -50%); border:5px solid black"">","","","","","","","",""
"","3485.820000001695","sequential-stimulus-presentation-old","95","384187","0.0-23.0-1.4","SS1618435646437","trial","","40","500","3985.820000001695","images/stimuli/spore_stims/complex_05_A_b.gif","images/stimuli/spore_stims/complex_02_A_a.gif","forced_short","","7","complex_dissimilar","images/stimuli/spore_stims/complex_05_A_b.gif","","","","",""
"","null","html-keyboard-response","96","385433","0.0-23.0-0.5","SS1618435646437","","","null","","","","","","<p><img src= images/blank.png width =""600"" height = ""600"" style=""position:fixed;top:50%; left:50%; transform: translate(-50%, -50%); border:5px solid black"">","","","","","","","",""
"","4430.799999972805","sequential-stimulus-presentation-old","97","390379","0.0-23.0-1.5","SS1618435646437","trial","","40","500","4930.799999972805","images/stimuli/spore_stims/complex_05_A_b.gif","images/stimuli/spore_stims/complex_02_A_a.gif","forced_short","","7","complex_dissimilar","images/stimuli/spore_stims/complex_02_A_a.gif","","","","",""
"","3351.6449999879114","survey-multi-choice","98","393735","0.0-24.0","SS1618435646437","math_question","","","","","","","","","","","","{""Q0"":""12""}","[0]","12","",""
"","null","html-keyboard-response","99","394933","0.0-25.0-0.0","SS1618435646437","","","null","","","","","","<p><img src= images/blank.png width =""600"" height = ""600"" style=""position:fixed;top:50%; left:50%; transform: translate(-50%, -50%); border:5px solid black"">","","","","","","","",""
"","4587.775000021793","sequential-stimulus-presentation-old","100","400027","0.0-25.0-1.0","SS1618435646437","trial","","40","500","5087.775000021793","images/stimuli/spore_stims/complex_13_A_a.gif","images/stimuli/spore_stims/complex_17_A_b.gif","self_paced","","8","complex_dissimilar","images/stimuli/spore_stims/complex_17_A_b.gif","","","","",""
"","null","html-keyboard-response","101","401236","0.0-25.0-0.1","SS1618435646437","","","null","","","","","","<p><img src= images/blank.png width =""600"" height = ""600"" style=""position:fixed;top:50%; left:50%; transform: translate(-50%, -50%); border:5px solid black"">","","","","","","","",""
"","1749.0950000355951","sequential-stimulus-presentation-old","102","403491","0.0-25.0-1.1","SS1618435646437","trial","","40","500","2249.095000035595","images/stimuli/spore_stims/complex_13_A_a.gif","images/stimuli/spore_stims/complex_17_A_b.gif","self_paced","","8","complex_dissimilar","images/stimuli/spore_stims/complex_17_A_b.gif","","","","",""
"","null","html-keyboard-response","103","404555","0.0-25.0-0.2","SS1618435646437","","","null","","","","","","<p><img src= images/blank.png width =""600"" height = ""600"" style=""position:fixed;top:50%; left:50%; transform: translate(-50%, -50%); border:5px solid black"">","","","","","","","",""
"","982.3050000122748","sequential-stimulus-presentation-old","104","406043","0.0-25.0-1.2","SS1618435646437","trial","","40","500","1482.3050000122748","images/stimuli/spore_stims/complex_13_A_a.gif","images/stimuli/spore_stims/complex_17_A_b.gif","self_paced","","8","complex_dissimilar","images/stimuli/spore_stims/complex_17_A_b.gif","","","","",""
"","null","html-keyboard-response","105","407131","0.0-25.0-0.3","SS1618435646437","","","null","","","","","","<p><img src= images/blank.png width =""600"" height = ""600"" style=""position:fixed;top:50%; left:50%; transform: translate(-50%, -50%); border:5px solid black"">","","","","","","","",""
"","3814.345000020694","sequential-stimulus-presentation-old","106","411450","0.0-25.0-1.3","SS1618435646437","trial","","40","500","4314.345000020694","images/stimuli/spore_stims/complex_13_A_a.gif","images/stimuli/spore_stims/complex_17_A_b.gif","self_paced","","8","complex_dissimilar","images/stimuli/spore_stims/complex_13_A_a.gif","","","","",""
"","null","html-keyboard-response","107","412266","0.0-25.0-0.4","SS1618435646437","","","null","","","","","","<p><img src= images/blank.png width =""600"" height = ""600"" style=""position:fixed;top:50%; left:50%; transform: translate(-50%, -50%); border:5px solid black"">","","","","","","","",""
"","1289.8050000076182","sequential-stimulus-presentation-old","108","414067","0.0-25.0-1.4","SS1618435646437","trial","","40","500","1789.8050000076182","images/stimuli/spore_stims/complex_13_A_a.gif","images/stimuli/spore_stims/complex_17_A_b.gif","self_paced","","8","complex_dissimilar","images/stimuli/spore_stims/complex_13_A_a.gif","","","","",""
"","3212.7849999815226","survey-multi-choice","109","417285","0.0-26.0","SS1618435646437","math_question","","","","","","","","","","","","{""Q0"":""6""}","[0]","6","",""
"","null","html-keyboard-response","110","418273","0.0-27.0-0.0","SS1618435646437","","","null","","","","","","<p><img src= images/blank.png width =""600"" height = ""600"" style=""position:fixed;top:50%; left:50%; transform: translate(-50%, -50%); border:5px solid black"">","","","","","","","",""
"","3839.174999971874","sequential-stimulus-presentation-old","111","422618","0.0-27.0-1.0","SS1618435646437","trial","","40","500","4339.174999971874","images/stimuli/spore_stims/complex_07_A_a.gif","images/stimuli/spore_stims/complex_12_A_b.gif","self_paced","","9","complex_dissimilar","images/stimuli/spore_stims/complex_12_A_b.gif","","","","",""
"","null","html-keyboard-response","112","423866","0.0-27.0-0.1","SS1618435646437","","","null","","","","","","<p><img src= images/blank.png width =""600"" height = ""600"" style=""position:fixed;top:50%; left:50%; transform: translate(-50%, -50%); border:5px solid black"">","","","","","","","",""
"","943.2700000470504","sequential-stimulus-presentation-old","113","425331","0.0-27.0-1.1","SS1618435646437","trial","","40","500","1443.2700000470504","images/stimuli/spore_stims/complex_07_A_a.gif","images/stimuli/spore_stims/complex_12_A_b.gif","self_paced","","9","complex_dissimilar","images/stimuli/spore_stims/complex_12_A_b.gif","","","","",""
"","null","html-keyboard-response","114","426547","0.0-27.0-0.2","SS1618435646437","","","null","","","","","","<p><img src= images/blank.png width =""600"" height = ""600"" style=""position:fixed;top:50%; left:50%; transform: translate(-50%, -50%); border:5px solid black"">","","","","","","","",""
"","1399.9949999852106","sequential-stimulus-presentation-old","115","428458","0.0-27.0-1.2","SS1618435646437","trial","","40","500","1899.9949999852106","images/stimuli/spore_stims/complex_07_A_a.gif","images/stimuli/spore_stims/complex_12_A_b.gif","self_paced","","9","complex_dissimilar","images/stimuli/spore_stims/complex_07_A_a.gif","","","","",""
"","null","html-keyboard-response","116","429473","0.0-27.0-0.3","SS1618435646437","","","null","","","","","","<p><img src= images/blank.png width =""600"" height = ""600"" style=""position:fixed;top:50%; left:50%; transform: translate(-50%, -50%); border:5px solid black"">","","","","","","","",""
"","311.7999999667518","sequential-stimulus-presentation-old","117","430290","0.0-27.0-1.3","SS1618435646437","trial","","40","500","811.7999999667518","images/stimuli/spore_stims/complex_07_A_a.gif","images/stimuli/spore_stims/complex_12_A_b.gif","self_paced","","9","complex_dissimilar","images/stimuli/spore_stims/complex_12_A_b.gif","","","","",""
"","null","html-keyboard-response","118","431104","0.0-27.0-0.4","SS1618435646437","","","null","","","","","","<p><img src= images/blank.png width =""600"" height = ""600"" style=""position:fixed;top:50%; left:50%; transform: translate(-50%, -50%); border:5px solid black"">","","","","","","","",""
"","889.3899999675341","sequential-stimulus-presentation-old","119","432509","0.0-27.0-1.4","SS1618435646437","trial","","40","500","1389.389999967534","images/stimuli/spore_stims/complex_07_A_a.gif","images/stimuli/spore_stims/complex_12_A_b.gif","self_paced","","9","complex_dissimilar","images/stimuli/spore_stims/complex_07_A_a.gif","","","","",""
"","null","html-keyboard-response","120","433330","0.0-27.0-0.5","SS1618435646437","","","null","","","","","","<p><img src= images/blank.png width =""600"" height = ""600"" style=""position:fixed;top:50%; left:50%; transform: translate(-50%, -50%); border:5px solid black"">","","","","","","","",""
"","1414.359999995213","sequential-stimulus-presentation-old","121","435250","0.0-27.0-1.5","SS1618435646437","trial","","40","500","1914.359999995213","images/stimuli/spore_stims/complex_07_A_a.gif","images/stimuli/spore_stims/complex_12_A_b.gif","self_paced","","9","complex_dissimilar","images/stimuli/spore_stims/complex_12_A_b.gif","","","","",""
"","2637.6849999651313","survey-multi-choice","122","437890","0.0-28.0","SS1618435646437","math_question","","","","","","","","","","","","{""Q0"":""6""}","[0]","6","",""
"","null","html-keyboard-response","123","438699","0.0-29.0-0.0","SS1618435646437","","","null","","","","","","<p><img src= images/blank.png width =""600"" height = ""600"" style=""position:fixed;top:50%; left:50%; transform: translate(-50%, -50%); border:5px solid black"">","","","","","","","",""
"","1552.6450000470504","sequential-stimulus-presentation-old","124","440306","0.0-29.0-1.0","SS1618435646437","trial","","40","500","2052.6450000470504","images/stimuli/spore_stims/simple_04_A_b.gif","images/stimuli/spore_stims/simple_02_A_a.gif","forced_short","","10","simple_dissimilar","images/stimuli/spore_stims/simple_02_A_a.gif","","","","",""
"","null","html-keyboard-response","125","441500","0.0-29.0-0.1","SS1618435646437","","","null","","","","","","<p><img src= images/blank.png width =""600"" height = ""600"" style=""position:fixed;top:50%; left:50%; transform: translate(-50%, -50%); border:5px solid black"">","","","","","","","",""
"","1050.9650000021793","sequential-stimulus-presentation-old","126","443058","0.0-29.0-1.1","SS1618435646437","trial","","40","500","1550.9650000021793","images/stimuli/spore_stims/simple_04_A_b.gif","images/stimuli/spore_stims/simple_02_A_a.gif","forced_short","","10","simple_dissimilar","images/stimuli/spore_stims/simple_04_A_b.gif","","","","",""
"","null","html-keyboard-response","127","443934","0.0-29.0-0.2","SS1618435646437","","","null","","","","","","<p><img src= images/blank.png width =""600"" height = ""600"" style=""position:fixed;top:50%; left:50%; transform: translate(-50%, -50%); border:5px solid black"">","","","","","","","",""
"","595.4950000159442","sequential-stimulus-presentation-old","128","445035","0.0-29.0-1.2","SS1618435646437","trial","","40","500","1095.4950000159442","images/stimuli/spore_stims/simple_04_A_b.gif","images/stimuli/spore_stims/simple_02_A_a.gif","forced_short","","10","simple_dissimilar","images/stimuli/spore_stims/simple_02_A_a.gif","","","","",""
"","null","html-keyboard-response","129","445974","0.0-29.0-0.3","SS1618435646437","","","null","","","","","","<p><img src= images/blank.png width =""600"" height = ""600"" style=""position:fixed;top:50%; left:50%; transform: translate(-50%, -50%); border:5px solid black"">","","","","","","","",""
"","68.14500002656132","sequential-stimulus-presentation-old","130","446546","0.0-29.0-1.3","SS1618435646437","trial","","40","500","568.1450000265613","images/stimuli/spore_stims/simple_04_A_b.gif","images/stimuli/spore_stims/simple_02_A_a.gif","forced_short","","10","simple_dissimilar","images/stimuli/spore_stims/simple_02_A_a.gif","","","","",""
"","null","html-keyboard-response","131","447588","0.0-29.0-0.4","SS1618435646437","","","null","","","","","","<p><img src= images/blank.png width =""600"" height = ""600"" style=""position:fixed;top:50%; left:50%; transform: translate(-50%, -50%); border:5px solid black"">","","","","","","","",""
"","45.519999985117465","sequential-stimulus-presentation-old","132","448147","0.0-29.0-1.4","SS1618435646437","trial","","40","500","545.5199999851175","images/stimuli/spore_stims/simple_04_A_b.gif","images/stimuli/spore_stims/simple_02_A_a.gif","forced_short","","10","simple_dissimilar","images/stimuli/spore_stims/simple_04_A_b.gif","","","","",""
"","4042.1450000139885","survey-multi-choice","133","452194","0.0-30.0","SS1618435646437","math_question","","","","","","","","","","","","{""Q0"":""6""}","[0]","6","",""
"","null","html-keyboard-response","134","453031","0.0-31.0-0.0","SS1618435646437","","","null","","","","","","<p><img src= images/blank.png width =""600"" height = ""600"" style=""position:fixed;top:50%; left:50%; transform: translate(-50%, -50%); border:5px solid black"">","","","","","","","",""
"","421.5499999700114","sequential-stimulus-presentation-old","135","458459","0.0-31.0-1.0","SS1618435646437","trial","","40","500","921.5499999700114","images/stimuli/spore_stims/simple_18_A_b.gif","images/stimuli/spore_stims/simple_04_A_a.gif","forced_long","","11","simple_dissimilar","images/stimuli/spore_stims/simple_04_A_a.gif","","","","",""
"","null","html-keyboard-response","136","459487","0.0-31.0-0.1","SS1618435646437","","","null","","","","","","<p><img src= images/blank.png width =""600"" height = ""600"" style=""position:fixed;top:50%; left:50%; transform: translate(-50%, -50%); border:5px solid black"">","","","","","","","",""
"","896.0749999969266","sequential-stimulus-presentation-old","137","460898","0.0-31.0-1.1","SS1618435646437","trial","","40","500","1396.0749999969266","images/stimuli/spore_stims/simple_18_A_b.gif","images/stimuli/spore_stims/simple_04_A_a.gif","forced_long","","11","simple_dissimilar","images/stimuli/spore_stims/simple_04_A_a.gif","","","","",""
"","null","html-keyboard-response","138","462092","0.0-31.0-0.2","SS1618435646437","","","null","","","","","","<p><img src= images/blank.png width =""600"" height = ""600"" style=""position:fixed;top:50%; left:50%; transform: translate(-50%, -50%); border:5px solid black"">","","","","","","","",""
"","116.34000000776723","sequential-stimulus-presentation-old","139","462722","0.0-31.0-1.2","SS1618435646437","trial","","40","500","616.3400000077672","images/stimuli/spore_stims/simple_18_A_b.gif","images/stimuli/spore_stims/simple_04_A_a.gif","forced_long","","11","simple_dissimilar","images/stimuli/spore_stims/simple_04_A_a.gif","","","","",""
"","null","html-keyboard-response","140","463765","0.0-31.0-0.3","SS1618435646437","","","null","","","","","","<p><img src= images/blank.png width =""600"" height = ""600"" style=""position:fixed;top:50%; left:50%; transform: translate(-50%, -50%); border:5px solid black"">","","","","","","","",""
"","1853.064999973867","sequential-stimulus-presentation-old","141","466130","0.0-31.0-1.3","SS1618435646437","trial","","40","500","2353.064999973867","images/stimuli/spore_stims/simple_18_A_b.gif","images/stimuli/spore_stims/simple_04_A_a.gif","forced_long","","11","simple_dissimilar","images/stimuli/spore_stims/simple_18_A_b.gif","","","","",""
"[{""page_index"":0,""viewing_time"":5186.03499996243}]","5186.300000001211","instructions","142","471321","0.0-32.0","SS1618435646437","instructions","","","","","","","","","","","","","","","",""
"","12058.11000004178","survey-likert","143","483383","0.0-33.0","SS1618435646437","similarity_question","","","","","","","","","","","","{""Q0"":2}","[0]","","images/stimuli/spore_stims/complex_17_A_b.gif","images/stimuli/spore_stims/complex_13_A_a.gif"
"","7552.510000008624","survey-likert","144","490941","0.0-34.0","SS1618435646437","similarity_question","","","","","","","","","","","","{""Q0"":1}","[0]","","images/stimuli/spore_stims/complex_07_A_a.gif","images/stimuli/spore_stims/complex_12_A_b.gif"
"","6484.080000023823","survey-likert","145","497429","0.0-35.0","SS1618435646437","similarity_question","","","","","","","","","","","","{""Q0"":2}","[0]","","images/stimuli/spore_stims/simple_13_A_a.gif","images/stimuli/spore_stims/simple_08_A_b.gif"
"","4185.755000042263","survey-likert","146","501620","0.0-36.0","SS1618435646437","similarity_question","","","","","","","","","","","","{""Q0"":4}","[0]","","images/stimuli/spore_stims/simple_12_A_a.gif","images/stimuli/spore_stims/simple_11_A_b.gif"
"","8786.654999945313","survey-likert","147","510411","0.0-37.0","SS1618435646437","similarity_question","","","","","","","","","","","","{""Q0"":4}","[0]","","images/stimuli/spore_stims/complex_20_A_b.gif","images/stimuli/spore_stims/complex_10_A_a.gif"
"","3675.025000004098","survey-likert","148","514090","0.0-38.0","SS1618435646437","similarity_question","","","","","","","","","","","","{""Q0"":3}","[0]","","images/stimuli/spore_stims/simple_14_A_b.gif","images/stimuli/spore_stims/simple_05_A_a.gif"
"","7082.759999961127","survey-likert","149","521178","0.0-39.0","SS1618435646437","similarity_question","","","","","","","","","","","","{""Q0"":4}","[0]","","images/stimuli/spore_stims/complex_05_A_b.gif","images/stimuli/spore_stims/complex_02_A_a.gif"
"","6650.024999980815","survey-likert","150","527834","0.0-40.0","SS1618435646437","similarity_question","","","","","","","","","","","","{""Q0"":4}","[0]","","images/stimuli/spore_stims/simple_04_A_a.gif","images/stimuli/spore_stims/simple_18_A_b.gif"
"","8776.840000005905","survey-likert","151","536616","0.0-41.0","SS1618435646437","similarity_question","","","","","","","","","","","","{""Q0"":3}","[0]","","images/stimuli/spore_stims/complex_01_A_b.gif","images/stimuli/spore_stims/complex_14_A_a.gif"
"","5643.389999982901","survey-likert","152","542265","0.0-42.0","SS1618435646437","similarity_question","","","","","","","","","","","","{""Q0"":4}","[0]","","images/stimuli/spore_stims/complex_04_A_a.gif","images/stimuli/spore_stims/complex_03_A_b.gif"
"","3730.875000008382","survey-likert","153","546001","0.0-43.0","SS1618435646437","similarity_question","","","","","","","","","","","","{""Q0"":4}","[0]","","images/stimuli/spore_stims/simple_04_A_b.gif","images/stimuli/spore_stims/simple_02_A_a.gif"
"","3217.4750000122003","survey-likert","154","549225","0.0-44.0","SS1618435646437","similarity_question","","","","","","","","","","","","{""Q0"":4}","[0]","","images/stimuli/spore_stims/simple_05_A_b.gif","images/stimuli/spore_stims/simple_06_A_a.gif"
"[{""page_index"":0,""viewing_time"":4609.55999995349}]","4609.895000001416","instructions","155","553839","0.0-45.0","SS1618435646437","instructions","","","","","","","","","","","","","","","",""
"","11140.394999994896","survey-likert","156","564984","0.0-46.0","SS1618435646437","","","","","","","","","images/stimuli/spore_stims/complex_14_A_a.gif","","","","{""Q0"":5}","[0]","","",""
"","4673.369999974966","survey-likert","157","569663","0.0-47.0","SS1618435646437","","","","","","","","","images/stimuli/spore_stims/simple_14_A_b.gif","","","","{""Q0"":1}","[0]","","",""
"","3987.269999983255","survey-likert","158","573655","0.0-48.0","SS1618435646437","","","","","","","","","images/stimuli/spore_stims/simple_06_A_a.gif","","","","{""Q0"":1}","[0]","","",""
"","2186.2949999631383","survey-likert","159","575847","0.0-49.0","SS1618435646437","","","","","","","","","images/stimuli/spore_stims/simple_04_A_b.gif","","","","{""Q0"":1}","[0]","","",""
"","3745.8699999842793","survey-likert","160","579598","0.0-50.0","SS1618435646437","","","","","","","","","images/stimuli/spore_stims/complex_07_A_a.gif","","","","{""Q0"":4}","[0]","","",""
"","2091.439999989234","survey-likert","161","581695","0.0-51.0","SS1618435646437","","","","","","","","","images/stimuli/spore_stims/simple_18_A_b.gif","","","","{""Q0"":2}","[0]","","",""
"","4554.805000021588","survey-likert","162","586254","0.0-52.0","SS1618435646437","","","","","","","","","images/stimuli/spore_stims/complex_05_A_b.gif","","","","{""Q0"":4}","[0]","","",""
"","3530.25999997044","survey-likert","163","589789","0.0-53.0","SS1618435646437","","","","","","","","","images/stimuli/spore_stims/simple_08_A_b.gif","","","","{""Q0"":0}","[0]","","",""
"","6835.274999961257","survey-likert","164","596629","0.0-54.0","SS1618435646437","","","","","","","","","images/stimuli/spore_stims/complex_10_A_a.gif","","","","{""Q0"":4}","[0]","","",""
"","4331.784999987576","survey-likert","165","600965","0.0-55.0","SS1618435646437","","","","","","","","","images/stimuli/spore_stims/complex_13_A_a.gif","","","","{""Q0"":4}","[0]","","",""
"","2491.920000000391","survey-likert","166","603462","0.0-56.0","SS1618435646437","","","","","","","","","images/stimuli/spore_stims/simple_12_A_a.gif","","","","{""Q0"":1}","[0]","","",""
"","4775.500000047032","survey-likert","167","608244","0.0-57.0","SS1618435646437","","","","","","","","","images/stimuli/spore_stims/complex_03_A_b.gif","","","","{""Q0"":4}","[0]","","",""
"[{""page_index"":0,""viewing_time"":2594.8000000207685}]","2595.320000022184","instructions","168","610844","0.0-58.0","SS1618435646437","instructions","","","","","","","","","","","","","","","",""
"","3111.3599999807775","demog-age","169","613964","0.0-59.0","SS1618435646437","","","","","","","","","","","","","{""age"":""36""}","","","",""
"","5144.284999987576","demog-ethnic-US","170","619116","0.0-60.0","SS1618435646437","","","","","","","","","","","","","{""ethnicity"":[""White""]}","[0]","","",""
"","6089.404999976978","demog-gender-and-education","171","625211","0.0-61.0","SS1618435646437","","","","","","","","","","","","","{""gender"":""Male"",""education"":""Bachelor's Degree""}","[0,1]","","",""
"","7647.245000000112","survey-text","172","632867","0.0-62.0","SS1618435646437","feedback","","","","","","","","","","","","{""Q0"":""no issues""}","","","",""
"[{""page_index"":0,""viewing_time"":1986.7599999997765}]","1987.1850000345148","instructions","173","634859","0.0-63.0","SS1618435646437","instructions","","","","","","","","","","","","","","","",""
