"view_history","rt","trial_type","trial_index","time_elapsed","internal_node_id","subject","stimulus_type","trial_stimulus","key_press","minimum_viewing_duration","trial_looking_time","block_deviant","block_background","exposure_type","stimulus","block_number","block_type","stimulus_displayed","responses","question_order","math_correct_answer","stimulus_left","stimulus_right"
"[{""page_index"":0,""viewing_time"":28950.76500000141}]","28951.6350000049","instructions","0","28953","0.0-0.0","SS1618367385279","","","","","","","","","","","","","","","","",""
"[{""page_index"":0,""viewing_time"":14244.52000000747},{""page_index"":1,""viewing_time"":8348.079999996116}]","22592.78500000073","instructions","1","53550","0.0-1.0","SS1618367385279","instructions","","","","","","","","","","","","","","","",""
"","5915.800000002491","sequential-stimulus-presentation-old","2","59969","0.0-2.0","SS1618367385279","","","40","500","6415.800000002491","null","null","self_paced","","","","","","","","",""
"","4184.005000002799","sequential-stimulus-presentation-old","3","64656","0.0-3.0","SS1618367385279","","","40","500","4684.005000002799","null","null","self_paced","","","","","","","","",""
"[{""page_index"":0,""viewing_time"":20071.24499999918}]","20071.44500000868","instructions","4","84728","0.0-4.0","SS1618367385279","instructions","","","","","","","","","","","","","","","",""
"","949.9199999991106","sequential-stimulus-presentation-old","5","90680","0.0-5.0","SS1618367385279","","","40","500","1449.9199999991106","null","null","forced_long","","","","","","","","",""
"","4284.2450000025565","sequential-stimulus-presentation-old","6","95016","0.0-6.0","SS1618367385279","","","40","50","4334.2450000025565","null","null","forced_long","","","","","","","","",""
"[{""page_index"":0,""viewing_time"":2791.4899999886984}]","2791.6449999902397","instructions","7","97808","0.0-7.0","SS1618367385279","instructions","","","","","","","","","","","","","","","",""
"[{""page_index"":0,""viewing_time"":4742.665000012494},{""page_index"":1,""viewing_time"":6744.299999991199},{""page_index"":2,""viewing_time"":4199.625000008382},{""page_index"":3,""viewing_time"":1735.9900000010384},{""page_index"":4,""viewing_time"":2728.0099999916274}]","20150.735000002896","instructions","8","117961","0.0-8.0","SS1618367385279","instructions","","","","","","","","","","","","","","","",""
"","null","html-keyboard-response","9","118848","0.0-9.0-0.0","SS1618367385279","","","null","","","","","","<p><img src= images/blank.png width =""600"" height = ""600"" style=""position:fixed;top:50%; left:50%; transform: translate(-50%, -50%); border:5px solid black"">","","","","","","","",""
"","2619.1649999964284","sequential-stimulus-presentation-old","10","121521","0.0-9.0-1.0","SS1618367385279","trial","","40","500","3119.1649999964284","images/stimuli/spore_stims/simple_07_A_a.gif","images/stimuli/spore_stims/simple_02_A_b.gif","forced_short","","0","simple_dissimilar","images/stimuli/spore_stims/simple_02_A_b.gif","","","","",""
"","null","html-keyboard-response","11","122500","0.0-9.0-0.1","SS1618367385279","","","null","","","","","","<p><img src= images/blank.png width =""600"" height = ""600"" style=""position:fixed;top:50%; left:50%; transform: translate(-50%, -50%); border:5px solid black"">","","","","","","","",""
"","6350.174999999581","sequential-stimulus-presentation-old","12","129352","0.0-9.0-1.1","SS1618367385279","trial","","40","500","6850.174999999581","images/stimuli/spore_stims/simple_07_A_a.gif","images/stimuli/spore_stims/simple_02_A_b.gif","forced_short","","0","simple_dissimilar","images/stimuli/spore_stims/simple_02_A_b.gif","","","","",""
"","null","html-keyboard-response","13","130270","0.0-9.0-0.2","SS1618367385279","","","null","","","","","","<p><img src= images/blank.png width =""600"" height = ""600"" style=""position:fixed;top:50%; left:50%; transform: translate(-50%, -50%); border:5px solid black"">","","","","","","","",""
"","3300.3500000049826","sequential-stimulus-presentation-old","14","134073","0.0-9.0-1.2","SS1618367385279","trial","","40","500","3800.3500000049826","images/stimuli/spore_stims/simple_07_A_a.gif","images/stimuli/spore_stims/simple_02_A_b.gif","forced_short","","0","simple_dissimilar","images/stimuli/spore_stims/simple_02_A_b.gif","","","","",""
"","null","html-keyboard-response","15","135295","0.0-9.0-0.3","SS1618367385279","","","null","","","","","","<p><img src= images/blank.png width =""600"" height = ""600"" style=""position:fixed;top:50%; left:50%; transform: translate(-50%, -50%); border:5px solid black"">","","","","","","","",""
"","587.0049999939511","sequential-stimulus-presentation-old","16","136384","0.0-9.0-1.3","SS1618367385279","trial","","40","500","1087.004999993951","images/stimuli/spore_stims/simple_07_A_a.gif","images/stimuli/spore_stims/simple_02_A_b.gif","forced_short","","0","simple_dissimilar","images/stimuli/spore_stims/simple_02_A_b.gif","","","","",""
"","null","html-keyboard-response","17","137659","0.0-9.0-0.4","SS1618367385279","","","null","","","","","","<p><img src= images/blank.png width =""600"" height = ""600"" style=""position:fixed;top:50%; left:50%; transform: translate(-50%, -50%); border:5px solid black"">","","","","","","","",""
"","1941.9999999954598","sequential-stimulus-presentation-old","18","140104","0.0-9.0-1.4","SS1618367385279","trial","","40","500","2441.99999999546","images/stimuli/spore_stims/simple_07_A_a.gif","images/stimuli/spore_stims/simple_02_A_b.gif","forced_short","","0","simple_dissimilar","images/stimuli/spore_stims/simple_02_A_b.gif","","","","",""
"","3637.1199999994133","survey-multi-choice","19","143745","0.0-10.0","SS1618367385279","math_question","","","","","","","","","","","","{""Q0"":""4""}","[0]","4","",""
"","null","html-keyboard-response","20","144583","0.0-11.0-0.0","SS1618367385279","","","null","","","","","","<p><img src= images/blank.png width =""600"" height = ""600"" style=""position:fixed;top:50%; left:50%; transform: translate(-50%, -50%); border:5px solid black"">","","","","","","","",""
"","2146.840000001248","sequential-stimulus-presentation-old","21","147233","0.0-11.0-1.0","SS1618367385279","trial","","40","500","2646.840000001248","images/stimuli/spore_stims/simple_15_A_a.gif","images/stimuli/spore_stims/simple_07_A_b.gif","self_paced","","1","simple_dissimilar","images/stimuli/spore_stims/simple_07_A_b.gif","","","","",""
"","null","html-keyboard-response","22","148517","0.0-11.0-0.1","SS1618367385279","","","null","","","","","","<p><img src= images/blank.png width =""600"" height = ""600"" style=""position:fixed;top:50%; left:50%; transform: translate(-50%, -50%); border:5px solid black"">","","","","","","","",""
"","261.0750000021653","sequential-stimulus-presentation-old","23","149280","0.0-11.0-1.1","SS1618367385279","trial","","40","500","761.0750000021653","images/stimuli/spore_stims/simple_15_A_a.gif","images/stimuli/spore_stims/simple_07_A_b.gif","self_paced","","1","simple_dissimilar","images/stimuli/spore_stims/simple_07_A_b.gif","","","","",""
"","null","html-keyboard-response","24","150455","0.0-11.0-0.2","SS1618367385279","","","null","","","","","","<p><img src= images/blank.png width =""600"" height = ""600"" style=""position:fixed;top:50%; left:50%; transform: translate(-50%, -50%); border:5px solid black"">","","","","","","","",""
"","314.9399999965681","sequential-stimulus-presentation-old","25","151272","0.0-11.0-1.2","SS1618367385279","trial","","40","500","814.9399999965681","images/stimuli/spore_stims/simple_15_A_a.gif","images/stimuli/spore_stims/simple_07_A_b.gif","self_paced","","1","simple_dissimilar","images/stimuli/spore_stims/simple_07_A_b.gif","","","","",""
"","null","html-keyboard-response","26","152100","0.0-11.0-0.3","SS1618367385279","","","null","","","","","","<p><img src= images/blank.png width =""600"" height = ""600"" style=""position:fixed;top:50%; left:50%; transform: translate(-50%, -50%); border:5px solid black"">","","","","","","","",""
"","470.01499999896623","sequential-stimulus-presentation-old","27","153072","0.0-11.0-1.3","SS1618367385279","trial","","40","500","970.0149999989662","images/stimuli/spore_stims/simple_15_A_a.gif","images/stimuli/spore_stims/simple_07_A_b.gif","self_paced","","1","simple_dissimilar","images/stimuli/spore_stims/simple_07_A_b.gif","","","","",""
"","null","html-keyboard-response","28","154286","0.0-11.0-0.4","SS1618367385279","","","null","","","","","","<p><img src= images/blank.png width =""600"" height = ""600"" style=""position:fixed;top:50%; left:50%; transform: translate(-50%, -50%); border:5px solid black"">","","","","","","","",""
"","1575.9649999963585","sequential-stimulus-presentation-old","29","156376","0.0-11.0-1.4","SS1618367385279","trial","","40","500","2075.9649999963585","images/stimuli/spore_stims/simple_15_A_a.gif","images/stimuli/spore_stims/simple_07_A_b.gif","self_paced","","1","simple_dissimilar","images/stimuli/spore_stims/simple_15_A_a.gif","","","","",""
"","3155.97500000149","survey-multi-choice","30","159534","0.0-12.0","SS1618367385279","math_question","","","","","","","","","","","","{""Q0"":""11""}","[0]","11","",""
"","null","html-keyboard-response","31","160762","0.0-13.0-0.0","SS1618367385279","","","null","","","","","","<p><img src= images/blank.png width =""600"" height = ""600"" style=""position:fixed;top:50%; left:50%; transform: translate(-50%, -50%); border:5px solid black"">","","","","","","","",""
"","394.98499999172054","sequential-stimulus-presentation-old","32","166160","0.0-13.0-1.0","SS1618367385279","trial","","40","500","894.9849999917205","images/stimuli/spore_stims/complex_06_A_b.gif","images/stimuli/spore_stims/complex_02_A_a.gif","forced_long","","2","complex_dissimilar","images/stimuli/spore_stims/complex_02_A_a.gif","","","","",""
"","null","html-keyboard-response","33","167143","0.0-13.0-0.1","SS1618367385279","","","null","","","","","","<p><img src= images/blank.png width =""600"" height = ""600"" style=""position:fixed;top:50%; left:50%; transform: translate(-50%, -50%); border:5px solid black"">","","","","","","","",""
"","10523.304999995162","sequential-stimulus-presentation-old","34","178168","0.0-13.0-1.1","SS1618367385279","trial","","40","500","11023.304999995162","images/stimuli/spore_stims/complex_06_A_b.gif","images/stimuli/spore_stims/complex_02_A_a.gif","forced_long","","2","complex_dissimilar","images/stimuli/spore_stims/complex_02_A_a.gif","","","","",""
"","null","html-keyboard-response","35","179434","0.0-13.0-0.2","SS1618367385279","","","null","","","","","","<p><img src= images/blank.png width =""600"" height = ""600"" style=""position:fixed;top:50%; left:50%; transform: translate(-50%, -50%); border:5px solid black"">","","","","","","","",""
"","605.9800000075484","sequential-stimulus-presentation-old","36","180544","0.0-13.0-1.2","SS1618367385279","trial","","40","500","1105.9800000075484","images/stimuli/spore_stims/complex_06_A_b.gif","images/stimuli/spore_stims/complex_02_A_a.gif","forced_long","","2","complex_dissimilar","images/stimuli/spore_stims/complex_02_A_a.gif","","","","",""
"","null","html-keyboard-response","37","181601","0.0-13.0-0.3","SS1618367385279","","","null","","","","","","<p><img src= images/blank.png width =""600"" height = ""600"" style=""position:fixed;top:50%; left:50%; transform: translate(-50%, -50%); border:5px solid black"">","","","","","","","",""
"","1450.8650000061607","sequential-stimulus-presentation-old","38","183560","0.0-13.0-1.3","SS1618367385279","trial","","40","500","1950.8650000061607","images/stimuli/spore_stims/complex_06_A_b.gif","images/stimuli/spore_stims/complex_02_A_a.gif","forced_long","","2","complex_dissimilar","images/stimuli/spore_stims/complex_02_A_a.gif","","","","",""
"","null","html-keyboard-response","39","184789","0.0-13.0-0.4","SS1618367385279","","","null","","","","","","<p><img src= images/blank.png width =""600"" height = ""600"" style=""position:fixed;top:50%; left:50%; transform: translate(-50%, -50%); border:5px solid black"">","","","","","","","",""
"","154.9500000110129","sequential-stimulus-presentation-old","40","185456","0.0-13.0-1.4","SS1618367385279","trial","","40","500","654.9500000110129","images/stimuli/spore_stims/complex_06_A_b.gif","images/stimuli/spore_stims/complex_02_A_a.gif","forced_long","","2","complex_dissimilar","images/stimuli/spore_stims/complex_02_A_a.gif","","","","",""
"","null","html-keyboard-response","41","186330","0.0-13.0-0.5","SS1618367385279","","","null","","","","","","<p><img src= images/blank.png width =""600"" height = ""600"" style=""position:fixed;top:50%; left:50%; transform: translate(-50%, -50%); border:5px solid black"">","","","","","","","",""
"","544.0549999912037","sequential-stimulus-presentation-old","42","187376","0.0-13.0-1.5","SS1618367385279","trial","","40","500","1044.0549999912037","images/stimuli/spore_stims/complex_06_A_b.gif","images/stimuli/spore_stims/complex_02_A_a.gif","forced_long","","2","complex_dissimilar","images/stimuli/spore_stims/complex_06_A_b.gif","","","","",""
"","3217.479999992065","survey-multi-choice","43","190595","0.0-14.0","SS1618367385279","math_question","","","","","","","","","","","","{""Q0"":""15""}","[0]","15","",""
"","null","html-keyboard-response","44","191567","0.0-15.0-0.0","SS1618367385279","","","null","","","","","","<p><img src= images/blank.png width =""600"" height = ""600"" style=""position:fixed;top:50%; left:50%; transform: translate(-50%, -50%); border:5px solid black"">","","","","","","","",""
"","1858.0349999974715","sequential-stimulus-presentation-old","45","193928","0.0-15.0-1.0","SS1618367385279","trial","","40","500","2358.0349999974715","images/stimuli/spore_stims/simple_12_A_b.gif","images/stimuli/spore_stims/simple_02_A_a.gif","self_paced","","3","simple_dissimilar","images/stimuli/spore_stims/simple_02_A_a.gif","","","","",""
"","null","html-keyboard-response","46","195215","0.0-15.0-0.1","SS1618367385279","","","null","","","","","","<p><img src= images/blank.png width =""600"" height = ""600"" style=""position:fixed;top:50%; left:50%; transform: translate(-50%, -50%); border:5px solid black"">","","","","","","","",""
"","546.2100000004284","sequential-stimulus-presentation-old","47","196264","0.0-15.0-1.1","SS1618367385279","trial","","40","500","1046.2100000004284","images/stimuli/spore_stims/simple_12_A_b.gif","images/stimuli/spore_stims/simple_02_A_a.gif","self_paced","","3","simple_dissimilar","images/stimuli/spore_stims/simple_02_A_a.gif","","","","",""
"","null","html-keyboard-response","48","197299","0.0-15.0-0.2","SS1618367385279","","","null","","","","","","<p><img src= images/blank.png width =""600"" height = ""600"" style=""position:fixed;top:50%; left:50%; transform: translate(-50%, -50%); border:5px solid black"">","","","","","","","",""
"","1550.0400000019","sequential-stimulus-presentation-old","49","199352","0.0-15.0-1.2","SS1618367385279","trial","","40","500","2050.0400000019","images/stimuli/spore_stims/simple_12_A_b.gif","images/stimuli/spore_stims/simple_02_A_a.gif","self_paced","","3","simple_dissimilar","images/stimuli/spore_stims/simple_02_A_a.gif","","","","",""
"","null","html-keyboard-response","50","200179","0.0-15.0-0.3","SS1618367385279","","","null","","","","","","<p><img src= images/blank.png width =""600"" height = ""600"" style=""position:fixed;top:50%; left:50%; transform: translate(-50%, -50%); border:5px solid black"">","","","","","","","",""
"","397.9549999930896","sequential-stimulus-presentation-old","51","201080","0.0-15.0-1.3","SS1618367385279","trial","","40","500","897.9549999930896","images/stimuli/spore_stims/simple_12_A_b.gif","images/stimuli/spore_stims/simple_02_A_a.gif","self_paced","","3","simple_dissimilar","images/stimuli/spore_stims/simple_02_A_a.gif","","","","",""
"","2178.845000002184","survey-multi-choice","52","203260","0.0-16.0","SS1618367385279","math_question","","","","","","","","","","","","{""Q0"":""12""}","[0]","12","",""
"","null","html-keyboard-response","53","204095","0.0-17.0-0.0","SS1618367385279","","","null","","","","","","<p><img src= images/blank.png width =""600"" height = ""600"" style=""position:fixed;top:50%; left:50%; transform: translate(-50%, -50%); border:5px solid black"">","","","","","","","",""
"","260.92999998945743","sequential-stimulus-presentation-old","54","209360","0.0-17.0-1.0","SS1618367385279","trial","","40","500","760.9299999894574","images/stimuli/spore_stims/complex_11_A_b.gif","images/stimuli/spore_stims/complex_05_A_a.gif","forced_long","","4","complex_dissimilar","images/stimuli/spore_stims/complex_05_A_a.gif","","","","",""
"","null","html-keyboard-response","55","210350","0.0-17.0-0.1","SS1618367385279","","","null","","","","","","<p><img src= images/blank.png width =""600"" height = ""600"" style=""position:fixed;top:50%; left:50%; transform: translate(-50%, -50%); border:5px solid black"">","","","","","","","",""
"","787.2800000041025","sequential-stimulus-presentation-old","56","211640","0.0-17.0-1.1","SS1618367385279","trial","","40","500","1287.2800000041025","images/stimuli/spore_stims/complex_11_A_b.gif","images/stimuli/spore_stims/complex_05_A_a.gif","forced_long","","4","complex_dissimilar","images/stimuli/spore_stims/complex_05_A_a.gif","","","","",""
"","null","html-keyboard-response","57","212537","0.0-17.0-0.2","SS1618367385279","","","null","","","","","","<p><img src= images/blank.png width =""600"" height = ""600"" style=""position:fixed;top:50%; left:50%; transform: translate(-50%, -50%); border:5px solid black"">","","","","","","","",""
"","614.9550000118325","sequential-stimulus-presentation-old","58","213664","0.0-17.0-1.2","SS1618367385279","trial","","40","500","1114.9550000118325","images/stimuli/spore_stims/complex_11_A_b.gif","images/stimuli/spore_stims/complex_05_A_a.gif","forced_long","","4","complex_dissimilar","images/stimuli/spore_stims/complex_05_A_a.gif","","","","",""
"","null","html-keyboard-response","59","214595","0.0-17.0-0.3","SS1618367385279","","","null","","","","","","<p><img src= images/blank.png width =""600"" height = ""600"" style=""position:fixed;top:50%; left:50%; transform: translate(-50%, -50%); border:5px solid black"">","","","","","","","",""
"","684.0700000029756","sequential-stimulus-presentation-old","60","215784","0.0-17.0-1.3","SS1618367385279","trial","","40","500","1184.0700000029756","images/stimuli/spore_stims/complex_11_A_b.gif","images/stimuli/spore_stims/complex_05_A_a.gif","forced_long","","4","complex_dissimilar","images/stimuli/spore_stims/complex_05_A_a.gif","","","","",""
"","null","html-keyboard-response","61","216807","0.0-17.0-0.4","SS1618367385279","","","null","","","","","","<p><img src= images/blank.png width =""600"" height = ""600"" style=""position:fixed;top:50%; left:50%; transform: translate(-50%, -50%); border:5px solid black"">","","","","","","","",""
"","1874.0649999963352","sequential-stimulus-presentation-old","62","219184","0.0-17.0-1.4","SS1618367385279","trial","","40","500","2374.0649999963352","images/stimuli/spore_stims/complex_11_A_b.gif","images/stimuli/spore_stims/complex_05_A_a.gif","forced_long","","4","complex_dissimilar","images/stimuli/spore_stims/complex_11_A_b.gif","","","","",""
"","2674.2249999952037","survey-multi-choice","63","221860","0.0-18.0","SS1618367385279","math_question","","","","","","","","","","","","{""Q0"":""8""}","[0]","8","",""
"","null","html-keyboard-response","64","223041","0.0-19.0-0.0","SS1618367385279","","","null","","","","","","<p><img src= images/blank.png width =""600"" height = ""600"" style=""position:fixed;top:50%; left:50%; transform: translate(-50%, -50%); border:5px solid black"">","","","","","","","",""
"","347.9500000103144","sequential-stimulus-presentation-old","65","228392","0.0-19.0-1.0","SS1618367385279","trial","","40","500","847.9500000103144","images/stimuli/spore_stims/simple_20_A_a.gif","images/stimuli/spore_stims/simple_13_A_b.gif","forced_long","","5","simple_dissimilar","images/stimuli/spore_stims/simple_13_A_b.gif","","","","",""
"","null","html-keyboard-response","66","229580","0.0-19.0-0.1","SS1618367385279","","","null","","","","","","<p><img src= images/blank.png width =""600"" height = ""600"" style=""position:fixed;top:50%; left:50%; transform: translate(-50%, -50%); border:5px solid black"">","","","","","","","",""
"","460.98000000347383","sequential-stimulus-presentation-old","67","230544","0.0-19.0-1.1","SS1618367385279","trial","","40","500","960.9800000034738","images/stimuli/spore_stims/simple_20_A_a.gif","images/stimuli/spore_stims/simple_13_A_b.gif","forced_long","","5","simple_dissimilar","images/stimuli/spore_stims/simple_13_A_b.gif","","","","",""
"","null","html-keyboard-response","68","231715","0.0-19.0-0.2","SS1618367385279","","","null","","","","","","<p><img src= images/blank.png width =""600"" height = ""600"" style=""position:fixed;top:50%; left:50%; transform: translate(-50%, -50%); border:5px solid black"">","","","","","","","",""
"","348.985000004177","sequential-stimulus-presentation-old","69","232568","0.0-19.0-1.2","SS1618367385279","trial","","40","500","848.985000004177","images/stimuli/spore_stims/simple_20_A_a.gif","images/stimuli/spore_stims/simple_13_A_b.gif","forced_long","","5","simple_dissimilar","images/stimuli/spore_stims/simple_13_A_b.gif","","","","",""
"","null","html-keyboard-response","70","233663","0.0-19.0-0.3","SS1618367385279","","","null","","","","","","<p><img src= images/blank.png width =""600"" height = ""600"" style=""position:fixed;top:50%; left:50%; transform: translate(-50%, -50%); border:5px solid black"">","","","","","","","",""
"","66.0749999951804","sequential-stimulus-presentation-old","71","234232","0.0-19.0-1.3","SS1618367385279","trial","","40","500","566.0749999951804","images/stimuli/spore_stims/simple_20_A_a.gif","images/stimuli/spore_stims/simple_13_A_b.gif","forced_long","","5","simple_dissimilar","images/stimuli/spore_stims/simple_20_A_a.gif","","","","",""
"","null","html-keyboard-response","72","235421","0.0-19.0-0.4","SS1618367385279","","","null","","","","","","<p><img src= images/blank.png width =""600"" height = ""600"" style=""position:fixed;top:50%; left:50%; transform: translate(-50%, -50%); border:5px solid black"">","","","","","","","",""
"","10.970000002998859","sequential-stimulus-presentation-old","73","235936","0.0-19.0-1.4","SS1618367385279","trial","","40","500","510.97000000299886","images/stimuli/spore_stims/simple_20_A_a.gif","images/stimuli/spore_stims/simple_13_A_b.gif","forced_long","","5","simple_dissimilar","images/stimuli/spore_stims/simple_13_A_b.gif","","","","",""
"","2116.679999991902","survey-multi-choice","74","238054","0.0-20.0","SS1618367385279","math_question","","","","","","","","","","","","{""Q0"":""14""}","[0]","14","",""
"","null","html-keyboard-response","75","238879","0.0-21.0-0.0","SS1618367385279","","","null","","","","","","<p><img src= images/blank.png width =""600"" height = ""600"" style=""position:fixed;top:50%; left:50%; transform: translate(-50%, -50%); border:5px solid black"">","","","","","","","",""
"","904.9099999974715","sequential-stimulus-presentation-old","76","239848","0.0-21.0-1.0","SS1618367385279","trial","","40","500","1404.9099999974715","images/stimuli/spore_stims/complex_20_A_a.gif","images/stimuli/spore_stims/complex_13_A_b.gif","forced_short","","6","complex_dissimilar","images/stimuli/spore_stims/complex_13_A_b.gif","","","","",""
"","null","html-keyboard-response","77","240655","0.0-21.0-0.1","SS1618367385279","","","null","","","","","","<p><img src= images/blank.png width =""600"" height = ""600"" style=""position:fixed;top:50%; left:50%; transform: translate(-50%, -50%); border:5px solid black"">","","","","","","","",""
"","330.9799999988172","sequential-stimulus-presentation-old","78","241488","0.0-21.0-1.1","SS1618367385279","trial","","40","500","830.9799999988172","images/stimuli/spore_stims/complex_20_A_a.gif","images/stimuli/spore_stims/complex_13_A_b.gif","forced_short","","6","complex_dissimilar","images/stimuli/spore_stims/complex_13_A_b.gif","","","","",""
"","null","html-keyboard-response","79","242519","0.0-21.0-0.2","SS1618367385279","","","null","","","","","","<p><img src= images/blank.png width =""600"" height = ""600"" style=""position:fixed;top:50%; left:50%; transform: translate(-50%, -50%); border:5px solid black"">","","","","","","","",""
"","490.25000000256114","sequential-stimulus-presentation-old","80","243512","0.0-21.0-1.2","SS1618367385279","trial","","40","500","990.2500000025611","images/stimuli/spore_stims/complex_20_A_a.gif","images/stimuli/spore_stims/complex_13_A_b.gif","forced_short","","6","complex_dissimilar","images/stimuli/spore_stims/complex_13_A_b.gif","","","","",""
"","null","html-keyboard-response","81","244335","0.0-21.0-0.3","SS1618367385279","","","null","","","","","","<p><img src= images/blank.png width =""600"" height = ""600"" style=""position:fixed;top:50%; left:50%; transform: translate(-50%, -50%); border:5px solid black"">","","","","","","","",""
"","592.9849999956787","sequential-stimulus-presentation-old","82","245432","0.0-21.0-1.3","SS1618367385279","trial","","40","500","1092.9849999956787","images/stimuli/spore_stims/complex_20_A_a.gif","images/stimuli/spore_stims/complex_13_A_b.gif","forced_short","","6","complex_dissimilar","images/stimuli/spore_stims/complex_20_A_a.gif","","","","",""
"","null","html-keyboard-response","83","246447","0.0-21.0-0.4","SS1618367385279","","","null","","","","","","<p><img src= images/blank.png width =""600"" height = ""600"" style=""position:fixed;top:50%; left:50%; transform: translate(-50%, -50%); border:5px solid black"">","","","","","","","",""
"","250.00500000896864","sequential-stimulus-presentation-old","84","247200","0.0-21.0-1.4","SS1618367385279","trial","","40","500","750.0050000089686","images/stimuli/spore_stims/complex_20_A_a.gif","images/stimuli/spore_stims/complex_13_A_b.gif","forced_short","","6","complex_dissimilar","images/stimuli/spore_stims/complex_13_A_b.gif","","","","",""
"","null","html-keyboard-response","85","248489","0.0-21.0-0.5","SS1618367385279","","","null","","","","","","<p><img src= images/blank.png width =""600"" height = ""600"" style=""position:fixed;top:50%; left:50%; transform: translate(-50%, -50%); border:5px solid black"">","","","","","","","",""
"","133.00000000162981","sequential-stimulus-presentation-old","86","249128","0.0-21.0-1.5","SS1618367385279","trial","","40","500","633.0000000016298","images/stimuli/spore_stims/complex_20_A_a.gif","images/stimuli/spore_stims/complex_13_A_b.gif","forced_short","","6","complex_dissimilar","images/stimuli/spore_stims/complex_13_A_b.gif","","","","",""
"","2245.355000006384","survey-multi-choice","87","251375","0.0-22.0","SS1618367385279","math_question","","","","","","","","","","","","{""Q0"":""16""}","[0]","16","",""
"","null","html-keyboard-response","88","252615","0.0-23.0-0.0","SS1618367385279","","","null","","","","","","<p><img src= images/blank.png width =""600"" height = ""600"" style=""position:fixed;top:50%; left:50%; transform: translate(-50%, -50%); border:5px solid black"">","","","","","","","",""
"","500.0350000045728","sequential-stimulus-presentation-old","89","253168","0.0-23.0-1.0","SS1618367385279","trial","","40","500","1000.0350000045728","images/stimuli/spore_stims/simple_17_A_a.gif","images/stimuli/spore_stims/simple_10_A_b.gif","forced_short","","7","simple_dissimilar","images/stimuli/spore_stims/simple_10_A_b.gif","","","","",""
"","null","html-keyboard-response","90","254146","0.0-23.0-0.1","SS1618367385279","","","null","","","","","","<p><img src= images/blank.png width =""600"" height = ""600"" style=""position:fixed;top:50%; left:50%; transform: translate(-50%, -50%); border:5px solid black"">","","","","","","","",""
"","508.98500000766944","sequential-stimulus-presentation-old","91","255160","0.0-23.0-1.1","SS1618367385279","trial","","40","500","1008.9850000076694","images/stimuli/spore_stims/simple_17_A_a.gif","images/stimuli/spore_stims/simple_10_A_b.gif","forced_short","","7","simple_dissimilar","images/stimuli/spore_stims/simple_17_A_a.gif","","","","",""
"","null","html-keyboard-response","92","256049","0.0-23.0-0.2","SS1618367385279","","","null","","","","","","<p><img src= images/blank.png width =""600"" height = ""600"" style=""position:fixed;top:50%; left:50%; transform: translate(-50%, -50%); border:5px solid black"">","","","","","","","",""
"","15.020000006188639","sequential-stimulus-presentation-old","93","256568","0.0-23.0-1.2","SS1618367385279","trial","","40","500","515.0200000061886","images/stimuli/spore_stims/simple_17_A_a.gif","images/stimuli/spore_stims/simple_10_A_b.gif","forced_short","","7","simple_dissimilar","images/stimuli/spore_stims/simple_10_A_b.gif","","","","",""
"","null","html-keyboard-response","94","257502","0.0-23.0-0.3","SS1618367385279","","","null","","","","","","<p><img src= images/blank.png width =""600"" height = ""600"" style=""position:fixed;top:50%; left:50%; transform: translate(-50%, -50%); border:5px solid black"">","","","","","","","",""
"","351.8949999997858","sequential-stimulus-presentation-old","95","258368","0.0-23.0-1.3","SS1618367385279","trial","","40","500","851.8949999997858","images/stimuli/spore_stims/simple_17_A_a.gif","images/stimuli/spore_stims/simple_10_A_b.gif","forced_short","","7","simple_dissimilar","images/stimuli/spore_stims/simple_10_A_b.gif","","","","",""
"","2041.384999989532","survey-multi-choice","96","260411","0.0-24.0","SS1618367385279","math_question","","","","","","","","","","","","{""Q0"":""10""}","[0]","10","",""
"","null","html-keyboard-response","97","261612","0.0-25.0-0.0","SS1618367385279","","","null","","","","","","<p><img src= images/blank.png width =""600"" height = ""600"" style=""position:fixed;top:50%; left:50%; transform: translate(-50%, -50%); border:5px solid black"">","","","","","","","",""
"","133.13000000198372","sequential-stimulus-presentation-old","98","262248","0.0-25.0-1.0","SS1618367385279","trial","","40","500","633.1300000019837","images/stimuli/spore_stims/complex_09_A_a.gif","images/stimuli/spore_stims/complex_01_A_b.gif","self_paced","","8","complex_dissimilar","images/stimuli/spore_stims/complex_01_A_b.gif","","","","",""
"","null","html-keyboard-response","99","263511","0.0-25.0-0.1","SS1618367385279","","","null","","","","","","<p><img src= images/blank.png width =""600"" height = ""600"" style=""position:fixed;top:50%; left:50%; transform: translate(-50%, -50%); border:5px solid black"">","","","","","","","",""
"","545.0599999894621","sequential-stimulus-presentation-old","100","264560","0.0-25.0-1.1","SS1618367385279","trial","","40","500","1045.059999989462","images/stimuli/spore_stims/complex_09_A_a.gif","images/stimuli/spore_stims/complex_01_A_b.gif","self_paced","","8","complex_dissimilar","images/stimuli/spore_stims/complex_09_A_a.gif","","","","",""
"","null","html-keyboard-response","101","265456","0.0-25.0-0.2","SS1618367385279","","","null","","","","","","<p><img src= images/blank.png width =""600"" height = ""600"" style=""position:fixed;top:50%; left:50%; transform: translate(-50%, -50%); border:5px solid black"">","","","","","","","",""
"","109.24000000522938","sequential-stimulus-presentation-old","102","266072","0.0-25.0-1.2","SS1618367385279","trial","","40","500","609.2400000052294","images/stimuli/spore_stims/complex_09_A_a.gif","images/stimuli/spore_stims/complex_01_A_b.gif","self_paced","","8","complex_dissimilar","images/stimuli/spore_stims/complex_09_A_a.gif","","","","",""
"","null","html-keyboard-response","103","267023","0.0-25.0-0.3","SS1618367385279","","","null","","","","","","<p><img src= images/blank.png width =""600"" height = ""600"" style=""position:fixed;top:50%; left:50%; transform: translate(-50%, -50%); border:5px solid black"">","","","","","","","",""
"","337.07500000309665","sequential-stimulus-presentation-old","104","267864","0.0-25.0-1.3","SS1618367385279","trial","","40","500","837.0750000030966","images/stimuli/spore_stims/complex_09_A_a.gif","images/stimuli/spore_stims/complex_01_A_b.gif","self_paced","","8","complex_dissimilar","images/stimuli/spore_stims/complex_01_A_b.gif","","","","",""
"","null","html-keyboard-response","105","268760","0.0-25.0-0.4","SS1618367385279","","","null","","","","","","<p><img src= images/blank.png width =""600"" height = ""600"" style=""position:fixed;top:50%; left:50%; transform: translate(-50%, -50%); border:5px solid black"">","","","","","","","",""
"","81.01500000339001","sequential-stimulus-presentation-old","106","269344","0.0-25.0-1.4","SS1618367385279","trial","","40","500","581.01500000339","images/stimuli/spore_stims/complex_09_A_a.gif","images/stimuli/spore_stims/complex_01_A_b.gif","self_paced","","8","complex_dissimilar","images/stimuli/spore_stims/complex_01_A_b.gif","","","","",""
"","null","html-keyboard-response","107","270443","0.0-25.0-0.5","SS1618367385279","","","null","","","","","","<p><img src= images/blank.png width =""600"" height = ""600"" style=""position:fixed;top:50%; left:50%; transform: translate(-50%, -50%); border:5px solid black"">","","","","","","","",""
"","550.0450000108685","sequential-stimulus-presentation-old","108","271496","0.0-25.0-1.5","SS1618367385279","trial","","40","500","1050.0450000108685","images/stimuli/spore_stims/complex_09_A_a.gif","images/stimuli/spore_stims/complex_01_A_b.gif","self_paced","","8","complex_dissimilar","images/stimuli/spore_stims/complex_01_A_b.gif","","","","",""
"","2286.244999995688","survey-multi-choice","109","273784","0.0-26.0","SS1618367385279","math_question","","","","","","","","","","","","{""Q0"":""8""}","[0]","8","",""
"","null","html-keyboard-response","110","274881","0.0-27.0-0.0","SS1618367385279","","","null","","","","","","<p><img src= images/blank.png width =""600"" height = ""600"" style=""position:fixed;top:50%; left:50%; transform: translate(-50%, -50%); border:5px solid black"">","","","","","","","",""
"","79.84999999462161","sequential-stimulus-presentation-old","111","275472","0.0-27.0-1.0","SS1618367385279","trial","","40","500","579.8499999946216","images/stimuli/spore_stims/complex_03_A_a.gif","images/stimuli/spore_stims/complex_02_A_b.gif","self_paced","","9","complex_dissimilar","images/stimuli/spore_stims/complex_02_A_b.gif","","","","",""
"","null","html-keyboard-response","112","276299","0.0-27.0-0.1","SS1618367385279","","","null","","","","","","<p><img src= images/blank.png width =""600"" height = ""600"" style=""position:fixed;top:50%; left:50%; transform: translate(-50%, -50%); border:5px solid black"">","","","","","","","",""
"","278.3250000065891","sequential-stimulus-presentation-old","113","277080","0.0-27.0-1.1","SS1618367385279","trial","","40","500","778.3250000065891","images/stimuli/spore_stims/complex_03_A_a.gif","images/stimuli/spore_stims/complex_02_A_b.gif","self_paced","","9","complex_dissimilar","images/stimuli/spore_stims/complex_03_A_a.gif","","","","",""
"","null","html-keyboard-response","114","278117","0.0-27.0-0.2","SS1618367385279","","","null","","","","","","<p><img src= images/blank.png width =""600"" height = ""600"" style=""position:fixed;top:50%; left:50%; transform: translate(-50%, -50%); border:5px solid black"">","","","","","","","",""
"","91.04499999375548","sequential-stimulus-presentation-old","115","278712","0.0-27.0-1.2","SS1618367385279","trial","","40","500","591.0449999937555","images/stimuli/spore_stims/complex_03_A_a.gif","images/stimuli/spore_stims/complex_02_A_b.gif","self_paced","","9","complex_dissimilar","images/stimuli/spore_stims/complex_02_A_b.gif","","","","",""
"","null","html-keyboard-response","116","279926","0.0-27.0-0.3","SS1618367385279","","","null","","","","","","<p><img src= images/blank.png width =""600"" height = ""600"" style=""position:fixed;top:50%; left:50%; transform: translate(-50%, -50%); border:5px solid black"">","","","","","","","",""
"","1426.9949999870732","sequential-stimulus-presentation-old","117","281856","0.0-27.0-1.3","SS1618367385279","trial","","40","500","1926.9949999870732","images/stimuli/spore_stims/complex_03_A_a.gif","images/stimuli/spore_stims/complex_02_A_b.gif","self_paced","","9","complex_dissimilar","images/stimuli/spore_stims/complex_03_A_a.gif","","","","",""
"","null","html-keyboard-response","118","283000","0.0-27.0-0.4","SS1618367385279","","","null","","","","","","<p><img src= images/blank.png width =""600"" height = ""600"" style=""position:fixed;top:50%; left:50%; transform: translate(-50%, -50%); border:5px solid black"">","","","","","","","",""
"","88.99999999266583","sequential-stimulus-presentation-old","119","283592","0.0-27.0-1.4","SS1618367385279","trial","","40","500","588.9999999926658","images/stimuli/spore_stims/complex_03_A_a.gif","images/stimuli/spore_stims/complex_02_A_b.gif","self_paced","","9","complex_dissimilar","images/stimuli/spore_stims/complex_02_A_b.gif","","","","",""
"","null","html-keyboard-response","120","284482","0.0-27.0-0.5","SS1618367385279","","","null","","","","","","<p><img src= images/blank.png width =""600"" height = ""600"" style=""position:fixed;top:50%; left:50%; transform: translate(-50%, -50%); border:5px solid black"">","","","","","","","",""
"","495.0249999965308","sequential-stimulus-presentation-old","121","285480","0.0-27.0-1.5","SS1618367385279","trial","","40","500","995.0249999965308","images/stimuli/spore_stims/complex_03_A_a.gif","images/stimuli/spore_stims/complex_02_A_b.gif","self_paced","","9","complex_dissimilar","images/stimuli/spore_stims/complex_02_A_b.gif","","","","",""
"","1907.2000000014668","survey-multi-choice","122","287389","0.0-28.0","SS1618367385279","math_question","","","","","","","","","","","","{""Q0"":""8""}","[0]","8","",""
"","null","html-keyboard-response","123","288689","0.0-29.0-0.0","SS1618367385279","","","null","","","","","","<p><img src= images/blank.png width =""600"" height = ""600"" style=""position:fixed;top:50%; left:50%; transform: translate(-50%, -50%); border:5px solid black"">","","","","","","","",""
"","752.9450000001816","sequential-stimulus-presentation-old","124","289496","0.0-29.0-1.0","SS1618367385279","trial","","40","500","1252.9450000001816","images/stimuli/spore_stims/complex_14_A_b.gif","images/stimuli/spore_stims/complex_17_A_a.gif","forced_short","","10","complex_dissimilar","images/stimuli/spore_stims/complex_17_A_a.gif","","","","",""
"","null","html-keyboard-response","125","290785","0.0-29.0-0.1","SS1618367385279","","","null","","","","","","<p><img src= images/blank.png width =""600"" height = ""600"" style=""position:fixed;top:50%; left:50%; transform: translate(-50%, -50%); border:5px solid black"">","","","","","","","",""
"","505.9999999939464","sequential-stimulus-presentation-old","126","291808","0.0-29.0-1.1","SS1618367385279","trial","","40","500","1005.9999999939464","images/stimuli/spore_stims/complex_14_A_b.gif","images/stimuli/spore_stims/complex_17_A_a.gif","forced_short","","10","complex_dissimilar","images/stimuli/spore_stims/complex_14_A_b.gif","","","","",""
"","null","html-keyboard-response","127","292845","0.0-29.0-0.2","SS1618367385279","","","null","","","","","","<p><img src= images/blank.png width =""600"" height = ""600"" style=""position:fixed;top:50%; left:50%; transform: translate(-50%, -50%); border:5px solid black"">","","","","","","","",""
"","283.96499999507796","sequential-stimulus-presentation-old","128","293632","0.0-29.0-1.2","SS1618367385279","trial","","40","500","783.964999995078","images/stimuli/spore_stims/complex_14_A_b.gif","images/stimuli/spore_stims/complex_17_A_a.gif","forced_short","","10","complex_dissimilar","images/stimuli/spore_stims/complex_17_A_a.gif","","","","",""
"","null","html-keyboard-response","129","294611","0.0-29.0-0.3","SS1618367385279","","","null","","","","","","<p><img src= images/blank.png width =""600"" height = ""600"" style=""position:fixed;top:50%; left:50%; transform: translate(-50%, -50%); border:5px solid black"">","","","","","","","",""
"","31764.92000000144","sequential-stimulus-presentation-old","130","326880","0.0-29.0-1.3","SS1618367385279","trial","","40","500","32264.92000000144","images/stimuli/spore_stims/complex_14_A_b.gif","images/stimuli/spore_stims/complex_17_A_a.gif","forced_short","","10","complex_dissimilar","images/stimuli/spore_stims/complex_17_A_a.gif","","","","",""
"","null","html-keyboard-response","131","327881","0.0-29.0-0.4","SS1618367385279","","","null","","","","","","<p><img src= images/blank.png width =""600"" height = ""600"" style=""position:fixed;top:50%; left:50%; transform: translate(-50%, -50%); border:5px solid black"">","","","","","","","",""
"","454.9950000073295","sequential-stimulus-presentation-old","132","328840","0.0-29.0-1.4","SS1618367385279","trial","","40","500","954.9950000073295","images/stimuli/spore_stims/complex_14_A_b.gif","images/stimuli/spore_stims/complex_17_A_a.gif","forced_short","","10","complex_dissimilar","images/stimuli/spore_stims/complex_17_A_a.gif","","","","",""
"","null","html-keyboard-response","133","330098","0.0-29.0-0.5","SS1618367385279","","","null","","","","","","<p><img src= images/blank.png width =""600"" height = ""600"" style=""position:fixed;top:50%; left:50%; transform: translate(-50%, -50%); border:5px solid black"">","","","","","","","",""
"","134.98499999695923","sequential-stimulus-presentation-old","134","330736","0.0-29.0-1.5","SS1618367385279","trial","","40","500","634.9849999969592","images/stimuli/spore_stims/complex_14_A_b.gif","images/stimuli/spore_stims/complex_17_A_a.gif","forced_short","","10","complex_dissimilar","images/stimuli/spore_stims/complex_14_A_b.gif","","","","",""
"","2234.954999992624","survey-multi-choice","135","332973","0.0-30.0","SS1618367385279","math_question","","","","","","","","","","","","{""Q0"":""5""}","[0]","5","",""
"","null","html-keyboard-response","136","333811","0.0-31.0-0.0","SS1618367385279","","","null","","","","","","<p><img src= images/blank.png width =""600"" height = ""600"" style=""position:fixed;top:50%; left:50%; transform: translate(-50%, -50%); border:5px solid black"">","","","","","","","",""
"","7188.515000001644","sequential-stimulus-presentation-old","137","346019","0.0-31.0-1.0","SS1618367385279","trial","","40","500","7688.515000001644","images/stimuli/spore_stims/simple_17_A_b.gif","images/stimuli/spore_stims/simple_10_A_a.gif","forced_long","","11","simple_dissimilar","images/stimuli/spore_stims/simple_10_A_a.gif","","","","",""
"","null","html-keyboard-response","138","347211","0.0-31.0-0.1","SS1618367385279","","","null","","","","","","<p><img src= images/blank.png width =""600"" height = ""600"" style=""position:fixed;top:50%; left:50%; transform: translate(-50%, -50%); border:5px solid black"">","","","","","","","",""
"","143.290000007255","sequential-stimulus-presentation-old","139","347872","0.0-31.0-1.1","SS1618367385279","trial","","40","500","643.290000007255","images/stimuli/spore_stims/simple_17_A_b.gif","images/stimuli/spore_stims/simple_10_A_a.gif","forced_long","","11","simple_dissimilar","images/stimuli/spore_stims/simple_10_A_a.gif","","","","",""
"","null","html-keyboard-response","140","348759","0.0-31.0-0.2","SS1618367385279","","","null","","","","","","<p><img src= images/blank.png width =""600"" height = ""600"" style=""position:fixed;top:50%; left:50%; transform: translate(-50%, -50%); border:5px solid black"">","","","","","","","",""
"","247.0000000030268","sequential-stimulus-presentation-old","141","349512","0.0-31.0-1.2","SS1618367385279","trial","","40","500","747.0000000030268","images/stimuli/spore_stims/simple_17_A_b.gif","images/stimuli/spore_stims/simple_10_A_a.gif","forced_long","","11","simple_dissimilar","images/stimuli/spore_stims/simple_10_A_a.gif","","","","",""
"","null","html-keyboard-response","142","350783","0.0-31.0-0.3","SS1618367385279","","","null","","","","","","<p><img src= images/blank.png width =""600"" height = ""600"" style=""position:fixed;top:50%; left:50%; transform: translate(-50%, -50%); border:5px solid black"">","","","","","","","",""
"","16.940000001341105","sequential-stimulus-presentation-old","143","351304","0.0-31.0-1.3","SS1618367385279","trial","","40","500","516.9400000013411","images/stimuli/spore_stims/simple_17_A_b.gif","images/stimuli/spore_stims/simple_10_A_a.gif","forced_long","","11","simple_dissimilar","images/stimuli/spore_stims/simple_10_A_a.gif","","","","",""
"","null","html-keyboard-response","144","352584","0.0-31.0-0.4","SS1618367385279","","","null","","","","","","<p><img src= images/blank.png width =""600"" height = ""600"" style=""position:fixed;top:50%; left:50%; transform: translate(-50%, -50%); border:5px solid black"">","","","","","","","",""
"","368.9799999992829","sequential-stimulus-presentation-old","145","353456","0.0-31.0-1.4","SS1618367385279","trial","","40","500","868.9799999992829","images/stimuli/spore_stims/simple_17_A_b.gif","images/stimuli/spore_stims/simple_10_A_a.gif","forced_long","","11","simple_dissimilar","images/stimuli/spore_stims/simple_10_A_a.gif","","","","",""
"[{""page_index"":0,""viewing_time"":13624.814999988303}]","13625.019999992219","instructions","146","367083","0.0-32.0","SS1618367385279","instructions","","","","","","","","","","","","","","","",""
"","5544.49499999464","survey-likert","147","372630","0.0-33.0","SS1618367385279","similarity_question","","","","","","","","","","","","{""Q0"":0}","[0]","","images/stimuli/spore_stims/complex_17_A_a.gif","images/stimuli/spore_stims/complex_14_A_b.gif"
"","3243.5049999912735","survey-likert","148","375881","0.0-34.0","SS1618367385279","similarity_question","","","","","","","","","","","","{""Q0"":2}","[0]","","images/stimuli/spore_stims/simple_17_A_b.gif","images/stimuli/spore_stims/simple_10_A_a.gif"
"","4443.935000002966","survey-likert","149","380330","0.0-35.0","SS1618367385279","similarity_question","","","","","","","","","","","","{""Q0"":1}","[0]","","images/stimuli/spore_stims/complex_02_A_a.gif","images/stimuli/spore_stims/complex_06_A_b.gif"
"","6506.925000008778","survey-likert","150","386843","0.0-36.0","SS1618367385279","similarity_question","","","","","","","","","","","","{""Q0"":2}","[0]","","images/stimuli/spore_stims/simple_10_A_b.gif","images/stimuli/spore_stims/simple_17_A_a.gif"
"","3056.319999988773","survey-likert","151","389905","0.0-37.0","SS1618367385279","similarity_question","","","","","","","","","","","","{""Q0"":2}","[0]","","images/stimuli/spore_stims/simple_12_A_b.gif","images/stimuli/spore_stims/simple_02_A_a.gif"
"","6856.450000006589","survey-likert","152","396768","0.0-38.0","SS1618367385279","similarity_question","","","","","","","","","","","","{""Q0"":4}","[0]","","images/stimuli/spore_stims/simple_13_A_b.gif","images/stimuli/spore_stims/simple_20_A_a.gif"
"","7435.305000006338","survey-likert","153","404209","0.0-39.0","SS1618367385279","similarity_question","","","","","","","","","","","","{""Q0"":0}","[0]","","images/stimuli/spore_stims/complex_03_A_a.gif","images/stimuli/spore_stims/complex_02_A_b.gif"
"","3543.489999996382","survey-likert","154","407759","0.0-40.0","SS1618367385279","similarity_question","","","","","","","","","","","","{""Q0"":0}","[0]","","images/stimuli/spore_stims/complex_20_A_a.gif","images/stimuli/spore_stims/complex_13_A_b.gif"
"","3262.9199999937555","survey-likert","155","411028","0.0-41.0","SS1618367385279","similarity_question","","","","","","","","","","","","{""Q0"":3}","[0]","","images/stimuli/spore_stims/simple_07_A_b.gif","images/stimuli/spore_stims/simple_15_A_a.gif"
"","3119.6950000012293","survey-likert","156","414154","0.0-42.0","SS1618367385279","similarity_question","","","","","","","","","","","","{""Q0"":0}","[0]","","images/stimuli/spore_stims/complex_09_A_a.gif","images/stimuli/spore_stims/complex_01_A_b.gif"
"","2498.4499999991385","survey-likert","157","416659","0.0-43.0","SS1618367385279","similarity_question","","","","","","","","","","","","{""Q0"":3}","[0]","","images/stimuli/spore_stims/simple_02_A_b.gif","images/stimuli/spore_stims/simple_07_A_a.gif"
"","3095.930000010412","survey-likert","158","419761","0.0-44.0","SS1618367385279","similarity_question","","","","","","","","","","","","{""Q0"":0}","[0]","","images/stimuli/spore_stims/complex_05_A_a.gif","images/stimuli/spore_stims/complex_11_A_b.gif"
"[{""page_index"":0,""viewing_time"":3198.3150000014575}]","3198.5249999997905","instructions","159","422965","0.0-45.0","SS1618367385279","instructions","","","","","","","","","","","","","","","",""
"","3837.1400000032736","survey-likert","160","426805","0.0-46.0","SS1618367385279","","","","","","","","","images/stimuli/spore_stims/complex_06_A_b.gif","","","","{""Q0"":4}","[0]","","",""
"","2596.239999998943","survey-likert","161","429408","0.0-47.0","SS1618367385279","","","","","","","","","images/stimuli/spore_stims/simple_15_A_a.gif","","","","{""Q0"":0}","[0]","","",""
"","2572.634999989532","survey-likert","162","431986","0.0-48.0","SS1618367385279","","","","","","","","","images/stimuli/spore_stims/complex_11_A_b.gif","","","","{""Q0"":4}","[0]","","",""
"","1906.9299999973737","survey-likert","163","433900","0.0-49.0","SS1618367385279","","","","","","","","","images/stimuli/spore_stims/complex_02_A_b.gif","","","","{""Q0"":3}","[0]","","",""
"","1824.8600000079023","survey-likert","164","435730","0.0-50.0","SS1618367385279","","","","","","","","","images/stimuli/spore_stims/complex_20_A_a.gif","","","","{""Q0"":3}","[0]","","",""
"","1438.0700000037905","survey-likert","165","437175","0.0-51.0","SS1618367385279","","","","","","","","","images/stimuli/spore_stims/simple_10_A_b.gif","","","","{""Q0"":0}","[0]","","",""
"","2652.220000003581","survey-likert","166","439833","0.0-52.0","SS1618367385279","","","","","","","","","images/stimuli/spore_stims/complex_14_A_b.gif","","","","{""Q0"":4}","[0]","","",""
"","2041.719999993802","survey-likert","167","441880","0.0-53.0","SS1618367385279","","","","","","","","","images/stimuli/spore_stims/simple_02_A_a.gif","","","","{""Q0"":0}","[0]","","",""
"","1889.1900000016904","survey-likert","168","443775","0.0-54.0","SS1618367385279","","","","","","","","","images/stimuli/spore_stims/simple_10_A_a.gif","","","","{""Q0"":0}","[0]","","",""
"","1836.9050000037532","survey-likert","169","445618","0.0-55.0","SS1618367385279","","","","","","","","","images/stimuli/spore_stims/simple_20_A_a.gif","","","","{""Q0"":1}","[0]","","",""
"","2936.070000010659","survey-likert","170","448561","0.0-56.0","SS1618367385279","","","","","","","","","images/stimuli/spore_stims/complex_09_A_a.gif","","","","{""Q0"":5}","[0]","","",""
"","2788.830000004964","survey-likert","171","451355","0.0-57.0","SS1618367385279","","","","","","","","","images/stimuli/spore_stims/simple_02_A_b.gif","","","","{""Q0"":0}","[0]","","",""
"[{""page_index"":0,""viewing_time"":2117.61000000115}]","2117.805000001681","instructions","172","453479","0.0-58.0","SS1618367385279","instructions","","","","","","","","","","","","","","","",""
"","2269.010000003618","demog-age","173","455754","0.0-59.0","SS1618367385279","","","","","","","","","","","","","{""age"":""23""}","","","",""
"","3315.9749999904307","demog-ethnic-US","174","459076","0.0-60.0","SS1618367385279","","","","","","","","","","","","","{""ethnicity"":[""White""]}","[0]","","",""
"","4478.340000001481","demog-gender-and-education","175","463561","0.0-61.0","SS1618367385279","","","","","","","","","","","","","{""gender"":""Male"",""education"":""Bachelor's Degree""}","[0,1]","","",""
"","20206.265000000712","survey-text","176","483774","0.0-62.0","SS1618367385279","feedback","","","","","","","","","","","","{""Q0"":""All went smoothly.""}","","","",""
"[{""page_index"":0,""viewing_time"":3122.7400000061607}]","3122.9400000011083","instructions","177","486900","0.0-63.0","SS1618367385279","instructions","","","","","","","","","","","","","","","",""
"[{""page_index"":0,""viewing_time"":7233.319999999367}]","7233.384999999544","instructions","178","494136","0.0-64.0","SS1618367385279","","","","","","","","","","","","","","","","",""
