"view_history","rt","trial_type","trial_index","time_elapsed","internal_node_id","subject","stimulus_type","trial_stimulus","key_press","minimum_viewing_duration","trial_looking_time","block_deviant","block_background","exposure_type","stimulus","block_number","block_type","stimulus_displayed","responses","question_order","math_correct_answer","stimulus_left","stimulus_right"
"[{""page_index"":0,""viewing_time"":70419.75499999535}]","70420.24500000116","instructions","0","70421","0.0-0.0","SS1618435651677","","","","","","","","","","","","","","","","",""
"[{""page_index"":0,""viewing_time"":26607.954999999492},{""page_index"":1,""viewing_time"":10809.545000010985}]","37417.66500000085","instructions","1","109840","0.0-1.0","SS1618435651677","instructions","","","","","","","","","","","","","","","",""
"","13476.875000007567","sequential-stimulus-presentation-old","2","123819","0.0-2.0","SS1618435651677","","","40","500","13976.875000007567","null","null","self_paced","","","","","","","","",""
"","13750.119999996969","sequential-stimulus-presentation-old","3","138071","0.0-3.0","SS1618435651677","","","40","500","14250.119999996969","null","null","self_paced","","","","","","","","",""
"[{""page_index"":0,""viewing_time"":42816.600000005565}]","42816.795000006096","instructions","4","180889","0.0-4.0","SS1618435651677","instructions","","","","","","","","","","","","","","","",""
"","37039.50499999337","sequential-stimulus-presentation-old","5","222930","0.0-5.0","SS1618435651677","","","40","500","37539.50499999337","null","null","forced_long","","","","","","","","",""
"","11382.119999994757","sequential-stimulus-presentation-old","6","234363","0.0-6.0","SS1618435651677","","","40","50","11432.119999994757","null","null","forced_long","","","","","","","","",""
"[{""page_index"":0,""viewing_time"":7475.504999994882}]","7475.680000003194","instructions","7","241839","0.0-7.0","SS1618435651677","instructions","","","","","","","","","","","","","","","",""
"[{""page_index"":0,""viewing_time"":13815.515000009327},{""page_index"":1,""viewing_time"":28953.464999998687},{""page_index"":2,""viewing_time"":11118.37499999092},{""page_index"":3,""viewing_time"":3785.6250000040745},{""page_index"":4,""viewing_time"":93677.9899999965}]","151351.15000000224","instructions","8","393191","0.0-8.0","SS1618435651677","instructions","","","","","","","","","","","","","","","",""
"","null","html-keyboard-response","9","394281","0.0-9.0-0.0","SS1618435651677","","","null","","","","","","<p><img src= images/blank.png width =""600"" height = ""600"" style=""position:fixed;top:50%; left:50%; transform: translate(-50%, -50%); border:5px solid black"">","","","","","","","",""
"","28610.05999999179","sequential-stimulus-presentation-old","10","423393","0.0-9.0-1.0","SS1618435651677","trial","","40","500","29110.05999999179","images/stimuli/spore_stims/complex_10_A_b.gif","images/stimuli/spore_stims/complex_03_A_a.gif","self_paced","","0","complex_dissimilar","images/stimuli/spore_stims/complex_03_A_a.gif","","","","",""
"","null","html-keyboard-response","11","424200","0.0-9.0-0.1","SS1618435651677","","","null","","","","","","<p><img src= images/blank.png width =""600"" height = ""600"" style=""position:fixed;top:50%; left:50%; transform: translate(-50%, -50%); border:5px solid black"">","","","","","","","",""
"","7940.360000007786","sequential-stimulus-presentation-old","12","432642","0.0-9.0-1.1","SS1618435651677","trial","","40","500","8440.360000007786","images/stimuli/spore_stims/complex_10_A_b.gif","images/stimuli/spore_stims/complex_03_A_a.gif","self_paced","","0","complex_dissimilar","images/stimuli/spore_stims/complex_10_A_b.gif","","","","",""
"","null","html-keyboard-response","13","433873","0.0-9.0-0.2","SS1618435651677","","","null","","","","","","<p><img src= images/blank.png width =""600"" height = ""600"" style=""position:fixed;top:50%; left:50%; transform: translate(-50%, -50%); border:5px solid black"">","","","","","","","",""
"","4124.915000007604","sequential-stimulus-presentation-old","14","438500","0.0-9.0-1.2","SS1618435651677","trial","","40","500","4624.915000007604","images/stimuli/spore_stims/complex_10_A_b.gif","images/stimuli/spore_stims/complex_03_A_a.gif","self_paced","","0","complex_dissimilar","images/stimuli/spore_stims/complex_03_A_a.gif","","","","",""
"","null","html-keyboard-response","15","439788","0.0-9.0-0.3","SS1618435651677","","","null","","","","","","<p><img src= images/blank.png width =""600"" height = ""600"" style=""position:fixed;top:50%; left:50%; transform: translate(-50%, -50%); border:5px solid black"">","","","","","","","",""
"","6351.9649999943795","sequential-stimulus-presentation-old","16","446643","0.0-9.0-1.3","SS1618435651677","trial","","40","500","6851.9649999943795","images/stimuli/spore_stims/complex_10_A_b.gif","images/stimuli/spore_stims/complex_03_A_a.gif","self_paced","","0","complex_dissimilar","images/stimuli/spore_stims/complex_03_A_a.gif","","","","",""
"","7929.420000000391","survey-multi-choice","17","454574","0.0-10.0","SS1618435651677","math_question","","","","","","","","","","","","{""Q0"":""6""}","[0]","6","",""
"","null","html-keyboard-response","18","455582","0.0-11.0-0.0","SS1618435651677","","","null","","","","","","<p><img src= images/blank.png width =""600"" height = ""600"" style=""position:fixed;top:50%; left:50%; transform: translate(-50%, -50%); border:5px solid black"">","","","","","","","",""
"","5418.755000006058","sequential-stimulus-presentation-old","19","461504","0.0-11.0-1.0","SS1618435651677","trial","","40","500","5918.755000006058","images/stimuli/spore_stims/simple_20_A_b.gif","images/stimuli/spore_stims/simple_11_A_a.gif","self_paced","","1","simple_dissimilar","images/stimuli/spore_stims/simple_11_A_a.gif","","","","",""
"","null","html-keyboard-response","20","462648","0.0-11.0-0.1","SS1618435651677","","","null","","","","","","<p><img src= images/blank.png width =""600"" height = ""600"" style=""position:fixed;top:50%; left:50%; transform: translate(-50%, -50%); border:5px solid black"">","","","","","","","",""
"","11002.560000008089","sequential-stimulus-presentation-old","21","474153","0.0-11.0-1.1","SS1618435651677","trial","","40","500","11502.560000008089","images/stimuli/spore_stims/simple_20_A_b.gif","images/stimuli/spore_stims/simple_11_A_a.gif","self_paced","","1","simple_dissimilar","images/stimuli/spore_stims/simple_11_A_a.gif","","","","",""
"","null","html-keyboard-response","22","475341","0.0-11.0-0.2","SS1618435651677","","","null","","","","","","<p><img src= images/blank.png width =""600"" height = ""600"" style=""position:fixed;top:50%; left:50%; transform: translate(-50%, -50%); border:5px solid black"">","","","","","","","",""
"","3454.200000007404","sequential-stimulus-presentation-old","23","479299","0.0-11.0-1.2","SS1618435651677","trial","","40","500","3954.200000007404","images/stimuli/spore_stims/simple_20_A_b.gif","images/stimuli/spore_stims/simple_11_A_a.gif","self_paced","","1","simple_dissimilar","images/stimuli/spore_stims/simple_11_A_a.gif","","","","",""
"","null","html-keyboard-response","24","480286","0.0-11.0-0.3","SS1618435651677","","","null","","","","","","<p><img src= images/blank.png width =""600"" height = ""600"" style=""position:fixed;top:50%; left:50%; transform: translate(-50%, -50%); border:5px solid black"">","","","","","","","",""
"","5246.335000003455","sequential-stimulus-presentation-old","25","486034","0.0-11.0-1.3","SS1618435651677","trial","","40","500","5746.335000003455","images/stimuli/spore_stims/simple_20_A_b.gif","images/stimuli/spore_stims/simple_11_A_a.gif","self_paced","","1","simple_dissimilar","images/stimuli/spore_stims/simple_11_A_a.gif","","","","",""
"","null","html-keyboard-response","26","486929","0.0-11.0-0.4","SS1618435651677","","","null","","","","","","<p><img src= images/blank.png width =""600"" height = ""600"" style=""position:fixed;top:50%; left:50%; transform: translate(-50%, -50%); border:5px solid black"">","","","","","","","",""
"","4160.59500000847","sequential-stimulus-presentation-old","27","491591","0.0-11.0-1.4","SS1618435651677","trial","","40","500","4660.59500000847","images/stimuli/spore_stims/simple_20_A_b.gif","images/stimuli/spore_stims/simple_11_A_a.gif","self_paced","","1","simple_dissimilar","images/stimuli/spore_stims/simple_11_A_a.gif","","","","",""
"","null","html-keyboard-response","28","492504","0.0-11.0-0.5","SS1618435651677","","","null","","","","","","<p><img src= images/blank.png width =""600"" height = ""600"" style=""position:fixed;top:50%; left:50%; transform: translate(-50%, -50%); border:5px solid black"">","","","","","","","",""
"","10380.614999987301","sequential-stimulus-presentation-old","29","503387","0.0-11.0-1.5","SS1618435651677","trial","","40","500","10880.614999987301","images/stimuli/spore_stims/simple_20_A_b.gif","images/stimuli/spore_stims/simple_11_A_a.gif","self_paced","","1","simple_dissimilar","images/stimuli/spore_stims/simple_11_A_a.gif","","","","",""
"","3948.6049999977695","survey-multi-choice","30","507337","0.0-12.0","SS1618435651677","math_question","","","","","","","","","","","","{""Q0"":""9""}","[0]","9","",""
"","null","html-keyboard-response","31","508595","0.0-13.0-0.0","SS1618435651677","","","null","","","","","","<p><img src= images/blank.png width =""600"" height = ""600"" style=""position:fixed;top:50%; left:50%; transform: translate(-50%, -50%); border:5px solid black"">","","","","","","","",""
"","3360.484999997425","sequential-stimulus-presentation-old","32","516957","0.0-13.0-1.0","SS1618435651677","trial","","40","500","3860.484999997425","images/stimuli/spore_stims/simple_18_A_b.gif","images/stimuli/spore_stims/simple_12_A_a.gif","forced_long","","2","simple_dissimilar","images/stimuli/spore_stims/simple_12_A_a.gif","","","","",""
"","null","html-keyboard-response","33","518150","0.0-13.0-0.1","SS1618435651677","","","null","","","","","","<p><img src= images/blank.png width =""600"" height = ""600"" style=""position:fixed;top:50%; left:50%; transform: translate(-50%, -50%); border:5px solid black"">","","","","","","","",""
"","51581.87500000349","sequential-stimulus-presentation-old","34","570234","0.0-13.0-1.1","SS1618435651677","trial","","40","500","52081.87500000349","images/stimuli/spore_stims/simple_18_A_b.gif","images/stimuli/spore_stims/simple_12_A_a.gif","forced_long","","2","simple_dissimilar","images/stimuli/spore_stims/simple_12_A_a.gif","","","","",""
"","null","html-keyboard-response","35","571245","0.0-13.0-0.2","SS1618435651677","","","null","","","","","","<p><img src= images/blank.png width =""600"" height = ""600"" style=""position:fixed;top:50%; left:50%; transform: translate(-50%, -50%); border:5px solid black"">","","","","","","","",""
"","2868.6799999995856","sequential-stimulus-presentation-old","36","574616","0.0-13.0-1.2","SS1618435651677","trial","","40","500","3368.6799999995856","images/stimuli/spore_stims/simple_18_A_b.gif","images/stimuli/spore_stims/simple_12_A_a.gif","forced_long","","2","simple_dissimilar","images/stimuli/spore_stims/simple_12_A_a.gif","","","","",""
"","null","html-keyboard-response","37","575566","0.0-13.0-0.3","SS1618435651677","","","null","","","","","","<p><img src= images/blank.png width =""600"" height = ""600"" style=""position:fixed;top:50%; left:50%; transform: translate(-50%, -50%); border:5px solid black"">","","","","","","","",""
"","2780.4199999955017","sequential-stimulus-presentation-old","38","578848","0.0-13.0-1.3","SS1618435651677","trial","","40","500","3280.4199999955017","images/stimuli/spore_stims/simple_18_A_b.gif","images/stimuli/spore_stims/simple_12_A_a.gif","forced_long","","2","simple_dissimilar","images/stimuli/spore_stims/simple_12_A_a.gif","","","","",""
"","null","html-keyboard-response","39","579891","0.0-13.0-0.4","SS1618435651677","","","null","","","","","","<p><img src= images/blank.png width =""600"" height = ""600"" style=""position:fixed;top:50%; left:50%; transform: translate(-50%, -50%); border:5px solid black"">","","","","","","","",""
"","36569.02999999875","sequential-stimulus-presentation-old","40","616964","0.0-13.0-1.4","SS1618435651677","trial","","40","500","37069.02999999875","images/stimuli/spore_stims/simple_18_A_b.gif","images/stimuli/spore_stims/simple_12_A_a.gif","forced_long","","2","simple_dissimilar","images/stimuli/spore_stims/simple_12_A_a.gif","","","","",""
"","null","html-keyboard-response","41","618181","0.0-13.0-0.5","SS1618435651677","","","null","","","","","","<p><img src= images/blank.png width =""600"" height = ""600"" style=""position:fixed;top:50%; left:50%; transform: translate(-50%, -50%); border:5px solid black"">","","","","","","","",""
"","2825.0499999994645","sequential-stimulus-presentation-old","42","621510","0.0-13.0-1.5","SS1618435651677","trial","","40","500","3325.0499999994645","images/stimuli/spore_stims/simple_18_A_b.gif","images/stimuli/spore_stims/simple_12_A_a.gif","forced_long","","2","simple_dissimilar","images/stimuli/spore_stims/simple_12_A_a.gif","","","","",""
"","3324.3900000088615","survey-multi-choice","43","624835","0.0-14.0","SS1618435651677","math_question","","","","","","","","","","","","{""Q0"":""4""}","[0]","4","",""
"","null","html-keyboard-response","44","625946","0.0-15.0-0.0","SS1618435651677","","","null","","","","","","<p><img src= images/blank.png width =""600"" height = ""600"" style=""position:fixed;top:50%; left:50%; transform: translate(-50%, -50%); border:5px solid black"">","","","","","","","",""
"","3282.47000000556","sequential-stimulus-presentation-old","45","629281","0.0-15.0-1.0","SS1618435651677","trial","","40","500","3782.47000000556","images/stimuli/spore_stims/simple_13_A_b.gif","images/stimuli/spore_stims/simple_01_A_a.gif","forced_short","","3","simple_dissimilar","images/stimuli/spore_stims/simple_01_A_a.gif","","","","",""
"","null","html-keyboard-response","46","630310","0.0-15.0-0.1","SS1618435651677","","","null","","","","","","<p><img src= images/blank.png width =""600"" height = ""600"" style=""position:fixed;top:50%; left:50%; transform: translate(-50%, -50%); border:5px solid black"">","","","","","","","",""
"","8923.75999999058","sequential-stimulus-presentation-old","47","639735","0.0-15.0-1.1","SS1618435651677","trial","","40","500","9423.75999999058","images/stimuli/spore_stims/simple_13_A_b.gif","images/stimuli/spore_stims/simple_01_A_a.gif","forced_short","","3","simple_dissimilar","images/stimuli/spore_stims/simple_01_A_a.gif","","","","",""
"","null","html-keyboard-response","48","640912","0.0-15.0-0.2","SS1618435651677","","","null","","","","","","<p><img src= images/blank.png width =""600"" height = ""600"" style=""position:fixed;top:50%; left:50%; transform: translate(-50%, -50%); border:5px solid black"">","","","","","","","",""
"","4924.650000000838","sequential-stimulus-presentation-old","49","646340","0.0-15.0-1.2","SS1618435651677","trial","","40","500","5424.650000000838","images/stimuli/spore_stims/simple_13_A_b.gif","images/stimuli/spore_stims/simple_01_A_a.gif","forced_short","","3","simple_dissimilar","images/stimuli/spore_stims/simple_01_A_a.gif","","","","",""
"","null","html-keyboard-response","50","647218","0.0-15.0-0.3","SS1618435651677","","","null","","","","","","<p><img src= images/blank.png width =""600"" height = ""600"" style=""position:fixed;top:50%; left:50%; transform: translate(-50%, -50%); border:5px solid black"">","","","","","","","",""
"","5780.944999991334","sequential-stimulus-presentation-old","51","653502","0.0-15.0-1.3","SS1618435651677","trial","","40","500","6280.944999991334","images/stimuli/spore_stims/simple_13_A_b.gif","images/stimuli/spore_stims/simple_01_A_a.gif","forced_short","","3","simple_dissimilar","images/stimuli/spore_stims/simple_01_A_a.gif","","","","",""
"","null","html-keyboard-response","52","654664","0.0-15.0-0.4","SS1618435651677","","","null","","","","","","<p><img src= images/blank.png width =""600"" height = ""600"" style=""position:fixed;top:50%; left:50%; transform: translate(-50%, -50%); border:5px solid black"">","","","","","","","",""
"","5314.200000007986","sequential-stimulus-presentation-old","53","660481","0.0-15.0-1.4","SS1618435651677","trial","","40","500","5814.200000007986","images/stimuli/spore_stims/simple_13_A_b.gif","images/stimuli/spore_stims/simple_01_A_a.gif","forced_short","","3","simple_dissimilar","images/stimuli/spore_stims/simple_13_A_b.gif","","","","",""
"","null","html-keyboard-response","54","661389","0.0-15.0-0.5","SS1618435651677","","","null","","","","","","<p><img src= images/blank.png width =""600"" height = ""600"" style=""position:fixed;top:50%; left:50%; transform: translate(-50%, -50%); border:5px solid black"">","","","","","","","",""
"","6479.215000013937","sequential-stimulus-presentation-old","55","668370","0.0-15.0-1.5","SS1618435651677","trial","","40","500","6979.215000013937","images/stimuli/spore_stims/simple_13_A_b.gif","images/stimuli/spore_stims/simple_01_A_a.gif","forced_short","","3","simple_dissimilar","images/stimuli/spore_stims/simple_13_A_b.gif","","","","",""
"","3371.7149999865796","survey-multi-choice","56","671743","0.0-16.0","SS1618435651677","math_question","","","","","","","","","","","","{""Q0"":""9""}","[0]","9","",""
"","null","html-keyboard-response","57","672739","0.0-17.0-0.0","SS1618435651677","","","null","","","","","","<p><img src= images/blank.png width =""600"" height = ""600"" style=""position:fixed;top:50%; left:50%; transform: translate(-50%, -50%); border:5px solid black"">","","","","","","","",""
"","1014.340000008815","sequential-stimulus-presentation-old","58","678756","0.0-17.0-1.0","SS1618435651677","trial","","40","500","1514.340000008815","images/stimuli/spore_stims/complex_04_A_b.gif","images/stimuli/spore_stims/complex_10_A_a.gif","forced_long","","4","complex_dissimilar","images/stimuli/spore_stims/complex_10_A_a.gif","","","","",""
"","null","html-keyboard-response","59","679619","0.0-17.0-0.1","SS1618435651677","","","null","","","","","","<p><img src= images/blank.png width =""600"" height = ""600"" style=""position:fixed;top:50%; left:50%; transform: translate(-50%, -50%); border:5px solid black"">","","","","","","","",""
"","5913.144999998622","sequential-stimulus-presentation-old","60","686035","0.0-17.0-1.1","SS1618435651677","trial","","40","500","6413.144999998622","images/stimuli/spore_stims/complex_04_A_b.gif","images/stimuli/spore_stims/complex_10_A_a.gif","forced_long","","4","complex_dissimilar","images/stimuli/spore_stims/complex_10_A_a.gif","","","","",""
"","null","html-keyboard-response","61","687292","0.0-17.0-0.2","SS1618435651677","","","null","","","","","","<p><img src= images/blank.png width =""600"" height = ""600"" style=""position:fixed;top:50%; left:50%; transform: translate(-50%, -50%); border:5px solid black"">","","","","","","","",""
"","6873.489999998128","sequential-stimulus-presentation-old","62","694669","0.0-17.0-1.2","SS1618435651677","trial","","40","500","7373.489999998128","images/stimuli/spore_stims/complex_04_A_b.gif","images/stimuli/spore_stims/complex_10_A_a.gif","forced_long","","4","complex_dissimilar","images/stimuli/spore_stims/complex_10_A_a.gif","","","","",""
"","null","html-keyboard-response","63","695587","0.0-17.0-0.3","SS1618435651677","","","null","","","","","","<p><img src= images/blank.png width =""600"" height = ""600"" style=""position:fixed;top:50%; left:50%; transform: translate(-50%, -50%); border:5px solid black"">","","","","","","","",""
"","7695.690000007744","sequential-stimulus-presentation-old","64","703786","0.0-17.0-1.3","SS1618435651677","trial","","40","500","8195.690000007744","images/stimuli/spore_stims/complex_04_A_b.gif","images/stimuli/spore_stims/complex_10_A_a.gif","forced_long","","4","complex_dissimilar","images/stimuli/spore_stims/complex_10_A_a.gif","","","","",""
"","null","html-keyboard-response","65","704855","0.0-17.0-0.4","SS1618435651677","","","null","","","","","","<p><img src= images/blank.png width =""600"" height = ""600"" style=""position:fixed;top:50%; left:50%; transform: translate(-50%, -50%); border:5px solid black"">","","","","","","","",""
"","4323.259999990114","sequential-stimulus-presentation-old","66","709682","0.0-17.0-1.4","SS1618435651677","trial","","40","500","4823.259999990114","images/stimuli/spore_stims/complex_04_A_b.gif","images/stimuli/spore_stims/complex_10_A_a.gif","forced_long","","4","complex_dissimilar","images/stimuli/spore_stims/complex_10_A_a.gif","","","","",""
"","4955.280000009225","survey-multi-choice","67","714638","0.0-18.0","SS1618435651677","math_question","","","","","","","","","","","","{""Q0"":""14""}","[0]","14","",""
"","null","html-keyboard-response","68","715605","0.0-19.0-0.0","SS1618435651677","","","null","","","","","","<p><img src= images/blank.png width =""600"" height = ""600"" style=""position:fixed;top:50%; left:50%; transform: translate(-50%, -50%); border:5px solid black"">","","","","","","","",""
"","2916.6350000014063","sequential-stimulus-presentation-old","69","718575","0.0-19.0-1.0","SS1618435651677","trial","","40","500","3416.6350000014063","images/stimuli/spore_stims/complex_15_A_b.gif","images/stimuli/spore_stims/complex_19_A_a.gif","forced_short","","5","complex_dissimilar","images/stimuli/spore_stims/complex_19_A_a.gif","","","","",""
"","null","html-keyboard-response","70","719788","0.0-19.0-0.1","SS1618435651677","","","null","","","","","","<p><img src= images/blank.png width =""600"" height = ""600"" style=""position:fixed;top:50%; left:50%; transform: translate(-50%, -50%); border:5px solid black"">","","","","","","","",""
"","5105.455000011716","sequential-stimulus-presentation-old","71","725397","0.0-19.0-1.1","SS1618435651677","trial","","40","500","5605.455000011716","images/stimuli/spore_stims/complex_15_A_b.gif","images/stimuli/spore_stims/complex_19_A_a.gif","forced_short","","5","complex_dissimilar","images/stimuli/spore_stims/complex_19_A_a.gif","","","","",""
"","null","html-keyboard-response","72","726577","0.0-19.0-0.2","SS1618435651677","","","null","","","","","","<p><img src= images/blank.png width =""600"" height = ""600"" style=""position:fixed;top:50%; left:50%; transform: translate(-50%, -50%); border:5px solid black"">","","","","","","","",""
"","7702.30000000447","sequential-stimulus-presentation-old","73","734781","0.0-19.0-1.2","SS1618435651677","trial","","40","500","8202.30000000447","images/stimuli/spore_stims/complex_15_A_b.gif","images/stimuli/spore_stims/complex_19_A_a.gif","forced_short","","5","complex_dissimilar","images/stimuli/spore_stims/complex_15_A_b.gif","","","","",""
"","null","html-keyboard-response","74","735707","0.0-19.0-0.3","SS1618435651677","","","null","","","","","","<p><img src= images/blank.png width =""600"" height = ""600"" style=""position:fixed;top:50%; left:50%; transform: translate(-50%, -50%); border:5px solid black"">","","","","","","","",""
"","4586.875000008149","sequential-stimulus-presentation-old","75","740796","0.0-19.0-1.3","SS1618435651677","trial","","40","500","5086.875000008149","images/stimuli/spore_stims/complex_15_A_b.gif","images/stimuli/spore_stims/complex_19_A_a.gif","forced_short","","5","complex_dissimilar","images/stimuli/spore_stims/complex_19_A_a.gif","","","","",""
"","null","html-keyboard-response","76","741781","0.0-19.0-0.4","SS1618435651677","","","null","","","","","","<p><img src= images/blank.png width =""600"" height = ""600"" style=""position:fixed;top:50%; left:50%; transform: translate(-50%, -50%); border:5px solid black"">","","","","","","","",""
"","2586.2450000131503","sequential-stimulus-presentation-old","77","744870","0.0-19.0-1.4","SS1618435651677","trial","","40","500","3086.2450000131503","images/stimuli/spore_stims/complex_15_A_b.gif","images/stimuli/spore_stims/complex_19_A_a.gif","forced_short","","5","complex_dissimilar","images/stimuli/spore_stims/complex_15_A_b.gif","","","","",""
"","3929.3949999992037","survey-multi-choice","78","748801","0.0-20.0","SS1618435651677","math_question","","","","","","","","","","","","{""Q0"":""5""}","[0]","5","",""
"","null","html-keyboard-response","79","750063","0.0-21.0-0.0","SS1618435651677","","","null","","","","","","<p><img src= images/blank.png width =""600"" height = ""600"" style=""position:fixed;top:50%; left:50%; transform: translate(-50%, -50%); border:5px solid black"">","","","","","","","",""
"","1602.149999991525","sequential-stimulus-presentation-old","80","751721","0.0-21.0-1.0","SS1618435651677","trial","","40","500","2102.149999991525","images/stimuli/spore_stims/simple_05_A_b.gif","images/stimuli/spore_stims/simple_09_A_a.gif","forced_short","","6","simple_dissimilar","images/stimuli/spore_stims/simple_09_A_a.gif","","","","",""
"","null","html-keyboard-response","81","752527","0.0-21.0-0.1","SS1618435651677","","","null","","","","","","<p><img src= images/blank.png width =""600"" height = ""600"" style=""position:fixed;top:50%; left:50%; transform: translate(-50%, -50%); border:5px solid black"">","","","","","","","",""
"","2699.1149999957997","sequential-stimulus-presentation-old","82","755730","0.0-21.0-1.1","SS1618435651677","trial","","40","500","3199.1149999957997","images/stimuli/spore_stims/simple_05_A_b.gif","images/stimuli/spore_stims/simple_09_A_a.gif","forced_short","","6","simple_dissimilar","images/stimuli/spore_stims/simple_09_A_a.gif","","","","",""
"","null","html-keyboard-response","83","756609","0.0-21.0-0.2","SS1618435651677","","","null","","","","","","<p><img src= images/blank.png width =""600"" height = ""600"" style=""position:fixed;top:50%; left:50%; transform: translate(-50%, -50%); border:5px solid black"">","","","","","","","",""
"","908.770000009099","sequential-stimulus-presentation-old","84","758022","0.0-21.0-1.2","SS1618435651677","trial","","40","500","1408.770000009099","images/stimuli/spore_stims/simple_05_A_b.gif","images/stimuli/spore_stims/simple_09_A_a.gif","forced_short","","6","simple_dissimilar","images/stimuli/spore_stims/simple_09_A_a.gif","","","","",""
"","null","html-keyboard-response","85","759322","0.0-21.0-0.3","SS1618435651677","","","null","","","","","","<p><img src= images/blank.png width =""600"" height = ""600"" style=""position:fixed;top:50%; left:50%; transform: translate(-50%, -50%); border:5px solid black"">","","","","","","","",""
"","19.050000002607703","sequential-stimulus-presentation-old","86","759844","0.0-21.0-1.3","SS1618435651677","trial","","40","500","519.0500000026077","images/stimuli/spore_stims/simple_05_A_b.gif","images/stimuli/spore_stims/simple_09_A_a.gif","forced_short","","6","simple_dissimilar","images/stimuli/spore_stims/simple_09_A_a.gif","","","","",""
"","null","html-keyboard-response","87","760716","0.0-21.0-0.4","SS1618435651677","","","null","","","","","","<p><img src= images/blank.png width =""600"" height = ""600"" style=""position:fixed;top:50%; left:50%; transform: translate(-50%, -50%); border:5px solid black"">","","","","","","","",""
"","2500.5700000037905","sequential-stimulus-presentation-old","88","763720","0.0-21.0-1.4","SS1618435651677","trial","","40","500","3000.5700000037905","images/stimuli/spore_stims/simple_05_A_b.gif","images/stimuli/spore_stims/simple_09_A_a.gif","forced_short","","6","simple_dissimilar","images/stimuli/spore_stims/simple_09_A_a.gif","","","","",""
"","6193.565000008675","survey-multi-choice","89","769914","0.0-22.0","SS1618435651677","math_question","","","","","","","","","","","","{""Q0"":""18""}","[0]","18","",""
"","null","html-keyboard-response","90","771111","0.0-23.0-0.0","SS1618435651677","","","null","","","","","","<p><img src= images/blank.png width =""600"" height = ""600"" style=""position:fixed;top:50%; left:50%; transform: translate(-50%, -50%); border:5px solid black"">","","","","","","","",""
"","5270.479999991949","sequential-stimulus-presentation-old","91","776885","0.0-23.0-1.0","SS1618435651677","trial","","40","500","5770.479999991949","images/stimuli/spore_stims/complex_11_A_b.gif","images/stimuli/spore_stims/complex_16_A_a.gif","self_paced","","7","complex_dissimilar","images/stimuli/spore_stims/complex_16_A_a.gif","","","","",""
"","null","html-keyboard-response","92","778164","0.0-23.0-0.1","SS1618435651677","","","null","","","","","","<p><img src= images/blank.png width =""600"" height = ""600"" style=""position:fixed;top:50%; left:50%; transform: translate(-50%, -50%); border:5px solid black"">","","","","","","","",""
"","3336.204999999609","sequential-stimulus-presentation-old","93","782003","0.0-23.0-1.1","SS1618435651677","trial","","40","500","3836.204999999609","images/stimuli/spore_stims/complex_11_A_b.gif","images/stimuli/spore_stims/complex_16_A_a.gif","self_paced","","7","complex_dissimilar","images/stimuli/spore_stims/complex_16_A_a.gif","","","","",""
"","null","html-keyboard-response","94","783130","0.0-23.0-0.2","SS1618435651677","","","null","","","","","","<p><img src= images/blank.png width =""600"" height = ""600"" style=""position:fixed;top:50%; left:50%; transform: translate(-50%, -50%); border:5px solid black"">","","","","","","","",""
"","5813.369999988936","sequential-stimulus-presentation-old","95","789446","0.0-23.0-1.2","SS1618435651677","trial","","40","500","6313.369999988936","images/stimuli/spore_stims/complex_11_A_b.gif","images/stimuli/spore_stims/complex_16_A_a.gif","self_paced","","7","complex_dissimilar","images/stimuli/spore_stims/complex_11_A_b.gif","","","","",""
"","null","html-keyboard-response","96","790383","0.0-23.0-0.3","SS1618435651677","","","null","","","","","","<p><img src= images/blank.png width =""600"" height = ""600"" style=""position:fixed;top:50%; left:50%; transform: translate(-50%, -50%); border:5px solid black"">","","","","","","","",""
"","2802.6350000000093","sequential-stimulus-presentation-old","97","793688","0.0-23.0-1.3","SS1618435651677","trial","","40","500","3302.6350000000093","images/stimuli/spore_stims/complex_11_A_b.gif","images/stimuli/spore_stims/complex_16_A_a.gif","self_paced","","7","complex_dissimilar","images/stimuli/spore_stims/complex_11_A_b.gif","","","","",""
"","4670.444999996107","survey-multi-choice","98","798360","0.0-24.0","SS1618435651677","math_question","","","","","","","","","","","","{""Q0"":""10""}","[0]","10","",""
"","null","html-keyboard-response","99","799374","0.0-25.0-0.0","SS1618435651677","","","null","","","","","","<p><img src= images/blank.png width =""600"" height = ""600"" style=""position:fixed;top:50%; left:50%; transform: translate(-50%, -50%); border:5px solid black"">","","","","","","","",""
"","344.64500000467524","sequential-stimulus-presentation-old","100","804721","0.0-25.0-1.0","SS1618435651677","trial","","40","500","844.6450000046752","images/stimuli/spore_stims/simple_10_A_a.gif","images/stimuli/spore_stims/simple_19_A_b.gif","forced_long","","8","simple_dissimilar","images/stimuli/spore_stims/simple_19_A_b.gif","","","","",""
"","null","html-keyboard-response","101","806012","0.0-25.0-0.1","SS1618435651677","","","null","","","","","","<p><img src= images/blank.png width =""600"" height = ""600"" style=""position:fixed;top:50%; left:50%; transform: translate(-50%, -50%); border:5px solid black"">","","","","","","","",""
"","3771.0649999935413","sequential-stimulus-presentation-old","102","810287","0.0-25.0-1.1","SS1618435651677","trial","","40","500","4271.064999993541","images/stimuli/spore_stims/simple_10_A_a.gif","images/stimuli/spore_stims/simple_19_A_b.gif","forced_long","","8","simple_dissimilar","images/stimuli/spore_stims/simple_19_A_b.gif","","","","",""
"","null","html-keyboard-response","103","811364","0.0-25.0-0.2","SS1618435651677","","","null","","","","","","<p><img src= images/blank.png width =""600"" height = ""600"" style=""position:fixed;top:50%; left:50%; transform: translate(-50%, -50%); border:5px solid black"">","","","","","","","",""
"","4101.249999992433","sequential-stimulus-presentation-old","104","815968","0.0-25.0-1.2","SS1618435651677","trial","","40","500","4601.249999992433","images/stimuli/spore_stims/simple_10_A_a.gif","images/stimuli/spore_stims/simple_19_A_b.gif","forced_long","","8","simple_dissimilar","images/stimuli/spore_stims/simple_10_A_a.gif","","","","",""
"","null","html-keyboard-response","105","816821","0.0-25.0-0.3","SS1618435651677","","","null","","","","","","<p><img src= images/blank.png width =""600"" height = ""600"" style=""position:fixed;top:50%; left:50%; transform: translate(-50%, -50%); border:5px solid black"">","","","","","","","",""
"","1501.2100000021746","sequential-stimulus-presentation-old","106","818825","0.0-25.0-1.3","SS1618435651677","trial","","40","500","2001.2100000021746","images/stimuli/spore_stims/simple_10_A_a.gif","images/stimuli/spore_stims/simple_19_A_b.gif","forced_long","","8","simple_dissimilar","images/stimuli/spore_stims/simple_19_A_b.gif","","","","",""
"","null","html-keyboard-response","107","820035","0.0-25.0-0.4","SS1618435651677","","","null","","","","","","<p><img src= images/blank.png width =""600"" height = ""600"" style=""position:fixed;top:50%; left:50%; transform: translate(-50%, -50%); border:5px solid black"">","","","","","","","",""
"","2519.865000009304","sequential-stimulus-presentation-old","108","823058","0.0-25.0-1.4","SS1618435651677","trial","","40","500","3019.865000009304","images/stimuli/spore_stims/simple_10_A_a.gif","images/stimuli/spore_stims/simple_19_A_b.gif","forced_long","","8","simple_dissimilar","images/stimuli/spore_stims/simple_19_A_b.gif","","","","",""
"","5730.804999999236","survey-multi-choice","109","828791","0.0-26.0","SS1618435651677","math_question","","","","","","","","","","","","{""Q0"":""7""}","[0]","7","",""
"","null","html-keyboard-response","110","829616","0.0-27.0-0.0","SS1618435651677","","","null","","","","","","<p><img src= images/blank.png width =""600"" height = ""600"" style=""position:fixed;top:50%; left:50%; transform: translate(-50%, -50%); border:5px solid black"">","","","","","","","",""
"","5677.939999994123","sequential-stimulus-presentation-old","111","835347","0.0-27.0-1.0","SS1618435651677","trial","","40","500","6177.939999994123","images/stimuli/spore_stims/complex_02_A_a.gif","images/stimuli/spore_stims/complex_16_A_b.gif","forced_short","","9","complex_dissimilar","images/stimuli/spore_stims/complex_16_A_b.gif","","","","",""
"","null","html-keyboard-response","112","836386","0.0-27.0-0.1","SS1618435651677","","","null","","","","","","<p><img src= images/blank.png width =""600"" height = ""600"" style=""position:fixed;top:50%; left:50%; transform: translate(-50%, -50%); border:5px solid black"">","","","","","","","",""
"","5282.790000012028","sequential-stimulus-presentation-old","113","842171","0.0-27.0-1.1","SS1618435651677","trial","","40","500","5782.790000012028","images/stimuli/spore_stims/complex_02_A_a.gif","images/stimuli/spore_stims/complex_16_A_b.gif","forced_short","","9","complex_dissimilar","images/stimuli/spore_stims/complex_02_A_a.gif","","","","",""
"","null","html-keyboard-response","114","843004","0.0-27.0-0.2","SS1618435651677","","","null","","","","","","<p><img src= images/blank.png width =""600"" height = ""600"" style=""position:fixed;top:50%; left:50%; transform: translate(-50%, -50%); border:5px solid black"">","","","","","","","",""
"","3277.220000003581","sequential-stimulus-presentation-old","115","846784","0.0-27.0-1.2","SS1618435651677","trial","","40","500","3777.220000003581","images/stimuli/spore_stims/complex_02_A_a.gif","images/stimuli/spore_stims/complex_16_A_b.gif","forced_short","","9","complex_dissimilar","images/stimuli/spore_stims/complex_16_A_b.gif","","","","",""
"","null","html-keyboard-response","116","847594","0.0-27.0-0.3","SS1618435651677","","","null","","","","","","<p><img src= images/blank.png width =""600"" height = ""600"" style=""position:fixed;top:50%; left:50%; transform: translate(-50%, -50%); border:5px solid black"">","","","","","","","",""
"","5648.040000000037","sequential-stimulus-presentation-old","117","853745","0.0-27.0-1.3","SS1618435651677","trial","","40","500","6148.040000000037","images/stimuli/spore_stims/complex_02_A_a.gif","images/stimuli/spore_stims/complex_16_A_b.gif","forced_short","","9","complex_dissimilar","images/stimuli/spore_stims/complex_16_A_b.gif","","","","",""
"","3691.9199999974808","survey-multi-choice","118","857438","0.0-28.0","SS1618435651677","math_question","","","","","","","","","","","","{""Q0"":""12""}","[0]","12","",""
"","null","html-keyboard-response","119","858266","0.0-29.0-0.0","SS1618435651677","","","null","","","","","","<p><img src= images/blank.png width =""600"" height = ""600"" style=""position:fixed;top:50%; left:50%; transform: translate(-50%, -50%); border:5px solid black"">","","","","","","","",""
"","9309.39500000386","sequential-stimulus-presentation-old","120","868078","0.0-29.0-1.0","SS1618435651677","trial","","40","500","9809.39500000386","images/stimuli/spore_stims/simple_14_A_a.gif","images/stimuli/spore_stims/simple_01_A_b.gif","self_paced","","10","simple_dissimilar","images/stimuli/spore_stims/simple_01_A_b.gif","","","","",""
"","null","html-keyboard-response","121","869177","0.0-29.0-0.1","SS1618435651677","","","null","","","","","","<p><img src= images/blank.png width =""600"" height = ""600"" style=""position:fixed;top:50%; left:50%; transform: translate(-50%, -50%); border:5px solid black"">","","","","","","","",""
"","6981.455000001006","sequential-stimulus-presentation-old","122","876661","0.0-29.0-1.1","SS1618435651677","trial","","40","500","7481.455000001006","images/stimuli/spore_stims/simple_14_A_a.gif","images/stimuli/spore_stims/simple_01_A_b.gif","self_paced","","10","simple_dissimilar","images/stimuli/spore_stims/simple_01_A_b.gif","","","","",""
"","null","html-keyboard-response","123","877849","0.0-29.0-0.2","SS1618435651677","","","null","","","","","","<p><img src= images/blank.png width =""600"" height = ""600"" style=""position:fixed;top:50%; left:50%; transform: translate(-50%, -50%); border:5px solid black"">","","","","","","","",""
"","7910.155000005034","sequential-stimulus-presentation-old","124","886263","0.0-29.0-1.2","SS1618435651677","trial","","40","500","8410.155000005034","images/stimuli/spore_stims/simple_14_A_a.gif","images/stimuli/spore_stims/simple_01_A_b.gif","self_paced","","10","simple_dissimilar","images/stimuli/spore_stims/simple_01_A_b.gif","","","","",""
"","null","html-keyboard-response","125","887339","0.0-29.0-0.3","SS1618435651677","","","null","","","","","","<p><img src= images/blank.png width =""600"" height = ""600"" style=""position:fixed;top:50%; left:50%; transform: translate(-50%, -50%); border:5px solid black"">","","","","","","","",""
"","1045.2300000033574","sequential-stimulus-presentation-old","126","888887","0.0-29.0-1.3","SS1618435651677","trial","","40","500","1545.2300000033574","images/stimuli/spore_stims/simple_14_A_a.gif","images/stimuli/spore_stims/simple_01_A_b.gif","self_paced","","10","simple_dissimilar","images/stimuli/spore_stims/simple_01_A_b.gif","","","","",""
"","null","html-keyboard-response","127","889875","0.0-29.0-0.4","SS1618435651677","","","null","","","","","","<p><img src= images/blank.png width =""600"" height = ""600"" style=""position:fixed;top:50%; left:50%; transform: translate(-50%, -50%); border:5px solid black"">","","","","","","","",""
"","1078.9099999965401","sequential-stimulus-presentation-old","128","891457","0.0-29.0-1.4","SS1618435651677","trial","","40","500","1578.9099999965401","images/stimuli/spore_stims/simple_14_A_a.gif","images/stimuli/spore_stims/simple_01_A_b.gif","self_paced","","10","simple_dissimilar","images/stimuli/spore_stims/simple_01_A_b.gif","","","","",""
"","null","html-keyboard-response","129","892601","0.0-29.0-0.5","SS1618435651677","","","null","","","","","","<p><img src= images/blank.png width =""600"" height = ""600"" style=""position:fixed;top:50%; left:50%; transform: translate(-50%, -50%); border:5px solid black"">","","","","","","","",""
"","2045.8100000105333","sequential-stimulus-presentation-old","130","895149","0.0-29.0-1.5","SS1618435651677","trial","","40","500","2545.8100000105333","images/stimuli/spore_stims/simple_14_A_a.gif","images/stimuli/spore_stims/simple_01_A_b.gif","self_paced","","10","simple_dissimilar","images/stimuli/spore_stims/simple_01_A_b.gif","","","","",""
"","3578.430000008666","survey-multi-choice","131","898729","0.0-30.0","SS1618435651677","math_question","","","","","","","","","","","","{""Q0"":""4""}","[0]","4","",""
"","null","html-keyboard-response","132","899970","0.0-31.0-0.0","SS1618435651677","","","null","","","","","","<p><img src= images/blank.png width =""600"" height = ""600"" style=""position:fixed;top:50%; left:50%; transform: translate(-50%, -50%); border:5px solid black"">","","","","","","","",""
"","8466.4300000004","sequential-stimulus-presentation-old","133","913439","0.0-31.0-1.0","SS1618435651677","trial","","40","500","8966.4300000004","images/stimuli/spore_stims/complex_20_A_a.gif","images/stimuli/spore_stims/complex_06_A_b.gif","forced_long","","11","complex_dissimilar","images/stimuli/spore_stims/complex_06_A_b.gif","","","","",""
"","null","html-keyboard-response","134","914451","0.0-31.0-0.1","SS1618435651677","","","null","","","","","","<p><img src= images/blank.png width =""600"" height = ""600"" style=""position:fixed;top:50%; left:50%; transform: translate(-50%, -50%); border:5px solid black"">","","","","","","","",""
"","5064.975000001141","sequential-stimulus-presentation-old","135","920019","0.0-31.0-1.1","SS1618435651677","trial","","40","500","5564.975000001141","images/stimuli/spore_stims/complex_20_A_a.gif","images/stimuli/spore_stims/complex_06_A_b.gif","forced_long","","11","complex_dissimilar","images/stimuli/spore_stims/complex_06_A_b.gif","","","","",""
"","null","html-keyboard-response","136","921272","0.0-31.0-0.2","SS1618435651677","","","null","","","","","","<p><img src= images/blank.png width =""600"" height = ""600"" style=""position:fixed;top:50%; left:50%; transform: translate(-50%, -50%); border:5px solid black"">","","","","","","","",""
"","3896.3150000054156","sequential-stimulus-presentation-old","137","925671","0.0-31.0-1.2","SS1618435651677","trial","","40","500","4396.315000005416","images/stimuli/spore_stims/complex_20_A_a.gif","images/stimuli/spore_stims/complex_06_A_b.gif","forced_long","","11","complex_dissimilar","images/stimuli/spore_stims/complex_06_A_b.gif","","","","",""
"","null","html-keyboard-response","138","926498","0.0-31.0-0.3","SS1618435651677","","","null","","","","","","<p><img src= images/blank.png width =""600"" height = ""600"" style=""position:fixed;top:50%; left:50%; transform: translate(-50%, -50%); border:5px solid black"">","","","","","","","",""
"","3100.6950000009965","sequential-stimulus-presentation-old","139","930101","0.0-31.0-1.3","SS1618435651677","trial","","40","500","3600.6950000009965","images/stimuli/spore_stims/complex_20_A_a.gif","images/stimuli/spore_stims/complex_06_A_b.gif","forced_long","","11","complex_dissimilar","images/stimuli/spore_stims/complex_20_A_a.gif","","","","",""
"","null","html-keyboard-response","140","931337","0.0-31.0-0.4","SS1618435651677","","","null","","","","","","<p><img src= images/blank.png width =""600"" height = ""600"" style=""position:fixed;top:50%; left:50%; transform: translate(-50%, -50%); border:5px solid black"">","","","","","","","",""
"","1659.525000010035","sequential-stimulus-presentation-old","141","933500","0.0-31.0-1.4","SS1618435651677","trial","","40","500","2159.525000010035","images/stimuli/spore_stims/complex_20_A_a.gif","images/stimuli/spore_stims/complex_06_A_b.gif","forced_long","","11","complex_dissimilar","images/stimuli/spore_stims/complex_06_A_b.gif","","","","",""
"[{""page_index"":0,""viewing_time"":12039.529999994556}]","12039.714999991702","instructions","142","945541","0.0-32.0","SS1618435651677","instructions","","","","","","","","","","","","","","","",""
"","21946.670000004815","survey-likert","143","967491","0.0-33.0","SS1618435651677","similarity_question","","","","","","","","","","","","{""Q0"":3}","[0]","","images/stimuli/spore_stims/simple_10_A_a.gif","images/stimuli/spore_stims/simple_19_A_b.gif"
"","17756.8450000108","survey-likert","144","985250","0.0-34.0","SS1618435651677","similarity_question","","","","","","","","","","","","{""Q0"":1}","[0]","","images/stimuli/spore_stims/complex_10_A_b.gif","images/stimuli/spore_stims/complex_03_A_a.gif"
"","9213.499999998021","survey-likert","145","994466","0.0-35.0","SS1618435651677","similarity_question","","","","","","","","","","","","{""Q0"":4}","[0]","","images/stimuli/spore_stims/complex_11_A_b.gif","images/stimuli/spore_stims/complex_16_A_a.gif"
"","4421.300000001793","survey-likert","146","998890","0.0-36.0","SS1618435651677","similarity_question","","","","","","","","","","","","{""Q0"":2}","[0]","","images/stimuli/spore_stims/complex_16_A_b.gif","images/stimuli/spore_stims/complex_02_A_a.gif"
"","5046.065000002272","survey-likert","147","1003938","0.0-37.0","SS1618435651677","similarity_question","","","","","","","","","","","","{""Q0"":5}","[0]","","images/stimuli/spore_stims/simple_01_A_b.gif","images/stimuli/spore_stims/simple_14_A_a.gif"
"","14934.695000003558","survey-likert","148","1018875","0.0-38.0","SS1618435651677","similarity_question","","","","","","","","","","","","{""Q0"":2}","[0]","","images/stimuli/spore_stims/simple_20_A_b.gif","images/stimuli/spore_stims/simple_11_A_a.gif"
"","7747.4399999919115","survey-likert","149","1026625","0.0-39.0","SS1618435651677","similarity_question","","","","","","","","","","","","{""Q0"":0}","[0]","","images/stimuli/spore_stims/complex_15_A_b.gif","images/stimuli/spore_stims/complex_19_A_a.gif"
"","10498.47000000591","survey-likert","150","1037126","0.0-40.0","SS1618435651677","similarity_question","","","","","","","","","","","","{""Q0"":4}","[0]","","images/stimuli/spore_stims/simple_09_A_a.gif","images/stimuli/spore_stims/simple_05_A_b.gif"
"","12176.95500000252","survey-likert","151","1049305","0.0-41.0","SS1618435651677","similarity_question","","","","","","","","","","","","{""Q0"":2}","[0]","","images/stimuli/spore_stims/simple_18_A_b.gif","images/stimuli/spore_stims/simple_12_A_a.gif"
"","46981.64499999257","survey-likert","152","1096296","0.0-42.0","SS1618435651677","similarity_question","","","","","","","","","","","","{""Q0"":4}","[0]","","images/stimuli/spore_stims/simple_13_A_b.gif","images/stimuli/spore_stims/simple_01_A_a.gif"
"","6211.734999989625","survey-likert","153","1102510","0.0-43.0","SS1618435651677","similarity_question","","","","","","","","","","","","{""Q0"":4}","[0]","","images/stimuli/spore_stims/complex_04_A_b.gif","images/stimuli/spore_stims/complex_10_A_a.gif"
"","5610.820000001695","survey-likert","154","1108123","0.0-44.0","SS1618435651677","similarity_question","","","","","","","","","","","","{""Q0"":4}","[0]","","images/stimuli/spore_stims/complex_20_A_a.gif","images/stimuli/spore_stims/complex_06_A_b.gif"
"[{""page_index"":0,""viewing_time"":8111.959999994608}]","8112.139999997336","instructions","155","1116237","0.0-45.0","SS1618435651677","instructions","","","","","","","","","","","","","","","",""
"","8464.160000003176","survey-likert","156","1124704","0.0-46.0","SS1618435651677","","","","","","","","","images/stimuli/spore_stims/complex_02_A_a.gif","","","","{""Q0"":3}","[0]","","",""
"","15923.22000001138","survey-likert","157","1140630","0.0-47.0","SS1618435651677","","","","","","","","","images/stimuli/spore_stims/complex_06_A_b.gif","","","","{""Q0"":4}","[0]","","",""
"","6339.18999999878","survey-likert","158","1146971","0.0-48.0","SS1618435651677","","","","","","","","","images/stimuli/spore_stims/simple_19_A_b.gif","","","","{""Q0"":2}","[0]","","",""
"","7181.465000001481","survey-likert","159","1154156","0.0-49.0","SS1618435651677","","","","","","","","","images/stimuli/spore_stims/complex_03_A_a.gif","","","","{""Q0"":4}","[0]","","",""
"","5851.880000001984","survey-likert","160","1160010","0.0-50.0","SS1618435651677","","","","","","","","","images/stimuli/spore_stims/complex_10_A_a.gif","","","","{""Q0"":5}","[0]","","",""
"","3804.0650000039022","survey-likert","161","1163816","0.0-51.0","SS1618435651677","","","","","","","","","images/stimuli/spore_stims/simple_20_A_b.gif","","","","{""Q0"":1}","[0]","","",""
"","3050.6050000111572","survey-likert","162","1166869","0.0-52.0","SS1618435651677","","","","","","","","","images/stimuli/spore_stims/simple_05_A_b.gif","","","","{""Q0"":0}","[0]","","",""
"","1974.7500000086147","survey-likert","163","1168846","0.0-53.0","SS1618435651677","","","","","","","","","images/stimuli/spore_stims/simple_12_A_a.gif","","","","{""Q0"":0}","[0]","","",""
"","2200.06000000285","survey-likert","164","1171049","0.0-54.0","SS1618435651677","","","","","","","","","images/stimuli/spore_stims/simple_14_A_a.gif","","","","{""Q0"":0}","[0]","","",""
"","1783.705000008922","survey-likert","165","1172835","0.0-55.0","SS1618435651677","","","","","","","","","images/stimuli/spore_stims/simple_13_A_b.gif","","","","{""Q0"":0}","[0]","","",""
"","4126.694999998901","survey-likert","166","1176964","0.0-56.0","SS1618435651677","","","","","","","","","images/stimuli/spore_stims/complex_11_A_b.gif","","","","{""Q0"":6}","[0]","","",""
"","2475.0100000090897","survey-likert","167","1179441","0.0-57.0","SS1618435651677","","","","","","","","","images/stimuli/spore_stims/complex_15_A_b.gif","","","","{""Q0"":6}","[0]","","",""
"[{""page_index"":0,""viewing_time"":2333.3800000108313}]","2333.5450000013225","instructions","168","1181777","0.0-58.0","SS1618435651677","instructions","","","","","","","","","","","","","","","",""
"","2652.339999986114","demog-age","169","1184433","0.0-59.0","SS1618435651677","","","","","","","","","","","","","{""age"":""18""}","","","",""
"","7295.289999994682","demog-ethnic-US","170","1191732","0.0-60.0","SS1618435651677","","","","","","","","","","","","","{""ethnicity"":[""White""]}","[0]","","",""
"","12667.825000011362","demog-gender-and-education","171","1204403","0.0-61.0","SS1618435651677","","","","","","","","","","","","","{""gender"":""Male"",""education"":""Some high school""}","[0,1]","","",""
"","77009.98499999708","survey-text","172","1281415","0.0-62.0","SS1618435651677","feedback","","","","","","","","","","","","{""Q0"":""It was vary good study, everything was perfect!!""}","","","",""
"[{""page_index"":0,""viewing_time"":2642.84499999485}]","2643.015000008745","instructions","173","1284061","0.0-63.0","SS1618435651677","instructions","","","","","","","","","","","","","","","",""
