"view_history","rt","trial_type","trial_index","time_elapsed","internal_node_id","subject","stimulus_type","trial_stimulus","key_press","minimum_viewing_duration","trial_looking_time","block_deviant","block_background","exposure_type","stimulus","block_number","block_type","stimulus_displayed","responses","question_order","math_correct_answer","stimulus_left","stimulus_right"
"[{""page_index"":0,""viewing_time"":10757.37999996636}]","10757.83500005491","instructions","0","10758","0.0-0.0","SS1618365724109","","","","","","","","","","","","","","","","",""
"[{""page_index"":0,""viewing_time"":13064.114999957383},{""page_index"":1,""viewing_time"":6101.1250000447035}]","19165.35499994643","instructions","1","31939","0.0-1.0","SS1618365724109","instructions","","","","","","","","","","","","","","","",""
"","5883.349999901839","sequential-stimulus-presentation-old","2","38325","0.0-2.0","SS1618365724109","","","40","500","6383.349999901839","null","null","self_paced","","","","","","","","",""
"","4946.165000088513","sequential-stimulus-presentation-old","3","43772","0.0-3.0","SS1618365724109","","","40","500","5446.165000088513","null","null","self_paced","","","","","","","","",""
"[{""page_index"":0,""viewing_time"":41493.09499992523}]","41493.20499994792","instructions","4","85266","0.0-4.0","SS1618365724109","instructions","","","","","","","","","","","","","","","",""
"","2688.6849999427795","sequential-stimulus-presentation-old","5","92956","0.0-5.0","SS1618365724109","","","40","500","3188.6849999427795","null","null","forced_long","","","","","","","","",""
"","3787.5749999657273","sequential-stimulus-presentation-old","6","96796","0.0-6.0","SS1618365724109","","","40","50","3837.5749999657273","null","null","forced_long","","","","","","","","",""
"[{""page_index"":0,""viewing_time"":5068.775000050664}]","5068.874999997206","instructions","7","101865","0.0-7.0","SS1618365724109","instructions","","","","","","","","","","","","","","","",""
"[{""page_index"":0,""viewing_time"":9599.234999972396},{""page_index"":1,""viewing_time"":11833.170000114478},{""page_index"":2,""viewing_time"":8515.489999903366},{""page_index"":3,""viewing_time"":1711.71000006143},{""page_index"":4,""viewing_time"":1513.0649999482557}]","33172.77000006288","instructions","8","135039","0.0-8.0","SS1618365724109","instructions","","","","","","","","","","","","","","","",""
"","null","html-keyboard-response","9","136269","0.0-9.0-0.0","SS1618365724109","","","null","","","","","","<p><img src= images/blank.png width =""600"" height = ""600"" style=""position:fixed;top:50%; left:50%; transform: translate(-50%, -50%); border:5px solid black"">","","","","","","","",""
"","12056.365000084043","sequential-stimulus-presentation-old","10","148829","0.0-9.0-1.0","SS1618365724109","trial","","40","500","12556.365000084043","images/stimuli/spore_stims/complex_01_A_a.gif","images/stimuli/spore_stims/complex_02_A_b.gif","self_paced","","0","complex_dissimilar","images/stimuli/spore_stims/complex_02_A_b.gif","","","","",""
"","null","html-keyboard-response","11","149934","0.0-9.0-0.1","SS1618365724109","","","null","","","","","","<p><img src= images/blank.png width =""600"" height = ""600"" style=""position:fixed;top:50%; left:50%; transform: translate(-50%, -50%); border:5px solid black"">","","","","","","","",""
"","6392.8300000261515","sequential-stimulus-presentation-old","12","156829","0.0-9.0-1.1","SS1618365724109","trial","","40","500","6892.8300000261515","images/stimuli/spore_stims/complex_01_A_a.gif","images/stimuli/spore_stims/complex_02_A_b.gif","self_paced","","0","complex_dissimilar","images/stimuli/spore_stims/complex_02_A_b.gif","","","","",""
"","null","html-keyboard-response","13","157892","0.0-9.0-0.2","SS1618365724109","","","null","","","","","","<p><img src= images/blank.png width =""600"" height = ""600"" style=""position:fixed;top:50%; left:50%; transform: translate(-50%, -50%); border:5px solid black"">","","","","","","","",""
"","8061.695000040345","sequential-stimulus-presentation-old","14","166457","0.0-9.0-1.2","SS1618365724109","trial","","40","500","8561.695000040345","images/stimuli/spore_stims/complex_01_A_a.gif","images/stimuli/spore_stims/complex_02_A_b.gif","self_paced","","0","complex_dissimilar","images/stimuli/spore_stims/complex_01_A_a.gif","","","","",""
"","null","html-keyboard-response","15","167692","0.0-9.0-0.3","SS1618365724109","","","null","","","","","","<p><img src= images/blank.png width =""600"" height = ""600"" style=""position:fixed;top:50%; left:50%; transform: translate(-50%, -50%); border:5px solid black"">","","","","","","","",""
"","5174.514999962412","sequential-stimulus-presentation-old","16","173369","0.0-9.0-1.3","SS1618365724109","trial","","40","500","5674.514999962412","images/stimuli/spore_stims/complex_01_A_a.gif","images/stimuli/spore_stims/complex_02_A_b.gif","self_paced","","0","complex_dissimilar","images/stimuli/spore_stims/complex_02_A_b.gif","","","","",""
"","null","html-keyboard-response","17","174279","0.0-9.0-0.4","SS1618365724109","","","null","","","","","","<p><img src= images/blank.png width =""600"" height = ""600"" style=""position:fixed;top:50%; left:50%; transform: translate(-50%, -50%); border:5px solid black"">","","","","","","","",""
"","4742.210000054911","sequential-stimulus-presentation-old","18","179533","0.0-9.0-1.4","SS1618365724109","trial","","40","500","5242.210000054911","images/stimuli/spore_stims/complex_01_A_a.gif","images/stimuli/spore_stims/complex_02_A_b.gif","self_paced","","0","complex_dissimilar","images/stimuli/spore_stims/complex_01_A_a.gif","","","","",""
"","null","html-keyboard-response","19","180739","0.0-9.0-0.5","SS1618365724109","","","null","","","","","","<p><img src= images/blank.png width =""600"" height = ""600"" style=""position:fixed;top:50%; left:50%; transform: translate(-50%, -50%); border:5px solid black"">","","","","","","","",""
"","7896.380000049248","sequential-stimulus-presentation-old","20","189153","0.0-9.0-1.5","SS1618365724109","trial","","40","500","8396.380000049248","images/stimuli/spore_stims/complex_01_A_a.gif","images/stimuli/spore_stims/complex_02_A_b.gif","self_paced","","0","complex_dissimilar","images/stimuli/spore_stims/complex_02_A_b.gif","","","","",""
"","4118.295000051148","survey-multi-choice","21","193278","0.0-10.0","SS1618365724109","math_question","","","","","","","","","","","","{""Q0"":""7""}","[0]","7","",""
"","null","html-keyboard-response","22","194488","0.0-11.0-0.0","SS1618365724109","","","null","","","","","","<p><img src= images/blank.png width =""600"" height = ""600"" style=""position:fixed;top:50%; left:50%; transform: translate(-50%, -50%); border:5px solid black"">","","","","","","","",""
"","3284.235000028275","sequential-stimulus-presentation-old","23","197825","0.0-11.0-1.0","SS1618365724109","trial","","40","500","3784.235000028275","images/stimuli/spore_stims/simple_12_A_b.gif","images/stimuli/spore_stims/simple_03_A_a.gif","forced_short","","1","simple_dissimilar","images/stimuli/spore_stims/simple_03_A_a.gif","","","","",""
"","null","html-keyboard-response","24","198967","0.0-11.0-0.1","SS1618365724109","","","null","","","","","","<p><img src= images/blank.png width =""600"" height = ""600"" style=""position:fixed;top:50%; left:50%; transform: translate(-50%, -50%); border:5px solid black"">","","","","","","","",""
"","9115.660000010394","sequential-stimulus-presentation-old","25","208585","0.0-11.0-1.1","SS1618365724109","trial","","40","500","9615.660000010394","images/stimuli/spore_stims/simple_12_A_b.gif","images/stimuli/spore_stims/simple_03_A_a.gif","forced_short","","1","simple_dissimilar","images/stimuli/spore_stims/simple_12_A_b.gif","","","","",""
"","null","html-keyboard-response","26","209814","0.0-11.0-0.2","SS1618365724109","","","null","","","","","","<p><img src= images/blank.png width =""600"" height = ""600"" style=""position:fixed;top:50%; left:50%; transform: translate(-50%, -50%); border:5px solid black"">","","","","","","","",""
"","7535.365000017919","sequential-stimulus-presentation-old","27","217852","0.0-11.0-1.2","SS1618365724109","trial","","40","500","8035.365000017919","images/stimuli/spore_stims/simple_12_A_b.gif","images/stimuli/spore_stims/simple_03_A_a.gif","forced_short","","1","simple_dissimilar","images/stimuli/spore_stims/simple_12_A_b.gif","","","","",""
"","null","html-keyboard-response","28","219135","0.0-11.0-0.3","SS1618365724109","","","null","","","","","","<p><img src= images/blank.png width =""600"" height = ""600"" style=""position:fixed;top:50%; left:50%; transform: translate(-50%, -50%); border:5px solid black"">","","","","","","","",""
"","6724.134999909438","sequential-stimulus-presentation-old","29","226368","0.0-11.0-1.3","SS1618365724109","trial","","40","500","7224.134999909438","images/stimuli/spore_stims/simple_12_A_b.gif","images/stimuli/spore_stims/simple_03_A_a.gif","forced_short","","1","simple_dissimilar","images/stimuli/spore_stims/simple_03_A_a.gif","","","","",""
"","5485.0949998945","survey-multi-choice","30","231855","0.0-12.0","SS1618365724109","math_question","","","","","","","","","","","","{""Q0"":""14""}","[0]","14","",""
"","null","html-keyboard-response","31","233132","0.0-13.0-0.0","SS1618365724109","","","null","","","","","","<p><img src= images/blank.png width =""600"" height = ""600"" style=""position:fixed;top:50%; left:50%; transform: translate(-50%, -50%); border:5px solid black"">","","","","","","","",""
"","2548.0500000994653","sequential-stimulus-presentation-old","32","235732","0.0-13.0-1.0","SS1618365724109","trial","","40","500","3048.0500000994653","images/stimuli/spore_stims/complex_09_A_a.gif","images/stimuli/spore_stims/complex_05_A_b.gif","forced_short","","2","complex_dissimilar","images/stimuli/spore_stims/complex_05_A_b.gif","","","","",""
"","null","html-keyboard-response","33","237025","0.0-13.0-0.1","SS1618365724109","","","null","","","","","","<p><img src= images/blank.png width =""600"" height = ""600"" style=""position:fixed;top:50%; left:50%; transform: translate(-50%, -50%); border:5px solid black"">","","","","","","","",""
"","9322.915000026114","sequential-stimulus-presentation-old","34","246864","0.0-13.0-1.1","SS1618365724109","trial","","40","500","9822.915000026114","images/stimuli/spore_stims/complex_09_A_a.gif","images/stimuli/spore_stims/complex_05_A_b.gif","forced_short","","2","complex_dissimilar","images/stimuli/spore_stims/complex_05_A_b.gif","","","","",""
"","null","html-keyboard-response","35","248011","0.0-13.0-0.2","SS1618365724109","","","null","","","","","","<p><img src= images/blank.png width =""600"" height = ""600"" style=""position:fixed;top:50%; left:50%; transform: translate(-50%, -50%); border:5px solid black"">","","","","","","","",""
"","5542.254999978468","sequential-stimulus-presentation-old","36","254068","0.0-13.0-1.2","SS1618365724109","trial","","40","500","6042.254999978468","images/stimuli/spore_stims/complex_09_A_a.gif","images/stimuli/spore_stims/complex_05_A_b.gif","forced_short","","2","complex_dissimilar","images/stimuli/spore_stims/complex_05_A_b.gif","","","","",""
"","null","html-keyboard-response","37","255031","0.0-13.0-0.3","SS1618365724109","","","null","","","","","","<p><img src= images/blank.png width =""600"" height = ""600"" style=""position:fixed;top:50%; left:50%; transform: translate(-50%, -50%); border:5px solid black"">","","","","","","","",""
"","6627.055000048131","sequential-stimulus-presentation-old","38","262161","0.0-13.0-1.3","SS1618365724109","trial","","40","500","7127.055000048131","images/stimuli/spore_stims/complex_09_A_a.gif","images/stimuli/spore_stims/complex_05_A_b.gif","forced_short","","2","complex_dissimilar","images/stimuli/spore_stims/complex_05_A_b.gif","","","","",""
"","null","html-keyboard-response","39","263419","0.0-13.0-0.4","SS1618365724109","","","null","","","","","","<p><img src= images/blank.png width =""600"" height = ""600"" style=""position:fixed;top:50%; left:50%; transform: translate(-50%, -50%); border:5px solid black"">","","","","","","","",""
"","6466.3399999262765","sequential-stimulus-presentation-old","40","270388","0.0-13.0-1.4","SS1618365724109","trial","","40","500","6966.3399999262765","images/stimuli/spore_stims/complex_09_A_a.gif","images/stimuli/spore_stims/complex_05_A_b.gif","forced_short","","2","complex_dissimilar","images/stimuli/spore_stims/complex_09_A_a.gif","","","","",""
"","4671.919999993406","survey-multi-choice","41","275062","0.0-14.0","SS1618365724109","math_question","","","","","","","","","","","","{""Q0"":""15""}","[0]","15","",""
"","null","html-keyboard-response","42","276316","0.0-15.0-0.0","SS1618365724109","","","null","","","","","","<p><img src= images/blank.png width =""600"" height = ""600"" style=""position:fixed;top:50%; left:50%; transform: translate(-50%, -50%); border:5px solid black"">","","","","","","","",""
"","1582.8099999343976","sequential-stimulus-presentation-old","43","282904","0.0-15.0-1.0","SS1618365724109","trial","","40","500","2082.8099999343976","images/stimuli/spore_stims/simple_20_A_b.gif","images/stimuli/spore_stims/simple_11_A_a.gif","forced_long","","3","simple_dissimilar","images/stimuli/spore_stims/simple_11_A_a.gif","","","","",""
"","null","html-keyboard-response","44","283986","0.0-15.0-0.1","SS1618365724109","","","null","","","","","","<p><img src= images/blank.png width =""600"" height = ""600"" style=""position:fixed;top:50%; left:50%; transform: translate(-50%, -50%); border:5px solid black"">","","","","","","","",""
"","9418.790000025183","sequential-stimulus-presentation-old","45","293916","0.0-15.0-1.1","SS1618365724109","trial","","40","500","9918.790000025183","images/stimuli/spore_stims/simple_20_A_b.gif","images/stimuli/spore_stims/simple_11_A_a.gif","forced_long","","3","simple_dissimilar","images/stimuli/spore_stims/simple_11_A_a.gif","","","","",""
"","null","html-keyboard-response","46","295093","0.0-15.0-0.2","SS1618365724109","","","null","","","","","","<p><img src= images/blank.png width =""600"" height = ""600"" style=""position:fixed;top:50%; left:50%; transform: translate(-50%, -50%); border:5px solid black"">","","","","","","","",""
"","13953.404999920167","sequential-stimulus-presentation-old","47","309549","0.0-15.0-1.2","SS1618365724109","trial","","40","500","14453.404999920167","images/stimuli/spore_stims/simple_20_A_b.gif","images/stimuli/spore_stims/simple_11_A_a.gif","forced_long","","3","simple_dissimilar","images/stimuli/spore_stims/simple_20_A_b.gif","","","","",""
"","null","html-keyboard-response","48","310761","0.0-15.0-0.3","SS1618365724109","","","null","","","","","","<p><img src= images/blank.png width =""600"" height = ""600"" style=""position:fixed;top:50%; left:50%; transform: translate(-50%, -50%); border:5px solid black"">","","","","","","","",""
"","5921.455000061542","sequential-stimulus-presentation-old","49","317185","0.0-15.0-1.3","SS1618365724109","trial","","40","500","6421.455000061542","images/stimuli/spore_stims/simple_20_A_b.gif","images/stimuli/spore_stims/simple_11_A_a.gif","forced_long","","3","simple_dissimilar","images/stimuli/spore_stims/simple_20_A_b.gif","","","","",""
"","4105.499999946915","survey-multi-choice","50","321292","0.0-16.0","SS1618365724109","math_question","","","","","","","","","","","","{""Q0"":""7""}","[0]","7","",""
"","null","html-keyboard-response","51","322167","0.0-17.0-0.0","SS1618365724109","","","null","","","","","","<p><img src= images/blank.png width =""600"" height = ""600"" style=""position:fixed;top:50%; left:50%; transform: translate(-50%, -50%); border:5px solid black"">","","","","","","","",""
"","1793.3300000149757","sequential-stimulus-presentation-old","52","328964","0.0-17.0-1.0","SS1618365724109","trial","","40","500","2293.3300000149757","images/stimuli/spore_stims/complex_14_A_b.gif","images/stimuli/spore_stims/complex_10_A_a.gif","forced_long","","4","complex_dissimilar","images/stimuli/spore_stims/complex_10_A_a.gif","","","","",""
"","null","html-keyboard-response","53","329837","0.0-17.0-0.1","SS1618365724109","","","null","","","","","","<p><img src= images/blank.png width =""600"" height = ""600"" style=""position:fixed;top:50%; left:50%; transform: translate(-50%, -50%); border:5px solid black"">","","","","","","","",""
"","6220.240000053309","sequential-stimulus-presentation-old","54","336560","0.0-17.0-1.1","SS1618365724109","trial","","40","500","6720.240000053309","images/stimuli/spore_stims/complex_14_A_b.gif","images/stimuli/spore_stims/complex_10_A_a.gif","forced_long","","4","complex_dissimilar","images/stimuli/spore_stims/complex_10_A_a.gif","","","","",""
"","null","html-keyboard-response","55","337501","0.0-17.0-0.2","SS1618365724109","","","null","","","","","","<p><img src= images/blank.png width =""600"" height = ""600"" style=""position:fixed;top:50%; left:50%; transform: translate(-50%, -50%); border:5px solid black"">","","","","","","","",""
"","6004.509999998845","sequential-stimulus-presentation-old","56","344012","0.0-17.0-1.2","SS1618365724109","trial","","40","500","6504.509999998845","images/stimuli/spore_stims/complex_14_A_b.gif","images/stimuli/spore_stims/complex_10_A_a.gif","forced_long","","4","complex_dissimilar","images/stimuli/spore_stims/complex_10_A_a.gif","","","","",""
"","null","html-keyboard-response","57","345312","0.0-17.0-0.3","SS1618365724109","","","null","","","","","","<p><img src= images/blank.png width =""600"" height = ""600"" style=""position:fixed;top:50%; left:50%; transform: translate(-50%, -50%); border:5px solid black"">","","","","","","","",""
"","5794.53499999363","sequential-stimulus-presentation-old","58","351608","0.0-17.0-1.3","SS1618365724109","trial","","40","500","6294.53499999363","images/stimuli/spore_stims/complex_14_A_b.gif","images/stimuli/spore_stims/complex_10_A_a.gif","forced_long","","4","complex_dissimilar","images/stimuli/spore_stims/complex_10_A_a.gif","","","","",""
"","null","html-keyboard-response","59","352815","0.0-17.0-0.4","SS1618365724109","","","null","","","","","","<p><img src= images/blank.png width =""600"" height = ""600"" style=""position:fixed;top:50%; left:50%; transform: translate(-50%, -50%); border:5px solid black"">","","","","","","","",""
"","5857.899999944493","sequential-stimulus-presentation-old","60","359176","0.0-17.0-1.4","SS1618365724109","trial","","40","500","6357.899999944493","images/stimuli/spore_stims/complex_14_A_b.gif","images/stimuli/spore_stims/complex_10_A_a.gif","forced_long","","4","complex_dissimilar","images/stimuli/spore_stims/complex_10_A_a.gif","","","","",""
"","7607.374999905005","survey-multi-choice","61","366785","0.0-18.0","SS1618365724109","math_question","","","","","","","","","","","","{""Q0"":""13""}","[0]","13","",""
"","null","html-keyboard-response","62","368078","0.0-19.0-0.0","SS1618365724109","","","null","","","","","","<p><img src= images/blank.png width =""600"" height = ""600"" style=""position:fixed;top:50%; left:50%; transform: translate(-50%, -50%); border:5px solid black"">","","","","","","","",""
"","10076.379999984056","sequential-stimulus-presentation-old","63","383166","0.0-19.0-1.0","SS1618365724109","trial","","40","500","10576.379999984056","images/stimuli/spore_stims/complex_17_A_b.gif","images/stimuli/spore_stims/complex_02_A_a.gif","forced_long","","5","complex_dissimilar","images/stimuli/spore_stims/complex_02_A_a.gif","","","","",""
"","null","html-keyboard-response","64","384206","0.0-19.0-0.1","SS1618365724109","","","null","","","","","","<p><img src= images/blank.png width =""600"" height = ""600"" style=""position:fixed;top:50%; left:50%; transform: translate(-50%, -50%); border:5px solid black"">","","","","","","","",""
"","2926.9599999533966","sequential-stimulus-presentation-old","65","387636","0.0-19.0-1.1","SS1618365724109","trial","","40","500","3426.9599999533966","images/stimuli/spore_stims/complex_17_A_b.gif","images/stimuli/spore_stims/complex_02_A_a.gif","forced_long","","5","complex_dissimilar","images/stimuli/spore_stims/complex_02_A_a.gif","","","","",""
"","null","html-keyboard-response","66","388644","0.0-19.0-0.2","SS1618365724109","","","null","","","","","","<p><img src= images/blank.png width =""600"" height = ""600"" style=""position:fixed;top:50%; left:50%; transform: translate(-50%, -50%); border:5px solid black"">","","","","","","","",""
"","6329.729999997653","sequential-stimulus-presentation-old","67","395476","0.0-19.0-1.2","SS1618365724109","trial","","40","500","6829.729999997653","images/stimuli/spore_stims/complex_17_A_b.gif","images/stimuli/spore_stims/complex_02_A_a.gif","forced_long","","5","complex_dissimilar","images/stimuli/spore_stims/complex_02_A_a.gif","","","","",""
"","null","html-keyboard-response","68","396280","0.0-19.0-0.3","SS1618365724109","","","null","","","","","","<p><img src= images/blank.png width =""600"" height = ""600"" style=""position:fixed;top:50%; left:50%; transform: translate(-50%, -50%); border:5px solid black"">","","","","","","","",""
"","3495.6499999389052","sequential-stimulus-presentation-old","69","400281","0.0-19.0-1.3","SS1618365724109","trial","","40","500","3995.6499999389052","images/stimuli/spore_stims/complex_17_A_b.gif","images/stimuli/spore_stims/complex_02_A_a.gif","forced_long","","5","complex_dissimilar","images/stimuli/spore_stims/complex_02_A_a.gif","","","","",""
"","null","html-keyboard-response","70","401275","0.0-19.0-0.4","SS1618365724109","","","null","","","","","","<p><img src= images/blank.png width =""600"" height = ""600"" style=""position:fixed;top:50%; left:50%; transform: translate(-50%, -50%); border:5px solid black"">","","","","","","","",""
"","3589.5149999996647","sequential-stimulus-presentation-old","71","405377","0.0-19.0-1.4","SS1618365724109","trial","","40","500","4089.5149999996647","images/stimuli/spore_stims/complex_17_A_b.gif","images/stimuli/spore_stims/complex_02_A_a.gif","forced_long","","5","complex_dissimilar","images/stimuli/spore_stims/complex_02_A_a.gif","","","","",""
"","null","html-keyboard-response","72","406593","0.0-19.0-0.5","SS1618365724109","","","null","","","","","","<p><img src= images/blank.png width =""600"" height = ""600"" style=""position:fixed;top:50%; left:50%; transform: translate(-50%, -50%); border:5px solid black"">","","","","","","","",""
"","3121.2999999988824","sequential-stimulus-presentation-old","73","410217","0.0-19.0-1.5","SS1618365724109","trial","","40","500","3621.2999999988824","images/stimuli/spore_stims/complex_17_A_b.gif","images/stimuli/spore_stims/complex_02_A_a.gif","forced_long","","5","complex_dissimilar","images/stimuli/spore_stims/complex_02_A_a.gif","","","","",""
"","4565.7950000604615","survey-multi-choice","74","414784","0.0-20.0","SS1618365724109","math_question","","","","","","","","","","","","{""Q0"":""13""}","[0]","13","",""
"","null","html-keyboard-response","75","415623","0.0-21.0-0.0","SS1618365724109","","","null","","","","","","<p><img src= images/blank.png width =""600"" height = ""600"" style=""position:fixed;top:50%; left:50%; transform: translate(-50%, -50%); border:5px solid black"">","","","","","","","",""
"","9501.339999958873","sequential-stimulus-presentation-old","76","425641","0.0-21.0-1.0","SS1618365724109","trial","","40","500","10001.339999958873","images/stimuli/spore_stims/complex_16_A_a.gif","images/stimuli/spore_stims/complex_09_A_b.gif","self_paced","","6","complex_dissimilar","images/stimuli/spore_stims/complex_09_A_b.gif","","","","",""
"","null","html-keyboard-response","77","426644","0.0-21.0-0.1","SS1618365724109","","","null","","","","","","<p><img src= images/blank.png width =""600"" height = ""600"" style=""position:fixed;top:50%; left:50%; transform: translate(-50%, -50%); border:5px solid black"">","","","","","","","",""
"","2790.125000057742","sequential-stimulus-presentation-old","78","429937","0.0-21.0-1.1","SS1618365724109","trial","","40","500","3290.125000057742","images/stimuli/spore_stims/complex_16_A_a.gif","images/stimuli/spore_stims/complex_09_A_b.gif","self_paced","","6","complex_dissimilar","images/stimuli/spore_stims/complex_09_A_b.gif","","","","",""
"","null","html-keyboard-response","79","431055","0.0-21.0-0.2","SS1618365724109","","","null","","","","","","<p><img src= images/blank.png width =""600"" height = ""600"" style=""position:fixed;top:50%; left:50%; transform: translate(-50%, -50%); border:5px solid black"">","","","","","","","",""
"","2230.130000039935","sequential-stimulus-presentation-old","80","433801","0.0-21.0-1.2","SS1618365724109","trial","","40","500","2730.130000039935","images/stimuli/spore_stims/complex_16_A_a.gif","images/stimuli/spore_stims/complex_09_A_b.gif","self_paced","","6","complex_dissimilar","images/stimuli/spore_stims/complex_09_A_b.gif","","","","",""
"","null","html-keyboard-response","81","434780","0.0-21.0-0.3","SS1618365724109","","","null","","","","","","<p><img src= images/blank.png width =""600"" height = ""600"" style=""position:fixed;top:50%; left:50%; transform: translate(-50%, -50%); border:5px solid black"">","","","","","","","",""
"","3966.705000028014","sequential-stimulus-presentation-old","82","439261","0.0-21.0-1.3","SS1618365724109","trial","","40","500","4466.705000028014","images/stimuli/spore_stims/complex_16_A_a.gif","images/stimuli/spore_stims/complex_09_A_b.gif","self_paced","","6","complex_dissimilar","images/stimuli/spore_stims/complex_09_A_b.gif","","","","",""
"","4031.79000003729","survey-multi-choice","83","443295","0.0-22.0","SS1618365724109","math_question","","","","","","","","","","","","{""Q0"":""10""}","[0]","10","",""
"","null","html-keyboard-response","84","444319","0.0-23.0-0.0","SS1618365724109","","","null","","","","","","<p><img src= images/blank.png width =""600"" height = ""600"" style=""position:fixed;top:50%; left:50%; transform: translate(-50%, -50%); border:5px solid black"">","","","","","","","",""
"","2276.2199999997392","sequential-stimulus-presentation-old","85","446649","0.0-23.0-1.0","SS1618365724109","trial","","40","500","2776.2199999997392","images/stimuli/spore_stims/simple_06_A_b.gif","images/stimuli/spore_stims/simple_18_A_a.gif","forced_short","","7","simple_dissimilar","images/stimuli/spore_stims/simple_18_A_a.gif","","","","",""
"","null","html-keyboard-response","86","447758","0.0-23.0-0.1","SS1618365724109","","","null","","","","","","<p><img src= images/blank.png width =""600"" height = ""600"" style=""position:fixed;top:50%; left:50%; transform: translate(-50%, -50%); border:5px solid black"">","","","","","","","",""
"","5917.644999921322","sequential-stimulus-presentation-old","87","454181","0.0-23.0-1.1","SS1618365724109","trial","","40","500","6417.644999921322","images/stimuli/spore_stims/simple_06_A_b.gif","images/stimuli/spore_stims/simple_18_A_a.gif","forced_short","","7","simple_dissimilar","images/stimuli/spore_stims/simple_06_A_b.gif","","","","",""
"","null","html-keyboard-response","88","455465","0.0-23.0-0.2","SS1618365724109","","","null","","","","","","<p><img src= images/blank.png width =""600"" height = ""600"" style=""position:fixed;top:50%; left:50%; transform: translate(-50%, -50%); border:5px solid black"">","","","","","","","",""
"","5881.210000021383","sequential-stimulus-presentation-old","89","461849","0.0-23.0-1.2","SS1618365724109","trial","","40","500","6381.210000021383","images/stimuli/spore_stims/simple_06_A_b.gif","images/stimuli/spore_stims/simple_18_A_a.gif","forced_short","","7","simple_dissimilar","images/stimuli/spore_stims/simple_18_A_a.gif","","","","",""
"","null","html-keyboard-response","90","463106","0.0-23.0-0.3","SS1618365724109","","","null","","","","","","<p><img src= images/blank.png width =""600"" height = ""600"" style=""position:fixed;top:50%; left:50%; transform: translate(-50%, -50%); border:5px solid black"">","","","","","","","",""
"","4149.224999942817","sequential-stimulus-presentation-old","91","467758","0.0-23.0-1.3","SS1618365724109","trial","","40","500","4649.224999942817","images/stimuli/spore_stims/simple_06_A_b.gif","images/stimuli/spore_stims/simple_18_A_a.gif","forced_short","","7","simple_dissimilar","images/stimuli/spore_stims/simple_18_A_a.gif","","","","",""
"","null","html-keyboard-response","92","468577","0.0-23.0-0.4","SS1618365724109","","","null","","","","","","<p><img src= images/blank.png width =""600"" height = ""600"" style=""position:fixed;top:50%; left:50%; transform: translate(-50%, -50%); border:5px solid black"">","","","","","","","",""
"","5976.365000009537","sequential-stimulus-presentation-old","93","475061","0.0-23.0-1.4","SS1618365724109","trial","","40","500","6476.365000009537","images/stimuli/spore_stims/simple_06_A_b.gif","images/stimuli/spore_stims/simple_18_A_a.gif","forced_short","","7","simple_dissimilar","images/stimuli/spore_stims/simple_06_A_b.gif","","","","",""
"","4908.214999944903","survey-multi-choice","94","479971","0.0-24.0","SS1618365724109","math_question","","","","","","","","","","","","{""Q0"":""12""}","[0]","12","",""
"","null","html-keyboard-response","95","481033","0.0-25.0-0.0","SS1618365724109","","","null","","","","","","<p><img src= images/blank.png width =""600"" height = ""600"" style=""position:fixed;top:50%; left:50%; transform: translate(-50%, -50%); border:5px solid black"">","","","","","","","",""
"","2980.6899999966845","sequential-stimulus-presentation-old","96","484517","0.0-25.0-1.0","SS1618365724109","trial","","40","500","3480.6899999966845","images/stimuli/spore_stims/simple_19_A_b.gif","images/stimuli/spore_stims/simple_16_A_a.gif","self_paced","","8","simple_dissimilar","images/stimuli/spore_stims/simple_16_A_a.gif","","","","",""
"","null","html-keyboard-response","97","485767","0.0-25.0-0.1","SS1618365724109","","","null","","","","","","<p><img src= images/blank.png width =""600"" height = ""600"" style=""position:fixed;top:50%; left:50%; transform: translate(-50%, -50%); border:5px solid black"">","","","","","","","",""
"","2630.1750000566244","sequential-stimulus-presentation-old","98","488901","0.0-25.0-1.1","SS1618365724109","trial","","40","500","3130.1750000566244","images/stimuli/spore_stims/simple_19_A_b.gif","images/stimuli/spore_stims/simple_16_A_a.gif","self_paced","","8","simple_dissimilar","images/stimuli/spore_stims/simple_16_A_a.gif","","","","",""
"","null","html-keyboard-response","99","489848","0.0-25.0-0.2","SS1618365724109","","","null","","","","","","<p><img src= images/blank.png width =""600"" height = ""600"" style=""position:fixed;top:50%; left:50%; transform: translate(-50%, -50%); border:5px solid black"">","","","","","","","",""
"","2857.9599999357015","sequential-stimulus-presentation-old","100","493209","0.0-25.0-1.2","SS1618365724109","trial","","40","500","3357.9599999357015","images/stimuli/spore_stims/simple_19_A_b.gif","images/stimuli/spore_stims/simple_16_A_a.gif","self_paced","","8","simple_dissimilar","images/stimuli/spore_stims/simple_16_A_a.gif","","","","",""
"","null","html-keyboard-response","101","494408","0.0-25.0-0.3","SS1618365724109","","","null","","","","","","<p><img src= images/blank.png width =""600"" height = ""600"" style=""position:fixed;top:50%; left:50%; transform: translate(-50%, -50%); border:5px solid black"">","","","","","","","",""
"","3093.0500000249594","sequential-stimulus-presentation-old","102","498005","0.0-25.0-1.3","SS1618365724109","trial","","40","500","3593.0500000249594","images/stimuli/spore_stims/simple_19_A_b.gif","images/stimuli/spore_stims/simple_16_A_a.gif","self_paced","","8","simple_dissimilar","images/stimuli/spore_stims/simple_16_A_a.gif","","","","",""
"","null","html-keyboard-response","103","498887","0.0-25.0-0.4","SS1618365724109","","","null","","","","","","<p><img src= images/blank.png width =""600"" height = ""600"" style=""position:fixed;top:50%; left:50%; transform: translate(-50%, -50%); border:5px solid black"">","","","","","","","",""
"","3868.584999931045","sequential-stimulus-presentation-old","104","503260","0.0-25.0-1.4","SS1618365724109","trial","","40","500","4368.584999931045","images/stimuli/spore_stims/simple_19_A_b.gif","images/stimuli/spore_stims/simple_16_A_a.gif","self_paced","","8","simple_dissimilar","images/stimuli/spore_stims/simple_16_A_a.gif","","","","",""
"","null","html-keyboard-response","105","504476","0.0-25.0-0.5","SS1618365724109","","","null","","","","","","<p><img src= images/blank.png width =""600"" height = ""600"" style=""position:fixed;top:50%; left:50%; transform: translate(-50%, -50%); border:5px solid black"">","","","","","","","",""
"","3414.465000038035","sequential-stimulus-presentation-old","106","508392","0.0-25.0-1.5","SS1618365724109","trial","","40","500","3914.465000038035","images/stimuli/spore_stims/simple_19_A_b.gif","images/stimuli/spore_stims/simple_16_A_a.gif","self_paced","","8","simple_dissimilar","images/stimuli/spore_stims/simple_16_A_a.gif","","","","",""
"","4269.6050000377","survey-multi-choice","107","512664","0.0-26.0","SS1618365724109","math_question","","","","","","","","","","","","{""Q0"":""10""}","[0]","10","",""
"","null","html-keyboard-response","108","513810","0.0-27.0-0.0","SS1618365724109","","","null","","","","","","<p><img src= images/blank.png width =""600"" height = ""600"" style=""position:fixed;top:50%; left:50%; transform: translate(-50%, -50%); border:5px solid black"">","","","","","","","",""
"","3934.834999963641","sequential-stimulus-presentation-old","109","518260","0.0-27.0-1.0","SS1618365724109","trial","","40","500","4434.834999963641","images/stimuli/spore_stims/simple_14_A_a.gif","images/stimuli/spore_stims/simple_01_A_b.gif","self_paced","","9","simple_dissimilar","images/stimuli/spore_stims/simple_01_A_b.gif","","","","",""
"","null","html-keyboard-response","110","519331","0.0-27.0-0.1","SS1618365724109","","","null","","","","","","<p><img src= images/blank.png width =""600"" height = ""600"" style=""position:fixed;top:50%; left:50%; transform: translate(-50%, -50%); border:5px solid black"">","","","","","","","",""
"","2161.7050000932068","sequential-stimulus-presentation-old","111","521996","0.0-27.0-1.1","SS1618365724109","trial","","40","500","2661.7050000932068","images/stimuli/spore_stims/simple_14_A_a.gif","images/stimuli/spore_stims/simple_01_A_b.gif","self_paced","","9","simple_dissimilar","images/stimuli/spore_stims/simple_01_A_b.gif","","","","",""
"","null","html-keyboard-response","112","522944","0.0-27.0-0.2","SS1618365724109","","","null","","","","","","<p><img src= images/blank.png width =""600"" height = ""600"" style=""position:fixed;top:50%; left:50%; transform: translate(-50%, -50%); border:5px solid black"">","","","","","","","",""
"","2687.9099999787286","sequential-stimulus-presentation-old","113","526144","0.0-27.0-1.2","SS1618365724109","trial","","40","500","3187.9099999787286","images/stimuli/spore_stims/simple_14_A_a.gif","images/stimuli/spore_stims/simple_01_A_b.gif","self_paced","","9","simple_dissimilar","images/stimuli/spore_stims/simple_01_A_b.gif","","","","",""
"","null","html-keyboard-response","114","527180","0.0-27.0-0.3","SS1618365724109","","","null","","","","","","<p><img src= images/blank.png width =""600"" height = ""600"" style=""position:fixed;top:50%; left:50%; transform: translate(-50%, -50%); border:5px solid black"">","","","","","","","",""
"","3384.999999892898","sequential-stimulus-presentation-old","115","531068","0.0-27.0-1.3","SS1618365724109","trial","","40","500","3884.999999892898","images/stimuli/spore_stims/simple_14_A_a.gif","images/stimuli/spore_stims/simple_01_A_b.gif","self_paced","","9","simple_dissimilar","images/stimuli/spore_stims/simple_01_A_b.gif","","","","",""
"","null","html-keyboard-response","116","532199","0.0-27.0-0.4","SS1618365724109","","","null","","","","","","<p><img src= images/blank.png width =""600"" height = ""600"" style=""position:fixed;top:50%; left:50%; transform: translate(-50%, -50%); border:5px solid black"">","","","","","","","",""
"","2777.4699999717996","sequential-stimulus-presentation-old","117","535480","0.0-27.0-1.4","SS1618365724109","trial","","40","500","3277.4699999717996","images/stimuli/spore_stims/simple_14_A_a.gif","images/stimuli/spore_stims/simple_01_A_b.gif","self_paced","","9","simple_dissimilar","images/stimuli/spore_stims/simple_01_A_b.gif","","","","",""
"","5337.109999964014","survey-multi-choice","118","540819","0.0-28.0","SS1618365724109","math_question","","","","","","","","","","","","{""Q0"":""18""}","[0]","18","",""
"","null","html-keyboard-response","119","542096","0.0-29.0-0.0","SS1618365724109","","","null","","","","","","<p><img src= images/blank.png width =""600"" height = ""600"" style=""position:fixed;top:50%; left:50%; transform: translate(-50%, -50%); border:5px solid black"">","","","","","","","",""
"","4588.670000084676","sequential-stimulus-presentation-old","120","551692","0.0-29.0-1.0","SS1618365724109","trial","","40","500","5088.670000084676","images/stimuli/spore_stims/simple_08_A_a.gif","images/stimuli/spore_stims/simple_07_A_b.gif","forced_long","","10","simple_dissimilar","images/stimuli/spore_stims/simple_07_A_b.gif","","","","",""
"","null","html-keyboard-response","121","552719","0.0-29.0-0.1","SS1618365724109","","","null","","","","","","<p><img src= images/blank.png width =""600"" height = ""600"" style=""position:fixed;top:50%; left:50%; transform: translate(-50%, -50%); border:5px solid black"">","","","","","","","",""
"","3870.7599999615923","sequential-stimulus-presentation-old","122","557093","0.0-29.0-1.1","SS1618365724109","trial","","40","500","4370.759999961592","images/stimuli/spore_stims/simple_08_A_a.gif","images/stimuli/spore_stims/simple_07_A_b.gif","forced_long","","10","simple_dissimilar","images/stimuli/spore_stims/simple_07_A_b.gif","","","","",""
"","null","html-keyboard-response","123","558242","0.0-29.0-0.2","SS1618365724109","","","null","","","","","","<p><img src= images/blank.png width =""600"" height = ""600"" style=""position:fixed;top:50%; left:50%; transform: translate(-50%, -50%); border:5px solid black"">","","","","","","","",""
"","1912.9899999825284","sequential-stimulus-presentation-old","124","560672","0.0-29.0-1.2","SS1618365724109","trial","","40","500","2412.9899999825284","images/stimuli/spore_stims/simple_08_A_a.gif","images/stimuli/spore_stims/simple_07_A_b.gif","forced_long","","10","simple_dissimilar","images/stimuli/spore_stims/simple_07_A_b.gif","","","","",""
"","null","html-keyboard-response","125","561804","0.0-29.0-0.3","SS1618365724109","","","null","","","","","","<p><img src= images/blank.png width =""600"" height = ""600"" style=""position:fixed;top:50%; left:50%; transform: translate(-50%, -50%); border:5px solid black"">","","","","","","","",""
"","3785.2249999996275","sequential-stimulus-presentation-old","126","566093","0.0-29.0-1.3","SS1618365724109","trial","","40","500","4285.2249999996275","images/stimuli/spore_stims/simple_08_A_a.gif","images/stimuli/spore_stims/simple_07_A_b.gif","forced_long","","10","simple_dissimilar","images/stimuli/spore_stims/simple_08_A_a.gif","","","","",""
"","null","html-keyboard-response","127","567303","0.0-29.0-0.4","SS1618365724109","","","null","","","","","","<p><img src= images/blank.png width =""600"" height = ""600"" style=""position:fixed;top:50%; left:50%; transform: translate(-50%, -50%); border:5px solid black"">","","","","","","","",""
"","2729.865000001155","sequential-stimulus-presentation-old","128","570536","0.0-29.0-1.4","SS1618365724109","trial","","40","500","3229.865000001155","images/stimuli/spore_stims/simple_08_A_a.gif","images/stimuli/spore_stims/simple_07_A_b.gif","forced_long","","10","simple_dissimilar","images/stimuli/spore_stims/simple_07_A_b.gif","","","","",""
"","null","html-keyboard-response","129","571440","0.0-29.0-0.5","SS1618365724109","","","null","","","","","","<p><img src= images/blank.png width =""600"" height = ""600"" style=""position:fixed;top:50%; left:50%; transform: translate(-50%, -50%); border:5px solid black"">","","","","","","","",""
"","1540.8500001067296","sequential-stimulus-presentation-old","130","573492","0.0-29.0-1.5","SS1618365724109","trial","","40","500","2040.8500001067296","images/stimuli/spore_stims/simple_08_A_a.gif","images/stimuli/spore_stims/simple_07_A_b.gif","forced_long","","10","simple_dissimilar","images/stimuli/spore_stims/simple_07_A_b.gif","","","","",""
"","5659.485000069253","survey-multi-choice","131","579154","0.0-30.0","SS1618365724109","math_question","","","","","","","","","","","","{""Q0"":""16""}","[0]","16","",""
"","null","html-keyboard-response","132","580038","0.0-31.0-0.0","SS1618365724109","","","null","","","","","","<p><img src= images/blank.png width =""600"" height = ""600"" style=""position:fixed;top:50%; left:50%; transform: translate(-50%, -50%); border:5px solid black"">","","","","","","","",""
"","2613.024999969639","sequential-stimulus-presentation-old","133","582705","0.0-31.0-1.0","SS1618365724109","trial","","40","500","3113.024999969639","images/stimuli/spore_stims/complex_04_A_b.gif","images/stimuli/spore_stims/complex_15_A_a.gif","forced_short","","11","complex_dissimilar","images/stimuli/spore_stims/complex_15_A_a.gif","","","","",""
"","null","html-keyboard-response","134","583968","0.0-31.0-0.1","SS1618365724109","","","null","","","","","","<p><img src= images/blank.png width =""600"" height = ""600"" style=""position:fixed;top:50%; left:50%; transform: translate(-50%, -50%); border:5px solid black"">","","","","","","","",""
"","3861.1350000137463","sequential-stimulus-presentation-old","135","588333","0.0-31.0-1.1","SS1618365724109","trial","","40","500","4361.135000013746","images/stimuli/spore_stims/complex_04_A_b.gif","images/stimuli/spore_stims/complex_15_A_a.gif","forced_short","","11","complex_dissimilar","images/stimuli/spore_stims/complex_15_A_a.gif","","","","",""
"","null","html-keyboard-response","136","589525","0.0-31.0-0.2","SS1618365724109","","","null","","","","","","<p><img src= images/blank.png width =""600"" height = ""600"" style=""position:fixed;top:50%; left:50%; transform: translate(-50%, -50%); border:5px solid black"">","","","","","","","",""
"","3761.3899999996647","sequential-stimulus-presentation-old","137","593789","0.0-31.0-1.2","SS1618365724109","trial","","40","500","4261.389999999665","images/stimuli/spore_stims/complex_04_A_b.gif","images/stimuli/spore_stims/complex_15_A_a.gif","forced_short","","11","complex_dissimilar","images/stimuli/spore_stims/complex_15_A_a.gif","","","","",""
"","null","html-keyboard-response","138","594743","0.0-31.0-0.3","SS1618365724109","","","null","","","","","","<p><img src= images/blank.png width =""600"" height = ""600"" style=""position:fixed;top:50%; left:50%; transform: translate(-50%, -50%); border:5px solid black"">","","","","","","","",""
"","2946.7949999962","sequential-stimulus-presentation-old","139","598193","0.0-31.0-1.3","SS1618365724109","trial","","40","500","3446.7949999962","images/stimuli/spore_stims/complex_04_A_b.gif","images/stimuli/spore_stims/complex_15_A_a.gif","forced_short","","11","complex_dissimilar","images/stimuli/spore_stims/complex_15_A_a.gif","","","","",""
"","null","html-keyboard-response","140","599214","0.0-31.0-0.4","SS1618365724109","","","null","","","","","","<p><img src= images/blank.png width =""600"" height = ""600"" style=""position:fixed;top:50%; left:50%; transform: translate(-50%, -50%); border:5px solid black"">","","","","","","","",""
"","4247.910000034608","sequential-stimulus-presentation-old","141","603973","0.0-31.0-1.4","SS1618365724109","trial","","40","500","4747.910000034608","images/stimuli/spore_stims/complex_04_A_b.gif","images/stimuli/spore_stims/complex_15_A_a.gif","forced_short","","11","complex_dissimilar","images/stimuli/spore_stims/complex_04_A_b.gif","","","","",""
"[{""page_index"":0,""viewing_time"":7305.795000051148}]","7305.900000035763","instructions","142","611280","0.0-32.0","SS1618365724109","instructions","","","","","","","","","","","","","","","",""
"","16248.525000060908","survey-likert","143","627531","0.0-33.0","SS1618365724109","similarity_question","","","","","","","","","","","","{""Q0"":2}","[0]","","images/stimuli/spore_stims/complex_01_A_a.gif","images/stimuli/spore_stims/complex_02_A_b.gif"
"","9375.420000054874","survey-likert","144","636910","0.0-34.0","SS1618365724109","similarity_question","","","","","","","","","","","","{""Q0"":2}","[0]","","images/stimuli/spore_stims/simple_16_A_a.gif","images/stimuli/spore_stims/simple_19_A_b.gif"
"","5854.790000012144","survey-likert","145","642766","0.0-35.0","SS1618365724109","similarity_question","","","","","","","","","","","","{""Q0"":4}","[0]","","images/stimuli/spore_stims/simple_14_A_a.gif","images/stimuli/spore_stims/simple_01_A_b.gif"
"","5916.764999972656","survey-likert","146","648687","0.0-36.0","SS1618365724109","similarity_question","","","","","","","","","","","","{""Q0"":1}","[0]","","images/stimuli/spore_stims/complex_10_A_a.gif","images/stimuli/spore_stims/complex_14_A_b.gif"
"","5187.389999977313","survey-likert","147","653876","0.0-37.0","SS1618365724109","similarity_question","","","","","","","","","","","","{""Q0"":2}","[0]","","images/stimuli/spore_stims/complex_09_A_a.gif","images/stimuli/spore_stims/complex_05_A_b.gif"
"","7884.740000008605","survey-likert","148","661763","0.0-38.0","SS1618365724109","similarity_question","","","","","","","","","","","","{""Q0"":4}","[0]","","images/stimuli/spore_stims/simple_03_A_a.gif","images/stimuli/spore_stims/simple_12_A_b.gif"
"","4646.385000087321","survey-likert","149","666411","0.0-39.0","SS1618365724109","similarity_question","","","","","","","","","","","","{""Q0"":2}","[0]","","images/stimuli/spore_stims/simple_08_A_a.gif","images/stimuli/spore_stims/simple_07_A_b.gif"
"","3825.569999986328","survey-likert","150","670239","0.0-40.0","SS1618365724109","similarity_question","","","","","","","","","","","","{""Q0"":2}","[0]","","images/stimuli/spore_stims/simple_20_A_b.gif","images/stimuli/spore_stims/simple_11_A_a.gif"
"","8475.944999954663","survey-likert","151","678717","0.0-41.0","SS1618365724109","similarity_question","","","","","","","","","","","","{""Q0"":2}","[0]","","images/stimuli/spore_stims/complex_09_A_b.gif","images/stimuli/spore_stims/complex_16_A_a.gif"
"","5761.6249999264255","survey-likert","152","684481","0.0-42.0","SS1618365724109","similarity_question","","","","","","","","","","","","{""Q0"":1}","[0]","","images/stimuli/spore_stims/complex_17_A_b.gif","images/stimuli/spore_stims/complex_02_A_a.gif"
"","8616.87999998685","survey-likert","153","693101","0.0-43.0","SS1618365724109","similarity_question","","","","","","","","","","","","{""Q0"":2}","[0]","","images/stimuli/spore_stims/complex_15_A_a.gif","images/stimuli/spore_stims/complex_04_A_b.gif"
"","3566.0099999513477","survey-likert","154","696669","0.0-44.0","SS1618365724109","similarity_question","","","","","","","","","","","","{""Q0"":2}","[0]","","images/stimuli/spore_stims/simple_18_A_a.gif","images/stimuli/spore_stims/simple_06_A_b.gif"
"[{""page_index"":0,""viewing_time"":5042.639999999665}]","5042.779999901541","instructions","155","701714","0.0-45.0","SS1618365724109","instructions","","","","","","","","","","","","","","","",""
"","7123.690000036731","survey-likert","156","708841","0.0-46.0","SS1618365724109","","","","","","","","","images/stimuli/spore_stims/simple_12_A_b.gif","","","","{""Q0"":1}","[0]","","",""
"","7124.19499992393","survey-likert","157","715967","0.0-47.0","SS1618365724109","","","","","","","","","images/stimuli/spore_stims/complex_14_A_b.gif","","","","{""Q0"":4}","[0]","","",""
"","3258.034999947995","survey-likert","158","719228","0.0-48.0","SS1618365724109","","","","","","","","","images/stimuli/spore_stims/complex_01_A_a.gif","","","","{""Q0"":4}","[0]","","",""
"","3534.704999998212","survey-likert","159","722765","0.0-49.0","SS1618365724109","","","","","","","","","images/stimuli/spore_stims/simple_14_A_a.gif","","","","{""Q0"":0}","[0]","","",""
"","4764.604999916628","survey-likert","160","727532","0.0-50.0","SS1618365724109","","","","","","","","","images/stimuli/spore_stims/simple_06_A_b.gif","","","","{""Q0"":0}","[0]","","",""
"","9213.890000013635","survey-likert","161","736748","0.0-51.0","SS1618365724109","","","","","","","","","images/stimuli/spore_stims/complex_09_A_a.gif","","","","{""Q0"":4}","[0]","","",""
"","4455.449999892153","survey-likert","162","741206","0.0-52.0","SS1618365724109","","","","","","","","","images/stimuli/spore_stims/complex_04_A_b.gif","","","","{""Q0"":4}","[0]","","",""
"","3365.364999976009","survey-likert","163","744573","0.0-53.0","SS1618365724109","","","","","","","","","images/stimuli/spore_stims/complex_17_A_b.gif","","","","{""Q0"":4}","[0]","","",""
"","7456.144999945536","survey-likert","164","752032","0.0-54.0","SS1618365724109","","","","","","","","","images/stimuli/spore_stims/simple_20_A_b.gif","","","","{""Q0"":1}","[0]","","",""
"","4521.135000046343","survey-likert","165","756556","0.0-55.0","SS1618365724109","","","","","","","","","images/stimuli/spore_stims/complex_09_A_b.gif","","","","{""Q0"":4}","[0]","","",""
"","4568.719999981113","survey-likert","166","761128","0.0-56.0","SS1618365724109","","","","","","","","","images/stimuli/spore_stims/simple_19_A_b.gif","","","","{""Q0"":1}","[0]","","",""
"","3950.4750000778586","survey-likert","167","765082","0.0-57.0","SS1618365724109","","","","","","","","","images/stimuli/spore_stims/simple_08_A_a.gif","","","","{""Q0"":0}","[0]","","",""
"[{""page_index"":0,""viewing_time"":3049.390000058338}]","3049.5100000407547","instructions","168","768134","0.0-58.0","SS1618365724109","instructions","","","","","","","","","","","","","","","",""
"","5922.219999949448","demog-age","169","774058","0.0-59.0","SS1618365724109","","","","","","","","","","","","","{""age"":""30""}","","","",""
"","13061.965000000782","demog-ethnic-US","170","787125","0.0-60.0","SS1618365724109","","","","","","","","","","","","","{""ethnicity"":[""Hispanic or Latino"",""White""]}","[0]","","",""
"","11362.519999966025","demog-gender-and-education","171","798490","0.0-61.0","SS1618365724109","","","","","","","","","","","","","{""gender"":""Female"",""education"":""Bachelor's Degree""}","[0,1]","","",""
"","20562.614999944344","survey-text","172","819055","0.0-62.0","SS1618365724109","feedback","","","","","","","","","","","","{""Q0"":""Everything went fine!""}","","","",""
"[{""page_index"":0,""viewing_time"":2671.985000022687}]","2672.080000047572","instructions","173","821729","0.0-63.0","SS1618365724109","instructions","","","","","","","","","","","","","","","",""
