"view_history","rt","trial_type","trial_index","time_elapsed","internal_node_id","subject","stimulus_type","trial_stimulus","key_press","minimum_viewing_duration","trial_looking_time","block_deviant","block_background","exposure_type","stimulus","block_number","block_type","stimulus_displayed","responses","question_order","math_correct_answer","stimulus_left","stimulus_right"
"[{""page_index"":0,""viewing_time"":66556.985000032}]","66557.78500007","instructions","0","66558","0.0-0.0","SS1618365916882","","","","","","","","","","","","","","","","",""
"[{""page_index"":0,""viewing_time"":31448.24499997776},{""page_index"":1,""viewing_time"":693199.4649999542}]","724647.9099999415","instructions","1","793209","0.0-1.0","SS1618365916882","instructions","","","","","","","","","","","","","","","",""
"","6045.97500001546","sequential-stimulus-presentation-old","2","799758","0.0-2.0","SS1618365916882","","","40","500","6545.97500001546","null","null","self_paced","","","","","","","","",""
"","4009.749999968335","sequential-stimulus-presentation-old","3","804270","0.0-3.0","SS1618365916882","","","40","500","4509.749999968335","null","null","self_paced","","","","","","","","",""
"[{""page_index"":0,""viewing_time"":14764.830000000075}]","14765.135000110604","instructions","4","819036","0.0-4.0","SS1618365916882","instructions","","","","","","","","","","","","","","","",""
"","3458.1050000851974","sequential-stimulus-presentation-old","5","827497","0.0-5.0","SS1618365916882","","","40","500","3958.1050000851974","null","null","forced_long","","","","","","","","",""
"","4836.000000010245","sequential-stimulus-presentation-old","6","832386","0.0-6.0","SS1618365916882","","","40","50","4886.000000010245","null","null","forced_long","","","","","","","","",""
"[{""page_index"":0,""viewing_time"":4891.36500004679}]","4891.570000094362","instructions","7","837278","0.0-7.0","SS1618365916882","instructions","","","","","","","","","","","","","","","",""
"[{""page_index"":0,""viewing_time"":11608.254999970086},{""page_index"":1,""viewing_time"":12737.469999934547},{""page_index"":2,""viewing_time"":4480.525000020862},{""page_index"":3,""viewing_time"":1552.1750000771135},{""page_index"":4,""viewing_time"":6392.78499991633}]","36771.41499996651","instructions","8","874050","0.0-8.0","SS1618365916882","instructions","","","","","","","","","","","","","","","",""
"","null","html-keyboard-response","9","875201","0.0-9.0-0.0","SS1618365916882","","","null","","","","","","<p><img src= images/blank.png width =""600"" height = ""600"" style=""position:fixed;top:50%; left:50%; transform: translate(-50%, -50%); border:5px solid black"">","","","","","","","",""
"","5822.695000097156","sequential-stimulus-presentation-old","10","881527","0.0-9.0-1.0","SS1618365916882","trial","","40","500","6322.695000097156","images/stimuli/spore_stims/complex_04_A_a.gif","images/stimuli/spore_stims/complex_15_A_b.gif","self_paced","","0","complex_dissimilar","images/stimuli/spore_stims/complex_15_A_b.gif","","","","",""
"","null","html-keyboard-response","11","882518","0.0-9.0-0.1","SS1618365916882","","","null","","","","","","<p><img src= images/blank.png width =""600"" height = ""600"" style=""position:fixed;top:50%; left:50%; transform: translate(-50%, -50%); border:5px solid black"">","","","","","","","",""
"","5731.245000031777","sequential-stimulus-presentation-old","12","888752","0.0-9.0-1.1","SS1618365916882","trial","","40","500","6231.245000031777","images/stimuli/spore_stims/complex_04_A_a.gif","images/stimuli/spore_stims/complex_15_A_b.gif","self_paced","","0","complex_dissimilar","images/stimuli/spore_stims/complex_15_A_b.gif","","","","",""
"","null","html-keyboard-response","13","889841","0.0-9.0-0.2","SS1618365916882","","","null","","","","","","<p><img src= images/blank.png width =""600"" height = ""600"" style=""position:fixed;top:50%; left:50%; transform: translate(-50%, -50%); border:5px solid black"">","","","","","","","",""
"","5537.265000049956","sequential-stimulus-presentation-old","14","895881","0.0-9.0-1.2","SS1618365916882","trial","","40","500","6037.265000049956","images/stimuli/spore_stims/complex_04_A_a.gif","images/stimuli/spore_stims/complex_15_A_b.gif","self_paced","","0","complex_dissimilar","images/stimuli/spore_stims/complex_15_A_b.gif","","","","",""
"","null","html-keyboard-response","15","896920","0.0-9.0-0.3","SS1618365916882","","","null","","","","","","<p><img src= images/blank.png width =""600"" height = ""600"" style=""position:fixed;top:50%; left:50%; transform: translate(-50%, -50%); border:5px solid black"">","","","","","","","",""
"","4802.72999999579","sequential-stimulus-presentation-old","16","902226","0.0-9.0-1.3","SS1618365916882","trial","","40","500","5302.72999999579","images/stimuli/spore_stims/complex_04_A_a.gif","images/stimuli/spore_stims/complex_15_A_b.gif","self_paced","","0","complex_dissimilar","images/stimuli/spore_stims/complex_15_A_b.gif","","","","",""
"","null","html-keyboard-response","17","903123","0.0-9.0-0.4","SS1618365916882","","","null","","","","","","<p><img src= images/blank.png width =""600"" height = ""600"" style=""position:fixed;top:50%; left:50%; transform: translate(-50%, -50%); border:5px solid black"">","","","","","","","",""
"","6112.1499999426305","sequential-stimulus-presentation-old","18","909738","0.0-9.0-1.4","SS1618365916882","trial","","40","500","6612.1499999426305","images/stimuli/spore_stims/complex_04_A_a.gif","images/stimuli/spore_stims/complex_15_A_b.gif","self_paced","","0","complex_dissimilar","images/stimuli/spore_stims/complex_15_A_b.gif","","","","",""
"","3697.7350000524893","survey-multi-choice","19","913439","0.0-10.0","SS1618365916882","math_question","","","","","","","","","","","","{""Q0"":""7""}","[0]","7","",""
"","null","html-keyboard-response","20","914388","0.0-11.0-0.0","SS1618365916882","","","null","","","","","","<p><img src= images/blank.png width =""600"" height = ""600"" style=""position:fixed;top:50%; left:50%; transform: translate(-50%, -50%); border:5px solid black"">","","","","","","","",""
"","428.9349999744445","sequential-stimulus-presentation-old","21","919820","0.0-11.0-1.0","SS1618365916882","trial","","40","500","928.9349999744445","images/stimuli/spore_stims/simple_03_A_b.gif","images/stimuli/spore_stims/simple_02_A_a.gif","forced_long","","1","simple_dissimilar","images/stimuli/spore_stims/simple_02_A_a.gif","","","","",""
"","null","html-keyboard-response","22","920742","0.0-11.0-0.1","SS1618365916882","","","null","","","","","","<p><img src= images/blank.png width =""600"" height = ""600"" style=""position:fixed;top:50%; left:50%; transform: translate(-50%, -50%); border:5px solid black"">","","","","","","","",""
"","4670.834999997169","sequential-stimulus-presentation-old","23","925916","0.0-11.0-1.1","SS1618365916882","trial","","40","500","5170.834999997169","images/stimuli/spore_stims/simple_03_A_b.gif","images/stimuli/spore_stims/simple_02_A_a.gif","forced_long","","1","simple_dissimilar","images/stimuli/spore_stims/simple_02_A_a.gif","","","","",""
"","null","html-keyboard-response","24","926936","0.0-11.0-0.2","SS1618365916882","","","null","","","","","","<p><img src= images/blank.png width =""600"" height = ""600"" style=""position:fixed;top:50%; left:50%; transform: translate(-50%, -50%); border:5px solid black"">","","","","","","","",""
"","5510.510000050999","sequential-stimulus-presentation-old","25","932949","0.0-11.0-1.2","SS1618365916882","trial","","40","500","6010.510000050999","images/stimuli/spore_stims/simple_03_A_b.gif","images/stimuli/spore_stims/simple_02_A_a.gif","forced_long","","1","simple_dissimilar","images/stimuli/spore_stims/simple_02_A_a.gif","","","","",""
"","null","html-keyboard-response","26","934210","0.0-11.0-0.3","SS1618365916882","","","null","","","","","","<p><img src= images/blank.png width =""600"" height = ""600"" style=""position:fixed;top:50%; left:50%; transform: translate(-50%, -50%); border:5px solid black"">","","","","","","","",""
"","4701.5400000382215","sequential-stimulus-presentation-old","27","939414","0.0-11.0-1.3","SS1618365916882","trial","","40","500","5201.5400000382215","images/stimuli/spore_stims/simple_03_A_b.gif","images/stimuli/spore_stims/simple_02_A_a.gif","forced_long","","1","simple_dissimilar","images/stimuli/spore_stims/simple_02_A_a.gif","","","","",""
"","3707.005000091158","survey-multi-choice","28","943123","0.0-12.0","SS1618365916882","math_question","","","","","","","","","","","","{""Q0"":""11""}","[0]","11","",""
"","null","html-keyboard-response","29","944220","0.0-13.0-0.0","SS1618365916882","","","null","","","","","","<p><img src= images/blank.png width =""600"" height = ""600"" style=""position:fixed;top:50%; left:50%; transform: translate(-50%, -50%); border:5px solid black"">","","","","","","","",""
"","1460.8199999202043","sequential-stimulus-presentation-old","30","945735","0.0-13.0-1.0","SS1618365916882","trial","","40","500","1960.8199999202043","images/stimuli/spore_stims/complex_18_A_b.gif","images/stimuli/spore_stims/complex_13_A_a.gif","forced_short","","2","complex_dissimilar","images/stimuli/spore_stims/complex_13_A_a.gif","","","","",""
"","null","html-keyboard-response","31","946847","0.0-13.0-0.1","SS1618365916882","","","null","","","","","","<p><img src= images/blank.png width =""600"" height = ""600"" style=""position:fixed;top:50%; left:50%; transform: translate(-50%, -50%); border:5px solid black"">","","","","","","","",""
"","3138.349999906495","sequential-stimulus-presentation-old","32","950487","0.0-13.0-1.1","SS1618365916882","trial","","40","500","3638.349999906495","images/stimuli/spore_stims/complex_18_A_b.gif","images/stimuli/spore_stims/complex_13_A_a.gif","forced_short","","2","complex_dissimilar","images/stimuli/spore_stims/complex_13_A_a.gif","","","","",""
"","null","html-keyboard-response","33","951730","0.0-13.0-0.2","SS1618365916882","","","null","","","","","","<p><img src= images/blank.png width =""600"" height = ""600"" style=""position:fixed;top:50%; left:50%; transform: translate(-50%, -50%); border:5px solid black"">","","","","","","","",""
"","3598.2200000435114","sequential-stimulus-presentation-old","34","955832","0.0-13.0-1.2","SS1618365916882","trial","","40","500","4098.220000043511","images/stimuli/spore_stims/complex_18_A_b.gif","images/stimuli/spore_stims/complex_13_A_a.gif","forced_short","","2","complex_dissimilar","images/stimuli/spore_stims/complex_13_A_a.gif","","","","",""
"","null","html-keyboard-response","35","956760","0.0-13.0-0.3","SS1618365916882","","","null","","","","","","<p><img src= images/blank.png width =""600"" height = ""600"" style=""position:fixed;top:50%; left:50%; transform: translate(-50%, -50%); border:5px solid black"">","","","","","","","",""
"","5841.6549999965355","sequential-stimulus-presentation-old","36","963104","0.0-13.0-1.3","SS1618365916882","trial","","40","500","6341.6549999965355","images/stimuli/spore_stims/complex_18_A_b.gif","images/stimuli/spore_stims/complex_13_A_a.gif","forced_short","","2","complex_dissimilar","images/stimuli/spore_stims/complex_13_A_a.gif","","","","",""
"","null","html-keyboard-response","37","964235","0.0-13.0-0.4","SS1618365916882","","","null","","","","","","<p><img src= images/blank.png width =""600"" height = ""600"" style=""position:fixed;top:50%; left:50%; transform: translate(-50%, -50%); border:5px solid black"">","","","","","","","",""
"","4998.809999902733","sequential-stimulus-presentation-old","38","969737","0.0-13.0-1.4","SS1618365916882","trial","","40","500","5498.809999902733","images/stimuli/spore_stims/complex_18_A_b.gif","images/stimuli/spore_stims/complex_13_A_a.gif","forced_short","","2","complex_dissimilar","images/stimuli/spore_stims/complex_18_A_b.gif","","","","",""
"","null","html-keyboard-response","39","970918","0.0-13.0-0.5","SS1618365916882","","","null","","","","","","<p><img src= images/blank.png width =""600"" height = ""600"" style=""position:fixed;top:50%; left:50%; transform: translate(-50%, -50%); border:5px solid black"">","","","","","","","",""
"","6309.394999989308","sequential-stimulus-presentation-old","40","977730","0.0-13.0-1.5","SS1618365916882","trial","","40","500","6809.394999989308","images/stimuli/spore_stims/complex_18_A_b.gif","images/stimuli/spore_stims/complex_13_A_a.gif","forced_short","","2","complex_dissimilar","images/stimuli/spore_stims/complex_18_A_b.gif","","","","",""
"","2610.9800001140684","survey-multi-choice","41","980343","0.0-14.0","SS1618365916882","math_question","","","","","","","","","","","","{""Q0"":""9""}","[0]","9","",""
"","null","html-keyboard-response","42","981352","0.0-15.0-0.0","SS1618365916882","","","null","","","","","","<p><img src= images/blank.png width =""600"" height = ""600"" style=""position:fixed;top:50%; left:50%; transform: translate(-50%, -50%); border:5px solid black"">","","","","","","","",""
"","5221.350000007078","sequential-stimulus-presentation-old","43","987075","0.0-15.0-1.0","SS1618365916882","trial","","40","500","5721.350000007078","images/stimuli/spore_stims/complex_01_A_b.gif","images/stimuli/spore_stims/complex_17_A_a.gif","self_paced","","3","complex_dissimilar","images/stimuli/spore_stims/complex_17_A_a.gif","","","","",""
"","null","html-keyboard-response","44","988363","0.0-15.0-0.1","SS1618365916882","","","null","","","","","","<p><img src= images/blank.png width =""600"" height = ""600"" style=""position:fixed;top:50%; left:50%; transform: translate(-50%, -50%); border:5px solid black"">","","","","","","","",""
"","5313.04000003729","sequential-stimulus-presentation-old","45","994180","0.0-15.0-1.1","SS1618365916882","trial","","40","500","5813.04000003729","images/stimuli/spore_stims/complex_01_A_b.gif","images/stimuli/spore_stims/complex_17_A_a.gif","self_paced","","3","complex_dissimilar","images/stimuli/spore_stims/complex_01_A_b.gif","","","","",""
"","null","html-keyboard-response","46","995336","0.0-15.0-0.2","SS1618365916882","","","null","","","","","","<p><img src= images/blank.png width =""600"" height = ""600"" style=""position:fixed;top:50%; left:50%; transform: translate(-50%, -50%); border:5px solid black"">","","","","","","","",""
"","6581.260000006296","sequential-stimulus-presentation-old","47","1002421","0.0-15.0-1.2","SS1618365916882","trial","","40","500","7081.260000006296","images/stimuli/spore_stims/complex_01_A_b.gif","images/stimuli/spore_stims/complex_17_A_a.gif","self_paced","","3","complex_dissimilar","images/stimuli/spore_stims/complex_17_A_a.gif","","","","",""
"","null","html-keyboard-response","48","1003294","0.0-15.0-0.3","SS1618365916882","","","null","","","","","","<p><img src= images/blank.png width =""600"" height = ""600"" style=""position:fixed;top:50%; left:50%; transform: translate(-50%, -50%); border:5px solid black"">","","","","","","","",""
"","5896.399999968708","sequential-stimulus-presentation-old","49","1009694","0.0-15.0-1.3","SS1618365916882","trial","","40","500","6396.399999968708","images/stimuli/spore_stims/complex_01_A_b.gif","images/stimuli/spore_stims/complex_17_A_a.gif","self_paced","","3","complex_dissimilar","images/stimuli/spore_stims/complex_17_A_a.gif","","","","",""
"","null","html-keyboard-response","50","1010819","0.0-15.0-0.4","SS1618365916882","","","null","","","","","","<p><img src= images/blank.png width =""600"" height = ""600"" style=""position:fixed;top:50%; left:50%; transform: translate(-50%, -50%); border:5px solid black"">","","","","","","","",""
"","6060.204999987036","sequential-stimulus-presentation-old","51","1017383","0.0-15.0-1.4","SS1618365916882","trial","","40","500","6560.204999987036","images/stimuli/spore_stims/complex_01_A_b.gif","images/stimuli/spore_stims/complex_17_A_a.gif","self_paced","","3","complex_dissimilar","images/stimuli/spore_stims/complex_17_A_a.gif","","","","",""
"","null","html-keyboard-response","52","1018660","0.0-15.0-0.5","SS1618365916882","","","null","","","","","","<p><img src= images/blank.png width =""600"" height = ""600"" style=""position:fixed;top:50%; left:50%; transform: translate(-50%, -50%); border:5px solid black"">","","","","","","","",""
"","5123.439999995753","sequential-stimulus-presentation-old","53","1024287","0.0-15.0-1.5","SS1618365916882","trial","","40","500","5623.439999995753","images/stimuli/spore_stims/complex_01_A_b.gif","images/stimuli/spore_stims/complex_17_A_a.gif","self_paced","","3","complex_dissimilar","images/stimuli/spore_stims/complex_01_A_b.gif","","","","",""
"","3122.9300000704825","survey-multi-choice","54","1027412","0.0-16.0","SS1618365916882","math_question","","","","","","","","","","","","{""Q0"":""18""}","[0]","18","",""
"","null","html-keyboard-response","55","1028396","0.0-17.0-0.0","SS1618365916882","","","null","","","","","","<p><img src= images/blank.png width =""600"" height = ""600"" style=""position:fixed;top:50%; left:50%; transform: translate(-50%, -50%); border:5px solid black"">","","","","","","","",""
"","5118.155000032857","sequential-stimulus-presentation-old","56","1034016","0.0-17.0-1.0","SS1618365916882","trial","","40","500","5618.155000032857","images/stimuli/spore_stims/simple_07_A_b.gif","images/stimuli/spore_stims/simple_09_A_a.gif","self_paced","","4","simple_dissimilar","images/stimuli/spore_stims/simple_09_A_a.gif","","","","",""
"","null","html-keyboard-response","57","1034878","0.0-17.0-0.1","SS1618365916882","","","null","","","","","","<p><img src= images/blank.png width =""600"" height = ""600"" style=""position:fixed;top:50%; left:50%; transform: translate(-50%, -50%); border:5px solid black"">","","","","","","","",""
"","6212.150000035763","sequential-stimulus-presentation-old","58","1041593","0.0-17.0-1.1","SS1618365916882","trial","","40","500","6712.150000035763","images/stimuli/spore_stims/simple_07_A_b.gif","images/stimuli/spore_stims/simple_09_A_a.gif","self_paced","","4","simple_dissimilar","images/stimuli/spore_stims/simple_09_A_a.gif","","","","",""
"","null","html-keyboard-response","59","1042635","0.0-17.0-0.2","SS1618365916882","","","null","","","","","","<p><img src= images/blank.png width =""600"" height = ""600"" style=""position:fixed;top:50%; left:50%; transform: translate(-50%, -50%); border:5px solid black"">","","","","","","","",""
"","5967.65999996569","sequential-stimulus-presentation-old","60","1049106","0.0-17.0-1.2","SS1618365916882","trial","","40","500","6467.65999996569","images/stimuli/spore_stims/simple_07_A_b.gif","images/stimuli/spore_stims/simple_09_A_a.gif","self_paced","","4","simple_dissimilar","images/stimuli/spore_stims/simple_09_A_a.gif","","","","",""
"","null","html-keyboard-response","61","1050344","0.0-17.0-0.3","SS1618365916882","","","null","","","","","","<p><img src= images/blank.png width =""600"" height = ""600"" style=""position:fixed;top:50%; left:50%; transform: translate(-50%, -50%); border:5px solid black"">","","","","","","","",""
"","6604.055000003427","sequential-stimulus-presentation-old","62","1057451","0.0-17.0-1.3","SS1618365916882","trial","","40","500","7104.055000003427","images/stimuli/spore_stims/simple_07_A_b.gif","images/stimuli/spore_stims/simple_09_A_a.gif","self_paced","","4","simple_dissimilar","images/stimuli/spore_stims/simple_09_A_a.gif","","","","",""
"","null","html-keyboard-response","63","1058452","0.0-17.0-0.4","SS1618365916882","","","null","","","","","","<p><img src= images/blank.png width =""600"" height = ""600"" style=""position:fixed;top:50%; left:50%; transform: translate(-50%, -50%); border:5px solid black"">","","","","","","","",""
"","5535.93999997247","sequential-stimulus-presentation-old","64","1064492","0.0-17.0-1.4","SS1618365916882","trial","","40","500","6035.93999997247","images/stimuli/spore_stims/simple_07_A_b.gif","images/stimuli/spore_stims/simple_09_A_a.gif","self_paced","","4","simple_dissimilar","images/stimuli/spore_stims/simple_07_A_b.gif","","","","",""
"","2491.1100000608712","survey-multi-choice","65","1066984","0.0-18.0","SS1618365916882","math_question","","","","","","","","","","","","{""Q0"":""10""}","[0]","10","",""
"","null","html-keyboard-response","66","1067983","0.0-19.0-0.0","SS1618365916882","","","null","","","","","","<p><img src= images/blank.png width =""600"" height = ""600"" style=""position:fixed;top:50%; left:50%; transform: translate(-50%, -50%); border:5px solid black"">","","","","","","","",""
"","968.4499999275431","sequential-stimulus-presentation-old","67","1069005","0.0-19.0-1.0","SS1618365916882","trial","","40","500","1468.449999927543","images/stimuli/spore_stims/simple_19_A_b.gif","images/stimuli/spore_stims/simple_10_A_a.gif","forced_short","","5","simple_dissimilar","images/stimuli/spore_stims/simple_10_A_a.gif","","","","",""
"","null","html-keyboard-response","68","1069933","0.0-19.0-0.1","SS1618365916882","","","null","","","","","","<p><img src= images/blank.png width =""600"" height = ""600"" style=""position:fixed;top:50%; left:50%; transform: translate(-50%, -50%); border:5px solid black"">","","","","","","","",""
"","5927.050000056624","sequential-stimulus-presentation-old","69","1076365","0.0-19.0-1.1","SS1618365916882","trial","","40","500","6427.050000056624","images/stimuli/spore_stims/simple_19_A_b.gif","images/stimuli/spore_stims/simple_10_A_a.gif","forced_short","","5","simple_dissimilar","images/stimuli/spore_stims/simple_19_A_b.gif","","","","",""
"","null","html-keyboard-response","70","1077477","0.0-19.0-0.2","SS1618365916882","","","null","","","","","","<p><img src= images/blank.png width =""600"" height = ""600"" style=""position:fixed;top:50%; left:50%; transform: translate(-50%, -50%); border:5px solid black"">","","","","","","","",""
"","5098.049999913201","sequential-stimulus-presentation-old","71","1083078","0.0-19.0-1.2","SS1618365916882","trial","","40","500","5598.049999913201","images/stimuli/spore_stims/simple_19_A_b.gif","images/stimuli/spore_stims/simple_10_A_a.gif","forced_short","","5","simple_dissimilar","images/stimuli/spore_stims/simple_19_A_b.gif","","","","",""
"","null","html-keyboard-response","72","1084338","0.0-19.0-0.3","SS1618365916882","","","null","","","","","","<p><img src= images/blank.png width =""600"" height = ""600"" style=""position:fixed;top:50%; left:50%; transform: translate(-50%, -50%); border:5px solid black"">","","","","","","","",""
"","5116.95499997586","sequential-stimulus-presentation-old","73","1089958","0.0-19.0-1.3","SS1618365916882","trial","","40","500","5616.95499997586","images/stimuli/spore_stims/simple_19_A_b.gif","images/stimuli/spore_stims/simple_10_A_a.gif","forced_short","","5","simple_dissimilar","images/stimuli/spore_stims/simple_10_A_a.gif","","","","",""
"","2707.0349999703467","survey-multi-choice","74","1092667","0.0-20.0","SS1618365916882","math_question","","","","","","","","","","","","{""Q0"":""9""}","[0]","9","",""
"","null","html-keyboard-response","75","1093482","0.0-21.0-0.0","SS1618365916882","","","null","","","","","","<p><img src= images/blank.png width =""600"" height = ""600"" style=""position:fixed;top:50%; left:50%; transform: translate(-50%, -50%); border:5px solid black"">","","","","","","","",""
"","1136.2749999389052","sequential-stimulus-presentation-old","76","1094671","0.0-21.0-1.0","SS1618365916882","trial","","40","500","1636.2749999389052","images/stimuli/spore_stims/simple_01_A_b.gif","images/stimuli/spore_stims/simple_12_A_a.gif","forced_short","","6","simple_dissimilar","images/stimuli/spore_stims/simple_12_A_a.gif","","","","",""
"","null","html-keyboard-response","77","1095709","0.0-21.0-0.1","SS1618365916882","","","null","","","","","","<p><img src= images/blank.png width =""600"" height = ""600"" style=""position:fixed;top:50%; left:50%; transform: translate(-50%, -50%); border:5px solid black"">","","","","","","","",""
"","5148.049999959767","sequential-stimulus-presentation-old","78","1101360","0.0-21.0-1.1","SS1618365916882","trial","","40","500","5648.049999959767","images/stimuli/spore_stims/simple_01_A_b.gif","images/stimuli/spore_stims/simple_12_A_a.gif","forced_short","","6","simple_dissimilar","images/stimuli/spore_stims/simple_12_A_a.gif","","","","",""
"","null","html-keyboard-response","79","1102447","0.0-21.0-0.2","SS1618365916882","","","null","","","","","","<p><img src= images/blank.png width =""600"" height = ""600"" style=""position:fixed;top:50%; left:50%; transform: translate(-50%, -50%); border:5px solid black"">","","","","","","","",""
"","6010.814999928698","sequential-stimulus-presentation-old","80","1108961","0.0-21.0-1.2","SS1618365916882","trial","","40","500","6510.814999928698","images/stimuli/spore_stims/simple_01_A_b.gif","images/stimuli/spore_stims/simple_12_A_a.gif","forced_short","","6","simple_dissimilar","images/stimuli/spore_stims/simple_12_A_a.gif","","","","",""
"","null","html-keyboard-response","81","1109796","0.0-21.0-0.3","SS1618365916882","","","null","","","","","","<p><img src= images/blank.png width =""600"" height = ""600"" style=""position:fixed;top:50%; left:50%; transform: translate(-50%, -50%); border:5px solid black"">","","","","","","","",""
"","7742.205000016838","sequential-stimulus-presentation-old","82","1118042","0.0-21.0-1.3","SS1618365916882","trial","","40","500","8242.205000016838","images/stimuli/spore_stims/simple_01_A_b.gif","images/stimuli/spore_stims/simple_12_A_a.gif","forced_short","","6","simple_dissimilar","images/stimuli/spore_stims/simple_12_A_a.gif","","","","",""
"","2970.74000001885","survey-multi-choice","83","1121014","0.0-22.0","SS1618365916882","math_question","","","","","","","","","","","","{""Q0"":""11""}","[0]","11","",""
"","null","html-keyboard-response","84","1122180","0.0-23.0-0.0","SS1618365916882","","","null","","","","","","<p><img src= images/blank.png width =""600"" height = ""600"" style=""position:fixed;top:50%; left:50%; transform: translate(-50%, -50%); border:5px solid black"">","","","","","","","",""
"","1443.4800000162795","sequential-stimulus-presentation-old","85","1128627","0.0-23.0-1.0","SS1618365916882","trial","","40","500","1943.4800000162795","images/stimuli/spore_stims/complex_09_A_a.gif","images/stimuli/spore_stims/complex_20_A_b.gif","forced_long","","7","complex_dissimilar","images/stimuli/spore_stims/complex_20_A_b.gif","","","","",""
"","null","html-keyboard-response","86","1129737","0.0-23.0-0.1","SS1618365916882","","","null","","","","","","<p><img src= images/blank.png width =""600"" height = ""600"" style=""position:fixed;top:50%; left:50%; transform: translate(-50%, -50%); border:5px solid black"">","","","","","","","",""
"","5291.245000087656","sequential-stimulus-presentation-old","87","1135532","0.0-23.0-1.1","SS1618365916882","trial","","40","500","5791.245000087656","images/stimuli/spore_stims/complex_09_A_a.gif","images/stimuli/spore_stims/complex_20_A_b.gif","forced_long","","7","complex_dissimilar","images/stimuli/spore_stims/complex_20_A_b.gif","","","","",""
"","null","html-keyboard-response","88","1136783","0.0-23.0-0.2","SS1618365916882","","","null","","","","","","<p><img src= images/blank.png width =""600"" height = ""600"" style=""position:fixed;top:50%; left:50%; transform: translate(-50%, -50%); border:5px solid black"">","","","","","","","",""
"","5140.980000025593","sequential-stimulus-presentation-old","89","1142429","0.0-23.0-1.2","SS1618365916882","trial","","40","500","5640.980000025593","images/stimuli/spore_stims/complex_09_A_a.gif","images/stimuli/spore_stims/complex_20_A_b.gif","forced_long","","7","complex_dissimilar","images/stimuli/spore_stims/complex_09_A_a.gif","","","","",""
"","null","html-keyboard-response","90","1143439","0.0-23.0-0.3","SS1618365916882","","","null","","","","","","<p><img src= images/blank.png width =""600"" height = ""600"" style=""position:fixed;top:50%; left:50%; transform: translate(-50%, -50%); border:5px solid black"">","","","","","","","",""
"","6935.034999973141","sequential-stimulus-presentation-old","91","1150878","0.0-23.0-1.3","SS1618365916882","trial","","40","500","7435.034999973141","images/stimuli/spore_stims/complex_09_A_a.gif","images/stimuli/spore_stims/complex_20_A_b.gif","forced_long","","7","complex_dissimilar","images/stimuli/spore_stims/complex_09_A_a.gif","","","","",""
"","2993.8050000928342","survey-multi-choice","92","1153874","0.0-24.0","SS1618365916882","math_question","","","","","","","","","","","","{""Q0"":""14""}","[0]","14","",""
"","null","html-keyboard-response","93","1154816","0.0-25.0-0.0","SS1618365916882","","","null","","","","","","<p><img src= images/blank.png width =""600"" height = ""600"" style=""position:fixed;top:50%; left:50%; transform: translate(-50%, -50%); border:5px solid black"">","","","","","","","",""
"","1192.1399999409914","sequential-stimulus-presentation-old","94","1156062","0.0-25.0-1.0","SS1618365916882","trial","","40","500","1692.1399999409914","images/stimuli/spore_stims/complex_16_A_a.gif","images/stimuli/spore_stims/complex_14_A_b.gif","forced_short","","8","complex_dissimilar","images/stimuli/spore_stims/complex_14_A_b.gif","","","","",""
"","null","html-keyboard-response","95","1157187","0.0-25.0-0.1","SS1618365916882","","","null","","","","","","<p><img src= images/blank.png width =""600"" height = ""600"" style=""position:fixed;top:50%; left:50%; transform: translate(-50%, -50%); border:5px solid black"">","","","","","","","",""
"","6581.36499999091","sequential-stimulus-presentation-old","96","1164271","0.0-25.0-1.1","SS1618365916882","trial","","40","500","7081.36499999091","images/stimuli/spore_stims/complex_16_A_a.gif","images/stimuli/spore_stims/complex_14_A_b.gif","forced_short","","8","complex_dissimilar","images/stimuli/spore_stims/complex_16_A_a.gif","","","","",""
"","null","html-keyboard-response","97","1165346","0.0-25.0-0.2","SS1618365916882","","","null","","","","","","<p><img src= images/blank.png width =""600"" height = ""600"" style=""position:fixed;top:50%; left:50%; transform: translate(-50%, -50%); border:5px solid black"">","","","","","","","",""
"","5094.894999987446","sequential-stimulus-presentation-old","98","1170944","0.0-25.0-1.2","SS1618365916882","trial","","40","500","5594.894999987446","images/stimuli/spore_stims/complex_16_A_a.gif","images/stimuli/spore_stims/complex_14_A_b.gif","forced_short","","8","complex_dissimilar","images/stimuli/spore_stims/complex_14_A_b.gif","","","","",""
"","null","html-keyboard-response","99","1172126","0.0-25.0-0.3","SS1618365916882","","","null","","","","","","<p><img src= images/blank.png width =""600"" height = ""600"" style=""position:fixed;top:50%; left:50%; transform: translate(-50%, -50%); border:5px solid black"">","","","","","","","",""
"","5723.35500002373","sequential-stimulus-presentation-old","100","1178353","0.0-25.0-1.3","SS1618365916882","trial","","40","500","6223.35500002373","images/stimuli/spore_stims/complex_16_A_a.gif","images/stimuli/spore_stims/complex_14_A_b.gif","forced_short","","8","complex_dissimilar","images/stimuli/spore_stims/complex_14_A_b.gif","","","","",""
"","null","html-keyboard-response","101","1179394","0.0-25.0-0.4","SS1618365916882","","","null","","","","","","<p><img src= images/blank.png width =""600"" height = ""600"" style=""position:fixed;top:50%; left:50%; transform: translate(-50%, -50%); border:5px solid black"">","","","","","","","",""
"","5712.570000090636","sequential-stimulus-presentation-old","102","1185610","0.0-25.0-1.4","SS1618365916882","trial","","40","500","6212.570000090636","images/stimuli/spore_stims/complex_16_A_a.gif","images/stimuli/spore_stims/complex_14_A_b.gif","forced_short","","8","complex_dissimilar","images/stimuli/spore_stims/complex_16_A_a.gif","","","","",""
"","null","html-keyboard-response","103","1186733","0.0-25.0-0.5","SS1618365916882","","","null","","","","","","<p><img src= images/blank.png width =""600"" height = ""600"" style=""position:fixed;top:50%; left:50%; transform: translate(-50%, -50%); border:5px solid black"">","","","","","","","",""
"","4341.939999954775","sequential-stimulus-presentation-old","104","1191578","0.0-25.0-1.5","SS1618365916882","trial","","40","500","4841.939999954775","images/stimuli/spore_stims/complex_16_A_a.gif","images/stimuli/spore_stims/complex_14_A_b.gif","forced_short","","8","complex_dissimilar","images/stimuli/spore_stims/complex_14_A_b.gif","","","","",""
"","3714.33500002604","survey-multi-choice","105","1195295","0.0-26.0","SS1618365916882","math_question","","","","","","","","","","","","{""Q0"":""8""}","[0]","8","",""
"","null","html-keyboard-response","106","1196201","0.0-27.0-0.0","SS1618365916882","","","null","","","","","","<p><img src= images/blank.png width =""600"" height = ""600"" style=""position:fixed;top:50%; left:50%; transform: translate(-50%, -50%); border:5px solid black"">","","","","","","","",""
"","750.9449999779463","sequential-stimulus-presentation-old","107","1201956","0.0-27.0-1.0","SS1618365916882","trial","","40","500","1250.9449999779463","images/stimuli/spore_stims/complex_12_A_a.gif","images/stimuli/spore_stims/complex_17_A_b.gif","forced_long","","9","complex_dissimilar","images/stimuli/spore_stims/complex_17_A_b.gif","","","","",""
"","null","html-keyboard-response","108","1203184","0.0-27.0-0.1","SS1618365916882","","","null","","","","","","<p><img src= images/blank.png width =""600"" height = ""600"" style=""position:fixed;top:50%; left:50%; transform: translate(-50%, -50%); border:5px solid black"">","","","","","","","",""
"","6365.470000077039","sequential-stimulus-presentation-old","109","1210052","0.0-27.0-1.1","SS1618365916882","trial","","40","500","6865.470000077039","images/stimuli/spore_stims/complex_12_A_a.gif","images/stimuli/spore_stims/complex_17_A_b.gif","forced_long","","9","complex_dissimilar","images/stimuli/spore_stims/complex_17_A_b.gif","","","","",""
"","null","html-keyboard-response","110","1210884","0.0-27.0-0.2","SS1618365916882","","","null","","","","","","<p><img src= images/blank.png width =""600"" height = ""600"" style=""position:fixed;top:50%; left:50%; transform: translate(-50%, -50%); border:5px solid black"">","","","","","","","",""
"","6225.975000066683","sequential-stimulus-presentation-old","111","1217614","0.0-27.0-1.2","SS1618365916882","trial","","40","500","6725.975000066683","images/stimuli/spore_stims/complex_12_A_a.gif","images/stimuli/spore_stims/complex_17_A_b.gif","forced_long","","9","complex_dissimilar","images/stimuli/spore_stims/complex_17_A_b.gif","","","","",""
"","null","html-keyboard-response","112","1218863","0.0-27.0-0.3","SS1618365916882","","","null","","","","","","<p><img src= images/blank.png width =""600"" height = ""600"" style=""position:fixed;top:50%; left:50%; transform: translate(-50%, -50%); border:5px solid black"">","","","","","","","",""
"","6353.145000059158","sequential-stimulus-presentation-old","113","1225719","0.0-27.0-1.3","SS1618365916882","trial","","40","500","6853.145000059158","images/stimuli/spore_stims/complex_12_A_a.gif","images/stimuli/spore_stims/complex_17_A_b.gif","forced_long","","9","complex_dissimilar","images/stimuli/spore_stims/complex_17_A_b.gif","","","","",""
"","3354.689999949187","survey-multi-choice","114","1229076","0.0-28.0","SS1618365916882","math_question","","","","","","","","","","","","{""Q0"":""9""}","[0]","9","",""
"","null","html-keyboard-response","115","1230187","0.0-29.0-0.0","SS1618365916882","","","null","","","","","","<p><img src= images/blank.png width =""600"" height = ""600"" style=""position:fixed;top:50%; left:50%; transform: translate(-50%, -50%); border:5px solid black"">","","","","","","","",""
"","665.8150000730529","sequential-stimulus-presentation-old","116","1235856","0.0-29.0-1.0","SS1618365916882","trial","","40","500","1165.815000073053","images/stimuli/spore_stims/simple_10_A_b.gif","images/stimuli/spore_stims/simple_11_A_a.gif","forced_long","","10","simple_dissimilar","images/stimuli/spore_stims/simple_11_A_a.gif","","","","",""
"","null","html-keyboard-response","117","1236849","0.0-29.0-0.1","SS1618365916882","","","null","","","","","","<p><img src= images/blank.png width =""600"" height = ""600"" style=""position:fixed;top:50%; left:50%; transform: translate(-50%, -50%); border:5px solid black"">","","","","","","","",""
"","6623.679999960586","sequential-stimulus-presentation-old","118","1243977","0.0-29.0-1.1","SS1618365916882","trial","","40","500","7123.679999960586","images/stimuli/spore_stims/simple_10_A_b.gif","images/stimuli/spore_stims/simple_11_A_a.gif","forced_long","","10","simple_dissimilar","images/stimuli/spore_stims/simple_11_A_a.gif","","","","",""
"","null","html-keyboard-response","119","1245190","0.0-29.0-0.2","SS1618365916882","","","null","","","","","","<p><img src= images/blank.png width =""600"" height = ""600"" style=""position:fixed;top:50%; left:50%; transform: translate(-50%, -50%); border:5px solid black"">","","","","","","","",""
"","5219.6550000226125","sequential-stimulus-presentation-old","120","1250914","0.0-29.0-1.2","SS1618365916882","trial","","40","500","5719.6550000226125","images/stimuli/spore_stims/simple_10_A_b.gif","images/stimuli/spore_stims/simple_11_A_a.gif","forced_long","","10","simple_dissimilar","images/stimuli/spore_stims/simple_11_A_a.gif","","","","",""
"","null","html-keyboard-response","121","1251885","0.0-29.0-0.3","SS1618365916882","","","null","","","","","","<p><img src= images/blank.png width =""600"" height = ""600"" style=""position:fixed;top:50%; left:50%; transform: translate(-50%, -50%); border:5px solid black"">","","","","","","","",""
"","5942.365000024438","sequential-stimulus-presentation-old","122","1258331","0.0-29.0-1.3","SS1618365916882","trial","","40","500","6442.365000024438","images/stimuli/spore_stims/simple_10_A_b.gif","images/stimuli/spore_stims/simple_11_A_a.gif","forced_long","","10","simple_dissimilar","images/stimuli/spore_stims/simple_11_A_a.gif","","","","",""
"","null","html-keyboard-response","123","1259339","0.0-29.0-0.4","SS1618365916882","","","null","","","","","","<p><img src= images/blank.png width =""600"" height = ""600"" style=""position:fixed;top:50%; left:50%; transform: translate(-50%, -50%); border:5px solid black"">","","","","","","","",""
"","6385.370000032708","sequential-stimulus-presentation-old","124","1266228","0.0-29.0-1.4","SS1618365916882","trial","","40","500","6885.370000032708","images/stimuli/spore_stims/simple_10_A_b.gif","images/stimuli/spore_stims/simple_11_A_a.gif","forced_long","","10","simple_dissimilar","images/stimuli/spore_stims/simple_11_A_a.gif","","","","",""
"","2634.1300000203773","survey-multi-choice","125","1268864","0.0-30.0","SS1618365916882","math_question","","","","","","","","","","","","{""Q0"":""4""}","[0]","4","",""
"","null","html-keyboard-response","126","1270030","0.0-31.0-0.0","SS1618365916882","","","null","","","","","","<p><img src= images/blank.png width =""600"" height = ""600"" style=""position:fixed;top:50%; left:50%; transform: translate(-50%, -50%); border:5px solid black"">","","","","","","","",""
"","5150.675000040792","sequential-stimulus-presentation-old","127","1275685","0.0-31.0-1.0","SS1618365916882","trial","","40","500","5650.675000040792","images/stimuli/spore_stims/simple_04_A_b.gif","images/stimuli/spore_stims/simple_05_A_a.gif","self_paced","","11","simple_dissimilar","images/stimuli/spore_stims/simple_05_A_a.gif","","","","",""
"","null","html-keyboard-response","128","1276739","0.0-31.0-0.1","SS1618365916882","","","null","","","","","","<p><img src= images/blank.png width =""600"" height = ""600"" style=""position:fixed;top:50%; left:50%; transform: translate(-50%, -50%); border:5px solid black"">","","","","","","","",""
"","5977.7150000445545","sequential-stimulus-presentation-old","129","1283221","0.0-31.0-1.1","SS1618365916882","trial","","40","500","6477.7150000445545","images/stimuli/spore_stims/simple_04_A_b.gif","images/stimuli/spore_stims/simple_05_A_a.gif","self_paced","","11","simple_dissimilar","images/stimuli/spore_stims/simple_05_A_a.gif","","","","",""
"","null","html-keyboard-response","130","1284465","0.0-31.0-0.2","SS1618365916882","","","null","","","","","","<p><img src= images/blank.png width =""600"" height = ""600"" style=""position:fixed;top:50%; left:50%; transform: translate(-50%, -50%); border:5px solid black"">","","","","","","","",""
"","6621.365000028163","sequential-stimulus-presentation-old","131","1291590","0.0-31.0-1.2","SS1618365916882","trial","","40","500","7121.365000028163","images/stimuli/spore_stims/simple_04_A_b.gif","images/stimuli/spore_stims/simple_05_A_a.gif","self_paced","","11","simple_dissimilar","images/stimuli/spore_stims/simple_05_A_a.gif","","","","",""
"","null","html-keyboard-response","132","1292507","0.0-31.0-0.3","SS1618365916882","","","null","","","","","","<p><img src= images/blank.png width =""600"" height = ""600"" style=""position:fixed;top:50%; left:50%; transform: translate(-50%, -50%); border:5px solid black"">","","","","","","","",""
"","5420.129999984056","sequential-stimulus-presentation-old","133","1298431","0.0-31.0-1.3","SS1618365916882","trial","","40","500","5920.129999984056","images/stimuli/spore_stims/simple_04_A_b.gif","images/stimuli/spore_stims/simple_05_A_a.gif","self_paced","","11","simple_dissimilar","images/stimuli/spore_stims/simple_05_A_a.gif","","","","",""
"[{""page_index"":0,""viewing_time"":5394.13999998942}]","5394.364999956451","instructions","134","1303828","0.0-32.0","SS1618365916882","instructions","","","","","","","","","","","","","","","",""
"","10365.760000073351","survey-likert","135","1314198","0.0-33.0","SS1618365916882","similarity_question","","","","","","","","","","","","{""Q0"":2}","[0]","","images/stimuli/spore_stims/simple_03_A_b.gif","images/stimuli/spore_stims/simple_02_A_a.gif"
"","15830.185000086203","survey-likert","136","1330031","0.0-34.0","SS1618365916882","similarity_question","","","","","","","","","","","","{""Q0"":2}","[0]","","images/stimuli/spore_stims/complex_17_A_b.gif","images/stimuli/spore_stims/complex_12_A_a.gif"
"","5060.8699999284","survey-likert","137","1335096","0.0-35.0","SS1618365916882","similarity_question","","","","","","","","","","","","{""Q0"":2}","[0]","","images/stimuli/spore_stims/complex_18_A_b.gif","images/stimuli/spore_stims/complex_13_A_a.gif"
"","4557.449999963865","survey-likert","138","1339657","0.0-36.0","SS1618365916882","similarity_question","","","","","","","","","","","","{""Q0"":4}","[0]","","images/stimuli/spore_stims/simple_12_A_a.gif","images/stimuli/spore_stims/simple_01_A_b.gif"
"","6101.25499998685","survey-likert","139","1345761","0.0-37.0","SS1618365916882","similarity_question","","","","","","","","","","","","{""Q0"":4}","[0]","","images/stimuli/spore_stims/complex_20_A_b.gif","images/stimuli/spore_stims/complex_09_A_a.gif"
"","4877.310000010766","survey-likert","140","1350642","0.0-38.0","SS1618365916882","similarity_question","","","","","","","","","","","","{""Q0"":2}","[0]","","images/stimuli/spore_stims/complex_16_A_a.gif","images/stimuli/spore_stims/complex_14_A_b.gif"
"","2684.5050000119954","survey-likert","141","1353330","0.0-39.0","SS1618365916882","similarity_question","","","","","","","","","","","","{""Q0"":2}","[0]","","images/stimuli/spore_stims/simple_11_A_a.gif","images/stimuli/spore_stims/simple_10_A_b.gif"
"","2939.5900000818074","survey-likert","142","1356274","0.0-40.0","SS1618365916882","similarity_question","","","","","","","","","","","","{""Q0"":4}","[0]","","images/stimuli/spore_stims/simple_04_A_b.gif","images/stimuli/spore_stims/simple_05_A_a.gif"
"","5292.6799999549985","survey-likert","143","1361571","0.0-41.0","SS1618365916882","similarity_question","","","","","","","","","","","","{""Q0"":4}","[0]","","images/stimuli/spore_stims/complex_04_A_a.gif","images/stimuli/spore_stims/complex_15_A_b.gif"
"","4581.17499994114","survey-likert","144","1366156","0.0-42.0","SS1618365916882","similarity_question","","","","","","","","","","","","{""Q0"":2}","[0]","","images/stimuli/spore_stims/simple_09_A_a.gif","images/stimuli/spore_stims/simple_07_A_b.gif"
"","3916.71999997925","survey-likert","145","1370076","0.0-43.0","SS1618365916882","similarity_question","","","","","","","","","","","","{""Q0"":4}","[0]","","images/stimuli/spore_stims/complex_17_A_a.gif","images/stimuli/spore_stims/complex_01_A_b.gif"
"","2483.9249999495223","survey-likert","146","1372564","0.0-44.0","SS1618365916882","similarity_question","","","","","","","","","","","","{""Q0"":4}","[0]","","images/stimuli/spore_stims/simple_19_A_b.gif","images/stimuli/spore_stims/simple_10_A_a.gif"
"[{""page_index"":0,""viewing_time"":6509.199999971315}]","6509.409999940544","instructions","147","1379077","0.0-45.0","SS1618365916882","instructions","","","","","","","","","","","","","","","",""
"","5933.844999992289","survey-likert","148","1385014","0.0-46.0","SS1618365916882","","","","","","","","","images/stimuli/spore_stims/complex_17_A_a.gif","","","","{""Q0"":4}","[0]","","",""
"","3228.8149999221787","survey-likert","149","1388246","0.0-47.0","SS1618365916882","","","","","","","","","images/stimuli/spore_stims/simple_12_A_a.gif","","","","{""Q0"":1}","[0]","","",""
"","2373.105000006035","survey-likert","150","1390622","0.0-48.0","SS1618365916882","","","","","","","","","images/stimuli/spore_stims/complex_04_A_a.gif","","","","{""Q0"":5}","[0]","","",""
"","2532.2200000518933","survey-likert","151","1393158","0.0-49.0","SS1618365916882","","","","","","","","","images/stimuli/spore_stims/simple_02_A_a.gif","","","","{""Q0"":1}","[0]","","",""
"","1596.750000026077","survey-likert","152","1394759","0.0-50.0","SS1618365916882","","","","","","","","","images/stimuli/spore_stims/simple_10_A_b.gif","","","","{""Q0"":1}","[0]","","",""
"","3460.719999973662","survey-likert","153","1398223","0.0-51.0","SS1618365916882","","","","","","","","","images/stimuli/spore_stims/complex_09_A_a.gif","","","","{""Q0"":4}","[0]","","",""
"","1860.7949999859557","survey-likert","154","1400087","0.0-52.0","SS1618365916882","","","","","","","","","images/stimuli/spore_stims/simple_09_A_a.gif","","","","{""Q0"":1}","[0]","","",""
"","2516.2549999076873","survey-likert","155","1402607","0.0-53.0","SS1618365916882","","","","","","","","","images/stimuli/spore_stims/simple_04_A_b.gif","","","","{""Q0"":1}","[0]","","",""
"","4085.205000010319","survey-likert","156","1406696","0.0-54.0","SS1618365916882","","","","","","","","","images/stimuli/spore_stims/complex_14_A_b.gif","","","","{""Q0"":5}","[0]","","",""
"","2164.5299999509007","survey-likert","157","1408864","0.0-55.0","SS1618365916882","","","","","","","","","images/stimuli/spore_stims/complex_12_A_a.gif","","","","{""Q0"":5}","[0]","","",""
"","2661.174999899231","survey-likert","158","1411529","0.0-56.0","SS1618365916882","","","","","","","","","images/stimuli/spore_stims/complex_13_A_a.gif","","","","{""Q0"":5}","[0]","","",""
"","3252.2749999770895","survey-likert","159","1414785","0.0-57.0","SS1618365916882","","","","","","","","","images/stimuli/spore_stims/simple_19_A_b.gif","","","","{""Q0"":2}","[0]","","",""
"[{""page_index"":0,""viewing_time"":2548.919999971986}]","2549.3299999507144","instructions","160","1417337","0.0-58.0","SS1618365916882","instructions","","","","","","","","","","","","","","","",""
"","3314.920000033453","demog-age","161","1420658","0.0-59.0","SS1618365916882","","","","","","","","","","","","","{""age"":""30""}","","","",""
"","4770.484999986365","demog-ethnic-US","162","1425435","0.0-60.0","SS1618365916882","","","","","","","","","","","","","{""ethnicity"":[""White""]}","[0]","","",""
"","6371.170000056736","demog-gender-and-education","163","1431811","0.0-61.0","SS1618365916882","","","","","","","","","","","","","{""gender"":""Male"",""education"":""Associate Degree/Technical certification""}","[0,1]","","",""
"","15845.029999967664","survey-text","164","1447661","0.0-62.0","SS1618365916882","feedback","","","","","","","","","","","","{""Q0"":""No lag for me, all went smooth!""}","","","",""
"[{""page_index"":0,""viewing_time"":1925.2550000092015}]","1925.455000018701","instructions","165","1449589","0.0-63.0","SS1618365916882","instructions","","","","","","","","","","","","","","","",""
