"view_history","rt","trial_type","trial_index","time_elapsed","internal_node_id","subject","stimulus_type","trial_stimulus","key_press","minimum_viewing_duration","trial_looking_time","block_deviant","block_background","exposure_type","stimulus","block_number","block_type","stimulus_displayed","responses","question_order","math_correct_answer","stimulus_left","stimulus_right"
"[{""page_index"":0,""viewing_time"":8023.775000008754}]","8024.284999992233","instructions","0","8025","0.0-0.0","SS1618435691515","","","","","","","","","","","","","","","","",""
"[{""page_index"":0,""viewing_time"":11526.654999994207},{""page_index"":1,""viewing_time"":4524.024999991525}]","16050.935000006575","instructions","1","26078","0.0-1.0","SS1618435691515","instructions","","","","","","","","","","","","","","","",""
"","4981.705000041984","sequential-stimulus-presentation-old","2","31564","0.0-2.0","SS1618435691515","","","40","500","5481.705000041984","null","null","self_paced","","","","","","","","",""
"","2649.3550000013784","sequential-stimulus-presentation-old","3","34716","0.0-3.0","SS1618435691515","","","40","500","3149.3550000013784","null","null","self_paced","","","","","","","","",""
"[{""page_index"":0,""viewing_time"":13287.469999981113}]","13287.714999984019","instructions","4","48004","0.0-4.0","SS1618435691515","instructions","","","","","","","","","","","","","","","",""
"","718.4899999992922","sequential-stimulus-presentation-old","5","53725","0.0-5.0","SS1618435691515","","","40","500","1218.4899999992922","null","null","forced_long","","","","","","","","",""
"","5453.760000003967","sequential-stimulus-presentation-old","6","59245","0.0-6.0","SS1618435691515","","","40","50","5503.760000003967","null","null","forced_long","","","","","","","","",""
"[{""page_index"":0,""viewing_time"":4063.2500000065193}]","4063.4549999958836","instructions","7","63309","0.0-7.0","SS1618435691515","instructions","","","","","","","","","","","","","","","",""
"[{""page_index"":0,""viewing_time"":8964.340000005905},{""page_index"":1,""viewing_time"":5525.934999983292},{""page_index"":2,""viewing_time"":4140.965000027791},{""page_index"":3,""viewing_time"":1130.0849999533966},{""page_index"":4,""viewing_time"":930.9399999910966}]","20692.519999982323","instructions","8","84002","0.0-8.0","SS1618435691515","instructions","","","","","","","","","","","","","","","",""
"","null","html-keyboard-response","9","85227","0.0-9.0-0.0","SS1618435691515","","","null","","","","","","<p><img src= images/blank.png width =""600"" height = ""600"" style=""position:fixed;top:50%; left:50%; transform: translate(-50%, -50%); border:5px solid black"">","","","","","","","",""
"","1369.0099999657832","sequential-stimulus-presentation-old","10","91599","0.0-9.0-1.0","SS1618435691515","trial","","40","500","1869.0099999657832","images/stimuli/spore_stims/simple_17_A_b.gif","images/stimuli/spore_stims/simple_13_A_a.gif","forced_long","","0","simple_dissimilar","images/stimuli/spore_stims/simple_13_A_a.gif","","","","",""
"","null","html-keyboard-response","11","92829","0.0-9.0-0.1","SS1618435691515","","","null","","","","","","<p><img src= images/blank.png width =""600"" height = ""600"" style=""position:fixed;top:50%; left:50%; transform: translate(-50%, -50%); border:5px solid black"">","","","","","","","",""
"","20036.859999992885","sequential-stimulus-presentation-old","12","113376","0.0-9.0-1.1","SS1618435691515","trial","","40","500","20536.859999992885","images/stimuli/spore_stims/simple_17_A_b.gif","images/stimuli/spore_stims/simple_13_A_a.gif","forced_long","","0","simple_dissimilar","images/stimuli/spore_stims/simple_13_A_a.gif","","","","",""
"","null","html-keyboard-response","13","114594","0.0-9.0-0.2","SS1618435691515","","","null","","","","","","<p><img src= images/blank.png width =""600"" height = ""600"" style=""position:fixed;top:50%; left:50%; transform: translate(-50%, -50%); border:5px solid black"">","","","","","","","",""
"","3119.944999984","sequential-stimulus-presentation-old","14","118217","0.0-9.0-1.2","SS1618435691515","trial","","40","500","3619.944999984","images/stimuli/spore_stims/simple_17_A_b.gif","images/stimuli/spore_stims/simple_13_A_a.gif","forced_long","","0","simple_dissimilar","images/stimuli/spore_stims/simple_13_A_a.gif","","","","",""
"","null","html-keyboard-response","15","119053","0.0-9.0-0.3","SS1618435691515","","","null","","","","","","<p><img src= images/blank.png width =""600"" height = ""600"" style=""position:fixed;top:50%; left:50%; transform: translate(-50%, -50%); border:5px solid black"">","","","","","","","",""
"","1331.659999967087","sequential-stimulus-presentation-old","16","120898","0.0-9.0-1.3","SS1618435691515","trial","","40","500","1831.659999967087","images/stimuli/spore_stims/simple_17_A_b.gif","images/stimuli/spore_stims/simple_13_A_a.gif","forced_long","","0","simple_dissimilar","images/stimuli/spore_stims/simple_13_A_a.gif","","","","",""
"","4740.33000000054","survey-multi-choice","17","125641","0.0-10.0","SS1618435691515","math_question","","","","","","","","","","","","{""Q0"":""14""}","[0]","14","",""
"","null","html-keyboard-response","18","126788","0.0-11.0-0.0","SS1618435691515","","","null","","","","","","<p><img src= images/blank.png width =""600"" height = ""600"" style=""position:fixed;top:50%; left:50%; transform: translate(-50%, -50%); border:5px solid black"">","","","","","","","",""
"","2991.199999989476","sequential-stimulus-presentation-old","19","129841","0.0-11.0-1.0","SS1618435691515","trial","","40","500","3491.199999989476","images/stimuli/spore_stims/complex_05_A_b.gif","images/stimuli/spore_stims/complex_20_A_a.gif","forced_short","","1","complex_dissimilar","images/stimuli/spore_stims/complex_20_A_a.gif","","","","",""
"","null","html-keyboard-response","20","130987","0.0-11.0-0.1","SS1618435691515","","","null","","","","","","<p><img src= images/blank.png width =""600"" height = ""600"" style=""position:fixed;top:50%; left:50%; transform: translate(-50%, -50%); border:5px solid black"">","","","","","","","",""
"","1595.5100000137463","sequential-stimulus-presentation-old","21","133086","0.0-11.0-1.1","SS1618435691515","trial","","40","500","2095.5100000137463","images/stimuli/spore_stims/complex_05_A_b.gif","images/stimuli/spore_stims/complex_20_A_a.gif","forced_short","","1","complex_dissimilar","images/stimuli/spore_stims/complex_20_A_a.gif","","","","",""
"","null","html-keyboard-response","22","134011","0.0-11.0-0.2","SS1618435691515","","","null","","","","","","<p><img src= images/blank.png width =""600"" height = ""600"" style=""position:fixed;top:50%; left:50%; transform: translate(-50%, -50%); border:5px solid black"">","","","","","","","",""
"","810.1000000024214","sequential-stimulus-presentation-old","23","135327","0.0-11.0-1.2","SS1618435691515","trial","","40","500","1310.1000000024214","images/stimuli/spore_stims/complex_05_A_b.gif","images/stimuli/spore_stims/complex_20_A_a.gif","forced_short","","1","complex_dissimilar","images/stimuli/spore_stims/complex_20_A_a.gif","","","","",""
"","null","html-keyboard-response","24","136212","0.0-11.0-0.3","SS1618435691515","","","null","","","","","","<p><img src= images/blank.png width =""600"" height = ""600"" style=""position:fixed;top:50%; left:50%; transform: translate(-50%, -50%); border:5px solid black"">","","","","","","","",""
"","1513.310000009369","sequential-stimulus-presentation-old","25","138234","0.0-11.0-1.3","SS1618435691515","trial","","40","500","2013.310000009369","images/stimuli/spore_stims/complex_05_A_b.gif","images/stimuli/spore_stims/complex_20_A_a.gif","forced_short","","1","complex_dissimilar","images/stimuli/spore_stims/complex_20_A_a.gif","","","","",""
"","null","html-keyboard-response","26","139164","0.0-11.0-0.4","SS1618435691515","","","null","","","","","","<p><img src= images/blank.png width =""600"" height = ""600"" style=""position:fixed;top:50%; left:50%; transform: translate(-50%, -50%); border:5px solid black"">","","","","","","","",""
"","660.0399999879301","sequential-stimulus-presentation-old","27","140332","0.0-11.0-1.4","SS1618435691515","trial","","40","500","1160.03999998793","images/stimuli/spore_stims/complex_05_A_b.gif","images/stimuli/spore_stims/complex_20_A_a.gif","forced_short","","1","complex_dissimilar","images/stimuli/spore_stims/complex_20_A_a.gif","","","","",""
"","null","html-keyboard-response","28","141390","0.0-11.0-0.5","SS1618435691515","","","null","","","","","","<p><img src= images/blank.png width =""600"" height = ""600"" style=""position:fixed;top:50%; left:50%; transform: translate(-50%, -50%); border:5px solid black"">","","","","","","","",""
"","1727.184999966994","sequential-stimulus-presentation-old","29","143620","0.0-11.0-1.5","SS1618435691515","trial","","40","500","2227.184999966994","images/stimuli/spore_stims/complex_05_A_b.gif","images/stimuli/spore_stims/complex_20_A_a.gif","forced_short","","1","complex_dissimilar","images/stimuli/spore_stims/complex_05_A_b.gif","","","","",""
"","2898.2449999894015","survey-multi-choice","30","146520","0.0-12.0","SS1618435691515","math_question","","","","","","","","","","","","{""Q0"":""11""}","[0]","11","",""
"","null","html-keyboard-response","31","147344","0.0-13.0-0.0","SS1618435691515","","","null","","","","","","<p><img src= images/blank.png width =""600"" height = ""600"" style=""position:fixed;top:50%; left:50%; transform: translate(-50%, -50%); border:5px solid black"">","","","","","","","",""
"","2138.764999981504","sequential-stimulus-presentation-old","32","149546","0.0-13.0-1.0","SS1618435691515","trial","","40","500","2638.764999981504","images/stimuli/spore_stims/simple_14_A_a.gif","images/stimuli/spore_stims/simple_13_A_b.gif","forced_short","","2","simple_dissimilar","images/stimuli/spore_stims/simple_13_A_b.gif","","","","",""
"","null","html-keyboard-response","33","150490","0.0-13.0-0.1","SS1618435691515","","","null","","","","","","<p><img src= images/blank.png width =""600"" height = ""600"" style=""position:fixed;top:50%; left:50%; transform: translate(-50%, -50%); border:5px solid black"">","","","","","","","",""
"","1408.2700000144541","sequential-stimulus-presentation-old","34","152401","0.0-13.0-1.1","SS1618435691515","trial","","40","500","1908.2700000144541","images/stimuli/spore_stims/simple_14_A_a.gif","images/stimuli/spore_stims/simple_13_A_b.gif","forced_short","","2","simple_dissimilar","images/stimuli/spore_stims/simple_13_A_b.gif","","","","",""
"","null","html-keyboard-response","35","153368","0.0-13.0-0.2","SS1618435691515","","","null","","","","","","<p><img src= images/blank.png width =""600"" height = ""600"" style=""position:fixed;top:50%; left:50%; transform: translate(-50%, -50%); border:5px solid black"">","","","","","","","",""
"","1688.7100000167266","sequential-stimulus-presentation-old","36","155559","0.0-13.0-1.2","SS1618435691515","trial","","40","500","2188.7100000167266","images/stimuli/spore_stims/simple_14_A_a.gif","images/stimuli/spore_stims/simple_13_A_b.gif","forced_short","","2","simple_dissimilar","images/stimuli/spore_stims/simple_14_A_a.gif","","","","",""
"","null","html-keyboard-response","37","156491","0.0-13.0-0.3","SS1618435691515","","","null","","","","","","<p><img src= images/blank.png width =""600"" height = ""600"" style=""position:fixed;top:50%; left:50%; transform: translate(-50%, -50%); border:5px solid black"">","","","","","","","",""
"","235.9699999797158","sequential-stimulus-presentation-old","38","157230","0.0-13.0-1.3","SS1618435691515","trial","","40","500","735.9699999797158","images/stimuli/spore_stims/simple_14_A_a.gif","images/stimuli/spore_stims/simple_13_A_b.gif","forced_short","","2","simple_dissimilar","images/stimuli/spore_stims/simple_14_A_a.gif","","","","",""
"","null","html-keyboard-response","39","158349","0.0-13.0-0.4","SS1618435691515","","","null","","","","","","<p><img src= images/blank.png width =""600"" height = ""600"" style=""position:fixed;top:50%; left:50%; transform: translate(-50%, -50%); border:5px solid black"">","","","","","","","",""
"","382.6800000388175","sequential-stimulus-presentation-old","40","159234","0.0-13.0-1.4","SS1618435691515","trial","","40","500","882.6800000388175","images/stimuli/spore_stims/simple_14_A_a.gif","images/stimuli/spore_stims/simple_13_A_b.gif","forced_short","","2","simple_dissimilar","images/stimuli/spore_stims/simple_13_A_b.gif","","","","",""
"","null","html-keyboard-response","41","160099","0.0-13.0-0.5","SS1618435691515","","","null","","","","","","<p><img src= images/blank.png width =""600"" height = ""600"" style=""position:fixed;top:50%; left:50%; transform: translate(-50%, -50%); border:5px solid black"">","","","","","","","",""
"","154.48500000638887","sequential-stimulus-presentation-old","42","160756","0.0-13.0-1.5","SS1618435691515","trial","","40","500","654.4850000063889","images/stimuli/spore_stims/simple_14_A_a.gif","images/stimuli/spore_stims/simple_13_A_b.gif","forced_short","","2","simple_dissimilar","images/stimuli/spore_stims/simple_13_A_b.gif","","","","",""
"","2127.1949999500066","survey-multi-choice","43","162885","0.0-14.0","SS1618435691515","math_question","","","","","","","","","","","","{""Q0"":""10""}","[0]","10","",""
"","null","html-keyboard-response","44","163955","0.0-15.0-0.0","SS1618435691515","","","null","","","","","","<p><img src= images/blank.png width =""600"" height = ""600"" style=""position:fixed;top:50%; left:50%; transform: translate(-50%, -50%); border:5px solid black"">","","","","","","","",""
"","936.3350000348873","sequential-stimulus-presentation-old","45","165403","0.0-15.0-1.0","SS1618435691515","trial","","40","500","1436.3350000348873","images/stimuli/spore_stims/simple_19_A_a.gif","images/stimuli/spore_stims/simple_20_A_b.gif","self_paced","","3","simple_dissimilar","images/stimuli/spore_stims/simple_20_A_b.gif","","","","",""
"","null","html-keyboard-response","46","166444","0.0-15.0-0.1","SS1618435691515","","","null","","","","","","<p><img src= images/blank.png width =""600"" height = ""600"" style=""position:fixed;top:50%; left:50%; transform: translate(-50%, -50%); border:5px solid black"">","","","","","","","",""
"","9.774999984074384","sequential-stimulus-presentation-old","47","166958","0.0-15.0-1.1","SS1618435691515","trial","","40","500","509.7749999840744","images/stimuli/spore_stims/simple_19_A_a.gif","images/stimuli/spore_stims/simple_20_A_b.gif","self_paced","","3","simple_dissimilar","images/stimuli/spore_stims/simple_20_A_b.gif","","","","",""
"","null","html-keyboard-response","48","167849","0.0-15.0-0.2","SS1618435691515","","","null","","","","","","<p><img src= images/blank.png width =""600"" height = ""600"" style=""position:fixed;top:50%; left:50%; transform: translate(-50%, -50%); border:5px solid black"">","","","","","","","",""
"","906.905000039842","sequential-stimulus-presentation-old","49","169259","0.0-15.0-1.2","SS1618435691515","trial","","40","500","1406.905000039842","images/stimuli/spore_stims/simple_19_A_a.gif","images/stimuli/spore_stims/simple_20_A_b.gif","self_paced","","3","simple_dissimilar","images/stimuli/spore_stims/simple_19_A_a.gif","","","","",""
"","null","html-keyboard-response","50","170106","0.0-15.0-0.3","SS1618435691515","","","null","","","","","","<p><img src= images/blank.png width =""600"" height = ""600"" style=""position:fixed;top:50%; left:50%; transform: translate(-50%, -50%); border:5px solid black"">","","","","","","","",""
"","256.7399999825284","sequential-stimulus-presentation-old","51","170871","0.0-15.0-1.3","SS1618435691515","trial","","40","500","756.7399999825284","images/stimuli/spore_stims/simple_19_A_a.gif","images/stimuli/spore_stims/simple_20_A_b.gif","self_paced","","3","simple_dissimilar","images/stimuli/spore_stims/simple_20_A_b.gif","","","","",""
"","null","html-keyboard-response","52","171820","0.0-15.0-0.4","SS1618435691515","","","null","","","","","","<p><img src= images/blank.png width =""600"" height = ""600"" style=""position:fixed;top:50%; left:50%; transform: translate(-50%, -50%); border:5px solid black"">","","","","","","","",""
"","1042.4699999857694","sequential-stimulus-presentation-old","53","173374","0.0-15.0-1.4","SS1618435691515","trial","","40","500","1542.4699999857694","images/stimuli/spore_stims/simple_19_A_a.gif","images/stimuli/spore_stims/simple_20_A_b.gif","self_paced","","3","simple_dissimilar","images/stimuli/spore_stims/simple_20_A_b.gif","","","","",""
"","null","html-keyboard-response","54","174352","0.0-15.0-0.5","SS1618435691515","","","null","","","","","","<p><img src= images/blank.png width =""600"" height = ""600"" style=""position:fixed;top:50%; left:50%; transform: translate(-50%, -50%); border:5px solid black"">","","","","","","","",""
"","318.8150000059977","sequential-stimulus-presentation-old","55","175175","0.0-15.0-1.5","SS1618435691515","trial","","40","500","818.8150000059977","images/stimuli/spore_stims/simple_19_A_a.gif","images/stimuli/spore_stims/simple_20_A_b.gif","self_paced","","3","simple_dissimilar","images/stimuli/spore_stims/simple_19_A_a.gif","","","","",""
"","1962.5449999584816","survey-multi-choice","56","177139","0.0-16.0","SS1618435691515","math_question","","","","","","","","","","","","{""Q0"":""11""}","[0]","11","",""
"","null","html-keyboard-response","57","178395","0.0-17.0-0.0","SS1618435691515","","","null","","","","","","<p><img src= images/blank.png width =""600"" height = ""600"" style=""position:fixed;top:50%; left:50%; transform: translate(-50%, -50%); border:5px solid black"">","","","","","","","",""
"","865.5450000078417","sequential-stimulus-presentation-old","58","179323","0.0-17.0-1.0","SS1618435691515","trial","","40","500","1365.5450000078417","images/stimuli/spore_stims/complex_11_A_a.gif","images/stimuli/spore_stims/complex_02_A_b.gif","forced_short","","4","complex_dissimilar","images/stimuli/spore_stims/complex_02_A_b.gif","","","","",""
"","null","html-keyboard-response","59","180267","0.0-17.0-0.1","SS1618435691515","","","null","","","","","","<p><img src= images/blank.png width =""600"" height = ""600"" style=""position:fixed;top:50%; left:50%; transform: translate(-50%, -50%); border:5px solid black"">","","","","","","","",""
"","1140.720000024885","sequential-stimulus-presentation-old","60","181912","0.0-17.0-1.1","SS1618435691515","trial","","40","500","1640.720000024885","images/stimuli/spore_stims/complex_11_A_a.gif","images/stimuli/spore_stims/complex_02_A_b.gif","forced_short","","4","complex_dissimilar","images/stimuli/spore_stims/complex_02_A_b.gif","","","","",""
"","null","html-keyboard-response","61","183186","0.0-17.0-0.2","SS1618435691515","","","null","","","","","","<p><img src= images/blank.png width =""600"" height = ""600"" style=""position:fixed;top:50%; left:50%; transform: translate(-50%, -50%); border:5px solid black"">","","","","","","","",""
"","1615.044999984093","sequential-stimulus-presentation-old","62","185305","0.0-17.0-1.2","SS1618435691515","trial","","40","500","2115.044999984093","images/stimuli/spore_stims/complex_11_A_a.gif","images/stimuli/spore_stims/complex_02_A_b.gif","forced_short","","4","complex_dissimilar","images/stimuli/spore_stims/complex_11_A_a.gif","","","","",""
"","null","html-keyboard-response","63","186190","0.0-17.0-0.3","SS1618435691515","","","null","","","","","","<p><img src= images/blank.png width =""600"" height = ""600"" style=""position:fixed;top:50%; left:50%; transform: translate(-50%, -50%); border:5px solid black"">","","","","","","","",""
"","489.3799999845214","sequential-stimulus-presentation-old","64","187182","0.0-17.0-1.3","SS1618435691515","trial","","40","500","989.3799999845214","images/stimuli/spore_stims/complex_11_A_a.gif","images/stimuli/spore_stims/complex_02_A_b.gif","forced_short","","4","complex_dissimilar","images/stimuli/spore_stims/complex_11_A_a.gif","","","","",""
"","null","html-keyboard-response","65","188108","0.0-17.0-0.4","SS1618435691515","","","null","","","","","","<p><img src= images/blank.png width =""600"" height = ""600"" style=""position:fixed;top:50%; left:50%; transform: translate(-50%, -50%); border:5px solid black"">","","","","","","","",""
"","700.4699999815784","sequential-stimulus-presentation-old","66","189321","0.0-17.0-1.4","SS1618435691515","trial","","40","500","1200.4699999815784","images/stimuli/spore_stims/complex_11_A_a.gif","images/stimuli/spore_stims/complex_02_A_b.gif","forced_short","","4","complex_dissimilar","images/stimuli/spore_stims/complex_02_A_b.gif","","","","",""
"","1757.3250000132248","survey-multi-choice","67","191081","0.0-18.0","SS1618435691515","math_question","","","","","","","","","","","","{""Q0"":""5""}","[0]","5","",""
"","null","html-keyboard-response","68","192015","0.0-19.0-0.0","SS1618435691515","","","null","","","","","","<p><img src= images/blank.png width =""600"" height = ""600"" style=""position:fixed;top:50%; left:50%; transform: translate(-50%, -50%); border:5px solid black"">","","","","","","","",""
"","774.5149999973364","sequential-stimulus-presentation-old","69","193293","0.0-19.0-1.0","SS1618435691515","trial","","40","500","1274.5149999973364","images/stimuli/spore_stims/simple_12_A_b.gif","images/stimuli/spore_stims/simple_01_A_a.gif","self_paced","","5","simple_dissimilar","images/stimuli/spore_stims/simple_01_A_a.gif","","","","",""
"","null","html-keyboard-response","70","194347","0.0-19.0-0.1","SS1618435691515","","","null","","","","","","<p><img src= images/blank.png width =""600"" height = ""600"" style=""position:fixed;top:50%; left:50%; transform: translate(-50%, -50%); border:5px solid black"">","","","","","","","",""
"","22.850000008475035","sequential-stimulus-presentation-old","71","194884","0.0-19.0-1.1","SS1618435691515","trial","","40","500","522.850000008475","images/stimuli/spore_stims/simple_12_A_b.gif","images/stimuli/spore_stims/simple_01_A_a.gif","self_paced","","5","simple_dissimilar","images/stimuli/spore_stims/simple_01_A_a.gif","","","","",""
"","null","html-keyboard-response","72","196133","0.0-19.0-0.2","SS1618435691515","","","null","","","","","","<p><img src= images/blank.png width =""600"" height = ""600"" style=""position:fixed;top:50%; left:50%; transform: translate(-50%, -50%); border:5px solid black"">","","","","","","","",""
"","119.97499997960404","sequential-stimulus-presentation-old","73","196766","0.0-19.0-1.2","SS1618435691515","trial","","40","500","619.974999979604","images/stimuli/spore_stims/simple_12_A_b.gif","images/stimuli/spore_stims/simple_01_A_a.gif","self_paced","","5","simple_dissimilar","images/stimuli/spore_stims/simple_01_A_a.gif","","","","",""
"","null","html-keyboard-response","74","197963","0.0-19.0-0.3","SS1618435691515","","","null","","","","","","<p><img src= images/blank.png width =""600"" height = ""600"" style=""position:fixed;top:50%; left:50%; transform: translate(-50%, -50%); border:5px solid black"">","","","","","","","",""
"","1516.7849999852479","sequential-stimulus-presentation-old","75","199987","0.0-19.0-1.3","SS1618435691515","trial","","40","500","2016.7849999852479","images/stimuli/spore_stims/simple_12_A_b.gif","images/stimuli/spore_stims/simple_01_A_a.gif","self_paced","","5","simple_dissimilar","images/stimuli/spore_stims/simple_12_A_b.gif","","","","",""
"","1687.160000030417","survey-multi-choice","76","201675","0.0-20.0","SS1618435691515","math_question","","","","","","","","","","","","{""Q0"":""10""}","[0]","10","",""
"","null","html-keyboard-response","77","202675","0.0-21.0-0.0","SS1618435691515","","","null","","","","","","<p><img src= images/blank.png width =""600"" height = ""600"" style=""position:fixed;top:50%; left:50%; transform: translate(-50%, -50%); border:5px solid black"">","","","","","","","",""
"","882.8850000281818","sequential-stimulus-presentation-old","78","203619","0.0-21.0-1.0","SS1618435691515","trial","","40","500","1382.8850000281818","images/stimuli/spore_stims/simple_06_A_b.gif","images/stimuli/spore_stims/simple_04_A_a.gif","forced_short","","6","simple_dissimilar","images/stimuli/spore_stims/simple_04_A_a.gif","","","","",""
"","null","html-keyboard-response","79","204643","0.0-21.0-0.1","SS1618435691515","","","null","","","","","","<p><img src= images/blank.png width =""600"" height = ""600"" style=""position:fixed;top:50%; left:50%; transform: translate(-50%, -50%); border:5px solid black"">","","","","","","","",""
"","904.500000004191","sequential-stimulus-presentation-old","80","206057","0.0-21.0-1.1","SS1618435691515","trial","","40","500","1404.500000004191","images/stimuli/spore_stims/simple_06_A_b.gif","images/stimuli/spore_stims/simple_04_A_a.gif","forced_short","","6","simple_dissimilar","images/stimuli/spore_stims/simple_04_A_a.gif","","","","",""
"","null","html-keyboard-response","81","207157","0.0-21.0-0.2","SS1618435691515","","","null","","","","","","<p><img src= images/blank.png width =""600"" height = ""600"" style=""position:fixed;top:50%; left:50%; transform: translate(-50%, -50%); border:5px solid black"">","","","","","","","",""
"","45.839999977033585","sequential-stimulus-presentation-old","82","207706","0.0-21.0-1.2","SS1618435691515","trial","","40","500","545.8399999770336","images/stimuli/spore_stims/simple_06_A_b.gif","images/stimuli/spore_stims/simple_04_A_a.gif","forced_short","","6","simple_dissimilar","images/stimuli/spore_stims/simple_04_A_a.gif","","","","",""
"","null","html-keyboard-response","83","208818","0.0-21.0-0.3","SS1618435691515","","","null","","","","","","<p><img src= images/blank.png width =""600"" height = ""600"" style=""position:fixed;top:50%; left:50%; transform: translate(-50%, -50%); border:5px solid black"">","","","","","","","",""
"","57.67999996896833","sequential-stimulus-presentation-old","84","209386","0.0-21.0-1.3","SS1618435691515","trial","","40","500","557.6799999689683","images/stimuli/spore_stims/simple_06_A_b.gif","images/stimuli/spore_stims/simple_04_A_a.gif","forced_short","","6","simple_dissimilar","images/stimuli/spore_stims/simple_04_A_a.gif","","","","",""
"","null","html-keyboard-response","85","210658","0.0-21.0-0.4","SS1618435691515","","","null","","","","","","<p><img src= images/blank.png width =""600"" height = ""600"" style=""position:fixed;top:50%; left:50%; transform: translate(-50%, -50%); border:5px solid black"">","","","","","","","",""
"","678.4150000312366","sequential-stimulus-presentation-old","86","211840","0.0-21.0-1.4","SS1618435691515","trial","","40","500","1178.4150000312366","images/stimuli/spore_stims/simple_06_A_b.gif","images/stimuli/spore_stims/simple_04_A_a.gif","forced_short","","6","simple_dissimilar","images/stimuli/spore_stims/simple_06_A_b.gif","","","","",""
"","null","html-keyboard-response","87","212661","0.0-21.0-0.5","SS1618435691515","","","null","","","","","","<p><img src= images/blank.png width =""600"" height = ""600"" style=""position:fixed;top:50%; left:50%; transform: translate(-50%, -50%); border:5px solid black"">","","","","","","","",""
"","643.5700000147335","sequential-stimulus-presentation-old","88","213814","0.0-21.0-1.5","SS1618435691515","trial","","40","500","1143.5700000147335","images/stimuli/spore_stims/simple_06_A_b.gif","images/stimuli/spore_stims/simple_04_A_a.gif","forced_short","","6","simple_dissimilar","images/stimuli/spore_stims/simple_06_A_b.gif","","","","",""
"","2086.9999999995343","survey-multi-choice","89","215904","0.0-22.0","SS1618435691515","math_question","","","","","","","","","","","","{""Q0"":""7""}","[0]","7","",""
"","null","html-keyboard-response","90","216889","0.0-23.0-0.0","SS1618435691515","","","null","","","","","","<p><img src= images/blank.png width =""600"" height = ""600"" style=""position:fixed;top:50%; left:50%; transform: translate(-50%, -50%); border:5px solid black"">","","","","","","","",""
"","420.9649999975227","sequential-stimulus-presentation-old","91","222313","0.0-23.0-1.0","SS1618435691515","trial","","40","500","920.9649999975227","images/stimuli/spore_stims/complex_10_A_b.gif","images/stimuli/spore_stims/complex_17_A_a.gif","forced_long","","7","complex_dissimilar","images/stimuli/spore_stims/complex_17_A_a.gif","","","","",""
"","null","html-keyboard-response","92","223564","0.0-23.0-0.1","SS1618435691515","","","null","","","","","","<p><img src= images/blank.png width =""600"" height = ""600"" style=""position:fixed;top:50%; left:50%; transform: translate(-50%, -50%); border:5px solid black"">","","","","","","","",""
"","650.9799999766983","sequential-stimulus-presentation-old","93","224719","0.0-23.0-1.1","SS1618435691515","trial","","40","500","1150.9799999766983","images/stimuli/spore_stims/complex_10_A_b.gif","images/stimuli/spore_stims/complex_17_A_a.gif","forced_long","","7","complex_dissimilar","images/stimuli/spore_stims/complex_17_A_a.gif","","","","",""
"","null","html-keyboard-response","94","225823","0.0-23.0-0.2","SS1618435691515","","","null","","","","","","<p><img src= images/blank.png width =""600"" height = ""600"" style=""position:fixed;top:50%; left:50%; transform: translate(-50%, -50%); border:5px solid black"">","","","","","","","",""
"","969.0450000343844","sequential-stimulus-presentation-old","95","227299","0.0-23.0-1.2","SS1618435691515","trial","","40","500","1469.0450000343844","images/stimuli/spore_stims/complex_10_A_b.gif","images/stimuli/spore_stims/complex_17_A_a.gif","forced_long","","7","complex_dissimilar","images/stimuli/spore_stims/complex_17_A_a.gif","","","","",""
"","null","html-keyboard-response","96","228499","0.0-23.0-0.3","SS1618435691515","","","null","","","","","","<p><img src= images/blank.png width =""600"" height = ""600"" style=""position:fixed;top:50%; left:50%; transform: translate(-50%, -50%); border:5px solid black"">","","","","","","","",""
"","45.71500001475215","sequential-stimulus-presentation-old","97","229054","0.0-23.0-1.3","SS1618435691515","trial","","40","500","545.7150000147521","images/stimuli/spore_stims/complex_10_A_b.gif","images/stimuli/spore_stims/complex_17_A_a.gif","forced_long","","7","complex_dissimilar","images/stimuli/spore_stims/complex_17_A_a.gif","","","","",""
"","2638.3399999467656","survey-multi-choice","98","231694","0.0-24.0","SS1618435691515","math_question","","","","","","","","","","","","{""Q0"":""13""}","[0]","13","",""
"","null","html-keyboard-response","99","232757","0.0-25.0-0.0","SS1618435691515","","","null","","","","","","<p><img src= images/blank.png width =""600"" height = ""600"" style=""position:fixed;top:50%; left:50%; transform: translate(-50%, -50%); border:5px solid black"">","","","","","","","",""
"","2204.764999973122","sequential-stimulus-presentation-old","100","235466","0.0-25.0-1.0","SS1618435691515","trial","","40","500","2704.764999973122","images/stimuli/spore_stims/complex_01_A_a.gif","images/stimuli/spore_stims/complex_04_A_b.gif","self_paced","","8","complex_dissimilar","images/stimuli/spore_stims/complex_04_A_b.gif","","","","",""
"","null","html-keyboard-response","101","236615","0.0-25.0-0.1","SS1618435691515","","","null","","","","","","<p><img src= images/blank.png width =""600"" height = ""600"" style=""position:fixed;top:50%; left:50%; transform: translate(-50%, -50%); border:5px solid black"">","","","","","","","",""
"","689.7649999591522","sequential-stimulus-presentation-old","102","237808","0.0-25.0-1.1","SS1618435691515","trial","","40","500","1189.7649999591522","images/stimuli/spore_stims/complex_01_A_a.gif","images/stimuli/spore_stims/complex_04_A_b.gif","self_paced","","8","complex_dissimilar","images/stimuli/spore_stims/complex_04_A_b.gif","","","","",""
"","null","html-keyboard-response","103","238691","0.0-25.0-0.2","SS1618435691515","","","null","","","","","","<p><img src= images/blank.png width =""600"" height = ""600"" style=""position:fixed;top:50%; left:50%; transform: translate(-50%, -50%); border:5px solid black"">","","","","","","","",""
"","346.2099999887869","sequential-stimulus-presentation-old","104","239540","0.0-25.0-1.2","SS1618435691515","trial","","40","500","846.2099999887869","images/stimuli/spore_stims/complex_01_A_a.gif","images/stimuli/spore_stims/complex_04_A_b.gif","self_paced","","8","complex_dissimilar","images/stimuli/spore_stims/complex_04_A_b.gif","","","","",""
"","null","html-keyboard-response","105","240629","0.0-25.0-0.3","SS1618435691515","","","null","","","","","","<p><img src= images/blank.png width =""600"" height = ""600"" style=""position:fixed;top:50%; left:50%; transform: translate(-50%, -50%); border:5px solid black"">","","","","","","","",""
"","54.78499998571351","sequential-stimulus-presentation-old","106","241187","0.0-25.0-1.3","SS1618435691515","trial","","40","500","554.7849999857135","images/stimuli/spore_stims/complex_01_A_a.gif","images/stimuli/spore_stims/complex_04_A_b.gif","self_paced","","8","complex_dissimilar","images/stimuli/spore_stims/complex_04_A_b.gif","","","","",""
"","1729.3799999752082","survey-multi-choice","107","242919","0.0-26.0","SS1618435691515","math_question","","","","","","","","","","","","{""Q0"":""8""}","[0]","8","",""
"","null","html-keyboard-response","108","244098","0.0-27.0-0.0","SS1618435691515","","","null","","","","","","<p><img src= images/blank.png width =""600"" height = ""600"" style=""position:fixed;top:50%; left:50%; transform: translate(-50%, -50%); border:5px solid black"">","","","","","","","",""
"","1415.4149999958463","sequential-stimulus-presentation-old","109","246019","0.0-27.0-1.0","SS1618435691515","trial","","40","500","1915.4149999958463","images/stimuli/spore_stims/complex_15_A_b.gif","images/stimuli/spore_stims/complex_05_A_a.gif","self_paced","","9","complex_dissimilar","images/stimuli/spore_stims/complex_05_A_a.gif","","","","",""
"","null","html-keyboard-response","110","247259","0.0-27.0-0.1","SS1618435691515","","","null","","","","","","<p><img src= images/blank.png width =""600"" height = ""600"" style=""position:fixed;top:50%; left:50%; transform: translate(-50%, -50%); border:5px solid black"">","","","","","","","",""
"","138.8499999884516","sequential-stimulus-presentation-old","111","247910","0.0-27.0-1.1","SS1618435691515","trial","","40","500","638.8499999884516","images/stimuli/spore_stims/complex_15_A_b.gif","images/stimuli/spore_stims/complex_05_A_a.gif","self_paced","","9","complex_dissimilar","images/stimuli/spore_stims/complex_05_A_a.gif","","","","",""
"","null","html-keyboard-response","112","249169","0.0-27.0-0.2","SS1618435691515","","","null","","","","","","<p><img src= images/blank.png width =""600"" height = ""600"" style=""position:fixed;top:50%; left:50%; transform: translate(-50%, -50%); border:5px solid black"">","","","","","","","",""
"","1323.4449999872595","sequential-stimulus-presentation-old","113","250996","0.0-27.0-1.2","SS1618435691515","trial","","40","500","1823.4449999872595","images/stimuli/spore_stims/complex_15_A_b.gif","images/stimuli/spore_stims/complex_05_A_a.gif","self_paced","","9","complex_dissimilar","images/stimuli/spore_stims/complex_05_A_a.gif","","","","",""
"","null","html-keyboard-response","114","251830","0.0-27.0-0.3","SS1618435691515","","","null","","","","","","<p><img src= images/blank.png width =""600"" height = ""600"" style=""position:fixed;top:50%; left:50%; transform: translate(-50%, -50%); border:5px solid black"">","","","","","","","",""
"","149.67000001342967","sequential-stimulus-presentation-old","115","252487","0.0-27.0-1.3","SS1618435691515","trial","","40","500","649.6700000134297","images/stimuli/spore_stims/complex_15_A_b.gif","images/stimuli/spore_stims/complex_05_A_a.gif","self_paced","","9","complex_dissimilar","images/stimuli/spore_stims/complex_05_A_a.gif","","","","",""
"","null","html-keyboard-response","116","253499","0.0-27.0-0.4","SS1618435691515","","","null","","","","","","<p><img src= images/blank.png width =""600"" height = ""600"" style=""position:fixed;top:50%; left:50%; transform: translate(-50%, -50%); border:5px solid black"">","","","","","","","",""
"","104.80500000994653","sequential-stimulus-presentation-old","117","254116","0.0-27.0-1.4","SS1618435691515","trial","","40","500","604.8050000099465","images/stimuli/spore_stims/complex_15_A_b.gif","images/stimuli/spore_stims/complex_05_A_a.gif","self_paced","","9","complex_dissimilar","images/stimuli/spore_stims/complex_05_A_a.gif","","","","",""
"","3341.9599999906495","survey-multi-choice","118","257460","0.0-28.0","SS1618435691515","math_question","","","","","","","","","","","","{""Q0"":""15""}","[0]","15","",""
"","null","html-keyboard-response","119","258536","0.0-29.0-0.0","SS1618435691515","","","null","","","","","","<p><img src= images/blank.png width =""600"" height = ""600"" style=""position:fixed;top:50%; left:50%; transform: translate(-50%, -50%); border:5px solid black"">","","","","","","","",""
"","1561.2850000034086","sequential-stimulus-presentation-old","120","265104","0.0-29.0-1.0","SS1618435691515","trial","","40","500","2061.2850000034086","images/stimuli/spore_stims/complex_19_A_b.gif","images/stimuli/spore_stims/complex_18_A_a.gif","forced_long","","10","complex_dissimilar","images/stimuli/spore_stims/complex_18_A_a.gif","","","","",""
"","null","html-keyboard-response","121","265928","0.0-29.0-0.1","SS1618435691515","","","null","","","","","","<p><img src= images/blank.png width =""600"" height = ""600"" style=""position:fixed;top:50%; left:50%; transform: translate(-50%, -50%); border:5px solid black"">","","","","","","","",""
"","108.1899999990128","sequential-stimulus-presentation-old","122","266545","0.0-29.0-1.1","SS1618435691515","trial","","40","500","608.1899999990128","images/stimuli/spore_stims/complex_19_A_b.gif","images/stimuli/spore_stims/complex_18_A_a.gif","forced_long","","10","complex_dissimilar","images/stimuli/spore_stims/complex_19_A_b.gif","","","","",""
"","null","html-keyboard-response","123","267392","0.0-29.0-0.2","SS1618435691515","","","null","","","","","","<p><img src= images/blank.png width =""600"" height = ""600"" style=""position:fixed;top:50%; left:50%; transform: translate(-50%, -50%); border:5px solid black"">","","","","","","","",""
"","207.96999998856336","sequential-stimulus-presentation-old","124","268104","0.0-29.0-1.2","SS1618435691515","trial","","40","500","707.9699999885634","images/stimuli/spore_stims/complex_19_A_b.gif","images/stimuli/spore_stims/complex_18_A_a.gif","forced_long","","10","complex_dissimilar","images/stimuli/spore_stims/complex_18_A_a.gif","","","","",""
"","null","html-keyboard-response","125","269180","0.0-29.0-0.3","SS1618435691515","","","null","","","","","","<p><img src= images/blank.png width =""600"" height = ""600"" style=""position:fixed;top:50%; left:50%; transform: translate(-50%, -50%); border:5px solid black"">","","","","","","","",""
"","559.2249999754131","sequential-stimulus-presentation-old","126","270252","0.0-29.0-1.3","SS1618435691515","trial","","40","500","1059.224999975413","images/stimuli/spore_stims/complex_19_A_b.gif","images/stimuli/spore_stims/complex_18_A_a.gif","forced_long","","10","complex_dissimilar","images/stimuli/spore_stims/complex_18_A_a.gif","","","","",""
"","null","html-keyboard-response","127","271327","0.0-29.0-0.4","SS1618435691515","","","null","","","","","","<p><img src= images/blank.png width =""600"" height = ""600"" style=""position:fixed;top:50%; left:50%; transform: translate(-50%, -50%); border:5px solid black"">","","","","","","","",""
"","511.11500000115484","sequential-stimulus-presentation-old","128","272342","0.0-29.0-1.4","SS1618435691515","trial","","40","500","1011.1150000011548","images/stimuli/spore_stims/complex_19_A_b.gif","images/stimuli/spore_stims/complex_18_A_a.gif","forced_long","","10","complex_dissimilar","images/stimuli/spore_stims/complex_18_A_a.gif","","","","",""
"","null","html-keyboard-response","129","273185","0.0-29.0-0.5","SS1618435691515","","","null","","","","","","<p><img src= images/blank.png width =""600"" height = ""600"" style=""position:fixed;top:50%; left:50%; transform: translate(-50%, -50%); border:5px solid black"">","","","","","","","",""
"","295.0000000419095","sequential-stimulus-presentation-old","130","273984","0.0-29.0-1.5","SS1618435691515","trial","","40","500","795.0000000419095","images/stimuli/spore_stims/complex_19_A_b.gif","images/stimuli/spore_stims/complex_18_A_a.gif","forced_long","","10","complex_dissimilar","images/stimuli/spore_stims/complex_19_A_b.gif","","","","",""
"","2051.544999994803","survey-multi-choice","131","276037","0.0-30.0","SS1618435691515","math_question","","","","","","","","","","","","{""Q0"":""11""}","[0]","11","",""
"","null","html-keyboard-response","132","276946","0.0-31.0-0.0","SS1618435691515","","","null","","","","","","<p><img src= images/blank.png width =""600"" height = ""600"" style=""position:fixed;top:50%; left:50%; transform: translate(-50%, -50%); border:5px solid black"">","","","","","","","",""
"","5237.380000005942","sequential-stimulus-presentation-old","133","287187","0.0-31.0-1.0","SS1618435691515","trial","","40","500","5737.380000005942","images/stimuli/spore_stims/simple_11_A_b.gif","images/stimuli/spore_stims/simple_15_A_a.gif","forced_long","","11","simple_dissimilar","images/stimuli/spore_stims/simple_15_A_a.gif","","","","",""
"","null","html-keyboard-response","134","288162","0.0-31.0-0.1","SS1618435691515","","","null","","","","","","<p><img src= images/blank.png width =""600"" height = ""600"" style=""position:fixed;top:50%; left:50%; transform: translate(-50%, -50%); border:5px solid black"">","","","","","","","",""
"","459.7500000381842","sequential-stimulus-presentation-old","135","289133","0.0-31.0-1.1","SS1618435691515","trial","","40","500","959.7500000381842","images/stimuli/spore_stims/simple_11_A_b.gif","images/stimuli/spore_stims/simple_15_A_a.gif","forced_long","","11","simple_dissimilar","images/stimuli/spore_stims/simple_11_A_b.gif","","","","",""
"","null","html-keyboard-response","136","290331","0.0-31.0-0.2","SS1618435691515","","","null","","","","","","<p><img src= images/blank.png width =""600"" height = ""600"" style=""position:fixed;top:50%; left:50%; transform: translate(-50%, -50%); border:5px solid black"">","","","","","","","",""
"","853.1700000166893","sequential-stimulus-presentation-old","137","291692","0.0-31.0-1.2","SS1618435691515","trial","","40","500","1353.1700000166893","images/stimuli/spore_stims/simple_11_A_b.gif","images/stimuli/spore_stims/simple_15_A_a.gif","forced_long","","11","simple_dissimilar","images/stimuli/spore_stims/simple_15_A_a.gif","","","","",""
"","null","html-keyboard-response","138","292867","0.0-31.0-0.3","SS1618435691515","","","null","","","","","","<p><img src= images/blank.png width =""600"" height = ""600"" style=""position:fixed;top:50%; left:50%; transform: translate(-50%, -50%); border:5px solid black"">","","","","","","","",""
"","860.3949999669567","sequential-stimulus-presentation-old","139","294238","0.0-31.0-1.3","SS1618435691515","trial","","40","500","1360.3949999669567","images/stimuli/spore_stims/simple_11_A_b.gif","images/stimuli/spore_stims/simple_15_A_a.gif","forced_long","","11","simple_dissimilar","images/stimuli/spore_stims/simple_15_A_a.gif","","","","",""
"","null","html-keyboard-response","140","295238","0.0-31.0-0.4","SS1618435691515","","","null","","","","","","<p><img src= images/blank.png width =""600"" height = ""600"" style=""position:fixed;top:50%; left:50%; transform: translate(-50%, -50%); border:5px solid black"">","","","","","","","",""
"","7512.715000018943","sequential-stimulus-presentation-old","141","303255","0.0-31.0-1.4","SS1618435691515","trial","","40","500","8012.715000018943","images/stimuli/spore_stims/simple_11_A_b.gif","images/stimuli/spore_stims/simple_15_A_a.gif","forced_long","","11","simple_dissimilar","images/stimuli/spore_stims/simple_15_A_a.gif","","","","",""
"","null","html-keyboard-response","142","304437","0.0-31.0-0.5","SS1618435691515","","","null","","","","","","<p><img src= images/blank.png width =""600"" height = ""600"" style=""position:fixed;top:50%; left:50%; transform: translate(-50%, -50%); border:5px solid black"">","","","","","","","",""
"","158.0800000228919","sequential-stimulus-presentation-old","143","305101","0.0-31.0-1.5","SS1618435691515","trial","","40","500","658.0800000228919","images/stimuli/spore_stims/simple_11_A_b.gif","images/stimuli/spore_stims/simple_15_A_a.gif","forced_long","","11","simple_dissimilar","images/stimuli/spore_stims/simple_15_A_a.gif","","","","",""
"[{""page_index"":0,""viewing_time"":3712.100000004284}]","3712.360000004992","instructions","144","308815","0.0-32.0","SS1618435691515","instructions","","","","","","","","","","","","","","","",""
"","6694.929999997839","survey-likert","145","315514","0.0-33.0","SS1618435691515","similarity_question","","","","","","","","","","","","{""Q0"":0}","[0]","","images/stimuli/spore_stims/complex_11_A_a.gif","images/stimuli/spore_stims/complex_02_A_b.gif"
"","2834.2999999877065","survey-likert","146","318353","0.0-34.0","SS1618435691515","similarity_question","","","","","","","","","","","","{""Q0"":5}","[0]","","images/stimuli/spore_stims/simple_04_A_a.gif","images/stimuli/spore_stims/simple_06_A_b.gif"
"","4144.999999960419","survey-likert","147","322504","0.0-35.0","SS1618435691515","similarity_question","","","","","","","","","","","","{""Q0"":1}","[0]","","images/stimuli/spore_stims/complex_20_A_a.gif","images/stimuli/spore_stims/complex_05_A_b.gif"
"","2943.235000013374","survey-likert","148","325452","0.0-36.0","SS1618435691515","similarity_question","","","","","","","","","","","","{""Q0"":5}","[0]","","images/stimuli/spore_stims/simple_15_A_a.gif","images/stimuli/spore_stims/simple_11_A_b.gif"
"","5946.024999953806","survey-likert","149","331404","0.0-37.0","SS1618435691515","similarity_question","","","","","","","","","","","","{""Q0"":4}","[0]","","images/stimuli/spore_stims/complex_04_A_b.gif","images/stimuli/spore_stims/complex_01_A_a.gif"
"","2136.5249999798834","survey-likert","150","333547","0.0-38.0","SS1618435691515","similarity_question","","","","","","","","","","","","{""Q0"":5}","[0]","","images/stimuli/spore_stims/simple_13_A_a.gif","images/stimuli/spore_stims/simple_17_A_b.gif"
"","3965.090000012424","survey-likert","151","337517","0.0-39.0","SS1618435691515","similarity_question","","","","","","","","","","","","{""Q0"":0}","[0]","","images/stimuli/spore_stims/complex_05_A_a.gif","images/stimuli/spore_stims/complex_15_A_b.gif"
"","1939.669999992475","survey-likert","152","339462","0.0-40.0","SS1618435691515","similarity_question","","","","","","","","","","","","{""Q0"":4}","[0]","","images/stimuli/spore_stims/simple_01_A_a.gif","images/stimuli/spore_stims/simple_12_A_b.gif"
"","2435.840000049211","survey-likert","153","341903","0.0-41.0","SS1618435691515","similarity_question","","","","","","","","","","","","{""Q0"":6}","[0]","","images/stimuli/spore_stims/simple_13_A_b.gif","images/stimuli/spore_stims/simple_14_A_a.gif"
"","2368.1199999991804","survey-likert","154","344278","0.0-42.0","SS1618435691515","similarity_question","","","","","","","","","","","","{""Q0"":5}","[0]","","images/stimuli/spore_stims/simple_19_A_a.gif","images/stimuli/spore_stims/simple_20_A_b.gif"
"","4292.140000034124","survey-likert","155","348576","0.0-43.0","SS1618435691515","similarity_question","","","","","","","","","","","","{""Q0"":1}","[0]","","images/stimuli/spore_stims/complex_18_A_a.gif","images/stimuli/spore_stims/complex_19_A_b.gif"
"","2709.140000049956","survey-likert","156","351290","0.0-44.0","SS1618435691515","similarity_question","","","","","","","","","","","","{""Q0"":1}","[0]","","images/stimuli/spore_stims/complex_17_A_a.gif","images/stimuli/spore_stims/complex_10_A_b.gif"
"[{""page_index"":0,""viewing_time"":2184.880000015255}]","2185.1599999936298","instructions","157","353481","0.0-45.0","SS1618435691515","instructions","","","","","","","","","","","","","","","",""
"","2780.1849999814294","survey-likert","158","356265","0.0-46.0","SS1618435691515","","","","","","","","","images/stimuli/spore_stims/simple_01_A_a.gif","","","","{""Q0"":0}","[0]","","",""
"","5345.47499998007","survey-likert","159","361616","0.0-47.0","SS1618435691515","","","","","","","","","images/stimuli/spore_stims/simple_11_A_b.gif","","","","{""Q0"":1}","[0]","","",""
"","2622.830000007525","survey-likert","160","364245","0.0-48.0","SS1618435691515","","","","","","","","","images/stimuli/spore_stims/complex_15_A_b.gif","","","","{""Q0"":5}","[0]","","",""
"","2503.53000004543","survey-likert","161","366754","0.0-49.0","SS1618435691515","","","","","","","","","images/stimuli/spore_stims/simple_06_A_b.gif","","","","{""Q0"":1}","[0]","","",""
"","3487.2649999451824","survey-likert","162","370247","0.0-50.0","SS1618435691515","","","","","","","","","images/stimuli/spore_stims/complex_19_A_b.gif","","","","{""Q0"":4}","[0]","","",""
"","3000.769999984186","survey-likert","163","373254","0.0-51.0","SS1618435691515","","","","","","","","","images/stimuli/spore_stims/simple_17_A_b.gif","","","","{""Q0"":1}","[0]","","",""
"","2064.955000008922","survey-likert","164","375325","0.0-52.0","SS1618435691515","","","","","","","","","images/stimuli/spore_stims/simple_19_A_a.gif","","","","{""Q0"":2}","[0]","","",""
"","1584.7800000337884","survey-likert","165","376916","0.0-53.0","SS1618435691515","","","","","","","","","images/stimuli/spore_stims/simple_14_A_a.gif","","","","{""Q0"":0}","[0]","","",""
"","3316.0100000095554","survey-likert","166","380238","0.0-54.0","SS1618435691515","","","","","","","","","images/stimuli/spore_stims/complex_01_A_a.gif","","","","{""Q0"":4}","[0]","","",""
"","2190.6050000106916","survey-likert","167","382435","0.0-55.0","SS1618435691515","","","","","","","","","images/stimuli/spore_stims/complex_11_A_a.gif","","","","{""Q0"":5}","[0]","","",""
"","1997.4049999727868","survey-likert","168","384439","0.0-56.0","SS1618435691515","","","","","","","","","images/stimuli/spore_stims/complex_05_A_b.gif","","","","{""Q0"":5}","[0]","","",""
"","1739.6500000031665","survey-likert","169","386185","0.0-57.0","SS1618435691515","","","","","","","","","images/stimuli/spore_stims/complex_17_A_a.gif","","","","{""Q0"":5}","[0]","","",""
"[{""page_index"":0,""viewing_time"":1753.4550000564195}]","1753.6800000234507","instructions","170","387944","0.0-58.0","SS1618435691515","instructions","","","","","","","","","","","","","","","",""
"","2181.9549999781884","demog-age","171","390130","0.0-59.0","SS1618435691515","","","","","","","","","","","","","{""age"":""20""}","","","",""
"","3489.999999990687","demog-ethnic-US","172","393625","0.0-60.0","SS1618435691515","","","","","","","","","","","","","{""ethnicity"":[""White""]}","[0]","","",""
"","4190.459999954328","demog-gender-and-education","173","397821","0.0-61.0","SS1618435691515","","","","","","","","","","","","","{""gender"":""Male"",""education"":""Some high school""}","[0,1]","","",""
"","50784.285000001546","survey-text","174","448612","0.0-62.0","SS1618435691515","feedback","","","","","","","","","","","","{""Q0"":""If those alien looking things are supposed to be cute then I really don't know man, I feel sorry for the babies.""}","","","",""
