"view_history","rt","trial_type","trial_index","time_elapsed","internal_node_id","subject","stimulus_type","trial_stimulus","key_press","minimum_viewing_duration","trial_looking_time","block_deviant","block_background","exposure_type","stimulus","block_number","block_type","stimulus_displayed","responses","question_order","math_correct_answer","stimulus_left","stimulus_right"
"[{""page_index"":0,""viewing_time"":6817}]","6818","instructions","0","6820","0.0-0.0","SS1618435644115","","","","","","","","","","","","","","","","",""
"[{""page_index"":0,""viewing_time"":12872},{""page_index"":1,""viewing_time"":5657}]","18529","instructions","1","27364","0.0-1.0","SS1618435644115","instructions","","","","","","","","","","","","","","","",""
"","6496","sequential-stimulus-presentation-old","2","34380","0.0-2.0","SS1618435644115","","","40","500","6996","null","null","self_paced","","","","","","","","",""
"","2605","sequential-stimulus-presentation-old","3","37499","0.0-3.0","SS1618435644115","","","40","500","3105","null","null","self_paced","","","","","","","","",""
"[{""page_index"":0,""viewing_time"":11273}]","11273","instructions","4","48774","0.0-4.0","SS1618435644115","instructions","","","","","","","","","","","","","","","",""
"","2257","sequential-stimulus-presentation-old","5","56041","0.0-5.0","SS1618435644115","","","40","500","2757","null","null","forced_long","","","","","","","","",""
"","2791","sequential-stimulus-presentation-old","6","58905","0.0-6.0","SS1618435644115","","","40","50","2841","null","null","forced_long","","","","","","","","",""
"[{""page_index"":0,""viewing_time"":2106}]","2107","instructions","7","61014","0.0-7.0","SS1618435644115","instructions","","","","","","","","","","","","","","","",""
"[{""page_index"":0,""viewing_time"":6348},{""page_index"":1,""viewing_time"":5898},{""page_index"":2,""viewing_time"":4306},{""page_index"":3,""viewing_time"":1486},{""page_index"":4,""viewing_time"":1914}]","19953","instructions","8","80969","0.0-8.0","SS1618435644115","instructions","","","","","","","","","","","","","","","",""
"","null","html-keyboard-response","9","82184","0.0-9.0-0.0","SS1618435644115","","","null","","","","","","<p><img src= images/blank.png width =""600"" height = ""600"" style=""position:fixed;top:50%; left:50%; transform: translate(-50%, -50%); border:5px solid black"">","","","","","","","",""
"","644","sequential-stimulus-presentation-old","10","87848","0.0-9.0-1.0","SS1618435644115","trial","","40","500","1144","images/stimuli/spore_stims/complex_12_A_a.gif","images/stimuli/spore_stims/complex_01_A_b.gif","forced_long","","0","complex_dissimilar","images/stimuli/spore_stims/complex_01_A_b.gif","","","","",""
"","null","html-keyboard-response","11","89064","0.0-9.0-0.1","SS1618435644115","","","null","","","","","","<p><img src= images/blank.png width =""600"" height = ""600"" style=""position:fixed;top:50%; left:50%; transform: translate(-50%, -50%); border:5px solid black"">","","","","","","","",""
"","20389","sequential-stimulus-presentation-old","12","109972","0.0-9.0-1.1","SS1618435644115","trial","","40","500","20889","images/stimuli/spore_stims/complex_12_A_a.gif","images/stimuli/spore_stims/complex_01_A_b.gif","forced_long","","0","complex_dissimilar","images/stimuli/spore_stims/complex_12_A_a.gif","","","","",""
"","null","html-keyboard-response","13","110964","0.0-9.0-0.2","SS1618435644115","","","null","","","","","","<p><img src= images/blank.png width =""600"" height = ""600"" style=""position:fixed;top:50%; left:50%; transform: translate(-50%, -50%); border:5px solid black"">","","","","","","","",""
"","10633","sequential-stimulus-presentation-old","14","122116","0.0-9.0-1.2","SS1618435644115","trial","","40","500","11133","images/stimuli/spore_stims/complex_12_A_a.gif","images/stimuli/spore_stims/complex_01_A_b.gif","forced_long","","0","complex_dissimilar","images/stimuli/spore_stims/complex_01_A_b.gif","","","","",""
"","null","html-keyboard-response","15","123084","0.0-9.0-0.3","SS1618435644115","","","null","","","","","","<p><img src= images/blank.png width =""600"" height = ""600"" style=""position:fixed;top:50%; left:50%; transform: translate(-50%, -50%); border:5px solid black"">","","","","","","","",""
"","25045","sequential-stimulus-presentation-old","16","148650","0.0-9.0-1.3","SS1618435644115","trial","","40","500","25545","images/stimuli/spore_stims/complex_12_A_a.gif","images/stimuli/spore_stims/complex_01_A_b.gif","forced_long","","0","complex_dissimilar","images/stimuli/spore_stims/complex_12_A_a.gif","","","","",""
"","3955","survey-multi-choice","17","152610","0.0-10.0","SS1618435644115","math_question","","","","","","","","","","","","{""Q0"":""15""}","[0]","15","",""
"","null","html-keyboard-response","18","153514","0.0-11.0-0.0","SS1618435644115","","","null","","","","","","<p><img src= images/blank.png width =""600"" height = ""600"" style=""position:fixed;top:50%; left:50%; transform: translate(-50%, -50%); border:5px solid black"">","","","","","","","",""
"","10053","sequential-stimulus-presentation-old","19","164088","0.0-11.0-1.0","SS1618435644115","trial","","40","500","10553","images/stimuli/spore_stims/simple_03_A_a.gif","images/stimuli/spore_stims/simple_11_A_b.gif","self_paced","","1","simple_dissimilar","images/stimuli/spore_stims/simple_11_A_b.gif","","","","",""
"","null","html-keyboard-response","20","165394","0.0-11.0-0.1","SS1618435644115","","","null","","","","","","<p><img src= images/blank.png width =""600"" height = ""600"" style=""position:fixed;top:50%; left:50%; transform: translate(-50%, -50%); border:5px solid black"">","","","","","","","",""
"","12068","sequential-stimulus-presentation-old","21","177983","0.0-11.0-1.1","SS1618435644115","trial","","40","500","12568","images/stimuli/spore_stims/simple_03_A_a.gif","images/stimuli/spore_stims/simple_11_A_b.gif","self_paced","","1","simple_dissimilar","images/stimuli/spore_stims/simple_03_A_a.gif","","","","",""
"","null","html-keyboard-response","22","178863","0.0-11.0-0.2","SS1618435644115","","","null","","","","","","<p><img src= images/blank.png width =""600"" height = ""600"" style=""position:fixed;top:50%; left:50%; transform: translate(-50%, -50%); border:5px solid black"">","","","","","","","",""
"","148","sequential-stimulus-presentation-old","23","179533","0.0-11.0-1.2","SS1618435644115","trial","","40","500","648","images/stimuli/spore_stims/simple_03_A_a.gif","images/stimuli/spore_stims/simple_11_A_b.gif","self_paced","","1","simple_dissimilar","images/stimuli/spore_stims/simple_11_A_b.gif","","","","",""
"","null","html-keyboard-response","24","180724","0.0-11.0-0.3","SS1618435644115","","","null","","","","","","<p><img src= images/blank.png width =""600"" height = ""600"" style=""position:fixed;top:50%; left:50%; transform: translate(-50%, -50%); border:5px solid black"">","","","","","","","",""
"","8906","sequential-stimulus-presentation-old","25","190149","0.0-11.0-1.3","SS1618435644115","trial","","40","500","9406","images/stimuli/spore_stims/simple_03_A_a.gif","images/stimuli/spore_stims/simple_11_A_b.gif","self_paced","","1","simple_dissimilar","images/stimuli/spore_stims/simple_11_A_b.gif","","","","",""
"","null","html-keyboard-response","26","191125","0.0-11.0-0.4","SS1618435644115","","","null","","","","","","<p><img src= images/blank.png width =""600"" height = ""600"" style=""position:fixed;top:50%; left:50%; transform: translate(-50%, -50%); border:5px solid black"">","","","","","","","",""
"","6930","sequential-stimulus-presentation-old","27","198574","0.0-11.0-1.4","SS1618435644115","trial","","40","500","7430","images/stimuli/spore_stims/simple_03_A_a.gif","images/stimuli/spore_stims/simple_11_A_b.gif","self_paced","","1","simple_dissimilar","images/stimuli/spore_stims/simple_11_A_b.gif","","","","",""
"","null","html-keyboard-response","28","199674","0.0-11.0-0.5","SS1618435644115","","","null","","","","","","<p><img src= images/blank.png width =""600"" height = ""600"" style=""position:fixed;top:50%; left:50%; transform: translate(-50%, -50%); border:5px solid black"">","","","","","","","",""
"","3072","sequential-stimulus-presentation-old","29","203267","0.0-11.0-1.5","SS1618435644115","trial","","40","500","3572","images/stimuli/spore_stims/simple_03_A_a.gif","images/stimuli/spore_stims/simple_11_A_b.gif","self_paced","","1","simple_dissimilar","images/stimuli/spore_stims/simple_11_A_b.gif","","","","",""
"","2593","survey-multi-choice","30","205865","0.0-12.0","SS1618435644115","math_question","","","","","","","","","","","","{""Q0"":""4""}","[0]","4","",""
"","null","html-keyboard-response","31","207174","0.0-13.0-0.0","SS1618435644115","","","null","","","","","","<p><img src= images/blank.png width =""600"" height = ""600"" style=""position:fixed;top:50%; left:50%; transform: translate(-50%, -50%); border:5px solid black"">","","","","","","","",""
"","8971","sequential-stimulus-presentation-old","32","216667","0.0-13.0-1.0","SS1618435644115","trial","","40","500","9471","images/stimuli/spore_stims/complex_19_A_b.gif","images/stimuli/spore_stims/complex_15_A_a.gif","self_paced","","2","complex_dissimilar","images/stimuli/spore_stims/complex_15_A_a.gif","","","","",""
"","null","html-keyboard-response","33","217924","0.0-13.0-0.1","SS1618435644115","","","null","","","","","","<p><img src= images/blank.png width =""600"" height = ""600"" style=""position:fixed;top:50%; left:50%; transform: translate(-50%, -50%); border:5px solid black"">","","","","","","","",""
"","5914","sequential-stimulus-presentation-old","34","224355","0.0-13.0-1.1","SS1618435644115","trial","","40","500","6414","images/stimuli/spore_stims/complex_19_A_b.gif","images/stimuli/spore_stims/complex_15_A_a.gif","self_paced","","2","complex_dissimilar","images/stimuli/spore_stims/complex_15_A_a.gif","","","","",""
"","null","html-keyboard-response","35","225444","0.0-13.0-0.2","SS1618435644115","","","null","","","","","","<p><img src= images/blank.png width =""600"" height = ""600"" style=""position:fixed;top:50%; left:50%; transform: translate(-50%, -50%); border:5px solid black"">","","","","","","","",""
"","1703","sequential-stimulus-presentation-old","36","227668","0.0-13.0-1.2","SS1618435644115","trial","","40","500","2203","images/stimuli/spore_stims/complex_19_A_b.gif","images/stimuli/spore_stims/complex_15_A_a.gif","self_paced","","2","complex_dissimilar","images/stimuli/spore_stims/complex_19_A_b.gif","","","","",""
"","null","html-keyboard-response","37","228962","0.0-13.0-0.3","SS1618435644115","","","null","","","","","","<p><img src= images/blank.png width =""600"" height = ""600"" style=""position:fixed;top:50%; left:50%; transform: translate(-50%, -50%); border:5px solid black"">","","","","","","","",""
"","3735","sequential-stimulus-presentation-old","38","233209","0.0-13.0-1.3","SS1618435644115","trial","","40","500","4235","images/stimuli/spore_stims/complex_19_A_b.gif","images/stimuli/spore_stims/complex_15_A_a.gif","self_paced","","2","complex_dissimilar","images/stimuli/spore_stims/complex_15_A_a.gif","","","","",""
"","null","html-keyboard-response","39","234314","0.0-13.0-0.4","SS1618435644115","","","null","","","","","","<p><img src= images/blank.png width =""600"" height = ""600"" style=""position:fixed;top:50%; left:50%; transform: translate(-50%, -50%); border:5px solid black"">","","","","","","","",""
"","3447","sequential-stimulus-presentation-old","40","238281","0.0-13.0-1.4","SS1618435644115","trial","","40","500","3947","images/stimuli/spore_stims/complex_19_A_b.gif","images/stimuli/spore_stims/complex_15_A_a.gif","self_paced","","2","complex_dissimilar","images/stimuli/spore_stims/complex_15_A_a.gif","","","","",""
"","2489","survey-multi-choice","41","240772","0.0-14.0","SS1618435644115","math_question","","","","","","","","","","","","{""Q0"":""3""}","[0]","3","",""
"","null","html-keyboard-response","42","241804","0.0-15.0-0.0","SS1618435644115","","","null","","","","","","<p><img src= images/blank.png width =""600"" height = ""600"" style=""position:fixed;top:50%; left:50%; transform: translate(-50%, -50%); border:5px solid black"">","","","","","","","",""
"","2780","sequential-stimulus-presentation-old","43","244645","0.0-15.0-1.0","SS1618435644115","trial","","40","500","3280","images/stimuli/spore_stims/simple_01_A_b.gif","images/stimuli/spore_stims/simple_06_A_a.gif","forced_short","","3","simple_dissimilar","images/stimuli/spore_stims/simple_06_A_a.gif","","","","",""
"","null","html-keyboard-response","44","245464","0.0-15.0-0.1","SS1618435644115","","","null","","","","","","<p><img src= images/blank.png width =""600"" height = ""600"" style=""position:fixed;top:50%; left:50%; transform: translate(-50%, -50%); border:5px solid black"">","","","","","","","",""
"","4429","sequential-stimulus-presentation-old","45","250414","0.0-15.0-1.1","SS1618435644115","trial","","40","500","4929","images/stimuli/spore_stims/simple_01_A_b.gif","images/stimuli/spore_stims/simple_06_A_a.gif","forced_short","","3","simple_dissimilar","images/stimuli/spore_stims/simple_01_A_b.gif","","","","",""
"","null","html-keyboard-response","46","251694","0.0-15.0-0.2","SS1618435644115","","","null","","","","","","<p><img src= images/blank.png width =""600"" height = ""600"" style=""position:fixed;top:50%; left:50%; transform: translate(-50%, -50%); border:5px solid black"">","","","","","","","",""
"","2474","sequential-stimulus-presentation-old","47","254689","0.0-15.0-1.2","SS1618435644115","trial","","40","500","2974","images/stimuli/spore_stims/simple_01_A_b.gif","images/stimuli/spore_stims/simple_06_A_a.gif","forced_short","","3","simple_dissimilar","images/stimuli/spore_stims/simple_06_A_a.gif","","","","",""
"","null","html-keyboard-response","48","255614","0.0-15.0-0.3","SS1618435644115","","","null","","","","","","<p><img src= images/blank.png width =""600"" height = ""600"" style=""position:fixed;top:50%; left:50%; transform: translate(-50%, -50%); border:5px solid black"">","","","","","","","",""
"","1250","sequential-stimulus-presentation-old","49","257383","0.0-15.0-1.3","SS1618435644115","trial","","40","500","1750","images/stimuli/spore_stims/simple_01_A_b.gif","images/stimuli/spore_stims/simple_06_A_a.gif","forced_short","","3","simple_dissimilar","images/stimuli/spore_stims/simple_01_A_b.gif","","","","",""
"","3213","survey-multi-choice","50","260601","0.0-16.0","SS1618435644115","math_question","","","","","","","","","","","","{""Q0"":""15""}","[0]","15","",""
"","null","html-keyboard-response","51","261623","0.0-17.0-0.0","SS1618435644115","","","null","","","","","","<p><img src= images/blank.png width =""600"" height = ""600"" style=""position:fixed;top:50%; left:50%; transform: translate(-50%, -50%); border:5px solid black"">","","","","","","","",""
"","1753","sequential-stimulus-presentation-old","52","263437","0.0-17.0-1.0","SS1618435644115","trial","","40","500","2253","images/stimuli/spore_stims/simple_18_A_a.gif","images/stimuli/spore_stims/simple_09_A_b.gif","forced_short","","4","simple_dissimilar","images/stimuli/spore_stims/simple_09_A_b.gif","","","","",""
"","null","html-keyboard-response","53","264703","0.0-17.0-0.1","SS1618435644115","","","null","","","","","","<p><img src= images/blank.png width =""600"" height = ""600"" style=""position:fixed;top:50%; left:50%; transform: translate(-50%, -50%); border:5px solid black"">","","","","","","","",""
"","1046","sequential-stimulus-presentation-old","54","266267","0.0-17.0-1.1","SS1618435644115","trial","","40","500","1546","images/stimuli/spore_stims/simple_18_A_a.gif","images/stimuli/spore_stims/simple_09_A_b.gif","forced_short","","4","simple_dissimilar","images/stimuli/spore_stims/simple_09_A_b.gif","","","","",""
"","null","html-keyboard-response","55","267084","0.0-17.0-0.2","SS1618435644115","","","null","","","","","","<p><img src= images/blank.png width =""600"" height = ""600"" style=""position:fixed;top:50%; left:50%; transform: translate(-50%, -50%); border:5px solid black"">","","","","","","","",""
"","1746","sequential-stimulus-presentation-old","56","269351","0.0-17.0-1.2","SS1618435644115","trial","","40","500","2246","images/stimuli/spore_stims/simple_18_A_a.gif","images/stimuli/spore_stims/simple_09_A_b.gif","forced_short","","4","simple_dissimilar","images/stimuli/spore_stims/simple_18_A_a.gif","","","","",""
"","null","html-keyboard-response","57","270194","0.0-17.0-0.3","SS1618435644115","","","null","","","","","","<p><img src= images/blank.png width =""600"" height = ""600"" style=""position:fixed;top:50%; left:50%; transform: translate(-50%, -50%); border:5px solid black"">","","","","","","","",""
"","1014","sequential-stimulus-presentation-old","58","271729","0.0-17.0-1.3","SS1618435644115","trial","","40","500","1514","images/stimuli/spore_stims/simple_18_A_a.gif","images/stimuli/spore_stims/simple_09_A_b.gif","forced_short","","4","simple_dissimilar","images/stimuli/spore_stims/simple_09_A_b.gif","","","","",""
"","null","html-keyboard-response","59","272955","0.0-17.0-0.4","SS1618435644115","","","null","","","","","","<p><img src= images/blank.png width =""600"" height = ""600"" style=""position:fixed;top:50%; left:50%; transform: translate(-50%, -50%); border:5px solid black"">","","","","","","","",""
"","1507","sequential-stimulus-presentation-old","60","274980","0.0-17.0-1.4","SS1618435644115","trial","","40","500","2007","images/stimuli/spore_stims/simple_18_A_a.gif","images/stimuli/spore_stims/simple_09_A_b.gif","forced_short","","4","simple_dissimilar","images/stimuli/spore_stims/simple_18_A_a.gif","","","","",""
"","2639","survey-multi-choice","61","277622","0.0-18.0","SS1618435644115","math_question","","","","","","","","","","","","{""Q0"":""7""}","[0]","7","",""
"","null","html-keyboard-response","62","278914","0.0-19.0-0.0","SS1618435644115","","","null","","","","","","<p><img src= images/blank.png width =""600"" height = ""600"" style=""position:fixed;top:50%; left:50%; transform: translate(-50%, -50%); border:5px solid black"">","","","","","","","",""
"","1774","sequential-stimulus-presentation-old","63","280748","0.0-19.0-1.0","SS1618435644115","trial","","40","500","2274","images/stimuli/spore_stims/complex_15_A_b.gif","images/stimuli/spore_stims/complex_17_A_a.gif","forced_short","","5","complex_dissimilar","images/stimuli/spore_stims/complex_17_A_a.gif","","","","",""
"","null","html-keyboard-response","64","281634","0.0-19.0-0.1","SS1618435644115","","","null","","","","","","<p><img src= images/blank.png width =""600"" height = ""600"" style=""position:fixed;top:50%; left:50%; transform: translate(-50%, -50%); border:5px solid black"">","","","","","","","",""
"","2779","sequential-stimulus-presentation-old","65","284932","0.0-19.0-1.1","SS1618435644115","trial","","40","500","3279","images/stimuli/spore_stims/complex_15_A_b.gif","images/stimuli/spore_stims/complex_17_A_a.gif","forced_short","","5","complex_dissimilar","images/stimuli/spore_stims/complex_17_A_a.gif","","","","",""
"","null","html-keyboard-response","66","286134","0.0-19.0-0.2","SS1618435644115","","","null","","","","","","<p><img src= images/blank.png width =""600"" height = ""600"" style=""position:fixed;top:50%; left:50%; transform: translate(-50%, -50%); border:5px solid black"">","","","","","","","",""
"","974","sequential-stimulus-presentation-old","67","287628","0.0-19.0-1.2","SS1618435644115","trial","","40","500","1474","images/stimuli/spore_stims/complex_15_A_b.gif","images/stimuli/spore_stims/complex_17_A_a.gif","forced_short","","5","complex_dissimilar","images/stimuli/spore_stims/complex_17_A_a.gif","","","","",""
"","null","html-keyboard-response","68","288614","0.0-19.0-0.3","SS1618435644115","","","null","","","","","","<p><img src= images/blank.png width =""600"" height = ""600"" style=""position:fixed;top:50%; left:50%; transform: translate(-50%, -50%); border:5px solid black"">","","","","","","","",""
"","4624","sequential-stimulus-presentation-old","69","293760","0.0-19.0-1.3","SS1618435644115","trial","","40","500","5124","images/stimuli/spore_stims/complex_15_A_b.gif","images/stimuli/spore_stims/complex_17_A_a.gif","forced_short","","5","complex_dissimilar","images/stimuli/spore_stims/complex_17_A_a.gif","","","","",""
"","null","html-keyboard-response","70","294754","0.0-19.0-0.4","SS1618435644115","","","null","","","","","","<p><img src= images/blank.png width =""600"" height = ""600"" style=""position:fixed;top:50%; left:50%; transform: translate(-50%, -50%); border:5px solid black"">","","","","","","","",""
"","640","sequential-stimulus-presentation-old","71","295914","0.0-19.0-1.4","SS1618435644115","trial","","40","500","1140","images/stimuli/spore_stims/complex_15_A_b.gif","images/stimuli/spore_stims/complex_17_A_a.gif","forced_short","","5","complex_dissimilar","images/stimuli/spore_stims/complex_17_A_a.gif","","","","",""
"","3224","survey-multi-choice","72","299144","0.0-20.0","SS1618435644115","math_question","","","","","","","","","","","","{""Q0"":""16""}","[0]","16","",""
"","null","html-keyboard-response","73","300065","0.0-21.0-0.0","SS1618435644115","","","null","","","","","","<p><img src= images/blank.png width =""600"" height = ""600"" style=""position:fixed;top:50%; left:50%; transform: translate(-50%, -50%); border:5px solid black"">","","","","","","","",""
"","386","sequential-stimulus-presentation-old","74","300970","0.0-21.0-1.0","SS1618435644115","trial","","40","500","886","images/stimuli/spore_stims/simple_10_A_a.gif","images/stimuli/spore_stims/simple_17_A_b.gif","self_paced","","6","simple_dissimilar","images/stimuli/spore_stims/simple_17_A_b.gif","","","","",""
"","null","html-keyboard-response","75","301984","0.0-21.0-0.1","SS1618435644115","","","null","","","","","","<p><img src= images/blank.png width =""600"" height = ""600"" style=""position:fixed;top:50%; left:50%; transform: translate(-50%, -50%); border:5px solid black"">","","","","","","","",""
"","1460","sequential-stimulus-presentation-old","76","303965","0.0-21.0-1.1","SS1618435644115","trial","","40","500","1960","images/stimuli/spore_stims/simple_10_A_a.gif","images/stimuli/spore_stims/simple_17_A_b.gif","self_paced","","6","simple_dissimilar","images/stimuli/spore_stims/simple_17_A_b.gif","","","","",""
"","null","html-keyboard-response","77","304924","0.0-21.0-0.2","SS1618435644115","","","null","","","","","","<p><img src= images/blank.png width =""600"" height = ""600"" style=""position:fixed;top:50%; left:50%; transform: translate(-50%, -50%); border:5px solid black"">","","","","","","","",""
"","44","sequential-stimulus-presentation-old","78","305488","0.0-21.0-1.2","SS1618435644115","trial","","40","500","544","images/stimuli/spore_stims/simple_10_A_a.gif","images/stimuli/spore_stims/simple_17_A_b.gif","self_paced","","6","simple_dissimilar","images/stimuli/spore_stims/simple_17_A_b.gif","","","","",""
"","null","html-keyboard-response","79","306545","0.0-21.0-0.3","SS1618435644115","","","null","","","","","","<p><img src= images/blank.png width =""600"" height = ""600"" style=""position:fixed;top:50%; left:50%; transform: translate(-50%, -50%); border:5px solid black"">","","","","","","","",""
"","5213","sequential-stimulus-presentation-old","80","312277","0.0-21.0-1.3","SS1618435644115","trial","","40","500","5713","images/stimuli/spore_stims/simple_10_A_a.gif","images/stimuli/spore_stims/simple_17_A_b.gif","self_paced","","6","simple_dissimilar","images/stimuli/spore_stims/simple_17_A_b.gif","","","","",""
"","null","html-keyboard-response","81","313415","0.0-21.0-0.4","SS1618435644115","","","null","","","","","","<p><img src= images/blank.png width =""600"" height = ""600"" style=""position:fixed;top:50%; left:50%; transform: translate(-50%, -50%); border:5px solid black"">","","","","","","","",""
"","2797","sequential-stimulus-presentation-old","82","316731","0.0-21.0-1.4","SS1618435644115","trial","","40","500","3297","images/stimuli/spore_stims/simple_10_A_a.gif","images/stimuli/spore_stims/simple_17_A_b.gif","self_paced","","6","simple_dissimilar","images/stimuli/spore_stims/simple_17_A_b.gif","","","","",""
"","null","html-keyboard-response","83","317754","0.0-21.0-0.5","SS1618435644115","","","null","","","","","","<p><img src= images/blank.png width =""600"" height = ""600"" style=""position:fixed;top:50%; left:50%; transform: translate(-50%, -50%); border:5px solid black"">","","","","","","","",""
"","2693","sequential-stimulus-presentation-old","84","320957","0.0-21.0-1.5","SS1618435644115","trial","","40","500","3193","images/stimuli/spore_stims/simple_10_A_a.gif","images/stimuli/spore_stims/simple_17_A_b.gif","self_paced","","6","simple_dissimilar","images/stimuli/spore_stims/simple_10_A_a.gif","","","","",""
"","2799","survey-multi-choice","85","323762","0.0-22.0","SS1618435644115","math_question","","","","","","","","","","","","{""Q0"":""2""}","[0]","2","",""
"","null","html-keyboard-response","86","324624","0.0-23.0-0.0","SS1618435644115","","","null","","","","","","<p><img src= images/blank.png width =""600"" height = ""600"" style=""position:fixed;top:50%; left:50%; transform: translate(-50%, -50%); border:5px solid black"">","","","","","","","",""
"","873","sequential-stimulus-presentation-old","87","330518","0.0-23.0-1.0","SS1618435644115","trial","","40","500","1373","images/stimuli/spore_stims/simple_02_A_a.gif","images/stimuli/spore_stims/simple_19_A_b.gif","forced_long","","7","simple_dissimilar","images/stimuli/spore_stims/simple_19_A_b.gif","","","","",""
"","null","html-keyboard-response","88","331364","0.0-23.0-0.1","SS1618435644115","","","null","","","","","","<p><img src= images/blank.png width =""600"" height = ""600"" style=""position:fixed;top:50%; left:50%; transform: translate(-50%, -50%); border:5px solid black"">","","","","","","","",""
"","39","sequential-stimulus-presentation-old","89","331923","0.0-23.0-1.1","SS1618435644115","trial","","40","500","539","images/stimuli/spore_stims/simple_02_A_a.gif","images/stimuli/spore_stims/simple_19_A_b.gif","forced_long","","7","simple_dissimilar","images/stimuli/spore_stims/simple_19_A_b.gif","","","","",""
"","null","html-keyboard-response","90","333204","0.0-23.0-0.2","SS1618435644115","","","null","","","","","","<p><img src= images/blank.png width =""600"" height = ""600"" style=""position:fixed;top:50%; left:50%; transform: translate(-50%, -50%); border:5px solid black"">","","","","","","","",""
"","285","sequential-stimulus-presentation-old","91","334008","0.0-23.0-1.2","SS1618435644115","trial","","40","500","785","images/stimuli/spore_stims/simple_02_A_a.gif","images/stimuli/spore_stims/simple_19_A_b.gif","forced_long","","7","simple_dissimilar","images/stimuli/spore_stims/simple_02_A_a.gif","","","","",""
"","null","html-keyboard-response","92","335013","0.0-23.0-0.3","SS1618435644115","","","null","","","","","","<p><img src= images/blank.png width =""600"" height = ""600"" style=""position:fixed;top:50%; left:50%; transform: translate(-50%, -50%); border:5px solid black"">","","","","","","","",""
"","340","sequential-stimulus-presentation-old","93","335875","0.0-23.0-1.3","SS1618435644115","trial","","40","500","840","images/stimuli/spore_stims/simple_02_A_a.gif","images/stimuli/spore_stims/simple_19_A_b.gif","forced_long","","7","simple_dissimilar","images/stimuli/spore_stims/simple_19_A_b.gif","","","","",""
"","2660","survey-multi-choice","94","338538","0.0-24.0","SS1618435644115","math_question","","","","","","","","","","","","{""Q0"":""12""}","[0]","12","",""
"","null","html-keyboard-response","95","339533","0.0-25.0-0.0","SS1618435644115","","","null","","","","","","<p><img src= images/blank.png width =""600"" height = ""600"" style=""position:fixed;top:50%; left:50%; transform: translate(-50%, -50%); border:5px solid black"">","","","","","","","",""
"","1523","sequential-stimulus-presentation-old","96","341117","0.0-25.0-1.0","SS1618435644115","trial","","40","500","2023","images/stimuli/spore_stims/complex_08_A_a.gif","images/stimuli/spore_stims/complex_06_A_b.gif","forced_short","","8","complex_dissimilar","images/stimuli/spore_stims/complex_06_A_b.gif","","","","",""
"","null","html-keyboard-response","97","342393","0.0-25.0-0.1","SS1618435644115","","","null","","","","","","<p><img src= images/blank.png width =""600"" height = ""600"" style=""position:fixed;top:50%; left:50%; transform: translate(-50%, -50%); border:5px solid black"">","","","","","","","",""
"","1085","sequential-stimulus-presentation-old","98","343998","0.0-25.0-1.1","SS1618435644115","trial","","40","500","1585","images/stimuli/spore_stims/complex_08_A_a.gif","images/stimuli/spore_stims/complex_06_A_b.gif","forced_short","","8","complex_dissimilar","images/stimuli/spore_stims/complex_06_A_b.gif","","","","",""
"","null","html-keyboard-response","99","344875","0.0-25.0-0.2","SS1618435644115","","","null","","","","","","<p><img src= images/blank.png width =""600"" height = ""600"" style=""position:fixed;top:50%; left:50%; transform: translate(-50%, -50%); border:5px solid black"">","","","","","","","",""
"","378","sequential-stimulus-presentation-old","100","345773","0.0-25.0-1.2","SS1618435644115","trial","","40","500","878","images/stimuli/spore_stims/complex_08_A_a.gif","images/stimuli/spore_stims/complex_06_A_b.gif","forced_short","","8","complex_dissimilar","images/stimuli/spore_stims/complex_06_A_b.gif","","","","",""
"","null","html-keyboard-response","101","347054","0.0-25.0-0.3","SS1618435644115","","","null","","","","","","<p><img src= images/blank.png width =""600"" height = ""600"" style=""position:fixed;top:50%; left:50%; transform: translate(-50%, -50%); border:5px solid black"">","","","","","","","",""
"","437","sequential-stimulus-presentation-old","102","348011","0.0-25.0-1.3","SS1618435644115","trial","","40","500","937","images/stimuli/spore_stims/complex_08_A_a.gif","images/stimuli/spore_stims/complex_06_A_b.gif","forced_short","","8","complex_dissimilar","images/stimuli/spore_stims/complex_06_A_b.gif","","","","",""
"","null","html-keyboard-response","103","349254","0.0-25.0-0.4","SS1618435644115","","","null","","","","","","<p><img src= images/blank.png width =""600"" height = ""600"" style=""position:fixed;top:50%; left:50%; transform: translate(-50%, -50%); border:5px solid black"">","","","","","","","",""
"","599","sequential-stimulus-presentation-old","104","350372","0.0-25.0-1.4","SS1618435644115","trial","","40","500","1099","images/stimuli/spore_stims/complex_08_A_a.gif","images/stimuli/spore_stims/complex_06_A_b.gif","forced_short","","8","complex_dissimilar","images/stimuli/spore_stims/complex_06_A_b.gif","","","","",""
"","3958","survey-multi-choice","105","354338","0.0-26.0","SS1618435644115","math_question","","","","","","","","","","","","{""Q0"":""13""}","[0]","13","",""
"","null","html-keyboard-response","106","355574","0.0-27.0-0.0","SS1618435644115","","","null","","","","","","<p><img src= images/blank.png width =""600"" height = ""600"" style=""position:fixed;top:50%; left:50%; transform: translate(-50%, -50%); border:5px solid black"">","","","","","","","",""
"","2227","sequential-stimulus-presentation-old","107","362818","0.0-27.0-1.0","SS1618435644115","trial","","40","500","2727","images/stimuli/spore_stims/simple_08_A_a.gif","images/stimuli/spore_stims/simple_20_A_b.gif","forced_long","","9","simple_dissimilar","images/stimuli/spore_stims/simple_20_A_b.gif","","","","",""
"","null","html-keyboard-response","108","363884","0.0-27.0-0.1","SS1618435644115","","","null","","","","","","<p><img src= images/blank.png width =""600"" height = ""600"" style=""position:fixed;top:50%; left:50%; transform: translate(-50%, -50%); border:5px solid black"">","","","","","","","",""
"","2956","sequential-stimulus-presentation-old","109","367361","0.0-27.0-1.1","SS1618435644115","trial","","40","500","3456","images/stimuli/spore_stims/simple_08_A_a.gif","images/stimuli/spore_stims/simple_20_A_b.gif","forced_long","","9","simple_dissimilar","images/stimuli/spore_stims/simple_20_A_b.gif","","","","",""
"","null","html-keyboard-response","110","368584","0.0-27.0-0.2","SS1618435644115","","","null","","","","","","<p><img src= images/blank.png width =""600"" height = ""600"" style=""position:fixed;top:50%; left:50%; transform: translate(-50%, -50%); border:5px solid black"">","","","","","","","",""
"","16616","sequential-stimulus-presentation-old","111","385711","0.0-27.0-1.2","SS1618435644115","trial","","40","500","17116","images/stimuli/spore_stims/simple_08_A_a.gif","images/stimuli/spore_stims/simple_20_A_b.gif","forced_long","","9","simple_dissimilar","images/stimuli/spore_stims/simple_20_A_b.gif","","","","",""
"","null","html-keyboard-response","112","386904","0.0-27.0-0.3","SS1618435644115","","","null","","","","","","<p><img src= images/blank.png width =""600"" height = ""600"" style=""position:fixed;top:50%; left:50%; transform: translate(-50%, -50%); border:5px solid black"">","","","","","","","",""
"","2604","sequential-stimulus-presentation-old","113","390028","0.0-27.0-1.3","SS1618435644115","trial","","40","500","3104","images/stimuli/spore_stims/simple_08_A_a.gif","images/stimuli/spore_stims/simple_20_A_b.gif","forced_long","","9","simple_dissimilar","images/stimuli/spore_stims/simple_08_A_a.gif","","","","",""
"","null","html-keyboard-response","114","390935","0.0-27.0-0.4","SS1618435644115","","","null","","","","","","<p><img src= images/blank.png width =""600"" height = ""600"" style=""position:fixed;top:50%; left:50%; transform: translate(-50%, -50%); border:5px solid black"">","","","","","","","",""
"","2358","sequential-stimulus-presentation-old","115","393812","0.0-27.0-1.4","SS1618435644115","trial","","40","500","2858","images/stimuli/spore_stims/simple_08_A_a.gif","images/stimuli/spore_stims/simple_20_A_b.gif","forced_long","","9","simple_dissimilar","images/stimuli/spore_stims/simple_08_A_a.gif","","","","",""
"","5940","survey-multi-choice","116","399761","0.0-28.0","SS1618435644115","math_question","","","","","","","","","","","","{""Q0"":""11""}","[0]","11","",""
"","null","html-keyboard-response","117","400944","0.0-29.0-0.0","SS1618435644115","","","null","","","","","","<p><img src= images/blank.png width =""600"" height = ""600"" style=""position:fixed;top:50%; left:50%; transform: translate(-50%, -50%); border:5px solid black"">","","","","","","","",""
"","3271","sequential-stimulus-presentation-old","118","409235","0.0-29.0-1.0","SS1618435644115","trial","","40","500","3771","images/stimuli/spore_stims/complex_12_A_b.gif","images/stimuli/spore_stims/complex_14_A_a.gif","forced_long","","10","complex_dissimilar","images/stimuli/spore_stims/complex_14_A_a.gif","","","","",""
"","null","html-keyboard-response","119","410134","0.0-29.0-0.1","SS1618435644115","","","null","","","","","","<p><img src= images/blank.png width =""600"" height = ""600"" style=""position:fixed;top:50%; left:50%; transform: translate(-50%, -50%); border:5px solid black"">","","","","","","","",""
"","868","sequential-stimulus-presentation-old","120","411522","0.0-29.0-1.1","SS1618435644115","trial","","40","500","1368","images/stimuli/spore_stims/complex_12_A_b.gif","images/stimuli/spore_stims/complex_14_A_a.gif","forced_long","","10","complex_dissimilar","images/stimuli/spore_stims/complex_14_A_a.gif","","","","",""
"","null","html-keyboard-response","121","412735","0.0-29.0-0.2","SS1618435644115","","","null","","","","","","<p><img src= images/blank.png width =""600"" height = ""600"" style=""position:fixed;top:50%; left:50%; transform: translate(-50%, -50%); border:5px solid black"">","","","","","","","",""
"","579","sequential-stimulus-presentation-old","122","413834","0.0-29.0-1.2","SS1618435644115","trial","","40","500","1079","images/stimuli/spore_stims/complex_12_A_b.gif","images/stimuli/spore_stims/complex_14_A_a.gif","forced_long","","10","complex_dissimilar","images/stimuli/spore_stims/complex_14_A_a.gif","","","","",""
"","null","html-keyboard-response","123","414974","0.0-29.0-0.3","SS1618435644115","","","null","","","","","","<p><img src= images/blank.png width =""600"" height = ""600"" style=""position:fixed;top:50%; left:50%; transform: translate(-50%, -50%); border:5px solid black"">","","","","","","","",""
"","1140","sequential-stimulus-presentation-old","124","416635","0.0-29.0-1.3","SS1618435644115","trial","","40","500","1640","images/stimuli/spore_stims/complex_12_A_b.gif","images/stimuli/spore_stims/complex_14_A_a.gif","forced_long","","10","complex_dissimilar","images/stimuli/spore_stims/complex_14_A_a.gif","","","","",""
"","null","html-keyboard-response","125","417815","0.0-29.0-0.4","SS1618435644115","","","null","","","","","","<p><img src= images/blank.png width =""600"" height = ""600"" style=""position:fixed;top:50%; left:50%; transform: translate(-50%, -50%); border:5px solid black"">","","","","","","","",""
"","231","sequential-stimulus-presentation-old","126","418566","0.0-29.0-1.4","SS1618435644115","trial","","40","500","731","images/stimuli/spore_stims/complex_12_A_b.gif","images/stimuli/spore_stims/complex_14_A_a.gif","forced_long","","10","complex_dissimilar","images/stimuli/spore_stims/complex_14_A_a.gif","","","","",""
"","null","html-keyboard-response","127","419754","0.0-29.0-0.5","SS1618435644115","","","null","","","","","","<p><img src= images/blank.png width =""600"" height = ""600"" style=""position:fixed;top:50%; left:50%; transform: translate(-50%, -50%); border:5px solid black"">","","","","","","","",""
"","2230","sequential-stimulus-presentation-old","128","422504","0.0-29.0-1.5","SS1618435644115","trial","","40","500","2730","images/stimuli/spore_stims/complex_12_A_b.gif","images/stimuli/spore_stims/complex_14_A_a.gif","forced_long","","10","complex_dissimilar","images/stimuli/spore_stims/complex_14_A_a.gif","","","","",""
"","2241","survey-multi-choice","129","424752","0.0-30.0","SS1618435644115","math_question","","","","","","","","","","","","{""Q0"":""5""}","[0]","5","",""
"","null","html-keyboard-response","130","426024","0.0-31.0-0.0","SS1618435644115","","","null","","","","","","<p><img src= images/blank.png width =""600"" height = ""600"" style=""position:fixed;top:50%; left:50%; transform: translate(-50%, -50%); border:5px solid black"">","","","","","","","",""
"","2536","sequential-stimulus-presentation-old","131","429080","0.0-31.0-1.0","SS1618435644115","trial","","40","500","3036","images/stimuli/spore_stims/complex_04_A_b.gif","images/stimuli/spore_stims/complex_02_A_a.gif","self_paced","","11","complex_dissimilar","images/stimuli/spore_stims/complex_02_A_a.gif","","","","",""
"","null","html-keyboard-response","132","430214","0.0-31.0-0.1","SS1618435644115","","","null","","","","","","<p><img src= images/blank.png width =""600"" height = ""600"" style=""position:fixed;top:50%; left:50%; transform: translate(-50%, -50%); border:5px solid black"">","","","","","","","",""
"","346","sequential-stimulus-presentation-old","133","431081","0.0-31.0-1.1","SS1618435644115","trial","","40","500","846","images/stimuli/spore_stims/complex_04_A_b.gif","images/stimuli/spore_stims/complex_02_A_a.gif","self_paced","","11","complex_dissimilar","images/stimuli/spore_stims/complex_04_A_b.gif","","","","",""
"","null","html-keyboard-response","134","432134","0.0-31.0-0.2","SS1618435644115","","","null","","","","","","<p><img src= images/blank.png width =""600"" height = ""600"" style=""position:fixed;top:50%; left:50%; transform: translate(-50%, -50%); border:5px solid black"">","","","","","","","",""
"","414","sequential-stimulus-presentation-old","135","433068","0.0-31.0-1.2","SS1618435644115","trial","","40","500","914","images/stimuli/spore_stims/complex_04_A_b.gif","images/stimuli/spore_stims/complex_02_A_a.gif","self_paced","","11","complex_dissimilar","images/stimuli/spore_stims/complex_02_A_a.gif","","","","",""
"","null","html-keyboard-response","136","434294","0.0-31.0-0.3","SS1618435644115","","","null","","","","","","<p><img src= images/blank.png width =""600"" height = ""600"" style=""position:fixed;top:50%; left:50%; transform: translate(-50%, -50%); border:5px solid black"">","","","","","","","",""
"","2251","sequential-stimulus-presentation-old","137","437056","0.0-31.0-1.3","SS1618435644115","trial","","40","500","2751","images/stimuli/spore_stims/complex_04_A_b.gif","images/stimuli/spore_stims/complex_02_A_a.gif","self_paced","","11","complex_dissimilar","images/stimuli/spore_stims/complex_04_A_b.gif","","","","",""
"","null","html-keyboard-response","138","437904","0.0-31.0-0.4","SS1618435644115","","","null","","","","","","<p><img src= images/blank.png width =""600"" height = ""600"" style=""position:fixed;top:50%; left:50%; transform: translate(-50%, -50%); border:5px solid black"">","","","","","","","",""
"","1905","sequential-stimulus-presentation-old","139","440329","0.0-31.0-1.4","SS1618435644115","trial","","40","500","2405","images/stimuli/spore_stims/complex_04_A_b.gif","images/stimuli/spore_stims/complex_02_A_a.gif","self_paced","","11","complex_dissimilar","images/stimuli/spore_stims/complex_02_A_a.gif","","","","",""
"[{""page_index"":0,""viewing_time"":5112}]","5113","instructions","140","445449","0.0-32.0","SS1618435644115","instructions","","","","","","","","","","","","","","","",""
"","8540","survey-likert","141","453996","0.0-33.0","SS1618435644115","similarity_question","","","","","","","","","","","","{""Q0"":2}","[0]","","images/stimuli/spore_stims/simple_01_A_b.gif","images/stimuli/spore_stims/simple_06_A_a.gif"
"","4879","survey-likert","142","458882","0.0-34.0","SS1618435644115","similarity_question","","","","","","","","","","","","{""Q0"":0}","[0]","","images/stimuli/spore_stims/complex_14_A_a.gif","images/stimuli/spore_stims/complex_12_A_b.gif"
"","4563","survey-likert","143","463453","0.0-35.0","SS1618435644115","similarity_question","","","","","","","","","","","","{""Q0"":1}","[0]","","images/stimuli/spore_stims/complex_06_A_b.gif","images/stimuli/spore_stims/complex_08_A_a.gif"
"","3967","survey-likert","144","467428","0.0-36.0","SS1618435644115","similarity_question","","","","","","","","","","","","{""Q0"":0}","[0]","","images/stimuli/spore_stims/complex_01_A_b.gif","images/stimuli/spore_stims/complex_12_A_a.gif"
"","3710","survey-likert","145","471145","0.0-37.0","SS1618435644115","similarity_question","","","","","","","","","","","","{""Q0"":0}","[0]","","images/stimuli/spore_stims/complex_04_A_b.gif","images/stimuli/spore_stims/complex_02_A_a.gif"
"","3192","survey-likert","146","474345","0.0-38.0","SS1618435644115","similarity_question","","","","","","","","","","","","{""Q0"":1}","[0]","","images/stimuli/spore_stims/simple_18_A_a.gif","images/stimuli/spore_stims/simple_09_A_b.gif"
"","3633","survey-likert","147","477984","0.0-39.0","SS1618435644115","similarity_question","","","","","","","","","","","","{""Q0"":2}","[0]","","images/stimuli/spore_stims/simple_19_A_b.gif","images/stimuli/spore_stims/simple_02_A_a.gif"
"","7340","survey-likert","148","485332","0.0-40.0","SS1618435644115","similarity_question","","","","","","","","","","","","{""Q0"":3}","[0]","","images/stimuli/spore_stims/complex_17_A_a.gif","images/stimuli/spore_stims/complex_15_A_b.gif"
"","8193","survey-likert","149","493532","0.0-41.0","SS1618435644115","similarity_question","","","","","","","","","","","","{""Q0"":0}","[0]","","images/stimuli/spore_stims/complex_15_A_a.gif","images/stimuli/spore_stims/complex_19_A_b.gif"
"","2668","survey-likert","150","496208","0.0-42.0","SS1618435644115","similarity_question","","","","","","","","","","","","{""Q0"":2}","[0]","","images/stimuli/spore_stims/simple_11_A_b.gif","images/stimuli/spore_stims/simple_03_A_a.gif"
"","3025","survey-likert","151","499238","0.0-43.0","SS1618435644115","similarity_question","","","","","","","","","","","","{""Q0"":2}","[0]","","images/stimuli/spore_stims/simple_08_A_a.gif","images/stimuli/spore_stims/simple_20_A_b.gif"
"","4183","survey-likert","152","503429","0.0-44.0","SS1618435644115","similarity_question","","","","","","","","","","","","{""Q0"":4}","[0]","","images/stimuli/spore_stims/simple_10_A_a.gif","images/stimuli/spore_stims/simple_17_A_b.gif"
"[{""page_index"":0,""viewing_time"":4124}]","4125","instructions","153","507561","0.0-45.0","SS1618435644115","instructions","","","","","","","","","","","","","","","",""
"","4817","survey-likert","154","512384","0.0-46.0","SS1618435644115","","","","","","","","","images/stimuli/spore_stims/complex_15_A_b.gif","","","","{""Q0"":4}","[0]","","",""
"","2432","survey-likert","155","514823","0.0-47.0","SS1618435644115","","","","","","","","","images/stimuli/spore_stims/simple_08_A_a.gif","","","","{""Q0"":0}","[0]","","",""
"","7269","survey-likert","156","522100","0.0-48.0","SS1618435644115","","","","","","","","","images/stimuli/spore_stims/complex_12_A_b.gif","","","","{""Q0"":6}","[0]","","",""
"","2833","survey-likert","157","524941","0.0-49.0","SS1618435644115","","","","","","","","","images/stimuli/spore_stims/complex_04_A_b.gif","","","","{""Q0"":5}","[0]","","",""
"","3408","survey-likert","158","528356","0.0-50.0","SS1618435644115","","","","","","","","","images/stimuli/spore_stims/simple_10_A_a.gif","","","","{""Q0"":0}","[0]","","",""
"","5295","survey-likert","159","533659","0.0-51.0","SS1618435644115","","","","","","","","","images/stimuli/spore_stims/complex_01_A_b.gif","","","","{""Q0"":3}","[0]","","",""
"","3113","survey-likert","160","536780","0.0-52.0","SS1618435644115","","","","","","","","","images/stimuli/spore_stims/simple_19_A_b.gif","","","","{""Q0"":2}","[0]","","",""
"","2131","survey-likert","161","538918","0.0-53.0","SS1618435644115","","","","","","","","","images/stimuli/spore_stims/simple_11_A_b.gif","","","","{""Q0"":1}","[0]","","",""
"","5231","survey-likert","162","544156","0.0-54.0","SS1618435644115","","","","","","","","","images/stimuli/spore_stims/complex_15_A_a.gif","","","","{""Q0"":3}","[0]","","",""
"","3998","survey-likert","163","548160","0.0-55.0","SS1618435644115","","","","","","","","","images/stimuli/spore_stims/simple_09_A_b.gif","","","","{""Q0"":0}","[0]","","",""
"","1958","survey-likert","164","550126","0.0-56.0","SS1618435644115","","","","","","","","","images/stimuli/spore_stims/simple_01_A_b.gif","","","","{""Q0"":0}","[0]","","",""
"","3883","survey-likert","165","554015","0.0-57.0","SS1618435644115","","","","","","","","","images/stimuli/spore_stims/complex_06_A_b.gif","","","","{""Q0"":5}","[0]","","",""
"[{""page_index"":0,""viewing_time"":2352}]","2352","instructions","166","556375","0.0-58.0","SS1618435644115","instructions","","","","","","","","","","","","","","","",""
"","2700","demog-age","167","559082","0.0-59.0","SS1618435644115","","","","","","","","","","","","","{""age"":""21""}","","","",""
"","6412","demog-ethnic-US","168","565504","0.0-60.0","SS1618435644115","","","","","","","","","","","","","{""ethnicity"":[""White""]}","[0]","","",""
"","8857","demog-gender-and-education","169","574366","0.0-61.0","SS1618435644115","","","","","","","","","","","","","{""gender"":""Female"",""education"":""Bachelor's Degree""}","[0,1]","","",""
"","18418","survey-text","170","592795","0.0-62.0","SS1618435644115","feedback","","","","","","","","","","","","{""Q0"":""Everything worked fine""}","","","",""
"[{""page_index"":0,""viewing_time"":1605}]","1605","instructions","171","594403","0.0-63.0","SS1618435644115","instructions","","","","","","","","","","","","","","","",""
