"view_history","rt","trial_type","trial_index","time_elapsed","internal_node_id","subject","stimulus_type","trial_stimulus","key_press","minimum_viewing_duration","trial_looking_time","block_deviant","block_background","exposure_type","stimulus","block_number","block_type","stimulus_displayed","responses","question_order","math_correct_answer","stimulus_left","stimulus_right"
"[{""page_index"":0,""viewing_time"":8220.185000000129}]","8221.529999999802","instructions","0","8224","0.0-0.0","SS1618435645799","","","","","","","","","","","","","","","","",""
"[{""page_index"":0,""viewing_time"":25811.555000000226},{""page_index"":1,""viewing_time"":4703.68000000008}]","30515.6350000002","instructions","1","40746","0.0-1.0","SS1618435645799","instructions","","","","","","","","","","","","","","","",""
"","6256.874999999578","sequential-stimulus-presentation-old","2","47516","0.0-2.0","SS1618435645799","","","40","500","6756.874999999578","null","null","self_paced","","","","","","","","",""
"","3091.5249999998196","sequential-stimulus-presentation-old","3","51118","0.0-3.0","SS1618435645799","","","40","500","3591.5249999998196","null","null","self_paced","","","","","","","","",""
"[{""page_index"":0,""viewing_time"":13367.139999999832}]","13367.57999999963","instructions","4","64487","0.0-4.0","SS1618435645799","instructions","","","","","","","","","","","","","","","",""
"","3199.6450000001496","sequential-stimulus-presentation-old","5","72691","0.0-5.0","SS1618435645799","","","40","500","3699.6450000001496","null","null","forced_long","","","","","","","","",""
"","3417.3849999997474","sequential-stimulus-presentation-old","6","76169","0.0-6.0","SS1618435645799","","","40","50","3467.3849999997474","null","null","forced_long","","","","","","","","",""
"[{""page_index"":0,""viewing_time"":4174.054999999964}]","4174.454999999856","instructions","7","80345","0.0-7.0","SS1618435645799","instructions","","","","","","","","","","","","","","","",""
"[{""page_index"":0,""viewing_time"":10791.534999999843},{""page_index"":1,""viewing_time"":8522.954999999914},{""page_index"":2,""viewing_time"":8205.655000000203},{""page_index"":3,""viewing_time"":1699.5299999998679},{""page_index"":4,""viewing_time"":901.0800000000891}]","30121.165000000023","instructions","8","110467","0.0-8.0","SS1618435645799","instructions","","","","","","","","","","","","","","","",""
"","null","html-keyboard-response","9","111653","0.0-9.0-0.0","SS1618435645799","","","null","","","","","","<p><img src= images/blank.png width =""600"" height = ""600"" style=""position:fixed;top:50%; left:50%; transform: translate(-50%, -50%); border:5px solid black"">","","","","","","","",""
"","5007.120000000214","sequential-stimulus-presentation-old","10","117175","0.0-9.0-1.0","SS1618435645799","trial","","40","500","5507.120000000214","images/stimuli/spore_stims/complex_01_A_b.gif","images/stimuli/spore_stims/complex_15_A_a.gif","self_paced","","0","complex_dissimilar","images/stimuli/spore_stims/complex_15_A_a.gif","","","","",""
"","null","html-keyboard-response","11","118125","0.0-9.0-0.1","SS1618435645799","","","null","","","","","","<p><img src= images/blank.png width =""600"" height = ""600"" style=""position:fixed;top:50%; left:50%; transform: translate(-50%, -50%); border:5px solid black"">","","","","","","","",""
"","2790.870000000272","sequential-stimulus-presentation-old","12","121428","0.0-9.0-1.1","SS1618435645799","trial","","40","500","3290.870000000272","images/stimuli/spore_stims/complex_01_A_b.gif","images/stimuli/spore_stims/complex_15_A_a.gif","self_paced","","0","complex_dissimilar","images/stimuli/spore_stims/complex_15_A_a.gif","","","","",""
"","null","html-keyboard-response","13","122643","0.0-9.0-0.2","SS1618435645799","","","null","","","","","","<p><img src= images/blank.png width =""600"" height = ""600"" style=""position:fixed;top:50%; left:50%; transform: translate(-50%, -50%); border:5px solid black"">","","","","","","","",""
"","2894.8399999999383","sequential-stimulus-presentation-old","14","126057","0.0-9.0-1.2","SS1618435645799","trial","","40","500","3394.8399999999383","images/stimuli/spore_stims/complex_01_A_b.gif","images/stimuli/spore_stims/complex_15_A_a.gif","self_paced","","0","complex_dissimilar","images/stimuli/spore_stims/complex_15_A_a.gif","","","","",""
"","null","html-keyboard-response","15","127107","0.0-9.0-0.3","SS1618435645799","","","null","","","","","","<p><img src= images/blank.png width =""600"" height = ""600"" style=""position:fixed;top:50%; left:50%; transform: translate(-50%, -50%); border:5px solid black"">","","","","","","","",""
"","4955.18500000026","sequential-stimulus-presentation-old","16","132568","0.0-9.0-1.3","SS1618435645799","trial","","40","500","5455.18500000026","images/stimuli/spore_stims/complex_01_A_b.gif","images/stimuli/spore_stims/complex_15_A_a.gif","self_paced","","0","complex_dissimilar","images/stimuli/spore_stims/complex_01_A_b.gif","","","","",""
"","7099.715000000288","survey-multi-choice","17","139672","0.0-10.0","SS1618435645799","math_question","","","","","","","","","","","","{""Q0"":""12""}","[0]","12","",""
"","null","html-keyboard-response","18","140641","0.0-11.0-0.0","SS1618435645799","","","null","","","","","","<p><img src= images/blank.png width =""600"" height = ""600"" style=""position:fixed;top:50%; left:50%; transform: translate(-50%, -50%); border:5px solid black"">","","","","","","","",""
"","162.5549999998766","sequential-stimulus-presentation-old","19","145825","0.0-11.0-1.0","SS1618435645799","trial","","40","500","662.5549999998766","images/stimuli/spore_stims/simple_17_A_a.gif","images/stimuli/spore_stims/simple_11_A_b.gif","forced_long","","1","simple_dissimilar","images/stimuli/spore_stims/simple_11_A_b.gif","","","","",""
"","null","html-keyboard-response","20","146758","0.0-11.0-0.1","SS1618435645799","","","null","","","","","","<p><img src= images/blank.png width =""600"" height = ""600"" style=""position:fixed;top:50%; left:50%; transform: translate(-50%, -50%); border:5px solid black"">","","","","","","","",""
"","5547.395000000048","sequential-stimulus-presentation-old","21","152817","0.0-11.0-1.1","SS1618435645799","trial","","40","500","6047.395000000048","images/stimuli/spore_stims/simple_17_A_a.gif","images/stimuli/spore_stims/simple_11_A_b.gif","forced_long","","1","simple_dissimilar","images/stimuli/spore_stims/simple_17_A_a.gif","","","","",""
"","null","html-keyboard-response","22","153940","0.0-11.0-0.2","SS1618435645799","","","null","","","","","","<p><img src= images/blank.png width =""600"" height = ""600"" style=""position:fixed;top:50%; left:50%; transform: translate(-50%, -50%); border:5px solid black"">","","","","","","","",""
"","5242.7950000001","sequential-stimulus-presentation-old","23","159695","0.0-11.0-1.2","SS1618435645799","trial","","40","500","5742.7950000001","images/stimuli/spore_stims/simple_17_A_a.gif","images/stimuli/spore_stims/simple_11_A_b.gif","forced_long","","1","simple_dissimilar","images/stimuli/spore_stims/simple_11_A_b.gif","","","","",""
"","null","html-keyboard-response","24","160995","0.0-11.0-0.3","SS1618435645799","","","null","","","","","","<p><img src= images/blank.png width =""600"" height = ""600"" style=""position:fixed;top:50%; left:50%; transform: translate(-50%, -50%); border:5px solid black"">","","","","","","","",""
"","3264.220000000001","sequential-stimulus-presentation-old","25","164779","0.0-11.0-1.3","SS1618435645799","trial","","40","500","3764.220000000001","images/stimuli/spore_stims/simple_17_A_a.gif","images/stimuli/spore_stims/simple_11_A_b.gif","forced_long","","1","simple_dissimilar","images/stimuli/spore_stims/simple_11_A_b.gif","","","","",""
"","null","html-keyboard-response","26","165614","0.0-11.0-0.4","SS1618435645799","","","null","","","","","","<p><img src= images/blank.png width =""600"" height = ""600"" style=""position:fixed;top:50%; left:50%; transform: translate(-50%, -50%); border:5px solid black"">","","","","","","","",""
"","3129.7150000000256","sequential-stimulus-presentation-old","27","169261","0.0-11.0-1.4","SS1618435645799","trial","","40","500","3629.7150000000256","images/stimuli/spore_stims/simple_17_A_a.gif","images/stimuli/spore_stims/simple_11_A_b.gif","forced_long","","1","simple_dissimilar","images/stimuli/spore_stims/simple_11_A_b.gif","","","","",""
"","null","html-keyboard-response","28","170128","0.0-11.0-0.5","SS1618435645799","","","null","","","","","","<p><img src= images/blank.png width =""600"" height = ""600"" style=""position:fixed;top:50%; left:50%; transform: translate(-50%, -50%); border:5px solid black"">","","","","","","","",""
"","347.0950000000885","sequential-stimulus-presentation-old","29","170981","0.0-11.0-1.5","SS1618435645799","trial","","40","500","847.0950000000885","images/stimuli/spore_stims/simple_17_A_a.gif","images/stimuli/spore_stims/simple_11_A_b.gif","forced_long","","1","simple_dissimilar","images/stimuli/spore_stims/simple_11_A_b.gif","","","","",""
"","2915.6350000002712","survey-multi-choice","30","173899","0.0-12.0","SS1618435645799","math_question","","","","","","","","","","","","{""Q0"":""10""}","[0]","10","",""
"","null","html-keyboard-response","31","174761","0.0-13.0-0.0","SS1618435645799","","","null","","","","","","<p><img src= images/blank.png width =""600"" height = ""600"" style=""position:fixed;top:50%; left:50%; transform: translate(-50%, -50%); border:5px solid black"">","","","","","","","",""
"","844.0850000001956","sequential-stimulus-presentation-old","32","180635","0.0-13.0-1.0","SS1618435645799","trial","","40","500","1344.0850000001956","images/stimuli/spore_stims/complex_03_A_a.gif","images/stimuli/spore_stims/complex_17_A_b.gif","forced_long","","2","complex_dissimilar","images/stimuli/spore_stims/complex_17_A_b.gif","","","","",""
"","null","html-keyboard-response","33","181862","0.0-13.0-0.1","SS1618435645799","","","null","","","","","","<p><img src= images/blank.png width =""600"" height = ""600"" style=""position:fixed;top:50%; left:50%; transform: translate(-50%, -50%); border:5px solid black"">","","","","","","","",""
"","2759.5049999999756","sequential-stimulus-presentation-old","34","185126","0.0-13.0-1.1","SS1618435645799","trial","","40","500","3259.5049999999756","images/stimuli/spore_stims/complex_03_A_a.gif","images/stimuli/spore_stims/complex_17_A_b.gif","forced_long","","2","complex_dissimilar","images/stimuli/spore_stims/complex_03_A_a.gif","","","","",""
"","null","html-keyboard-response","35","186009","0.0-13.0-0.2","SS1618435645799","","","null","","","","","","<p><img src= images/blank.png width =""600"" height = ""600"" style=""position:fixed;top:50%; left:50%; transform: translate(-50%, -50%); border:5px solid black"">","","","","","","","",""
"","4111.084999999992","sequential-stimulus-presentation-old","36","190627","0.0-13.0-1.2","SS1618435645799","trial","","40","500","4611.084999999992","images/stimuli/spore_stims/complex_03_A_a.gif","images/stimuli/spore_stims/complex_17_A_b.gif","forced_long","","2","complex_dissimilar","images/stimuli/spore_stims/complex_17_A_b.gif","","","","",""
"","null","html-keyboard-response","37","191618","0.0-13.0-0.3","SS1618435645799","","","null","","","","","","<p><img src= images/blank.png width =""600"" height = ""600"" style=""position:fixed;top:50%; left:50%; transform: translate(-50%, -50%); border:5px solid black"">","","","","","","","",""
"","3552.975000000035","sequential-stimulus-presentation-old","38","195676","0.0-13.0-1.3","SS1618435645799","trial","","40","500","4052.975000000035","images/stimuli/spore_stims/complex_03_A_a.gif","images/stimuli/spore_stims/complex_17_A_b.gif","forced_long","","2","complex_dissimilar","images/stimuli/spore_stims/complex_03_A_a.gif","","","","",""
"","2580.9850000000733","survey-multi-choice","39","198260","0.0-14.0","SS1618435645799","math_question","","","","","","","","","","","","{""Q0"":""8""}","[0]","8","",""
"","null","html-keyboard-response","40","199127","0.0-15.0-0.0","SS1618435645799","","","null","","","","","","<p><img src= images/blank.png width =""600"" height = ""600"" style=""position:fixed;top:50%; left:50%; transform: translate(-50%, -50%); border:5px solid black"">","","","","","","","",""
"","1026.394999999873","sequential-stimulus-presentation-old","41","200217","0.0-15.0-1.0","SS1618435645799","trial","","40","500","1526.394999999873","images/stimuli/spore_stims/simple_20_A_a.gif","images/stimuli/spore_stims/simple_04_A_b.gif","forced_short","","3","simple_dissimilar","images/stimuli/spore_stims/simple_04_A_b.gif","","","","",""
"","null","html-keyboard-response","42","201159","0.0-15.0-0.1","SS1618435645799","","","null","","","","","","<p><img src= images/blank.png width =""600"" height = ""600"" style=""position:fixed;top:50%; left:50%; transform: translate(-50%, -50%); border:5px solid black"">","","","","","","","",""
"","4541.799999999959","sequential-stimulus-presentation-old","43","206208","0.0-15.0-1.1","SS1618435645799","trial","","40","500","5041.799999999959","images/stimuli/spore_stims/simple_20_A_a.gif","images/stimuli/spore_stims/simple_04_A_b.gif","forced_short","","3","simple_dissimilar","images/stimuli/spore_stims/simple_04_A_b.gif","","","","",""
"","null","html-keyboard-response","44","207149","0.0-15.0-0.2","SS1618435645799","","","null","","","","","","<p><img src= images/blank.png width =""600"" height = ""600"" style=""position:fixed;top:50%; left:50%; transform: translate(-50%, -50%); border:5px solid black"">","","","","","","","",""
"","2717.799999999901","sequential-stimulus-presentation-old","45","210384","0.0-15.0-1.2","SS1618435645799","trial","","40","500","3217.799999999901","images/stimuli/spore_stims/simple_20_A_a.gif","images/stimuli/spore_stims/simple_04_A_b.gif","forced_short","","3","simple_dissimilar","images/stimuli/spore_stims/simple_20_A_a.gif","","","","",""
"","null","html-keyboard-response","46","211686","0.0-15.0-0.3","SS1618435645799","","","null","","","","","","<p><img src= images/blank.png width =""600"" height = ""600"" style=""position:fixed;top:50%; left:50%; transform: translate(-50%, -50%); border:5px solid black"">","","","","","","","",""
"","5875.419999999838","sequential-stimulus-presentation-old","47","218075","0.0-15.0-1.3","SS1618435645799","trial","","40","500","6375.419999999838","images/stimuli/spore_stims/simple_20_A_a.gif","images/stimuli/spore_stims/simple_04_A_b.gif","forced_short","","3","simple_dissimilar","images/stimuli/spore_stims/simple_04_A_b.gif","","","","",""
"","null","html-keyboard-response","48","219184","0.0-15.0-0.4","SS1618435645799","","","null","","","","","","<p><img src= images/blank.png width =""600"" height = ""600"" style=""position:fixed;top:50%; left:50%; transform: translate(-50%, -50%); border:5px solid black"">","","","","","","","",""
"","5138.7650000001595","sequential-stimulus-presentation-old","49","224838","0.0-15.0-1.4","SS1618435645799","trial","","40","500","5638.7650000001595","images/stimuli/spore_stims/simple_20_A_a.gif","images/stimuli/spore_stims/simple_04_A_b.gif","forced_short","","3","simple_dissimilar","images/stimuli/spore_stims/simple_20_A_a.gif","","","","",""
"","3742.735000000277","survey-multi-choice","50","228582","0.0-16.0","SS1618435645799","math_question","","","","","","","","","","","","{""Q0"":""6""}","[0]","6","",""
"","null","html-keyboard-response","51","229850","0.0-17.0-0.0","SS1618435645799","","","null","","","","","","<p><img src= images/blank.png width =""600"" height = ""600"" style=""position:fixed;top:50%; left:50%; transform: translate(-50%, -50%); border:5px solid black"">","","","","","","","",""
"","677.8350000003993","sequential-stimulus-presentation-old","52","230583","0.0-17.0-1.0","SS1618435645799","trial","","40","500","1177.8350000003993","images/stimuli/spore_stims/complex_06_A_b.gif","images/stimuli/spore_stims/complex_14_A_a.gif","forced_short","","4","complex_dissimilar","images/stimuli/spore_stims/complex_14_A_a.gif","","","","",""
"","null","html-keyboard-response","53","231677","0.0-17.0-0.1","SS1618435645799","","","null","","","","","","<p><img src= images/blank.png width =""600"" height = ""600"" style=""position:fixed;top:50%; left:50%; transform: translate(-50%, -50%); border:5px solid black"">","","","","","","","",""
"","2312.8750000000873","sequential-stimulus-presentation-old","54","234495","0.0-17.0-1.1","SS1618435645799","trial","","40","500","2812.8750000000873","images/stimuli/spore_stims/complex_06_A_b.gif","images/stimuli/spore_stims/complex_14_A_a.gif","forced_short","","4","complex_dissimilar","images/stimuli/spore_stims/complex_14_A_a.gif","","","","",""
"","null","html-keyboard-response","55","235655","0.0-17.0-0.2","SS1618435645799","","","null","","","","","","<p><img src= images/blank.png width =""600"" height = ""600"" style=""position:fixed;top:50%; left:50%; transform: translate(-50%, -50%); border:5px solid black"">","","","","","","","",""
"","2914.079999999987","sequential-stimulus-presentation-old","56","239081","0.0-17.0-1.2","SS1618435645799","trial","","40","500","3414.079999999987","images/stimuli/spore_stims/complex_06_A_b.gif","images/stimuli/spore_stims/complex_14_A_a.gif","forced_short","","4","complex_dissimilar","images/stimuli/spore_stims/complex_14_A_a.gif","","","","",""
"","null","html-keyboard-response","57","239889","0.0-17.0-0.3","SS1618435645799","","","null","","","","","","<p><img src= images/blank.png width =""600"" height = ""600"" style=""position:fixed;top:50%; left:50%; transform: translate(-50%, -50%); border:5px solid black"">","","","","","","","",""
"","1847.6350000000675","sequential-stimulus-presentation-old","58","242255","0.0-17.0-1.3","SS1618435645799","trial","","40","500","2347.6350000000675","images/stimuli/spore_stims/complex_06_A_b.gif","images/stimuli/spore_stims/complex_14_A_a.gif","forced_short","","4","complex_dissimilar","images/stimuli/spore_stims/complex_14_A_a.gif","","","","",""
"","null","html-keyboard-response","59","243300","0.0-17.0-0.4","SS1618435645799","","","null","","","","","","<p><img src= images/blank.png width =""600"" height = ""600"" style=""position:fixed;top:50%; left:50%; transform: translate(-50%, -50%); border:5px solid black"">","","","","","","","",""
"","2803.21000000005","sequential-stimulus-presentation-old","60","246612","0.0-17.0-1.4","SS1618435645799","trial","","40","500","3303.21000000005","images/stimuli/spore_stims/complex_06_A_b.gif","images/stimuli/spore_stims/complex_14_A_a.gif","forced_short","","4","complex_dissimilar","images/stimuli/spore_stims/complex_14_A_a.gif","","","","",""
"","null","html-keyboard-response","61","247421","0.0-17.0-0.5","SS1618435645799","","","null","","","","","","<p><img src= images/blank.png width =""600"" height = ""600"" style=""position:fixed;top:50%; left:50%; transform: translate(-50%, -50%); border:5px solid black"">","","","","","","","",""
"","3329.6399999999267","sequential-stimulus-presentation-old","62","251262","0.0-17.0-1.5","SS1618435645799","trial","","40","500","3829.6399999999267","images/stimuli/spore_stims/complex_06_A_b.gif","images/stimuli/spore_stims/complex_14_A_a.gif","forced_short","","4","complex_dissimilar","images/stimuli/spore_stims/complex_06_A_b.gif","","","","",""
"","3659.325000000099","survey-multi-choice","63","254925","0.0-18.0","SS1618435645799","math_question","","","","","","","","","","","","{""Q0"":""14""}","[0]","14","",""
"","null","html-keyboard-response","64","255790","0.0-19.0-0.0","SS1618435645799","","","null","","","","","","<p><img src= images/blank.png width =""600"" height = ""600"" style=""position:fixed;top:50%; left:50%; transform: translate(-50%, -50%); border:5px solid black"">","","","","","","","",""
"","2651.3199999999197","sequential-stimulus-presentation-old","65","258952","0.0-19.0-1.0","SS1618435645799","trial","","40","500","3151.3199999999197","images/stimuli/spore_stims/complex_07_A_b.gif","images/stimuli/spore_stims/complex_11_A_a.gif","self_paced","","5","complex_dissimilar","images/stimuli/spore_stims/complex_11_A_a.gif","","","","",""
"","null","html-keyboard-response","66","259936","0.0-19.0-0.1","SS1618435645799","","","null","","","","","","<p><img src= images/blank.png width =""600"" height = ""600"" style=""position:fixed;top:50%; left:50%; transform: translate(-50%, -50%); border:5px solid black"">","","","","","","","",""
"","1538.1349999997765","sequential-stimulus-presentation-old","67","261983","0.0-19.0-1.1","SS1618435645799","trial","","40","500","2038.1349999997765","images/stimuli/spore_stims/complex_07_A_b.gif","images/stimuli/spore_stims/complex_11_A_a.gif","self_paced","","5","complex_dissimilar","images/stimuli/spore_stims/complex_11_A_a.gif","","","","",""
"","null","html-keyboard-response","68","263218","0.0-19.0-0.2","SS1618435645799","","","null","","","","","","<p><img src= images/blank.png width =""600"" height = ""600"" style=""position:fixed;top:50%; left:50%; transform: translate(-50%, -50%); border:5px solid black"">","","","","","","","",""
"","1845.0800000000745","sequential-stimulus-presentation-old","69","265586","0.0-19.0-1.2","SS1618435645799","trial","","40","500","2345.0800000000745","images/stimuli/spore_stims/complex_07_A_b.gif","images/stimuli/spore_stims/complex_11_A_a.gif","self_paced","","5","complex_dissimilar","images/stimuli/spore_stims/complex_11_A_a.gif","","","","",""
"","null","html-keyboard-response","70","266657","0.0-19.0-0.3","SS1618435645799","","","null","","","","","","<p><img src= images/blank.png width =""600"" height = ""600"" style=""position:fixed;top:50%; left:50%; transform: translate(-50%, -50%); border:5px solid black"">","","","","","","","",""
"","2994.539999999688","sequential-stimulus-presentation-old","71","270161","0.0-19.0-1.3","SS1618435645799","trial","","40","500","3494.539999999688","images/stimuli/spore_stims/complex_07_A_b.gif","images/stimuli/spore_stims/complex_11_A_a.gif","self_paced","","5","complex_dissimilar","images/stimuli/spore_stims/complex_07_A_b.gif","","","","",""
"","null","html-keyboard-response","72","271391","0.0-19.0-0.4","SS1618435645799","","","null","","","","","","<p><img src= images/blank.png width =""600"" height = ""600"" style=""position:fixed;top:50%; left:50%; transform: translate(-50%, -50%); border:5px solid black"">","","","","","","","",""
"","2345.045000000042","sequential-stimulus-presentation-old","73","274249","0.0-19.0-1.4","SS1618435645799","trial","","40","500","2845.045000000042","images/stimuli/spore_stims/complex_07_A_b.gif","images/stimuli/spore_stims/complex_11_A_a.gif","self_paced","","5","complex_dissimilar","images/stimuli/spore_stims/complex_11_A_a.gif","","","","",""
"","null","html-keyboard-response","74","275443","0.0-19.0-0.5","SS1618435645799","","","null","","","","","","<p><img src= images/blank.png width =""600"" height = ""600"" style=""position:fixed;top:50%; left:50%; transform: translate(-50%, -50%); border:5px solid black"">","","","","","","","",""
"","1554.1499999999069","sequential-stimulus-presentation-old","75","277512","0.0-19.0-1.5","SS1618435645799","trial","","40","500","2054.149999999907","images/stimuli/spore_stims/complex_07_A_b.gif","images/stimuli/spore_stims/complex_11_A_a.gif","self_paced","","5","complex_dissimilar","images/stimuli/spore_stims/complex_07_A_b.gif","","","","",""
"","2994.6949999998324","survey-multi-choice","76","280511","0.0-20.0","SS1618435645799","math_question","","","","","","","","","","","","{""Q0"":""9""}","[0]","9","",""
"","null","html-keyboard-response","77","281461","0.0-21.0-0.0","SS1618435645799","","","null","","","","","","<p><img src= images/blank.png width =""600"" height = ""600"" style=""position:fixed;top:50%; left:50%; transform: translate(-50%, -50%); border:5px solid black"">","","","","","","","",""
"","1168.0050000000047","sequential-stimulus-presentation-old","78","283150","0.0-21.0-1.0","SS1618435645799","trial","","40","500","1668.0050000000047","images/stimuli/spore_stims/simple_02_A_a.gif","images/stimuli/spore_stims/simple_01_A_b.gif","self_paced","","6","simple_dissimilar","images/stimuli/spore_stims/simple_01_A_b.gif","","","","",""
"","null","html-keyboard-response","79","284009","0.0-21.0-0.1","SS1618435645799","","","null","","","","","","<p><img src= images/blank.png width =""600"" height = ""600"" style=""position:fixed;top:50%; left:50%; transform: translate(-50%, -50%); border:5px solid black"">","","","","","","","",""
"","2652.939999999944","sequential-stimulus-presentation-old","80","287167","0.0-21.0-1.1","SS1618435645799","trial","","40","500","3152.939999999944","images/stimuli/spore_stims/simple_02_A_a.gif","images/stimuli/spore_stims/simple_01_A_b.gif","self_paced","","6","simple_dissimilar","images/stimuli/spore_stims/simple_01_A_b.gif","","","","",""
"","null","html-keyboard-response","81","288347","0.0-21.0-0.2","SS1618435645799","","","null","","","","","","<p><img src= images/blank.png width =""600"" height = ""600"" style=""position:fixed;top:50%; left:50%; transform: translate(-50%, -50%); border:5px solid black"">","","","","","","","",""
"","2662.4849999998696","sequential-stimulus-presentation-old","82","291515","0.0-21.0-1.2","SS1618435645799","trial","","40","500","3162.4849999998696","images/stimuli/spore_stims/simple_02_A_a.gif","images/stimuli/spore_stims/simple_01_A_b.gif","self_paced","","6","simple_dissimilar","images/stimuli/spore_stims/simple_02_A_a.gif","","","","",""
"","null","html-keyboard-response","83","292592","0.0-21.0-0.3","SS1618435645799","","","null","","","","","","<p><img src= images/blank.png width =""600"" height = ""600"" style=""position:fixed;top:50%; left:50%; transform: translate(-50%, -50%); border:5px solid black"">","","","","","","","",""
"","2567.645000000077","sequential-stimulus-presentation-old","84","295672","0.0-21.0-1.3","SS1618435645799","trial","","40","500","3067.645000000077","images/stimuli/spore_stims/simple_02_A_a.gif","images/stimuli/spore_stims/simple_01_A_b.gif","self_paced","","6","simple_dissimilar","images/stimuli/spore_stims/simple_01_A_b.gif","","","","",""
"","null","html-keyboard-response","85","296665","0.0-21.0-0.4","SS1618435645799","","","null","","","","","","<p><img src= images/blank.png width =""600"" height = ""600"" style=""position:fixed;top:50%; left:50%; transform: translate(-50%, -50%); border:5px solid black"">","","","","","","","",""
"","3681.3850000003586","sequential-stimulus-presentation-old","86","300866","0.0-21.0-1.4","SS1618435645799","trial","","40","500","4181.385000000359","images/stimuli/spore_stims/simple_02_A_a.gif","images/stimuli/spore_stims/simple_01_A_b.gif","self_paced","","6","simple_dissimilar","images/stimuli/spore_stims/simple_01_A_b.gif","","","","",""
"","null","html-keyboard-response","87","302126","0.0-21.0-0.5","SS1618435645799","","","null","","","","","","<p><img src= images/blank.png width =""600"" height = ""600"" style=""position:fixed;top:50%; left:50%; transform: translate(-50%, -50%); border:5px solid black"">","","","","","","","",""
"","1401.0400000001537","sequential-stimulus-presentation-old","88","304036","0.0-21.0-1.5","SS1618435645799","trial","","40","500","1901.0400000001537","images/stimuli/spore_stims/simple_02_A_a.gif","images/stimuli/spore_stims/simple_01_A_b.gif","self_paced","","6","simple_dissimilar","images/stimuli/spore_stims/simple_01_A_b.gif","","","","",""
"","4868.855000000156","survey-multi-choice","89","308909","0.0-22.0","SS1618435645799","math_question","","","","","","","","","","","","{""Q0"":""14""}","[0]","14","",""
"","null","html-keyboard-response","90","309957","0.0-23.0-0.0","SS1618435645799","","","null","","","","","","<p><img src= images/blank.png width =""600"" height = ""600"" style=""position:fixed;top:50%; left:50%; transform: translate(-50%, -50%); border:5px solid black"">","","","","","","","",""
"","2557.7249999996857","sequential-stimulus-presentation-old","91","313022","0.0-23.0-1.0","SS1618435645799","trial","","40","500","3057.7249999996857","images/stimuli/spore_stims/simple_04_A_a.gif","images/stimuli/spore_stims/simple_02_A_b.gif","self_paced","","7","simple_dissimilar","images/stimuli/spore_stims/simple_02_A_b.gif","","","","",""
"","null","html-keyboard-response","92","314094","0.0-23.0-0.1","SS1618435645799","","","null","","","","","","<p><img src= images/blank.png width =""600"" height = ""600"" style=""position:fixed;top:50%; left:50%; transform: translate(-50%, -50%); border:5px solid black"">","","","","","","","",""
"","3914.574999999779","sequential-stimulus-presentation-old","93","318529","0.0-23.0-1.1","SS1618435645799","trial","","40","500","4414.574999999779","images/stimuli/spore_stims/simple_04_A_a.gif","images/stimuli/spore_stims/simple_02_A_b.gif","self_paced","","7","simple_dissimilar","images/stimuli/spore_stims/simple_02_A_b.gif","","","","",""
"","null","html-keyboard-response","94","319791","0.0-23.0-0.2","SS1618435645799","","","null","","","","","","<p><img src= images/blank.png width =""600"" height = ""600"" style=""position:fixed;top:50%; left:50%; transform: translate(-50%, -50%); border:5px solid black"">","","","","","","","",""
"","693.1500000000815","sequential-stimulus-presentation-old","95","320991","0.0-23.0-1.2","SS1618435645799","trial","","40","500","1193.1500000000815","images/stimuli/spore_stims/simple_04_A_a.gif","images/stimuli/spore_stims/simple_02_A_b.gif","self_paced","","7","simple_dissimilar","images/stimuli/spore_stims/simple_02_A_b.gif","","","","",""
"","null","html-keyboard-response","96","322161","0.0-23.0-0.3","SS1618435645799","","","null","","","","","","<p><img src= images/blank.png width =""600"" height = ""600"" style=""position:fixed;top:50%; left:50%; transform: translate(-50%, -50%); border:5px solid black"">","","","","","","","",""
"","1284.6550000003772","sequential-stimulus-presentation-old","97","323958","0.0-23.0-1.3","SS1618435645799","trial","","40","500","1784.6550000003772","images/stimuli/spore_stims/simple_04_A_a.gif","images/stimuli/spore_stims/simple_02_A_b.gif","self_paced","","7","simple_dissimilar","images/stimuli/spore_stims/simple_02_A_b.gif","","","","",""
"","5207.245000000054","survey-multi-choice","98","329170","0.0-24.0","SS1618435645799","math_question","","","","","","","","","","","","{""Q0"":""7""}","[0]","7","",""
"","null","html-keyboard-response","99","330430","0.0-25.0-0.0","SS1618435645799","","","null","","","","","","<p><img src= images/blank.png width =""600"" height = ""600"" style=""position:fixed;top:50%; left:50%; transform: translate(-50%, -50%); border:5px solid black"">","","","","","","","",""
"","3737.8300000000745","sequential-stimulus-presentation-old","100","334245","0.0-25.0-1.0","SS1618435645799","trial","","40","500","4237.8300000000745","images/stimuli/spore_stims/simple_08_A_a.gif","images/stimuli/spore_stims/simple_13_A_b.gif","forced_short","","8","simple_dissimilar","images/stimuli/spore_stims/simple_13_A_b.gif","","","","",""
"","null","html-keyboard-response","101","335275","0.0-25.0-0.1","SS1618435645799","","","null","","","","","","<p><img src= images/blank.png width =""600"" height = ""600"" style=""position:fixed;top:50%; left:50%; transform: translate(-50%, -50%); border:5px solid black"">","","","","","","","",""
"","2515.0250000001397","sequential-stimulus-presentation-old","102","338306","0.0-25.0-1.1","SS1618435645799","trial","","40","500","3015.0250000001397","images/stimuli/spore_stims/simple_08_A_a.gif","images/stimuli/spore_stims/simple_13_A_b.gif","forced_short","","8","simple_dissimilar","images/stimuli/spore_stims/simple_13_A_b.gif","","","","",""
"","null","html-keyboard-response","103","339471","0.0-25.0-0.2","SS1618435645799","","","null","","","","","","<p><img src= images/blank.png width =""600"" height = ""600"" style=""position:fixed;top:50%; left:50%; transform: translate(-50%, -50%); border:5px solid black"">","","","","","","","",""
"","4221.689999999886","sequential-stimulus-presentation-old","104","344203","0.0-25.0-1.2","SS1618435645799","trial","","40","500","4721.689999999886","images/stimuli/spore_stims/simple_08_A_a.gif","images/stimuli/spore_stims/simple_13_A_b.gif","forced_short","","8","simple_dissimilar","images/stimuli/spore_stims/simple_13_A_b.gif","","","","",""
"","null","html-keyboard-response","105","345455","0.0-25.0-0.3","SS1618435645799","","","null","","","","","","<p><img src= images/blank.png width =""600"" height = ""600"" style=""position:fixed;top:50%; left:50%; transform: translate(-50%, -50%); border:5px solid black"">","","","","","","","",""
"","2336.644999999902","sequential-stimulus-presentation-old","106","348309","0.0-25.0-1.3","SS1618435645799","trial","","40","500","2836.644999999902","images/stimuli/spore_stims/simple_08_A_a.gif","images/stimuli/spore_stims/simple_13_A_b.gif","forced_short","","8","simple_dissimilar","images/stimuli/spore_stims/simple_13_A_b.gif","","","","",""
"","null","html-keyboard-response","107","349254","0.0-25.0-0.4","SS1618435645799","","","null","","","","","","<p><img src= images/blank.png width =""600"" height = ""600"" style=""position:fixed;top:50%; left:50%; transform: translate(-50%, -50%); border:5px solid black"">","","","","","","","",""
"","3292.9099999996834","sequential-stimulus-presentation-old","108","353055","0.0-25.0-1.4","SS1618435645799","trial","","40","500","3792.9099999996834","images/stimuli/spore_stims/simple_08_A_a.gif","images/stimuli/spore_stims/simple_13_A_b.gif","forced_short","","8","simple_dissimilar","images/stimuli/spore_stims/simple_13_A_b.gif","","","","",""
"","null","html-keyboard-response","109","354175","0.0-25.0-0.5","SS1618435645799","","","null","","","","","","<p><img src= images/blank.png width =""600"" height = ""600"" style=""position:fixed;top:50%; left:50%; transform: translate(-50%, -50%); border:5px solid black"">","","","","","","","",""
"","1662.2349999998114","sequential-stimulus-presentation-old","110","356345","0.0-25.0-1.5","SS1618435645799","trial","","40","500","2162.2349999998114","images/stimuli/spore_stims/simple_08_A_a.gif","images/stimuli/spore_stims/simple_13_A_b.gif","forced_short","","8","simple_dissimilar","images/stimuli/spore_stims/simple_13_A_b.gif","","","","",""
"","2865.710000000079","survey-multi-choice","111","359215","0.0-26.0","SS1618435645799","math_question","","","","","","","","","","","","{""Q0"":""10""}","[0]","10","",""
"","null","html-keyboard-response","112","360053","0.0-27.0-0.0","SS1618435645799","","","null","","","","","","<p><img src= images/blank.png width =""600"" height = ""600"" style=""position:fixed;top:50%; left:50%; transform: translate(-50%, -50%); border:5px solid black"">","","","","","","","",""
"","761.0850000000792","sequential-stimulus-presentation-old","113","360876","0.0-27.0-1.0","SS1618435645799","trial","","40","500","1261.0850000000792","images/stimuli/spore_stims/complex_13_A_a.gif","images/stimuli/spore_stims/complex_15_A_b.gif","forced_short","","9","complex_dissimilar","images/stimuli/spore_stims/complex_15_A_b.gif","","","","",""
"","null","html-keyboard-response","114","361692","0.0-27.0-0.1","SS1618435645799","","","null","","","","","","<p><img src= images/blank.png width =""600"" height = ""600"" style=""position:fixed;top:50%; left:50%; transform: translate(-50%, -50%); border:5px solid black"">","","","","","","","",""
"","1448.3449999997974","sequential-stimulus-presentation-old","115","363661","0.0-27.0-1.1","SS1618435645799","trial","","40","500","1948.3449999997974","images/stimuli/spore_stims/complex_13_A_a.gif","images/stimuli/spore_stims/complex_15_A_b.gif","forced_short","","9","complex_dissimilar","images/stimuli/spore_stims/complex_15_A_b.gif","","","","",""
"","null","html-keyboard-response","116","364798","0.0-27.0-0.2","SS1618435645799","","","null","","","","","","<p><img src= images/blank.png width =""600"" height = ""600"" style=""position:fixed;top:50%; left:50%; transform: translate(-50%, -50%); border:5px solid black"">","","","","","","","",""
"","1917.4250000001048","sequential-stimulus-presentation-old","117","367230","0.0-27.0-1.2","SS1618435645799","trial","","40","500","2417.425000000105","images/stimuli/spore_stims/complex_13_A_a.gif","images/stimuli/spore_stims/complex_15_A_b.gif","forced_short","","9","complex_dissimilar","images/stimuli/spore_stims/complex_15_A_b.gif","","","","",""
"","null","html-keyboard-response","118","368434","0.0-27.0-0.3","SS1618435645799","","","null","","","","","","<p><img src= images/blank.png width =""600"" height = ""600"" style=""position:fixed;top:50%; left:50%; transform: translate(-50%, -50%); border:5px solid black"">","","","","","","","",""
"","2068.399999999674","sequential-stimulus-presentation-old","119","371013","0.0-27.0-1.3","SS1618435645799","trial","","40","500","2568.399999999674","images/stimuli/spore_stims/complex_13_A_a.gif","images/stimuli/spore_stims/complex_15_A_b.gif","forced_short","","9","complex_dissimilar","images/stimuli/spore_stims/complex_15_A_b.gif","","","","",""
"","2560.0500000000466","survey-multi-choice","120","373578","0.0-28.0","SS1618435645799","math_question","","","","","","","","","","","","{""Q0"":""12""}","[0]","12","",""
"","null","html-keyboard-response","121","374768","0.0-29.0-0.0","SS1618435645799","","","null","","","","","","<p><img src= images/blank.png width =""600"" height = ""600"" style=""position:fixed;top:50%; left:50%; transform: translate(-50%, -50%); border:5px solid black"">","","","","","","","",""
"","532.6099999997532","sequential-stimulus-presentation-old","122","380313","0.0-29.0-1.0","SS1618435645799","trial","","40","500","1032.6099999997532","images/stimuli/spore_stims/simple_06_A_a.gif","images/stimuli/spore_stims/simple_15_A_b.gif","forced_long","","10","simple_dissimilar","images/stimuli/spore_stims/simple_15_A_b.gif","","","","",""
"","null","html-keyboard-response","123","381568","0.0-29.0-0.1","SS1618435645799","","","null","","","","","","<p><img src= images/blank.png width =""600"" height = ""600"" style=""position:fixed;top:50%; left:50%; transform: translate(-50%, -50%); border:5px solid black"">","","","","","","","",""
"","4837.745000000286","sequential-stimulus-presentation-old","124","386917","0.0-29.0-1.1","SS1618435645799","trial","","40","500","5337.745000000286","images/stimuli/spore_stims/simple_06_A_a.gif","images/stimuli/spore_stims/simple_15_A_b.gif","forced_long","","10","simple_dissimilar","images/stimuli/spore_stims/simple_15_A_b.gif","","","","",""
"","null","html-keyboard-response","125","387992","0.0-29.0-0.2","SS1618435645799","","","null","","","","","","<p><img src= images/blank.png width =""600"" height = ""600"" style=""position:fixed;top:50%; left:50%; transform: translate(-50%, -50%); border:5px solid black"">","","","","","","","",""
"","2567.7750000000233","sequential-stimulus-presentation-old","126","391079","0.0-29.0-1.2","SS1618435645799","trial","","40","500","3067.7750000000233","images/stimuli/spore_stims/simple_06_A_a.gif","images/stimuli/spore_stims/simple_15_A_b.gif","forced_long","","10","simple_dissimilar","images/stimuli/spore_stims/simple_06_A_a.gif","","","","",""
"","null","html-keyboard-response","127","392051","0.0-29.0-0.3","SS1618435645799","","","null","","","","","","<p><img src= images/blank.png width =""600"" height = ""600"" style=""position:fixed;top:50%; left:50%; transform: translate(-50%, -50%); border:5px solid black"">","","","","","","","",""
"","971.8849999999511","sequential-stimulus-presentation-old","128","393541","0.0-29.0-1.3","SS1618435645799","trial","","40","500","1471.884999999951","images/stimuli/spore_stims/simple_06_A_a.gif","images/stimuli/spore_stims/simple_15_A_b.gif","forced_long","","10","simple_dissimilar","images/stimuli/spore_stims/simple_15_A_b.gif","","","","",""
"","null","html-keyboard-response","129","394594","0.0-29.0-0.4","SS1618435645799","","","null","","","","","","<p><img src= images/blank.png width =""600"" height = ""600"" style=""position:fixed;top:50%; left:50%; transform: translate(-50%, -50%); border:5px solid black"">","","","","","","","",""
"","5886.789999999979","sequential-stimulus-presentation-old","130","400988","0.0-29.0-1.4","SS1618435645799","trial","","40","500","6386.789999999979","images/stimuli/spore_stims/simple_06_A_a.gif","images/stimuli/spore_stims/simple_15_A_b.gif","forced_long","","10","simple_dissimilar","images/stimuli/spore_stims/simple_06_A_a.gif","","","","",""
"","6506.87000000017","survey-multi-choice","131","407500","0.0-30.0","SS1618435645799","math_question","","","","","","","","","","","","{""Q0"":""13""}","[0]","13","",""
"","null","html-keyboard-response","132","408508","0.0-31.0-0.0","SS1618435645799","","","null","","","","","","<p><img src= images/blank.png width =""600"" height = ""600"" style=""position:fixed;top:50%; left:50%; transform: translate(-50%, -50%); border:5px solid black"">","","","","","","","",""
"","730.660000000149","sequential-stimulus-presentation-old","133","414248","0.0-31.0-1.0","SS1618435645799","trial","","40","500","1230.660000000149","images/stimuli/spore_stims/complex_12_A_b.gif","images/stimuli/spore_stims/complex_09_A_a.gif","forced_long","","11","complex_dissimilar","images/stimuli/spore_stims/complex_09_A_a.gif","","","","",""
"","null","html-keyboard-response","134","415127","0.0-31.0-0.1","SS1618435645799","","","null","","","","","","<p><img src= images/blank.png width =""600"" height = ""600"" style=""position:fixed;top:50%; left:50%; transform: translate(-50%, -50%); border:5px solid black"">","","","","","","","",""
"","1132.3049999996438","sequential-stimulus-presentation-old","135","416774","0.0-31.0-1.1","SS1618435645799","trial","","40","500","1632.3049999996438","images/stimuli/spore_stims/complex_12_A_b.gif","images/stimuli/spore_stims/complex_09_A_a.gif","forced_long","","11","complex_dissimilar","images/stimuli/spore_stims/complex_09_A_a.gif","","","","",""
"","null","html-keyboard-response","136","417843","0.0-31.0-0.2","SS1618435645799","","","null","","","","","","<p><img src= images/blank.png width =""600"" height = ""600"" style=""position:fixed;top:50%; left:50%; transform: translate(-50%, -50%); border:5px solid black"">","","","","","","","",""
"","1180.225000000035","sequential-stimulus-presentation-old","137","419545","0.0-31.0-1.2","SS1618435645799","trial","","40","500","1680.225000000035","images/stimuli/spore_stims/complex_12_A_b.gif","images/stimuli/spore_stims/complex_09_A_a.gif","forced_long","","11","complex_dissimilar","images/stimuli/spore_stims/complex_09_A_a.gif","","","","",""
"","null","html-keyboard-response","138","420464","0.0-31.0-0.3","SS1618435645799","","","null","","","","","","<p><img src= images/blank.png width =""600"" height = ""600"" style=""position:fixed;top:50%; left:50%; transform: translate(-50%, -50%); border:5px solid black"">","","","","","","","",""
"","1090.1050000002724","sequential-stimulus-presentation-old","139","422072","0.0-31.0-1.3","SS1618435645799","trial","","40","500","1590.1050000002724","images/stimuli/spore_stims/complex_12_A_b.gif","images/stimuli/spore_stims/complex_09_A_a.gif","forced_long","","11","complex_dissimilar","images/stimuli/spore_stims/complex_09_A_a.gif","","","","",""
"[{""page_index"":0,""viewing_time"":5453.120000000112}]","5453.574999999953","instructions","140","427530","0.0-32.0","SS1618435645799","instructions","","","","","","","","","","","","","","","",""
"","6908.35500000004","survey-likert","141","434446","0.0-33.0","SS1618435645799","similarity_question","","","","","","","","","","","","{""Q0"":0}","[0]","","images/stimuli/spore_stims/complex_07_A_b.gif","images/stimuli/spore_stims/complex_11_A_a.gif"
"","6120.510000000184","survey-likert","142","440580","0.0-34.0","SS1618435645799","similarity_question","","","","","","","","","","","","{""Q0"":1}","[0]","","images/stimuli/spore_stims/complex_01_A_b.gif","images/stimuli/spore_stims/complex_15_A_a.gif"
"","5740.9049999996205","survey-likert","143","446333","0.0-35.0","SS1618435645799","similarity_question","","","","","","","","","","","","{""Q0"":5}","[0]","","images/stimuli/spore_stims/simple_15_A_b.gif","images/stimuli/spore_stims/simple_06_A_a.gif"
"","2758.4599999999627","survey-likert","144","449105","0.0-36.0","SS1618435645799","similarity_question","","","","","","","","","","","","{""Q0"":3}","[0]","","images/stimuli/spore_stims/simple_11_A_b.gif","images/stimuli/spore_stims/simple_17_A_a.gif"
"","2979.339999999851","survey-likert","145","452096","0.0-37.0","SS1618435645799","similarity_question","","","","","","","","","","","","{""Q0"":4}","[0]","","images/stimuli/spore_stims/simple_08_A_a.gif","images/stimuli/spore_stims/simple_13_A_b.gif"
"","2934.3199999998324","survey-likert","146","455044","0.0-38.0","SS1618435645799","similarity_question","","","","","","","","","","","","{""Q0"":3}","[0]","","images/stimuli/spore_stims/simple_04_A_b.gif","images/stimuli/spore_stims/simple_20_A_a.gif"
"","6640.124999999884","survey-likert","147","461697","0.0-39.0","SS1618435645799","similarity_question","","","","","","","","","","","","{""Q0"":4}","[0]","","images/stimuli/spore_stims/simple_02_A_b.gif","images/stimuli/spore_stims/simple_04_A_a.gif"
"","3632.734999999695","survey-likert","148","465343","0.0-40.0","SS1618435645799","similarity_question","","","","","","","","","","","","{""Q0"":4}","[0]","","images/stimuli/spore_stims/simple_02_A_a.gif","images/stimuli/spore_stims/simple_01_A_b.gif"
"","5847.434999999648","survey-likert","149","471205","0.0-41.0","SS1618435645799","similarity_question","","","","","","","","","","","","{""Q0"":2}","[0]","","images/stimuli/spore_stims/complex_14_A_a.gif","images/stimuli/spore_stims/complex_06_A_b.gif"
"","6664.484999999811","survey-likert","150","477882","0.0-42.0","SS1618435645799","similarity_question","","","","","","","","","","","","{""Q0"":0}","[0]","","images/stimuli/spore_stims/complex_12_A_b.gif","images/stimuli/spore_stims/complex_09_A_a.gif"
"","2664.534999999916","survey-likert","151","480561","0.0-43.0","SS1618435645799","similarity_question","","","","","","","","","","","","{""Q0"":2}","[0]","","images/stimuli/spore_stims/complex_15_A_b.gif","images/stimuli/spore_stims/complex_13_A_a.gif"
"","6063.694999999832","survey-likert","152","486638","0.0-44.0","SS1618435645799","similarity_question","","","","","","","","","","","","{""Q0"":0}","[0]","","images/stimuli/spore_stims/complex_17_A_b.gif","images/stimuli/spore_stims/complex_03_A_a.gif"
"[{""page_index"":0,""viewing_time"":4601.700000000186}]","4602.180000000284","instructions","153","491251","0.0-45.0","SS1618435645799","instructions","","","","","","","","","","","","","","","",""
"","4371.2399999999325","survey-likert","154","495629","0.0-46.0","SS1618435645799","","","","","","","","","images/stimuli/spore_stims/complex_09_A_a.gif","","","","{""Q0"":5}","[0]","","",""
"","1966.1200000000536","survey-likert","155","497608","0.0-47.0","SS1618435645799","","","","","","","","","images/stimuli/spore_stims/complex_13_A_a.gif","","","","{""Q0"":5}","[0]","","",""
"","4233.199999999662","survey-likert","156","501854","0.0-48.0","SS1618435645799","","","","","","","","","images/stimuli/spore_stims/complex_06_A_b.gif","","","","{""Q0"":6}","[0]","","",""
"","3865.534999999916","survey-likert","157","505733","0.0-49.0","SS1618435645799","","","","","","","","","images/stimuli/spore_stims/complex_17_A_b.gif","","","","{""Q0"":4}","[0]","","",""
"","2413.895000000135","survey-likert","158","508165","0.0-50.0","SS1618435645799","","","","","","","","","images/stimuli/spore_stims/simple_02_A_b.gif","","","","{""Q0"":1}","[0]","","",""
"","2550.4000000000815","survey-likert","159","510728","0.0-51.0","SS1618435645799","","","","","","","","","images/stimuli/spore_stims/simple_15_A_b.gif","","","","{""Q0"":0}","[0]","","",""
"","3150.0750000000116","survey-likert","160","513891","0.0-52.0","SS1618435645799","","","","","","","","","images/stimuli/spore_stims/simple_02_A_a.gif","","","","{""Q0"":0}","[0]","","",""
"","2598.9399999998277","survey-likert","161","516503","0.0-53.0","SS1618435645799","","","","","","","","","images/stimuli/spore_stims/simple_11_A_b.gif","","","","{""Q0"":0}","[0]","","",""
"","3049.789999999979","survey-likert","162","519566","0.0-54.0","SS1618435645799","","","","","","","","","images/stimuli/spore_stims/complex_15_A_a.gif","","","","{""Q0"":5}","[0]","","",""
"","2434.960000000079","survey-likert","163","522014","0.0-55.0","SS1618435645799","","","","","","","","","images/stimuli/spore_stims/simple_08_A_a.gif","","","","{""Q0"":1}","[0]","","",""
"","1895.9400000002934","survey-likert","164","523923","0.0-56.0","SS1618435645799","","","","","","","","","images/stimuli/spore_stims/simple_04_A_b.gif","","","","{""Q0"":1}","[0]","","",""
"","6826.844999999972","survey-likert","165","530756","0.0-57.0","SS1618435645799","","","","","","","","","images/stimuli/spore_stims/complex_11_A_a.gif","","","","{""Q0"":5}","[0]","","",""
"[{""page_index"":0,""viewing_time"":1649.3000000000466}]","1649.9450000001816","instructions","166","532418","0.0-58.0","SS1618435645799","instructions","","","","","","","","","","","","","","","",""
"","2755.7000000001863","demog-age","167","535184","0.0-59.0","SS1618435645799","","","","","","","","","","","","","{""age"":""23""}","","","",""
"","4319.335000000196","demog-ethnic-US","168","539515","0.0-60.0","SS1618435645799","","","","","","","","","","","","","{""ethnicity"":[""White""]}","[0]","","",""
"","3807.229999999865","demog-gender-and-education","169","543336","0.0-61.0","SS1618435645799","","","","","","","","","","","","","{""gender"":""Male"",""education"":""Master's Degree""}","[0,1]","","",""
"","5426.9700000000885","survey-text","170","548779","0.0-62.0","SS1618435645799","feedback","","","","","","","","","","","","{""Q0"":""No""}","","","",""
"[{""page_index"":0,""viewing_time"":3296.0900000003166}]","3296.5100000001257","instructions","171","552081","0.0-63.0","SS1618435645799","instructions","","","","","","","","","","","","","","","",""
