"view_history","rt","trial_type","trial_index","time_elapsed","internal_node_id","subject","stimulus_type","trial_stimulus","key_press","minimum_viewing_duration","trial_looking_time","block_deviant","block_background","exposure_type","stimulus","block_number","block_type","stimulus_displayed","responses","question_order","math_correct_answer","stimulus_left","stimulus_right"
"[{""page_index"":0,""viewing_time"":63807.649999973364}]","63808.29499999527","instructions","0","63811","0.0-0.0","SS1618435633207","","","","","","","","","","","","","","","","",""
"[{""page_index"":0,""viewing_time"":12797.395000001416},{""page_index"":1,""viewing_time"":7214.745000004768}]","20012.40000000689","instructions","1","85826","0.0-1.0","SS1618435633207","instructions","","","","","","","","","","","","","","","",""
"","6733.729999978095","sequential-stimulus-presentation-old","2","93063","0.0-2.0","SS1618435633207","","","40","500","7233.729999978095","null","null","self_paced","","","","","","","","",""
"","3130.07000007201","sequential-stimulus-presentation-old","3","96696","0.0-3.0","SS1618435633207","","","40","500","3630.07000007201","null","null","self_paced","","","","","","","","",""
"[{""page_index"":0,""viewing_time"":49544.60500006098}]","49544.87500002142","instructions","4","146242","0.0-4.0","SS1618435633207","instructions","","","","","","","","","","","","","","","",""
"","1727.684999932535","sequential-stimulus-presentation-old","5","152974","0.0-5.0","SS1618435633207","","","40","500","2227.684999932535","null","null","forced_long","","","","","","","","",""
"","3657.134999986738","sequential-stimulus-presentation-old","6","156682","0.0-6.0","SS1618435633207","","","40","50","3707.134999986738","null","null","forced_long","","","","","","","","",""
"[{""page_index"":0,""viewing_time"":3143.15500005614}]","3143.4100000187755","instructions","7","159827","0.0-7.0","SS1618435633207","instructions","","","","","","","","","","","","","","","",""
"[{""page_index"":0,""viewing_time"":46942.45500001125},{""page_index"":1,""viewing_time"":7704.670000006445},{""page_index"":2,""viewing_time"":75319.73500002641},{""page_index"":3,""viewing_time"":2727.8149999910966},{""page_index"":4,""viewing_time"":832.1499999146909}]","133527.17500005383","instructions","8","293354","0.0-8.0","SS1618435633207","instructions","","","","","","","","","","","","","","","",""
"","null","html-keyboard-response","9","294588","0.0-9.0-0.0","SS1618435633207","","","null","","","","","","<p><img src= images/blank.png width =""600"" height = ""600"" style=""position:fixed;top:50%; left:50%; transform: translate(-50%, -50%); border:5px solid black"">","","","","","","","",""
"","410.29999998863786","sequential-stimulus-presentation-old","10","295061","0.0-9.0-1.0","SS1618435633207","trial","","40","500","910.2999999886379","images/stimuli/spore_stims/complex_12_A_b.gif","images/stimuli/spore_stims/complex_11_A_a.gif","forced_short","","0","complex_dissimilar","images/stimuli/spore_stims/complex_11_A_a.gif","","","","",""
"","null","html-keyboard-response","11","296078","0.0-9.0-0.1","SS1618435633207","","","null","","","","","","<p><img src= images/blank.png width =""600"" height = ""600"" style=""position:fixed;top:50%; left:50%; transform: translate(-50%, -50%); border:5px solid black"">","","","","","","","",""
"","2760.9250000678003","sequential-stimulus-presentation-old","12","299341","0.0-9.0-1.1","SS1618435633207","trial","","40","500","3260.9250000678003","images/stimuli/spore_stims/complex_12_A_b.gif","images/stimuli/spore_stims/complex_11_A_a.gif","forced_short","","0","complex_dissimilar","images/stimuli/spore_stims/complex_11_A_a.gif","","","","",""
"","null","html-keyboard-response","13","300210","0.0-9.0-0.2","SS1618435633207","","","null","","","","","","<p><img src= images/blank.png width =""600"" height = ""600"" style=""position:fixed;top:50%; left:50%; transform: translate(-50%, -50%); border:5px solid black"">","","","","","","","",""
"","2501.040000002831","sequential-stimulus-presentation-old","14","303223","0.0-9.0-1.2","SS1618435633207","trial","","40","500","3001.040000002831","images/stimuli/spore_stims/complex_12_A_b.gif","images/stimuli/spore_stims/complex_11_A_a.gif","forced_short","","0","complex_dissimilar","images/stimuli/spore_stims/complex_11_A_a.gif","","","","",""
"","null","html-keyboard-response","15","304312","0.0-9.0-0.3","SS1618435633207","","","null","","","","","","<p><img src= images/blank.png width =""600"" height = ""600"" style=""position:fixed;top:50%; left:50%; transform: translate(-50%, -50%); border:5px solid black"">","","","","","","","",""
"","3076.5449999598786","sequential-stimulus-presentation-old","16","307892","0.0-9.0-1.3","SS1618435633207","trial","","40","500","3576.5449999598786","images/stimuli/spore_stims/complex_12_A_b.gif","images/stimuli/spore_stims/complex_11_A_a.gif","forced_short","","0","complex_dissimilar","images/stimuli/spore_stims/complex_11_A_a.gif","","","","",""
"","5236.079999944195","survey-multi-choice","17","313130","0.0-10.0","SS1618435633207","math_question","","","","","","","","","","","","{""Q0"":""11""}","[0]","11","",""
"","null","html-keyboard-response","18","314047","0.0-11.0-0.0","SS1618435633207","","","null","","","","","","<p><img src= images/blank.png width =""600"" height = ""600"" style=""position:fixed;top:50%; left:50%; transform: translate(-50%, -50%); border:5px solid black"">","","","","","","","",""
"","3465.8000000054017","sequential-stimulus-presentation-old","19","318016","0.0-11.0-1.0","SS1618435633207","trial","","40","500","3965.8000000054017","images/stimuli/spore_stims/simple_14_A_b.gif","images/stimuli/spore_stims/simple_03_A_a.gif","self_paced","","1","simple_dissimilar","images/stimuli/spore_stims/simple_03_A_a.gif","","","","",""
"","null","html-keyboard-response","20","318859","0.0-11.0-0.1","SS1618435633207","","","null","","","","","","<p><img src= images/blank.png width =""600"" height = ""600"" style=""position:fixed;top:50%; left:50%; transform: translate(-50%, -50%); border:5px solid black"">","","","","","","","",""
"","1313.9299999456853","sequential-stimulus-presentation-old","21","320682","0.0-11.0-1.1","SS1618435633207","trial","","40","500","1813.9299999456853","images/stimuli/spore_stims/simple_14_A_b.gif","images/stimuli/spore_stims/simple_03_A_a.gif","self_paced","","1","simple_dissimilar","images/stimuli/spore_stims/simple_14_A_b.gif","","","","",""
"","null","html-keyboard-response","22","321937","0.0-11.0-0.2","SS1618435633207","","","null","","","","","","<p><img src= images/blank.png width =""600"" height = ""600"" style=""position:fixed;top:50%; left:50%; transform: translate(-50%, -50%); border:5px solid black"">","","","","","","","",""
"","4058.130000019446","sequential-stimulus-presentation-old","23","326498","0.0-11.0-1.2","SS1618435633207","trial","","40","500","4558.130000019446","images/stimuli/spore_stims/simple_14_A_b.gif","images/stimuli/spore_stims/simple_03_A_a.gif","self_paced","","1","simple_dissimilar","images/stimuli/spore_stims/simple_14_A_b.gif","","","","",""
"","null","html-keyboard-response","24","327678","0.0-11.0-0.3","SS1618435633207","","","null","","","","","","<p><img src= images/blank.png width =""600"" height = ""600"" style=""position:fixed;top:50%; left:50%; transform: translate(-50%, -50%); border:5px solid black"">","","","","","","","",""
"","3604.590000002645","sequential-stimulus-presentation-old","25","331786","0.0-11.0-1.3","SS1618435633207","trial","","40","500","4104.590000002645","images/stimuli/spore_stims/simple_14_A_b.gif","images/stimuli/spore_stims/simple_03_A_a.gif","self_paced","","1","simple_dissimilar","images/stimuli/spore_stims/simple_03_A_a.gif","","","","",""
"","4670.429999940097","survey-multi-choice","26","336458","0.0-12.0","SS1618435633207","math_question","","","","","","","","","","","","{""Q0"":""15""}","[0]","15","",""
"","null","html-keyboard-response","27","337681","0.0-13.0-0.0","SS1618435633207","","","null","","","","","","<p><img src= images/blank.png width =""600"" height = ""600"" style=""position:fixed;top:50%; left:50%; transform: translate(-50%, -50%); border:5px solid black"">","","","","","","","",""
"","691.3300000596792","sequential-stimulus-presentation-old","28","338435","0.0-13.0-1.0","SS1618435633207","trial","","40","500","1191.3300000596792","images/stimuli/spore_stims/simple_13_A_b.gif","images/stimuli/spore_stims/simple_15_A_a.gif","forced_short","","2","simple_dissimilar","images/stimuli/spore_stims/simple_15_A_a.gif","","","","",""
"","null","html-keyboard-response","29","339698","0.0-13.0-0.1","SS1618435633207","","","null","","","","","","<p><img src= images/blank.png width =""600"" height = ""600"" style=""position:fixed;top:50%; left:50%; transform: translate(-50%, -50%); border:5px solid black"">","","","","","","","",""
"","1967.4100000411272","sequential-stimulus-presentation-old","30","342182","0.0-13.0-1.1","SS1618435633207","trial","","40","500","2467.410000041127","images/stimuli/spore_stims/simple_13_A_b.gif","images/stimuli/spore_stims/simple_15_A_a.gif","forced_short","","2","simple_dissimilar","images/stimuli/spore_stims/simple_15_A_a.gif","","","","",""
"","null","html-keyboard-response","31","343347","0.0-13.0-0.2","SS1618435633207","","","null","","","","","","<p><img src= images/blank.png width =""600"" height = ""600"" style=""position:fixed;top:50%; left:50%; transform: translate(-50%, -50%); border:5px solid black"">","","","","","","","",""
"","3123.3500000089407","sequential-stimulus-presentation-old","32","346973","0.0-13.0-1.2","SS1618435633207","trial","","40","500","3623.3500000089407","images/stimuli/spore_stims/simple_13_A_b.gif","images/stimuli/spore_stims/simple_15_A_a.gif","forced_short","","2","simple_dissimilar","images/stimuli/spore_stims/simple_15_A_a.gif","","","","",""
"","null","html-keyboard-response","33","347984","0.0-13.0-0.3","SS1618435633207","","","null","","","","","","<p><img src= images/blank.png width =""600"" height = ""600"" style=""position:fixed;top:50%; left:50%; transform: translate(-50%, -50%); border:5px solid black"">","","","","","","","",""
"","915.3599999845028","sequential-stimulus-presentation-old","34","349403","0.0-13.0-1.3","SS1618435633207","trial","","40","500","1415.3599999845028","images/stimuli/spore_stims/simple_13_A_b.gif","images/stimuli/spore_stims/simple_15_A_a.gif","forced_short","","2","simple_dissimilar","images/stimuli/spore_stims/simple_15_A_a.gif","","","","",""
"","null","html-keyboard-response","35","350275","0.0-13.0-0.4","SS1618435633207","","","null","","","","","","<p><img src= images/blank.png width =""600"" height = ""600"" style=""position:fixed;top:50%; left:50%; transform: translate(-50%, -50%); border:5px solid black"">","","","","","","","",""
"","486.670000012964","sequential-stimulus-presentation-old","36","351265","0.0-13.0-1.4","SS1618435633207","trial","","40","500","986.670000012964","images/stimuli/spore_stims/simple_13_A_b.gif","images/stimuli/spore_stims/simple_15_A_a.gif","forced_short","","2","simple_dissimilar","images/stimuli/spore_stims/simple_15_A_a.gif","","","","",""
"","null","html-keyboard-response","37","352272","0.0-13.0-0.5","SS1618435633207","","","null","","","","","","<p><img src= images/blank.png width =""600"" height = ""600"" style=""position:fixed;top:50%; left:50%; transform: translate(-50%, -50%); border:5px solid black"">","","","","","","","",""
"","1419.9899999657646","sequential-stimulus-presentation-old","38","354196","0.0-13.0-1.5","SS1618435633207","trial","","40","500","1919.9899999657646","images/stimuli/spore_stims/simple_13_A_b.gif","images/stimuli/spore_stims/simple_15_A_a.gif","forced_short","","2","simple_dissimilar","images/stimuli/spore_stims/simple_13_A_b.gif","","","","",""
"","3204.505000030622","survey-multi-choice","39","357402","0.0-14.0","SS1618435633207","math_question","","","","","","","","","","","","{""Q0"":""9""}","[0]","9","",""
"","null","html-keyboard-response","40","358217","0.0-15.0-0.0","SS1618435633207","","","null","","","","","","<p><img src= images/blank.png width =""600"" height = ""600"" style=""position:fixed;top:50%; left:50%; transform: translate(-50%, -50%); border:5px solid black"">","","","","","","","",""
"","587.6699999207631","sequential-stimulus-presentation-old","41","363809","0.0-15.0-1.0","SS1618435633207","trial","","40","500","1087.669999920763","images/stimuli/spore_stims/complex_15_A_a.gif","images/stimuli/spore_stims/complex_16_A_b.gif","forced_long","","3","complex_dissimilar","images/stimuli/spore_stims/complex_16_A_b.gif","","","","",""
"","null","html-keyboard-response","42","364621","0.0-15.0-0.1","SS1618435633207","","","null","","","","","","<p><img src= images/blank.png width =""600"" height = ""600"" style=""position:fixed;top:50%; left:50%; transform: translate(-50%, -50%); border:5px solid black"">","","","","","","","",""
"","3708.654999965802","sequential-stimulus-presentation-old","43","368832","0.0-15.0-1.1","SS1618435633207","trial","","40","500","4208.654999965802","images/stimuli/spore_stims/complex_15_A_a.gif","images/stimuli/spore_stims/complex_16_A_b.gif","forced_long","","3","complex_dissimilar","images/stimuli/spore_stims/complex_15_A_a.gif","","","","",""
"","null","html-keyboard-response","44","369885","0.0-15.0-0.2","SS1618435633207","","","null","","","","","","<p><img src= images/blank.png width =""600"" height = ""600"" style=""position:fixed;top:50%; left:50%; transform: translate(-50%, -50%); border:5px solid black"">","","","","","","","",""
"","1652.2300000069663","sequential-stimulus-presentation-old","45","372040","0.0-15.0-1.2","SS1618435633207","trial","","40","500","2152.2300000069663","images/stimuli/spore_stims/complex_15_A_a.gif","images/stimuli/spore_stims/complex_16_A_b.gif","forced_long","","3","complex_dissimilar","images/stimuli/spore_stims/complex_16_A_b.gif","","","","",""
"","null","html-keyboard-response","46","373064","0.0-15.0-0.3","SS1618435633207","","","null","","","","","","<p><img src= images/blank.png width =""600"" height = ""600"" style=""position:fixed;top:50%; left:50%; transform: translate(-50%, -50%); border:5px solid black"">","","","","","","","",""
"","2915.764999925159","sequential-stimulus-presentation-old","47","376484","0.0-15.0-1.3","SS1618435633207","trial","","40","500","3415.764999925159","images/stimuli/spore_stims/complex_15_A_a.gif","images/stimuli/spore_stims/complex_16_A_b.gif","forced_long","","3","complex_dissimilar","images/stimuli/spore_stims/complex_16_A_b.gif","","","","",""
"","null","html-keyboard-response","48","377304","0.0-15.0-0.4","SS1618435633207","","","null","","","","","","<p><img src= images/blank.png width =""600"" height = ""600"" style=""position:fixed;top:50%; left:50%; transform: translate(-50%, -50%); border:5px solid black"">","","","","","","","",""
"","1330.519999959506","sequential-stimulus-presentation-old","49","379138","0.0-15.0-1.4","SS1618435633207","trial","","40","500","1830.519999959506","images/stimuli/spore_stims/complex_15_A_a.gif","images/stimuli/spore_stims/complex_16_A_b.gif","forced_long","","3","complex_dissimilar","images/stimuli/spore_stims/complex_16_A_b.gif","","","","",""
"","null","html-keyboard-response","50","380407","0.0-15.0-0.5","SS1618435633207","","","null","","","","","","<p><img src= images/blank.png width =""600"" height = ""600"" style=""position:fixed;top:50%; left:50%; transform: translate(-50%, -50%); border:5px solid black"">","","","","","","","",""
"","690.3350000502542","sequential-stimulus-presentation-old","51","381601","0.0-15.0-1.5","SS1618435633207","trial","","40","500","1190.3350000502542","images/stimuli/spore_stims/complex_15_A_a.gif","images/stimuli/spore_stims/complex_16_A_b.gif","forced_long","","3","complex_dissimilar","images/stimuli/spore_stims/complex_16_A_b.gif","","","","",""
"","5630.924999946728","survey-multi-choice","52","387234","0.0-16.0","SS1618435633207","math_question","","","","","","","","","","","","{""Q0"":""13""}","[0]","13","",""
"","null","html-keyboard-response","53","388208","0.0-17.0-0.0","SS1618435633207","","","null","","","","","","<p><img src= images/blank.png width =""600"" height = ""600"" style=""position:fixed;top:50%; left:50%; transform: translate(-50%, -50%); border:5px solid black"">","","","","","","","",""
"","2856.1749999644235","sequential-stimulus-presentation-old","54","391568","0.0-17.0-1.0","SS1618435633207","trial","","40","500","3356.1749999644235","images/stimuli/spore_stims/complex_13_A_a.gif","images/stimuli/spore_stims/complex_04_A_b.gif","self_paced","","4","complex_dissimilar","images/stimuli/spore_stims/complex_04_A_b.gif","","","","",""
"","null","html-keyboard-response","55","392577","0.0-17.0-0.1","SS1618435633207","","","null","","","","","","<p><img src= images/blank.png width =""600"" height = ""600"" style=""position:fixed;top:50%; left:50%; transform: translate(-50%, -50%); border:5px solid black"">","","","","","","","",""
"","1356.4199999673292","sequential-stimulus-presentation-old","56","394436","0.0-17.0-1.1","SS1618435633207","trial","","40","500","1856.4199999673292","images/stimuli/spore_stims/complex_13_A_a.gif","images/stimuli/spore_stims/complex_04_A_b.gif","self_paced","","4","complex_dissimilar","images/stimuli/spore_stims/complex_04_A_b.gif","","","","",""
"","null","html-keyboard-response","57","395636","0.0-17.0-0.2","SS1618435633207","","","null","","","","","","<p><img src= images/blank.png width =""600"" height = ""600"" style=""position:fixed;top:50%; left:50%; transform: translate(-50%, -50%); border:5px solid black"">","","","","","","","",""
"","181.34999996982515","sequential-stimulus-presentation-old","58","396321","0.0-17.0-1.2","SS1618435633207","trial","","40","500","681.3499999698251","images/stimuli/spore_stims/complex_13_A_a.gif","images/stimuli/spore_stims/complex_04_A_b.gif","self_paced","","4","complex_dissimilar","images/stimuli/spore_stims/complex_04_A_b.gif","","","","",""
"","null","html-keyboard-response","59","397480","0.0-17.0-0.3","SS1618435633207","","","null","","","","","","<p><img src= images/blank.png width =""600"" height = ""600"" style=""position:fixed;top:50%; left:50%; transform: translate(-50%, -50%); border:5px solid black"">","","","","","","","",""
"","1347.6650000084192","sequential-stimulus-presentation-old","60","399331","0.0-17.0-1.3","SS1618435633207","trial","","40","500","1847.6650000084192","images/stimuli/spore_stims/complex_13_A_a.gif","images/stimuli/spore_stims/complex_04_A_b.gif","self_paced","","4","complex_dissimilar","images/stimuli/spore_stims/complex_04_A_b.gif","","","","",""
"","null","html-keyboard-response","61","400415","0.0-17.0-0.4","SS1618435633207","","","null","","","","","","<p><img src= images/blank.png width =""600"" height = ""600"" style=""position:fixed;top:50%; left:50%; transform: translate(-50%, -50%); border:5px solid black"">","","","","","","","",""
"","1316.5599999483675","sequential-stimulus-presentation-old","62","402235","0.0-17.0-1.4","SS1618435633207","trial","","40","500","1816.5599999483675","images/stimuli/spore_stims/complex_13_A_a.gif","images/stimuli/spore_stims/complex_04_A_b.gif","self_paced","","4","complex_dissimilar","images/stimuli/spore_stims/complex_04_A_b.gif","","","","",""
"","2693.3849999913946","survey-multi-choice","63","404930","0.0-18.0","SS1618435633207","math_question","","","","","","","","","","","","{""Q0"":""6""}","[0]","6","",""
"","null","html-keyboard-response","64","405834","0.0-19.0-0.0","SS1618435633207","","","null","","","","","","<p><img src= images/blank.png width =""600"" height = ""600"" style=""position:fixed;top:50%; left:50%; transform: translate(-50%, -50%); border:5px solid black"">","","","","","","","",""
"","6915.3849999420345","sequential-stimulus-presentation-old","65","417758","0.0-19.0-1.0","SS1618435633207","trial","","40","500","7415.3849999420345","images/stimuli/spore_stims/simple_18_A_a.gif","images/stimuli/spore_stims/simple_10_A_b.gif","forced_long","","5","simple_dissimilar","images/stimuli/spore_stims/simple_10_A_b.gif","","","","",""
"","null","html-keyboard-response","66","418967","0.0-19.0-0.1","SS1618435633207","","","null","","","","","","<p><img src= images/blank.png width =""600"" height = ""600"" style=""position:fixed;top:50%; left:50%; transform: translate(-50%, -50%); border:5px solid black"">","","","","","","","",""
"","1316.2800000282004","sequential-stimulus-presentation-old","67","420785","0.0-19.0-1.1","SS1618435633207","trial","","40","500","1816.2800000282004","images/stimuli/spore_stims/simple_18_A_a.gif","images/stimuli/spore_stims/simple_10_A_b.gif","forced_long","","5","simple_dissimilar","images/stimuli/spore_stims/simple_10_A_b.gif","","","","",""
"","null","html-keyboard-response","68","421650","0.0-19.0-0.2","SS1618435633207","","","null","","","","","","<p><img src= images/blank.png width =""600"" height = ""600"" style=""position:fixed;top:50%; left:50%; transform: translate(-50%, -50%); border:5px solid black"">","","","","","","","",""
"","1804.494999931194","sequential-stimulus-presentation-old","69","423958","0.0-19.0-1.2","SS1618435633207","trial","","40","500","2304.494999931194","images/stimuli/spore_stims/simple_18_A_a.gif","images/stimuli/spore_stims/simple_10_A_b.gif","forced_long","","5","simple_dissimilar","images/stimuli/spore_stims/simple_10_A_b.gif","","","","",""
"","null","html-keyboard-response","70","425049","0.0-19.0-0.3","SS1618435633207","","","null","","","","","","<p><img src= images/blank.png width =""600"" height = ""600"" style=""position:fixed;top:50%; left:50%; transform: translate(-50%, -50%); border:5px solid black"">","","","","","","","",""
"","2454.9150000093505","sequential-stimulus-presentation-old","71","428008","0.0-19.0-1.3","SS1618435633207","trial","","40","500","2954.9150000093505","images/stimuli/spore_stims/simple_18_A_a.gif","images/stimuli/spore_stims/simple_10_A_b.gif","forced_long","","5","simple_dissimilar","images/stimuli/spore_stims/simple_18_A_a.gif","","","","",""
"","null","html-keyboard-response","72","429193","0.0-19.0-0.4","SS1618435633207","","","null","","","","","","<p><img src= images/blank.png width =""600"" height = ""600"" style=""position:fixed;top:50%; left:50%; transform: translate(-50%, -50%); border:5px solid black"">","","","","","","","",""
"","1415.2150000445545","sequential-stimulus-presentation-old","73","431111","0.0-19.0-1.4","SS1618435633207","trial","","40","500","1915.2150000445545","images/stimuli/spore_stims/simple_18_A_a.gif","images/stimuli/spore_stims/simple_10_A_b.gif","forced_long","","5","simple_dissimilar","images/stimuli/spore_stims/simple_10_A_b.gif","","","","",""
"","3272.85499998834","survey-multi-choice","74","434386","0.0-20.0","SS1618435633207","math_question","","","","","","","","","","","","{""Q0"":""12""}","[0]","12","",""
"","null","html-keyboard-response","75","435458","0.0-21.0-0.0","SS1618435633207","","","null","","","","","","<p><img src= images/blank.png width =""600"" height = ""600"" style=""position:fixed;top:50%; left:50%; transform: translate(-50%, -50%); border:5px solid black"">","","","","","","","",""
"","3655.754999956116","sequential-stimulus-presentation-old","76","444117","0.0-21.0-1.0","SS1618435633207","trial","","40","500","4155.754999956116","images/stimuli/spore_stims/simple_02_A_a.gif","images/stimuli/spore_stims/simple_11_A_b.gif","forced_long","","6","simple_dissimilar","images/stimuli/spore_stims/simple_11_A_b.gif","","","","",""
"","null","html-keyboard-response","77","445144","0.0-21.0-0.1","SS1618435633207","","","null","","","","","","<p><img src= images/blank.png width =""600"" height = ""600"" style=""position:fixed;top:50%; left:50%; transform: translate(-50%, -50%); border:5px solid black"">","","","","","","","",""
"","921.5199999744073","sequential-stimulus-presentation-old","78","446581","0.0-21.0-1.1","SS1618435633207","trial","","40","500","1421.5199999744073","images/stimuli/spore_stims/simple_02_A_a.gif","images/stimuli/spore_stims/simple_11_A_b.gif","forced_long","","6","simple_dissimilar","images/stimuli/spore_stims/simple_11_A_b.gif","","","","",""
"","null","html-keyboard-response","79","447701","0.0-21.0-0.2","SS1618435633207","","","null","","","","","","<p><img src= images/blank.png width =""600"" height = ""600"" style=""position:fixed;top:50%; left:50%; transform: translate(-50%, -50%); border:5px solid black"">","","","","","","","",""
"","608.3449999568984","sequential-stimulus-presentation-old","80","448825","0.0-21.0-1.2","SS1618435633207","trial","","40","500","1108.3449999568984","images/stimuli/spore_stims/simple_02_A_a.gif","images/stimuli/spore_stims/simple_11_A_b.gif","forced_long","","6","simple_dissimilar","images/stimuli/spore_stims/simple_11_A_b.gif","","","","",""
"","null","html-keyboard-response","81","450027","0.0-21.0-0.3","SS1618435633207","","","null","","","","","","<p><img src= images/blank.png width =""600"" height = ""600"" style=""position:fixed;top:50%; left:50%; transform: translate(-50%, -50%); border:5px solid black"">","","","","","","","",""
"","1827.9900000197813","sequential-stimulus-presentation-old","82","452364","0.0-21.0-1.3","SS1618435633207","trial","","40","500","2327.9900000197813","images/stimuli/spore_stims/simple_02_A_a.gif","images/stimuli/spore_stims/simple_11_A_b.gif","forced_long","","6","simple_dissimilar","images/stimuli/spore_stims/simple_11_A_b.gif","","","","",""
"","null","html-keyboard-response","83","453350","0.0-21.0-0.4","SS1618435633207","","","null","","","","","","<p><img src= images/blank.png width =""600"" height = ""600"" style=""position:fixed;top:50%; left:50%; transform: translate(-50%, -50%); border:5px solid black"">","","","","","","","",""
"","1808.4299999754876","sequential-stimulus-presentation-old","84","455671","0.0-21.0-1.4","SS1618435633207","trial","","40","500","2308.4299999754876","images/stimuli/spore_stims/simple_02_A_a.gif","images/stimuli/spore_stims/simple_11_A_b.gif","forced_long","","6","simple_dissimilar","images/stimuli/spore_stims/simple_02_A_a.gif","","","","",""
"","null","html-keyboard-response","85","456666","0.0-21.0-0.5","SS1618435633207","","","null","","","","","","<p><img src= images/blank.png width =""600"" height = ""600"" style=""position:fixed;top:50%; left:50%; transform: translate(-50%, -50%); border:5px solid black"">","","","","","","","",""
"","1259.459999972023","sequential-stimulus-presentation-old","86","458439","0.0-21.0-1.5","SS1618435633207","trial","","40","500","1759.459999972023","images/stimuli/spore_stims/simple_02_A_a.gif","images/stimuli/spore_stims/simple_11_A_b.gif","forced_long","","6","simple_dissimilar","images/stimuli/spore_stims/simple_02_A_a.gif","","","","",""
"","30553.6200000206","survey-multi-choice","87","488994","0.0-22.0","SS1618435633207","math_question","","","","","","","","","","","","{""Q0"":""16""}","[0]","16","",""
"","null","html-keyboard-response","88","489873","0.0-23.0-0.0","SS1618435633207","","","null","","","","","","<p><img src= images/blank.png width =""600"" height = ""600"" style=""position:fixed;top:50%; left:50%; transform: translate(-50%, -50%); border:5px solid black"">","","","","","","","",""
"","5356.840000022203","sequential-stimulus-presentation-old","89","500234","0.0-23.0-1.0","SS1618435633207","trial","","40","500","5856.840000022203","images/stimuli/spore_stims/complex_14_A_b.gif","images/stimuli/spore_stims/complex_06_A_a.gif","forced_long","","7","complex_dissimilar","images/stimuli/spore_stims/complex_06_A_a.gif","","","","",""
"","null","html-keyboard-response","90","501376","0.0-23.0-0.1","SS1618435633207","","","null","","","","","","<p><img src= images/blank.png width =""600"" height = ""600"" style=""position:fixed;top:50%; left:50%; transform: translate(-50%, -50%); border:5px solid black"">","","","","","","","",""
"","418.18500007502735","sequential-stimulus-presentation-old","91","502307","0.0-23.0-1.1","SS1618435633207","trial","","40","500","918.1850000750273","images/stimuli/spore_stims/complex_14_A_b.gif","images/stimuli/spore_stims/complex_06_A_a.gif","forced_long","","7","complex_dissimilar","images/stimuli/spore_stims/complex_06_A_a.gif","","","","",""
"","null","html-keyboard-response","92","503307","0.0-23.0-0.2","SS1618435633207","","","null","","","","","","<p><img src= images/blank.png width =""600"" height = ""600"" style=""position:fixed;top:50%; left:50%; transform: translate(-50%, -50%); border:5px solid black"">","","","","","","","",""
"","184.3850000295788","sequential-stimulus-presentation-old","93","503994","0.0-23.0-1.2","SS1618435633207","trial","","40","500","684.3850000295788","images/stimuli/spore_stims/complex_14_A_b.gif","images/stimuli/spore_stims/complex_06_A_a.gif","forced_long","","7","complex_dissimilar","images/stimuli/spore_stims/complex_06_A_a.gif","","","","",""
"","null","html-keyboard-response","94","504959","0.0-23.0-0.3","SS1618435633207","","","null","","","","","","<p><img src= images/blank.png width =""600"" height = ""600"" style=""position:fixed;top:50%; left:50%; transform: translate(-50%, -50%); border:5px solid black"">","","","","","","","",""
"","1199.9549999600276","sequential-stimulus-presentation-old","95","506667","0.0-23.0-1.3","SS1618435633207","trial","","40","500","1699.9549999600276","images/stimuli/spore_stims/complex_14_A_b.gif","images/stimuli/spore_stims/complex_06_A_a.gif","forced_long","","7","complex_dissimilar","images/stimuli/spore_stims/complex_06_A_a.gif","","","","",""
"","null","html-keyboard-response","96","507884","0.0-23.0-0.4","SS1618435633207","","","null","","","","","","<p><img src= images/blank.png width =""600"" height = ""600"" style=""position:fixed;top:50%; left:50%; transform: translate(-50%, -50%); border:5px solid black"">","","","","","","","",""
"","3116.605000104755","sequential-stimulus-presentation-old","97","511505","0.0-23.0-1.4","SS1618435633207","trial","","40","500","3616.605000104755","images/stimuli/spore_stims/complex_14_A_b.gif","images/stimuli/spore_stims/complex_06_A_a.gif","forced_long","","7","complex_dissimilar","images/stimuli/spore_stims/complex_14_A_b.gif","","","","",""
"","null","html-keyboard-response","98","512593","0.0-23.0-0.5","SS1618435633207","","","null","","","","","","<p><img src= images/blank.png width =""600"" height = ""600"" style=""position:fixed;top:50%; left:50%; transform: translate(-50%, -50%); border:5px solid black"">","","","","","","","",""
"","3762.5499999849126","sequential-stimulus-presentation-old","99","516860","0.0-23.0-1.5","SS1618435633207","trial","","40","500","4262.549999984913","images/stimuli/spore_stims/complex_14_A_b.gif","images/stimuli/spore_stims/complex_06_A_a.gif","forced_long","","7","complex_dissimilar","images/stimuli/spore_stims/complex_06_A_a.gif","","","","",""
"","8468.05000002496","survey-multi-choice","100","525329","0.0-24.0","SS1618435633207","math_question","","","","","","","","","","","","{""Q0"":""10""}","[0]","10","",""
"","null","html-keyboard-response","101","526356","0.0-25.0-0.0","SS1618435633207","","","null","","","","","","<p><img src= images/blank.png width =""600"" height = ""600"" style=""position:fixed;top:50%; left:50%; transform: translate(-50%, -50%); border:5px solid black"">","","","","","","","",""
"","1722.5800000596792","sequential-stimulus-presentation-old","102","528581","0.0-25.0-1.0","SS1618435633207","trial","","40","500","2222.580000059679","images/stimuli/spore_stims/complex_10_A_a.gif","images/stimuli/spore_stims/complex_09_A_b.gif","self_paced","","8","complex_dissimilar","images/stimuli/spore_stims/complex_09_A_b.gif","","","","",""
"","null","html-keyboard-response","103","529424","0.0-25.0-0.1","SS1618435633207","","","null","","","","","","<p><img src= images/blank.png width =""600"" height = ""600"" style=""position:fixed;top:50%; left:50%; transform: translate(-50%, -50%); border:5px solid black"">","","","","","","","",""
"","3215.444999979809","sequential-stimulus-presentation-old","104","533143","0.0-25.0-1.1","SS1618435633207","trial","","40","500","3715.444999979809","images/stimuli/spore_stims/complex_10_A_a.gif","images/stimuli/spore_stims/complex_09_A_b.gif","self_paced","","8","complex_dissimilar","images/stimuli/spore_stims/complex_09_A_b.gif","","","","",""
"","null","html-keyboard-response","105","534128","0.0-25.0-0.2","SS1618435633207","","","null","","","","","","<p><img src= images/blank.png width =""600"" height = ""600"" style=""position:fixed;top:50%; left:50%; transform: translate(-50%, -50%); border:5px solid black"">","","","","","","","",""
"","3562.664999975823","sequential-stimulus-presentation-old","106","538194","0.0-25.0-1.2","SS1618435633207","trial","","40","500","4062.664999975823","images/stimuli/spore_stims/complex_10_A_a.gif","images/stimuli/spore_stims/complex_09_A_b.gif","self_paced","","8","complex_dissimilar","images/stimuli/spore_stims/complex_09_A_b.gif","","","","",""
"","null","html-keyboard-response","107","539464","0.0-25.0-0.3","SS1618435633207","","","null","","","","","","<p><img src= images/blank.png width =""600"" height = ""600"" style=""position:fixed;top:50%; left:50%; transform: translate(-50%, -50%); border:5px solid black"">","","","","","","","",""
"","4735.300000058487","sequential-stimulus-presentation-old","108","544704","0.0-25.0-1.3","SS1618435633207","trial","","40","500","5235.300000058487","images/stimuli/spore_stims/complex_10_A_a.gif","images/stimuli/spore_stims/complex_09_A_b.gif","self_paced","","8","complex_dissimilar","images/stimuli/spore_stims/complex_09_A_b.gif","","","","",""
"","null","html-keyboard-response","109","545713","0.0-25.0-0.4","SS1618435633207","","","null","","","","","","<p><img src= images/blank.png width =""600"" height = ""600"" style=""position:fixed;top:50%; left:50%; transform: translate(-50%, -50%); border:5px solid black"">","","","","","","","",""
"","3571.974999969825","sequential-stimulus-presentation-old","110","549800","0.0-25.0-1.4","SS1618435633207","trial","","40","500","4071.974999969825","images/stimuli/spore_stims/complex_10_A_a.gif","images/stimuli/spore_stims/complex_09_A_b.gif","self_paced","","8","complex_dissimilar","images/stimuli/spore_stims/complex_10_A_a.gif","","","","",""
"","2496.2750000413507","survey-multi-choice","111","552298","0.0-26.0","SS1618435633207","math_question","","","","","","","","","","","","{""Q0"":""12""}","[0]","12","",""
"","null","html-keyboard-response","112","553571","0.0-27.0-0.0","SS1618435633207","","","null","","","","","","<p><img src= images/blank.png width =""600"" height = ""600"" style=""position:fixed;top:50%; left:50%; transform: translate(-50%, -50%); border:5px solid black"">","","","","","","","",""
"","5670.5400000792","sequential-stimulus-presentation-old","113","559295","0.0-27.0-1.0","SS1618435633207","trial","","40","500","6170.5400000792","images/stimuli/spore_stims/complex_09_A_a.gif","images/stimuli/spore_stims/complex_01_A_b.gif","forced_short","","9","complex_dissimilar","images/stimuli/spore_stims/complex_01_A_b.gif","","","","",""
"","null","html-keyboard-response","114","560519","0.0-27.0-0.1","SS1618435633207","","","null","","","","","","<p><img src= images/blank.png width =""600"" height = ""600"" style=""position:fixed;top:50%; left:50%; transform: translate(-50%, -50%); border:5px solid black"">","","","","","","","",""
"","2703.2700000563636","sequential-stimulus-presentation-old","115","563728","0.0-27.0-1.1","SS1618435633207","trial","","40","500","3203.2700000563636","images/stimuli/spore_stims/complex_09_A_a.gif","images/stimuli/spore_stims/complex_01_A_b.gif","forced_short","","9","complex_dissimilar","images/stimuli/spore_stims/complex_01_A_b.gif","","","","",""
"","null","html-keyboard-response","116","564945","0.0-27.0-0.2","SS1618435633207","","","null","","","","","","<p><img src= images/blank.png width =""600"" height = ""600"" style=""position:fixed;top:50%; left:50%; transform: translate(-50%, -50%); border:5px solid black"">","","","","","","","",""
"","2036.1149999080226","sequential-stimulus-presentation-old","117","567485","0.0-27.0-1.2","SS1618435633207","trial","","40","500","2536.1149999080226","images/stimuli/spore_stims/complex_09_A_a.gif","images/stimuli/spore_stims/complex_01_A_b.gif","forced_short","","9","complex_dissimilar","images/stimuli/spore_stims/complex_01_A_b.gif","","","","",""
"","null","html-keyboard-response","118","568694","0.0-27.0-0.3","SS1618435633207","","","null","","","","","","<p><img src= images/blank.png width =""600"" height = ""600"" style=""position:fixed;top:50%; left:50%; transform: translate(-50%, -50%); border:5px solid black"">","","","","","","","",""
"","11122.199999983422","sequential-stimulus-presentation-old","119","580320","0.0-27.0-1.3","SS1618435633207","trial","","40","500","11622.199999983422","images/stimuli/spore_stims/complex_09_A_a.gif","images/stimuli/spore_stims/complex_01_A_b.gif","forced_short","","9","complex_dissimilar","images/stimuli/spore_stims/complex_01_A_b.gif","","","","",""
"","null","html-keyboard-response","120","581185","0.0-27.0-0.4","SS1618435633207","","","null","","","","","","<p><img src= images/blank.png width =""600"" height = ""600"" style=""position:fixed;top:50%; left:50%; transform: translate(-50%, -50%); border:5px solid black"">","","","","","","","",""
"","1773.0299999238923","sequential-stimulus-presentation-old","121","583471","0.0-27.0-1.4","SS1618435633207","trial","","40","500","2273.0299999238923","images/stimuli/spore_stims/complex_09_A_a.gif","images/stimuli/spore_stims/complex_01_A_b.gif","forced_short","","9","complex_dissimilar","images/stimuli/spore_stims/complex_01_A_b.gif","","","","",""
"","null","html-keyboard-response","122","584473","0.0-27.0-0.5","SS1618435633207","","","null","","","","","","<p><img src= images/blank.png width =""600"" height = ""600"" style=""position:fixed;top:50%; left:50%; transform: translate(-50%, -50%); border:5px solid black"">","","","","","","","",""
"","2036.4199999021366","sequential-stimulus-presentation-old","123","587014","0.0-27.0-1.5","SS1618435633207","trial","","40","500","2536.4199999021366","images/stimuli/spore_stims/complex_09_A_a.gif","images/stimuli/spore_stims/complex_01_A_b.gif","forced_short","","9","complex_dissimilar","images/stimuli/spore_stims/complex_01_A_b.gif","","","","",""
"","2408.889999962412","survey-multi-choice","124","589425","0.0-28.0","SS1618435633207","math_question","","","","","","","","","","","","{""Q0"":""11""}","[0]","11","",""
"","null","html-keyboard-response","125","590675","0.0-29.0-0.0","SS1618435633207","","","null","","","","","","<p><img src= images/blank.png width =""600"" height = ""600"" style=""position:fixed;top:50%; left:50%; transform: translate(-50%, -50%); border:5px solid black"">","","","","","","","",""
"","21839.29499995429","sequential-stimulus-presentation-old","126","613018","0.0-29.0-1.0","SS1618435633207","trial","","40","500","22339.29499995429","images/stimuli/spore_stims/simple_20_A_a.gif","images/stimuli/spore_stims/simple_08_A_b.gif","self_paced","","10","simple_dissimilar","images/stimuli/spore_stims/simple_08_A_b.gif","","","","",""
"","null","html-keyboard-response","127","614281","0.0-29.0-0.1","SS1618435633207","","","null","","","","","","<p><img src= images/blank.png width =""600"" height = ""600"" style=""position:fixed;top:50%; left:50%; transform: translate(-50%, -50%); border:5px solid black"">","","","","","","","",""
"","478.1550000188872","sequential-stimulus-presentation-old","128","615263","0.0-29.0-1.1","SS1618435633207","trial","","40","500","978.1550000188872","images/stimuli/spore_stims/simple_20_A_a.gif","images/stimuli/spore_stims/simple_08_A_b.gif","self_paced","","10","simple_dissimilar","images/stimuli/spore_stims/simple_08_A_b.gif","","","","",""
"","null","html-keyboard-response","129","616192","0.0-29.0-0.2","SS1618435633207","","","null","","","","","","<p><img src= images/blank.png width =""600"" height = ""600"" style=""position:fixed;top:50%; left:50%; transform: translate(-50%, -50%); border:5px solid black"">","","","","","","","",""
"","2034.540000022389","sequential-stimulus-presentation-old","130","618740","0.0-29.0-1.2","SS1618435633207","trial","","40","500","2534.540000022389","images/stimuli/spore_stims/simple_20_A_a.gif","images/stimuli/spore_stims/simple_08_A_b.gif","self_paced","","10","simple_dissimilar","images/stimuli/spore_stims/simple_08_A_b.gif","","","","",""
"","null","html-keyboard-response","131","620030","0.0-29.0-0.3","SS1618435633207","","","null","","","","","","<p><img src= images/blank.png width =""600"" height = ""600"" style=""position:fixed;top:50%; left:50%; transform: translate(-50%, -50%); border:5px solid black"">","","","","","","","",""
"","1285.329999984242","sequential-stimulus-presentation-old","132","621821","0.0-29.0-1.3","SS1618435633207","trial","","40","500","1785.329999984242","images/stimuli/spore_stims/simple_20_A_a.gif","images/stimuli/spore_stims/simple_08_A_b.gif","self_paced","","10","simple_dissimilar","images/stimuli/spore_stims/simple_08_A_b.gif","","","","",""
"","null","html-keyboard-response","133","622727","0.0-29.0-0.4","SS1618435633207","","","null","","","","","","<p><img src= images/blank.png width =""600"" height = ""600"" style=""position:fixed;top:50%; left:50%; transform: translate(-50%, -50%); border:5px solid black"">","","","","","","","",""
"","1303.2949999906123","sequential-stimulus-presentation-old","134","624534","0.0-29.0-1.4","SS1618435633207","trial","","40","500","1803.2949999906123","images/stimuli/spore_stims/simple_20_A_a.gif","images/stimuli/spore_stims/simple_08_A_b.gif","self_paced","","10","simple_dissimilar","images/stimuli/spore_stims/simple_08_A_b.gif","","","","",""
"","null","html-keyboard-response","135","625674","0.0-29.0-0.5","SS1618435633207","","","null","","","","","","<p><img src= images/blank.png width =""600"" height = ""600"" style=""position:fixed;top:50%; left:50%; transform: translate(-50%, -50%); border:5px solid black"">","","","","","","","",""
"","1190.4399999184534","sequential-stimulus-presentation-old","136","627378","0.0-29.0-1.5","SS1618435633207","trial","","40","500","1690.4399999184534","images/stimuli/spore_stims/simple_20_A_a.gif","images/stimuli/spore_stims/simple_08_A_b.gif","self_paced","","10","simple_dissimilar","images/stimuli/spore_stims/simple_08_A_b.gif","","","","",""
"","5868.969999952242","survey-multi-choice","137","633250","0.0-30.0","SS1618435633207","math_question","","","","","","","","","","","","{""Q0"":""16""}","[0]","16","",""
"","null","html-keyboard-response","138","634258","0.0-31.0-0.0","SS1618435633207","","","null","","","","","","<p><img src= images/blank.png width =""600"" height = ""600"" style=""position:fixed;top:50%; left:50%; transform: translate(-50%, -50%); border:5px solid black"">","","","","","","","",""
"","446.7549999244511","sequential-stimulus-presentation-old","139","634759","0.0-31.0-1.0","SS1618435633207","trial","","40","500","946.7549999244511","images/stimuli/spore_stims/simple_18_A_b.gif","images/stimuli/spore_stims/simple_09_A_a.gif","forced_short","","11","simple_dissimilar","images/stimuli/spore_stims/simple_09_A_a.gif","","","","",""
"","null","html-keyboard-response","140","635812","0.0-31.0-0.1","SS1618435633207","","","null","","","","","","<p><img src= images/blank.png width =""600"" height = ""600"" style=""position:fixed;top:50%; left:50%; transform: translate(-50%, -50%); border:5px solid black"">","","","","","","","",""
"","1469.135000021197","sequential-stimulus-presentation-old","141","637797","0.0-31.0-1.1","SS1618435633207","trial","","40","500","1969.135000021197","images/stimuli/spore_stims/simple_18_A_b.gif","images/stimuli/spore_stims/simple_09_A_a.gif","forced_short","","11","simple_dissimilar","images/stimuli/spore_stims/simple_18_A_b.gif","","","","",""
"","null","html-keyboard-response","142","638787","0.0-31.0-0.2","SS1618435633207","","","null","","","","","","<p><img src= images/blank.png width =""600"" height = ""600"" style=""position:fixed;top:50%; left:50%; transform: translate(-50%, -50%); border:5px solid black"">","","","","","","","",""
"","1768.415000056848","sequential-stimulus-presentation-old","143","641058","0.0-31.0-1.2","SS1618435633207","trial","","40","500","2268.415000056848","images/stimuli/spore_stims/simple_18_A_b.gif","images/stimuli/spore_stims/simple_09_A_a.gif","forced_short","","11","simple_dissimilar","images/stimuli/spore_stims/simple_09_A_a.gif","","","","",""
"","null","html-keyboard-response","144","642062","0.0-31.0-0.3","SS1618435633207","","","null","","","","","","<p><img src= images/blank.png width =""600"" height = ""600"" style=""position:fixed;top:50%; left:50%; transform: translate(-50%, -50%); border:5px solid black"">","","","","","","","",""
"","1563.8099999632686","sequential-stimulus-presentation-old","145","644130","0.0-31.0-1.3","SS1618435633207","trial","","40","500","2063.8099999632686","images/stimuli/spore_stims/simple_18_A_b.gif","images/stimuli/spore_stims/simple_09_A_a.gif","forced_short","","11","simple_dissimilar","images/stimuli/spore_stims/simple_09_A_a.gif","","","","",""
"","null","html-keyboard-response","146","645229","0.0-31.0-0.4","SS1618435633207","","","null","","","","","","<p><img src= images/blank.png width =""600"" height = ""600"" style=""position:fixed;top:50%; left:50%; transform: translate(-50%, -50%); border:5px solid black"">","","","","","","","",""
"","1489.5400000968948","sequential-stimulus-presentation-old","147","647223","0.0-31.0-1.4","SS1618435633207","trial","","40","500","1989.5400000968948","images/stimuli/spore_stims/simple_18_A_b.gif","images/stimuli/spore_stims/simple_09_A_a.gif","forced_short","","11","simple_dissimilar","images/stimuli/spore_stims/simple_09_A_a.gif","","","","",""
"","null","html-keyboard-response","148","648243","0.0-31.0-0.5","SS1618435633207","","","null","","","","","","<p><img src= images/blank.png width =""600"" height = ""600"" style=""position:fixed;top:50%; left:50%; transform: translate(-50%, -50%); border:5px solid black"">","","","","","","","",""
"","2280.754999956116","sequential-stimulus-presentation-old","149","651027","0.0-31.0-1.5","SS1618435633207","trial","","40","500","2780.754999956116","images/stimuli/spore_stims/simple_18_A_b.gif","images/stimuli/spore_stims/simple_09_A_a.gif","forced_short","","11","simple_dissimilar","images/stimuli/spore_stims/simple_09_A_a.gif","","","","",""
"[{""page_index"":0,""viewing_time"":5444.694999954663}]","5445.010000024922","instructions","150","656474","0.0-32.0","SS1618435633207","instructions","","","","","","","","","","","","","","","",""
"","4844.390000100248","survey-likert","151","661321","0.0-33.0","SS1618435633207","similarity_question","","","","","","","","","","","","{""Q0"":0}","[0]","","images/stimuli/spore_stims/complex_10_A_a.gif","images/stimuli/spore_stims/complex_09_A_b.gif"
"","3979.814999969676","survey-likert","152","665305","0.0-34.0","SS1618435633207","similarity_question","","","","","","","","","","","","{""Q0"":1}","[0]","","images/stimuli/spore_stims/simple_14_A_b.gif","images/stimuli/spore_stims/simple_03_A_a.gif"
"","6117.205000016838","survey-likert","153","671425","0.0-35.0","SS1618435633207","similarity_question","","","","","","","","","","","","{""Q0"":2}","[0]","","images/stimuli/spore_stims/complex_06_A_a.gif","images/stimuli/spore_stims/complex_14_A_b.gif"
"","8068.044999963604","survey-likert","154","679498","0.0-36.0","SS1618435633207","similarity_question","","","","","","","","","","","","{""Q0"":4}","[0]","","images/stimuli/spore_stims/simple_15_A_a.gif","images/stimuli/spore_stims/simple_13_A_b.gif"
"","4668.464999995194","survey-likert","155","684170","0.0-37.0","SS1618435633207","similarity_question","","","","","","","","","","","","{""Q0"":2}","[0]","","images/stimuli/spore_stims/simple_18_A_a.gif","images/stimuli/spore_stims/simple_10_A_b.gif"
"","5548.699999926612","survey-likert","156","689722","0.0-38.0","SS1618435633207","similarity_question","","","","","","","","","","","","{""Q0"":4}","[0]","","images/stimuli/spore_stims/complex_01_A_b.gif","images/stimuli/spore_stims/complex_09_A_a.gif"
"","29460.974999936298","survey-likert","157","719185","0.0-39.0","SS1618435633207","similarity_question","","","","","","","","","","","","{""Q0"":4}","[0]","","images/stimuli/spore_stims/simple_02_A_a.gif","images/stimuli/spore_stims/simple_11_A_b.gif"
"","3892.200000002049","survey-likert","158","723081","0.0-40.0","SS1618435633207","similarity_question","","","","","","","","","","","","{""Q0"":0}","[0]","","images/stimuli/spore_stims/complex_13_A_a.gif","images/stimuli/spore_stims/complex_04_A_b.gif"
"","5533.31500000786","survey-likert","159","728617","0.0-41.0","SS1618435633207","similarity_question","","","","","","","","","","","","{""Q0"":0}","[0]","","images/stimuli/spore_stims/complex_12_A_b.gif","images/stimuli/spore_stims/complex_11_A_a.gif"
"","2548.78000007011","survey-likert","160","731170","0.0-42.0","SS1618435633207","similarity_question","","","","","","","","","","","","{""Q0"":2}","[0]","","images/stimuli/spore_stims/simple_18_A_b.gif","images/stimuli/spore_stims/simple_09_A_a.gif"
"","2067.990000010468","survey-likert","161","733241","0.0-43.0","SS1618435633207","similarity_question","","","","","","","","","","","","{""Q0"":4}","[0]","","images/stimuli/spore_stims/simple_20_A_a.gif","images/stimuli/spore_stims/simple_08_A_b.gif"
"","2876.44000002183","survey-likert","162","736121","0.0-44.0","SS1618435633207","similarity_question","","","","","","","","","","","","{""Q0"":1}","[0]","","images/stimuli/spore_stims/complex_15_A_a.gif","images/stimuli/spore_stims/complex_16_A_b.gif"
"[{""page_index"":0,""viewing_time"":34021.300000022165}]","34021.550000063144","instructions","163","770145","0.0-45.0","SS1618435633207","instructions","","","","","","","","","","","","","","","",""
"","2453.2950000138953","survey-likert","164","772601","0.0-46.0","SS1618435633207","","","","","","","","","images/stimuli/spore_stims/complex_13_A_a.gif","","","","{""Q0"":5}","[0]","","",""
"","3300.3249999601394","survey-likert","165","775905","0.0-47.0","SS1618435633207","","","","","","","","","images/stimuli/spore_stims/complex_16_A_b.gif","","","","{""Q0"":5}","[0]","","",""
"","22780.935000046156","survey-likert","166","798689","0.0-48.0","SS1618435633207","","","","","","","","","images/stimuli/spore_stims/complex_10_A_a.gif","","","","{""Q0"":4}","[0]","","",""
"","1740.5349999899045","survey-likert","167","800433","0.0-49.0","SS1618435633207","","","","","","","","","images/stimuli/spore_stims/complex_12_A_b.gif","","","","{""Q0"":6}","[0]","","",""
"","2332.5849999673665","survey-likert","168","802768","0.0-50.0","SS1618435633207","","","","","","","","","images/stimuli/spore_stims/simple_20_A_a.gif","","","","{""Q0"":0}","[0]","","",""
"","1851.9999999552965","survey-likert","169","804625","0.0-51.0","SS1618435633207","","","","","","","","","images/stimuli/spore_stims/complex_14_A_b.gif","","","","{""Q0"":4}","[0]","","",""
"","1932.7950000297278","survey-likert","170","806560","0.0-52.0","SS1618435633207","","","","","","","","","images/stimuli/spore_stims/simple_15_A_a.gif","","","","{""Q0"":0}","[0]","","",""
"","2604.7949999338016","survey-likert","171","809169","0.0-53.0","SS1618435633207","","","","","","","","","images/stimuli/spore_stims/simple_18_A_a.gif","","","","{""Q0"":0}","[0]","","",""
"","1756.5799999283627","survey-likert","172","810929","0.0-54.0","SS1618435633207","","","","","","","","","images/stimuli/spore_stims/simple_03_A_a.gif","","","","{""Q0"":0}","[0]","","",""
"","1691.2950000260025","survey-likert","173","812624","0.0-55.0","SS1618435633207","","","","","","","","","images/stimuli/spore_stims/simple_11_A_b.gif","","","","{""Q0"":1}","[0]","","",""
"","1692.9500000551343","survey-likert","174","814321","0.0-56.0","SS1618435633207","","","","","","","","","images/stimuli/spore_stims/simple_18_A_b.gif","","","","{""Q0"":0}","[0]","","",""
"","2028.3050000434741","survey-likert","175","816352","0.0-57.0","SS1618435633207","","","","","","","","","images/stimuli/spore_stims/complex_01_A_b.gif","","","","{""Q0"":4}","[0]","","",""
"[{""page_index"":0,""viewing_time"":3029.3900000397116}]","3029.740000027232","instructions","176","819384","0.0-58.0","SS1618435633207","instructions","","","","","","","","","","","","","","","",""
"","2412.364999996498","demog-age","177","821801","0.0-59.0","SS1618435633207","","","","","","","","","","","","","{""age"":""19""}","","","",""
"","2067.0300000347197","demog-ethnic-US","178","823873","0.0-60.0","SS1618435633207","","","","","","","","","","","","","{""ethnicity"":[""White""]}","[0]","","",""
"","3188.075000070967","demog-gender-and-education","179","827065","0.0-61.0","SS1618435633207","","","","","","","","","","","","","{""gender"":""Male"",""education"":""High school diploma""}","[0,1]","","",""
"","6883.04500002414","survey-text","180","833953","0.0-62.0","SS1618435633207","feedback","","","","","","","","","","","","{""Q0"":""nope""}","","","",""
"[{""page_index"":0,""viewing_time"":21579.94999992661}]","21580.15999989584","instructions","181","855537","0.0-63.0","SS1618435633207","instructions","","","","","","","","","","","","","","","",""
