"view_history","rt","trial_type","trial_index","time_elapsed","internal_node_id","subject","stimulus_type","trial_stimulus","key_press","minimum_viewing_duration","trial_looking_time","block_deviant","block_background","exposure_type","stimulus","block_number","block_type","stimulus_displayed","responses","question_order","math_correct_answer","stimulus_left","stimulus_right"
"[{""page_index"":0,""viewing_time"":6158.850000007078}]","6159.304999979213","instructions","0","6160","0.0-0.0","SS1618365424357","","","","","","","","","","","","","","","","",""
"[{""page_index"":0,""viewing_time"":3202.4299999466166},{""page_index"":1,""viewing_time"":8458.029999979772}]","11660.759999998845","instructions","1","19823","0.0-1.0","SS1618365424357","instructions","","","","","","","","","","","","","","","",""
"","6762.4500000383705","sequential-stimulus-presentation-old","2","27089","0.0-2.0","SS1618365424357","","","40","500","7262.4500000383705","null","null","self_paced","","","","","","","","",""
"","13238.580000004731","sequential-stimulus-presentation-old","3","40830","0.0-3.0","SS1618365424357","","","40","500","13738.580000004731","null","null","self_paced","","","","","","","","",""
"[{""page_index"":0,""viewing_time"":19543.105000047944}]","19543.380000046454","instructions","4","60374","0.0-4.0","SS1618365424357","instructions","","","","","","","","","","","","","","","",""
"","1488.4200000669807","sequential-stimulus-presentation-old","5","66865","0.0-5.0","SS1618365424357","","","40","500","1988.4200000669807","null","null","forced_long","","","","","","","","",""
"","3053.304999950342","sequential-stimulus-presentation-old","6","69970","0.0-6.0","SS1618365424357","","","40","50","3103.304999950342","null","null","forced_long","","","","","","","","",""
"[{""page_index"":0,""viewing_time"":2811.459999997169}]","2811.630000011064","instructions","7","72783","0.0-7.0","SS1618365424357","instructions","","","","","","","","","","","","","","","",""
"[{""page_index"":0,""viewing_time"":7644.374999916181},{""page_index"":1,""viewing_time"":5436.035000020638},{""page_index"":2,""viewing_time"":3282.9850000562146},{""page_index"":3,""viewing_time"":2586.724999942817},{""page_index"":4,""viewing_time"":1732.2500000009313}]","20682.649999973364","instructions","8","93466","0.0-8.0","SS1618365424357","instructions","","","","","","","","","","","","","","","",""
"","null","html-keyboard-response","9","94667","0.0-9.0-0.0","SS1618365424357","","","null","","","","","","<p><img src= images/blank.png width =""600"" height = ""600"" style=""position:fixed;top:50%; left:50%; transform: translate(-50%, -50%); border:5px solid black"">","","","","","","","",""
"","17586.134999990463","sequential-stimulus-presentation-old","10","112756","0.0-9.0-1.0","SS1618365424357","trial","","40","500","18086.134999990463","images/stimuli/spore_stims/simple_03_A_b.gif","images/stimuli/spore_stims/simple_05_A_a.gif","self_paced","","0","simple_dissimilar","images/stimuli/spore_stims/simple_05_A_a.gif","","","","",""
"","null","html-keyboard-response","11","113795","0.0-9.0-0.1","SS1618365424357","","","null","","","","","","<p><img src= images/blank.png width =""600"" height = ""600"" style=""position:fixed;top:50%; left:50%; transform: translate(-50%, -50%); border:5px solid black"">","","","","","","","",""
"","6727.659999975003","sequential-stimulus-presentation-old","12","121025","0.0-9.0-1.1","SS1618365424357","trial","","40","500","7227.659999975003","images/stimuli/spore_stims/simple_03_A_b.gif","images/stimuli/spore_stims/simple_05_A_a.gif","self_paced","","0","simple_dissimilar","images/stimuli/spore_stims/simple_05_A_a.gif","","","","",""
"","null","html-keyboard-response","13","122307","0.0-9.0-0.2","SS1618365424357","","","null","","","","","","<p><img src= images/blank.png width =""600"" height = ""600"" style=""position:fixed;top:50%; left:50%; transform: translate(-50%, -50%); border:5px solid black"">","","","","","","","",""
"","12619.119999930263","sequential-stimulus-presentation-old","14","135429","0.0-9.0-1.2","SS1618365424357","trial","","40","500","13119.119999930263","images/stimuli/spore_stims/simple_03_A_b.gif","images/stimuli/spore_stims/simple_05_A_a.gif","self_paced","","0","simple_dissimilar","images/stimuli/spore_stims/simple_05_A_a.gif","","","","",""
"","null","html-keyboard-response","15","136324","0.0-9.0-0.3","SS1618365424357","","","null","","","","","","<p><img src= images/blank.png width =""600"" height = ""600"" style=""position:fixed;top:50%; left:50%; transform: translate(-50%, -50%); border:5px solid black"">","","","","","","","",""
"","7057.8450000612065","sequential-stimulus-presentation-old","16","143884","0.0-9.0-1.3","SS1618365424357","trial","","40","500","7557.8450000612065","images/stimuli/spore_stims/simple_03_A_b.gif","images/stimuli/spore_stims/simple_05_A_a.gif","self_paced","","0","simple_dissimilar","images/stimuli/spore_stims/simple_05_A_a.gif","","","","",""
"","4792.010000091977","survey-multi-choice","17","148678","0.0-10.0","SS1618365424357","math_question","","","","","","","","","","","","{""Q0"":""10""}","[0]","10","",""
"","null","html-keyboard-response","18","149636","0.0-11.0-0.0","SS1618365424357","","","null","","","","","","<p><img src= images/blank.png width =""600"" height = ""600"" style=""position:fixed;top:50%; left:50%; transform: translate(-50%, -50%); border:5px solid black"">","","","","","","","",""
"","3005.009999964386","sequential-stimulus-presentation-old","19","152694","0.0-11.0-1.0","SS1618365424357","trial","","40","500","3505.009999964386","images/stimuli/spore_stims/simple_18_A_a.gif","images/stimuli/spore_stims/simple_08_A_b.gif","forced_short","","1","simple_dissimilar","images/stimuli/spore_stims/simple_08_A_b.gif","","","","",""
"","null","html-keyboard-response","20","153877","0.0-11.0-0.1","SS1618365424357","","","null","","","","","","<p><img src= images/blank.png width =""600"" height = ""600"" style=""position:fixed;top:50%; left:50%; transform: translate(-50%, -50%); border:5px solid black"">","","","","","","","",""
"","6667.774999979883","sequential-stimulus-presentation-old","21","161048","0.0-11.0-1.1","SS1618365424357","trial","","40","500","7167.774999979883","images/stimuli/spore_stims/simple_18_A_a.gif","images/stimuli/spore_stims/simple_08_A_b.gif","forced_short","","1","simple_dissimilar","images/stimuli/spore_stims/simple_08_A_b.gif","","","","",""
"","null","html-keyboard-response","22","162268","0.0-11.0-0.2","SS1618365424357","","","null","","","","","","<p><img src= images/blank.png width =""600"" height = ""600"" style=""position:fixed;top:50%; left:50%; transform: translate(-50%, -50%); border:5px solid black"">","","","","","","","",""
"","5758.3449999801815","sequential-stimulus-presentation-old","23","168529","0.0-11.0-1.2","SS1618365424357","trial","","40","500","6258.3449999801815","images/stimuli/spore_stims/simple_18_A_a.gif","images/stimuli/spore_stims/simple_08_A_b.gif","forced_short","","1","simple_dissimilar","images/stimuli/spore_stims/simple_08_A_b.gif","","","","",""
"","null","html-keyboard-response","24","169704","0.0-11.0-0.3","SS1618365424357","","","null","","","","","","<p><img src= images/blank.png width =""600"" height = ""600"" style=""position:fixed;top:50%; left:50%; transform: translate(-50%, -50%); border:5px solid black"">","","","","","","","",""
"","3584.4400000059977","sequential-stimulus-presentation-old","25","173791","0.0-11.0-1.3","SS1618365424357","trial","","40","500","4084.4400000059977","images/stimuli/spore_stims/simple_18_A_a.gif","images/stimuli/spore_stims/simple_08_A_b.gif","forced_short","","1","simple_dissimilar","images/stimuli/spore_stims/simple_08_A_b.gif","","","","",""
"","null","html-keyboard-response","26","174634","0.0-11.0-0.4","SS1618365424357","","","null","","","","","","<p><img src= images/blank.png width =""600"" height = ""600"" style=""position:fixed;top:50%; left:50%; transform: translate(-50%, -50%); border:5px solid black"">","","","","","","","",""
"","3604.0550000034273","sequential-stimulus-presentation-old","27","178741","0.0-11.0-1.4","SS1618365424357","trial","","40","500","4104.055000003427","images/stimuli/spore_stims/simple_18_A_a.gif","images/stimuli/spore_stims/simple_08_A_b.gif","forced_short","","1","simple_dissimilar","images/stimuli/spore_stims/simple_08_A_b.gif","","","","",""
"","null","html-keyboard-response","28","179753","0.0-11.0-0.5","SS1618365424357","","","null","","","","","","<p><img src= images/blank.png width =""600"" height = ""600"" style=""position:fixed;top:50%; left:50%; transform: translate(-50%, -50%); border:5px solid black"">","","","","","","","",""
"","2228.4399999771267","sequential-stimulus-presentation-old","29","182485","0.0-11.0-1.5","SS1618365424357","trial","","40","500","2728.4399999771267","images/stimuli/spore_stims/simple_18_A_a.gif","images/stimuli/spore_stims/simple_08_A_b.gif","forced_short","","1","simple_dissimilar","images/stimuli/spore_stims/simple_08_A_b.gif","","","","",""
"","4230.615000007674","survey-multi-choice","30","186717","0.0-12.0","SS1618365424357","math_question","","","","","","","","","","","","{""Q0"":""10""}","[0]","10","",""
"","null","html-keyboard-response","31","187880","0.0-13.0-0.0","SS1618365424357","","","null","","","","","","<p><img src= images/blank.png width =""600"" height = ""600"" style=""position:fixed;top:50%; left:50%; transform: translate(-50%, -50%); border:5px solid black"">","","","","","","","",""
"","812.4299999326468","sequential-stimulus-presentation-old","32","193696","0.0-13.0-1.0","SS1618365424357","trial","","40","500","1312.4299999326468","images/stimuli/spore_stims/complex_03_A_b.gif","images/stimuli/spore_stims/complex_04_A_a.gif","forced_long","","2","complex_dissimilar","images/stimuli/spore_stims/complex_04_A_a.gif","","","","",""
"","null","html-keyboard-response","33","194594","0.0-13.0-0.1","SS1618365424357","","","null","","","","","","<p><img src= images/blank.png width =""600"" height = ""600"" style=""position:fixed;top:50%; left:50%; transform: translate(-50%, -50%); border:5px solid black"">","","","","","","","",""
"","8660.58999998495","sequential-stimulus-presentation-old","34","203757","0.0-13.0-1.1","SS1618365424357","trial","","40","500","9160.58999998495","images/stimuli/spore_stims/complex_03_A_b.gif","images/stimuli/spore_stims/complex_04_A_a.gif","forced_long","","2","complex_dissimilar","images/stimuli/spore_stims/complex_04_A_a.gif","","","","",""
"","null","html-keyboard-response","35","204599","0.0-13.0-0.2","SS1618365424357","","","null","","","","","","<p><img src= images/blank.png width =""600"" height = ""600"" style=""position:fixed;top:50%; left:50%; transform: translate(-50%, -50%); border:5px solid black"">","","","","","","","",""
"","7261.305000050925","sequential-stimulus-presentation-old","36","212362","0.0-13.0-1.2","SS1618365424357","trial","","40","500","7761.305000050925","images/stimuli/spore_stims/complex_03_A_b.gif","images/stimuli/spore_stims/complex_04_A_a.gif","forced_long","","2","complex_dissimilar","images/stimuli/spore_stims/complex_04_A_a.gif","","","","",""
"","null","html-keyboard-response","37","213379","0.0-13.0-0.3","SS1618365424357","","","null","","","","","","<p><img src= images/blank.png width =""600"" height = ""600"" style=""position:fixed;top:50%; left:50%; transform: translate(-50%, -50%); border:5px solid black"">","","","","","","","",""
"","5193.154999986291","sequential-stimulus-presentation-old","38","219076","0.0-13.0-1.3","SS1618365424357","trial","","40","500","5693.154999986291","images/stimuli/spore_stims/complex_03_A_b.gif","images/stimuli/spore_stims/complex_04_A_a.gif","forced_long","","2","complex_dissimilar","images/stimuli/spore_stims/complex_03_A_b.gif","","","","",""
"","4137.530000065453","survey-multi-choice","39","223215","0.0-14.0","SS1618365424357","math_question","","","","","","","","","","","","{""Q0"":""8""}","[0]","8","",""
"","null","html-keyboard-response","40","224304","0.0-15.0-0.0","SS1618365424357","","","null","","","","","","<p><img src= images/blank.png width =""600"" height = ""600"" style=""position:fixed;top:50%; left:50%; transform: translate(-50%, -50%); border:5px solid black"">","","","","","","","",""
"","907.5899999588728","sequential-stimulus-presentation-old","41","230215","0.0-15.0-1.0","SS1618365424357","trial","","40","500","1407.5899999588728","images/stimuli/spore_stims/simple_07_A_b.gif","images/stimuli/spore_stims/simple_20_A_a.gif","forced_long","","3","simple_dissimilar","images/stimuli/spore_stims/simple_20_A_a.gif","","","","",""
"","null","html-keyboard-response","42","231216","0.0-15.0-0.1","SS1618365424357","","","null","","","","","","<p><img src= images/blank.png width =""600"" height = ""600"" style=""position:fixed;top:50%; left:50%; transform: translate(-50%, -50%); border:5px solid black"">","","","","","","","",""
"","3393.724999972619","sequential-stimulus-presentation-old","43","235112","0.0-15.0-1.1","SS1618365424357","trial","","40","500","3893.724999972619","images/stimuli/spore_stims/simple_07_A_b.gif","images/stimuli/spore_stims/simple_20_A_a.gif","forced_long","","3","simple_dissimilar","images/stimuli/spore_stims/simple_07_A_b.gif","","","","",""
"","null","html-keyboard-response","44","235984","0.0-15.0-0.2","SS1618365424357","","","null","","","","","","<p><img src= images/blank.png width =""600"" height = ""600"" style=""position:fixed;top:50%; left:50%; transform: translate(-50%, -50%); border:5px solid black"">","","","","","","","",""
"","4698.78500001505","sequential-stimulus-presentation-old","45","241185","0.0-15.0-1.2","SS1618365424357","trial","","40","500","5198.78500001505","images/stimuli/spore_stims/simple_07_A_b.gif","images/stimuli/spore_stims/simple_20_A_a.gif","forced_long","","3","simple_dissimilar","images/stimuli/spore_stims/simple_07_A_b.gif","","","","",""
"","null","html-keyboard-response","46","242261","0.0-15.0-0.3","SS1618365424357","","","null","","","","","","<p><img src= images/blank.png width =""600"" height = ""600"" style=""position:fixed;top:50%; left:50%; transform: translate(-50%, -50%); border:5px solid black"">","","","","","","","",""
"","9987.040000036359","sequential-stimulus-presentation-old","47","252750","0.0-15.0-1.3","SS1618365424357","trial","","40","500","10487.040000036359","images/stimuli/spore_stims/simple_07_A_b.gif","images/stimuli/spore_stims/simple_20_A_a.gif","forced_long","","3","simple_dissimilar","images/stimuli/spore_stims/simple_20_A_a.gif","","","","",""
"","null","html-keyboard-response","48","253672","0.0-15.0-0.4","SS1618365424357","","","null","","","","","","<p><img src= images/blank.png width =""600"" height = ""600"" style=""position:fixed;top:50%; left:50%; transform: translate(-50%, -50%); border:5px solid black"">","","","","","","","",""
"","2673.6399999354035","sequential-stimulus-presentation-old","49","256849","0.0-15.0-1.4","SS1618365424357","trial","","40","500","3173.6399999354035","images/stimuli/spore_stims/simple_07_A_b.gif","images/stimuli/spore_stims/simple_20_A_a.gif","forced_long","","3","simple_dissimilar","images/stimuli/spore_stims/simple_20_A_a.gif","","","","",""
"","4176.815000013448","survey-multi-choice","50","261027","0.0-16.0","SS1618365424357","math_question","","","","","","","","","","","","{""Q0"":""8""}","[0]","8","",""
"","null","html-keyboard-response","51","261967","0.0-17.0-0.0","SS1618365424357","","","null","","","","","","<p><img src= images/blank.png width =""600"" height = ""600"" style=""position:fixed;top:50%; left:50%; transform: translate(-50%, -50%); border:5px solid black"">","","","","","","","",""
"","6571.09500002116","sequential-stimulus-presentation-old","52","269040","0.0-17.0-1.0","SS1618365424357","trial","","40","500","7071.09500002116","images/stimuli/spore_stims/complex_07_A_b.gif","images/stimuli/spore_stims/complex_15_A_a.gif","self_paced","","4","complex_dissimilar","images/stimuli/spore_stims/complex_15_A_a.gif","","","","",""
"","null","html-keyboard-response","53","270248","0.0-17.0-0.1","SS1618365424357","","","null","","","","","","<p><img src= images/blank.png width =""600"" height = ""600"" style=""position:fixed;top:50%; left:50%; transform: translate(-50%, -50%); border:5px solid black"">","","","","","","","",""
"","4622.845000005327","sequential-stimulus-presentation-old","54","275374","0.0-17.0-1.1","SS1618365424357","trial","","40","500","5122.845000005327","images/stimuli/spore_stims/complex_07_A_b.gif","images/stimuli/spore_stims/complex_15_A_a.gif","self_paced","","4","complex_dissimilar","images/stimuli/spore_stims/complex_15_A_a.gif","","","","",""
"","null","html-keyboard-response","55","276375","0.0-17.0-0.2","SS1618365424357","","","null","","","","","","<p><img src= images/blank.png width =""600"" height = ""600"" style=""position:fixed;top:50%; left:50%; transform: translate(-50%, -50%); border:5px solid black"">","","","","","","","",""
"","7781.480000005104","sequential-stimulus-presentation-old","56","284659","0.0-17.0-1.2","SS1618365424357","trial","","40","500","8281.480000005104","images/stimuli/spore_stims/complex_07_A_b.gif","images/stimuli/spore_stims/complex_15_A_a.gif","self_paced","","4","complex_dissimilar","images/stimuli/spore_stims/complex_07_A_b.gif","","","","",""
"","null","html-keyboard-response","57","285542","0.0-17.0-0.3","SS1618365424357","","","null","","","","","","<p><img src= images/blank.png width =""600"" height = ""600"" style=""position:fixed;top:50%; left:50%; transform: translate(-50%, -50%); border:5px solid black"">","","","","","","","",""
"","7577.22500001546","sequential-stimulus-presentation-old","58","293622","0.0-17.0-1.3","SS1618365424357","trial","","40","500","8077.22500001546","images/stimuli/spore_stims/complex_07_A_b.gif","images/stimuli/spore_stims/complex_15_A_a.gif","self_paced","","4","complex_dissimilar","images/stimuli/spore_stims/complex_07_A_b.gif","","","","",""
"","null","html-keyboard-response","59","294766","0.0-17.0-0.4","SS1618365424357","","","null","","","","","","<p><img src= images/blank.png width =""600"" height = ""600"" style=""position:fixed;top:50%; left:50%; transform: translate(-50%, -50%); border:5px solid black"">","","","","","","","",""
"","3732.3099999921396","sequential-stimulus-presentation-old","60","299001","0.0-17.0-1.4","SS1618365424357","trial","","40","500","4232.30999999214","images/stimuli/spore_stims/complex_07_A_b.gif","images/stimuli/spore_stims/complex_15_A_a.gif","self_paced","","4","complex_dissimilar","images/stimuli/spore_stims/complex_15_A_a.gif","","","","",""
"","3564.920000033453","survey-multi-choice","61","302568","0.0-18.0","SS1618365424357","math_question","","","","","","","","","","","","{""Q0"":""10""}","[0]","10","",""
"","null","html-keyboard-response","62","303641","0.0-19.0-0.0","SS1618365424357","","","null","","","","","","<p><img src= images/blank.png width =""600"" height = ""600"" style=""position:fixed;top:50%; left:50%; transform: translate(-50%, -50%); border:5px solid black"">","","","","","","","",""
"","832.1850000647828","sequential-stimulus-presentation-old","63","309476","0.0-19.0-1.0","SS1618365424357","trial","","40","500","1332.1850000647828","images/stimuli/spore_stims/complex_07_A_a.gif","images/stimuli/spore_stims/complex_19_A_b.gif","forced_long","","5","complex_dissimilar","images/stimuli/spore_stims/complex_19_A_b.gif","","","","",""
"","null","html-keyboard-response","64","310467","0.0-19.0-0.1","SS1618365424357","","","null","","","","","","<p><img src= images/blank.png width =""600"" height = ""600"" style=""position:fixed;top:50%; left:50%; transform: translate(-50%, -50%); border:5px solid black"">","","","","","","","",""
"","5806.089999969117","sequential-stimulus-presentation-old","65","316777","0.0-19.0-1.1","SS1618365424357","trial","","40","500","6306.089999969117","images/stimuli/spore_stims/complex_07_A_a.gif","images/stimuli/spore_stims/complex_19_A_b.gif","forced_long","","5","complex_dissimilar","images/stimuli/spore_stims/complex_19_A_b.gif","","","","",""
"","null","html-keyboard-response","66","318041","0.0-19.0-0.2","SS1618365424357","","","null","","","","","","<p><img src= images/blank.png width =""600"" height = ""600"" style=""position:fixed;top:50%; left:50%; transform: translate(-50%, -50%); border:5px solid black"">","","","","","","","",""
"","7027.104999986477","sequential-stimulus-presentation-old","67","325572","0.0-19.0-1.2","SS1618365424357","trial","","40","500","7527.104999986477","images/stimuli/spore_stims/complex_07_A_a.gif","images/stimuli/spore_stims/complex_19_A_b.gif","forced_long","","5","complex_dissimilar","images/stimuli/spore_stims/complex_19_A_b.gif","","","","",""
"","null","html-keyboard-response","68","326715","0.0-19.0-0.3","SS1618365424357","","","null","","","","","","<p><img src= images/blank.png width =""600"" height = ""600"" style=""position:fixed;top:50%; left:50%; transform: translate(-50%, -50%); border:5px solid black"">","","","","","","","",""
"","6108.8699999963865","sequential-stimulus-presentation-old","69","333329","0.0-19.0-1.3","SS1618365424357","trial","","40","500","6608.8699999963865","images/stimuli/spore_stims/complex_07_A_a.gif","images/stimuli/spore_stims/complex_19_A_b.gif","forced_long","","5","complex_dissimilar","images/stimuli/spore_stims/complex_19_A_b.gif","","","","",""
"","null","html-keyboard-response","70","334357","0.0-19.0-0.4","SS1618365424357","","","null","","","","","","<p><img src= images/blank.png width =""600"" height = ""600"" style=""position:fixed;top:50%; left:50%; transform: translate(-50%, -50%); border:5px solid black"">","","","","","","","",""
"","4889.4299999810755","sequential-stimulus-presentation-old","71","339749","0.0-19.0-1.4","SS1618365424357","trial","","40","500","5389.4299999810755","images/stimuli/spore_stims/complex_07_A_a.gif","images/stimuli/spore_stims/complex_19_A_b.gif","forced_long","","5","complex_dissimilar","images/stimuli/spore_stims/complex_19_A_b.gif","","","","",""
"","null","html-keyboard-response","72","340651","0.0-19.0-0.5","SS1618365424357","","","null","","","","","","<p><img src= images/blank.png width =""600"" height = ""600"" style=""position:fixed;top:50%; left:50%; transform: translate(-50%, -50%); border:5px solid black"">","","","","","","","",""
"","4724.729999899864","sequential-stimulus-presentation-old","73","345878","0.0-19.0-1.5","SS1618365424357","trial","","40","500","5224.729999899864","images/stimuli/spore_stims/complex_07_A_a.gif","images/stimuli/spore_stims/complex_19_A_b.gif","forced_long","","5","complex_dissimilar","images/stimuli/spore_stims/complex_19_A_b.gif","","","","",""
"","3336.4300000248477","survey-multi-choice","74","349216","0.0-20.0","SS1618365424357","math_question","","","","","","","","","","","","{""Q0"":""10""}","[0]","10","",""
"","null","html-keyboard-response","75","350045","0.0-21.0-0.0","SS1618365424357","","","null","","","","","","<p><img src= images/blank.png width =""600"" height = ""600"" style=""position:fixed;top:50%; left:50%; transform: translate(-50%, -50%); border:5px solid black"">","","","","","","","",""
"","7968.75","sequential-stimulus-presentation-old","76","358516","0.0-21.0-1.0","SS1618365424357","trial","","40","500","8468.75","images/stimuli/spore_stims/simple_17_A_a.gif","images/stimuli/spore_stims/simple_02_A_b.gif","self_paced","","6","simple_dissimilar","images/stimuli/spore_stims/simple_02_A_b.gif","","","","",""
"","null","html-keyboard-response","77","359704","0.0-21.0-0.1","SS1618365424357","","","null","","","","","","<p><img src= images/blank.png width =""600"" height = ""600"" style=""position:fixed;top:50%; left:50%; transform: translate(-50%, -50%); border:5px solid black"">","","","","","","","",""
"","5796.014999970794","sequential-stimulus-presentation-old","78","366003","0.0-21.0-1.1","SS1618365424357","trial","","40","500","6296.014999970794","images/stimuli/spore_stims/simple_17_A_a.gif","images/stimuli/spore_stims/simple_02_A_b.gif","self_paced","","6","simple_dissimilar","images/stimuli/spore_stims/simple_02_A_b.gif","","","","",""
"","null","html-keyboard-response","79","367094","0.0-21.0-0.2","SS1618365424357","","","null","","","","","","<p><img src= images/blank.png width =""600"" height = ""600"" style=""position:fixed;top:50%; left:50%; transform: translate(-50%, -50%); border:5px solid black"">","","","","","","","",""
"","7659.68000004068","sequential-stimulus-presentation-old","80","375256","0.0-21.0-1.2","SS1618365424357","trial","","40","500","8159.68000004068","images/stimuli/spore_stims/simple_17_A_a.gif","images/stimuli/spore_stims/simple_02_A_b.gif","self_paced","","6","simple_dissimilar","images/stimuli/spore_stims/simple_17_A_a.gif","","","","",""
"","null","html-keyboard-response","81","376247","0.0-21.0-0.3","SS1618365424357","","","null","","","","","","<p><img src= images/blank.png width =""600"" height = ""600"" style=""position:fixed;top:50%; left:50%; transform: translate(-50%, -50%); border:5px solid black"">","","","","","","","",""
"","3195.0150000629947","sequential-stimulus-presentation-old","82","379944","0.0-21.0-1.3","SS1618365424357","trial","","40","500","3695.0150000629947","images/stimuli/spore_stims/simple_17_A_a.gif","images/stimuli/spore_stims/simple_02_A_b.gif","self_paced","","6","simple_dissimilar","images/stimuli/spore_stims/simple_17_A_a.gif","","","","",""
"","null","html-keyboard-response","83","380766","0.0-21.0-0.4","SS1618365424357","","","null","","","","","","<p><img src= images/blank.png width =""600"" height = ""600"" style=""position:fixed;top:50%; left:50%; transform: translate(-50%, -50%); border:5px solid black"">","","","","","","","",""
"","2531.680000014603","sequential-stimulus-presentation-old","84","383801","0.0-21.0-1.4","SS1618365424357","trial","","40","500","3031.680000014603","images/stimuli/spore_stims/simple_17_A_a.gif","images/stimuli/spore_stims/simple_02_A_b.gif","self_paced","","6","simple_dissimilar","images/stimuli/spore_stims/simple_02_A_b.gif","","","","",""
"","3389.854999957606","survey-multi-choice","85","387192","0.0-22.0","SS1618365424357","math_question","","","","","","","","","","","","{""Q0"":""9""}","[0]","9","",""
"","null","html-keyboard-response","86","388174","0.0-23.0-0.0","SS1618365424357","","","null","","","","","","<p><img src= images/blank.png width =""600"" height = ""600"" style=""position:fixed;top:50%; left:50%; transform: translate(-50%, -50%); border:5px solid black"">","","","","","","","",""
"","7466.394999995828","sequential-stimulus-presentation-old","87","396145","0.0-23.0-1.0","SS1618365424357","trial","","40","500","7966.394999995828","images/stimuli/spore_stims/complex_10_A_a.gif","images/stimuli/spore_stims/complex_01_A_b.gif","self_paced","","7","complex_dissimilar","images/stimuli/spore_stims/complex_01_A_b.gif","","","","",""
"","null","html-keyboard-response","88","397418","0.0-23.0-0.1","SS1618365424357","","","null","","","","","","<p><img src= images/blank.png width =""600"" height = ""600"" style=""position:fixed;top:50%; left:50%; transform: translate(-50%, -50%); border:5px solid black"">","","","","","","","",""
"","4669.7549999225885","sequential-stimulus-presentation-old","89","402591","0.0-23.0-1.1","SS1618365424357","trial","","40","500","5169.7549999225885","images/stimuli/spore_stims/complex_10_A_a.gif","images/stimuli/spore_stims/complex_01_A_b.gif","self_paced","","7","complex_dissimilar","images/stimuli/spore_stims/complex_01_A_b.gif","","","","",""
"","null","html-keyboard-response","90","403865","0.0-23.0-0.2","SS1618365424357","","","null","","","","","","<p><img src= images/blank.png width =""600"" height = ""600"" style=""position:fixed;top:50%; left:50%; transform: translate(-50%, -50%); border:5px solid black"">","","","","","","","",""
"","4555.340000079013","sequential-stimulus-presentation-old","91","408924","0.0-23.0-1.2","SS1618365424357","trial","","40","500","5055.340000079013","images/stimuli/spore_stims/complex_10_A_a.gif","images/stimuli/spore_stims/complex_01_A_b.gif","self_paced","","7","complex_dissimilar","images/stimuli/spore_stims/complex_01_A_b.gif","","","","",""
"","null","html-keyboard-response","92","409957","0.0-23.0-0.3","SS1618365424357","","","null","","","","","","<p><img src= images/blank.png width =""600"" height = ""600"" style=""position:fixed;top:50%; left:50%; transform: translate(-50%, -50%); border:5px solid black"">","","","","","","","",""
"","4730.039999936707","sequential-stimulus-presentation-old","93","415190","0.0-23.0-1.3","SS1618365424357","trial","","40","500","5230.039999936707","images/stimuli/spore_stims/complex_10_A_a.gif","images/stimuli/spore_stims/complex_01_A_b.gif","self_paced","","7","complex_dissimilar","images/stimuli/spore_stims/complex_01_A_b.gif","","","","",""
"","null","html-keyboard-response","94","416206","0.0-23.0-0.4","SS1618365424357","","","null","","","","","","<p><img src= images/blank.png width =""600"" height = ""600"" style=""position:fixed;top:50%; left:50%; transform: translate(-50%, -50%); border:5px solid black"">","","","","","","","",""
"","3677.4799999548122","sequential-stimulus-presentation-old","95","420387","0.0-23.0-1.4","SS1618365424357","trial","","40","500","4177.479999954812","images/stimuli/spore_stims/complex_10_A_a.gif","images/stimuli/spore_stims/complex_01_A_b.gif","self_paced","","7","complex_dissimilar","images/stimuli/spore_stims/complex_01_A_b.gif","","","","",""
"","null","html-keyboard-response","96","421384","0.0-23.0-0.5","SS1618365424357","","","null","","","","","","<p><img src= images/blank.png width =""600"" height = ""600"" style=""position:fixed;top:50%; left:50%; transform: translate(-50%, -50%); border:5px solid black"">","","","","","","","",""
"","6832.169999950565","sequential-stimulus-presentation-old","97","428720","0.0-23.0-1.5","SS1618365424357","trial","","40","500","7332.169999950565","images/stimuli/spore_stims/complex_10_A_a.gif","images/stimuli/spore_stims/complex_01_A_b.gif","self_paced","","7","complex_dissimilar","images/stimuli/spore_stims/complex_01_A_b.gif","","","","",""
"","4672.694999957457","survey-multi-choice","98","433394","0.0-24.0","SS1618365424357","math_question","","","","","","","","","","","","{""Q0"":""16""}","[0]","16","",""
"","null","html-keyboard-response","99","434291","0.0-25.0-0.0","SS1618365424357","","","null","","","","","","<p><img src= images/blank.png width =""600"" height = ""600"" style=""position:fixed;top:50%; left:50%; transform: translate(-50%, -50%); border:5px solid black"">","","","","","","","",""
"","4609.99999998603","sequential-stimulus-presentation-old","100","438955","0.0-25.0-1.0","SS1618365424357","trial","","40","500","5109.99999998603","images/stimuli/spore_stims/complex_14_A_b.gif","images/stimuli/spore_stims/complex_11_A_a.gif","forced_short","","8","complex_dissimilar","images/stimuli/spore_stims/complex_11_A_a.gif","","","","",""
"","null","html-keyboard-response","101","439901","0.0-25.0-0.1","SS1618365424357","","","null","","","","","","<p><img src= images/blank.png width =""600"" height = ""600"" style=""position:fixed;top:50%; left:50%; transform: translate(-50%, -50%); border:5px solid black"">","","","","","","","",""
"","5370.420000050217","sequential-stimulus-presentation-old","102","445775","0.0-25.0-1.1","SS1618365424357","trial","","40","500","5870.420000050217","images/stimuli/spore_stims/complex_14_A_b.gif","images/stimuli/spore_stims/complex_11_A_a.gif","forced_short","","8","complex_dissimilar","images/stimuli/spore_stims/complex_11_A_a.gif","","","","",""
"","null","html-keyboard-response","103","446858","0.0-25.0-0.2","SS1618365424357","","","null","","","","","","<p><img src= images/blank.png width =""600"" height = ""600"" style=""position:fixed;top:50%; left:50%; transform: translate(-50%, -50%); border:5px solid black"">","","","","","","","",""
"","1661.2650000024587","sequential-stimulus-presentation-old","104","449022","0.0-25.0-1.2","SS1618365424357","trial","","40","500","2161.2650000024587","images/stimuli/spore_stims/complex_14_A_b.gif","images/stimuli/spore_stims/complex_11_A_a.gif","forced_short","","8","complex_dissimilar","images/stimuli/spore_stims/complex_11_A_a.gif","","","","",""
"","null","html-keyboard-response","105","449889","0.0-25.0-0.3","SS1618365424357","","","null","","","","","","<p><img src= images/blank.png width =""600"" height = ""600"" style=""position:fixed;top:50%; left:50%; transform: translate(-50%, -50%); border:5px solid black"">","","","","","","","",""
"","3239.780000061728","sequential-stimulus-presentation-old","106","453631","0.0-25.0-1.3","SS1618365424357","trial","","40","500","3739.780000061728","images/stimuli/spore_stims/complex_14_A_b.gif","images/stimuli/spore_stims/complex_11_A_a.gif","forced_short","","8","complex_dissimilar","images/stimuli/spore_stims/complex_14_A_b.gif","","","","",""
"","null","html-keyboard-response","107","454623","0.0-25.0-0.4","SS1618365424357","","","null","","","","","","<p><img src= images/blank.png width =""600"" height = ""600"" style=""position:fixed;top:50%; left:50%; transform: translate(-50%, -50%); border:5px solid black"">","","","","","","","",""
"","3258.9150000130758","sequential-stimulus-presentation-old","108","458384","0.0-25.0-1.4","SS1618365424357","trial","","40","500","3758.9150000130758","images/stimuli/spore_stims/complex_14_A_b.gif","images/stimuli/spore_stims/complex_11_A_a.gif","forced_short","","8","complex_dissimilar","images/stimuli/spore_stims/complex_11_A_a.gif","","","","",""
"","null","html-keyboard-response","109","459221","0.0-25.0-0.5","SS1618365424357","","","null","","","","","","<p><img src= images/blank.png width =""600"" height = ""600"" style=""position:fixed;top:50%; left:50%; transform: translate(-50%, -50%); border:5px solid black"">","","","","","","","",""
"","4438.0050000036135","sequential-stimulus-presentation-old","110","464161","0.0-25.0-1.5","SS1618365424357","trial","","40","500","4938.0050000036135","images/stimuli/spore_stims/complex_14_A_b.gif","images/stimuli/spore_stims/complex_11_A_a.gif","forced_short","","8","complex_dissimilar","images/stimuli/spore_stims/complex_11_A_a.gif","","","","",""
"","3686.570000019856","survey-multi-choice","111","467850","0.0-26.0","SS1618365424357","math_question","","","","","","","","","","","","{""Q0"":""7""}","[0]","7","",""
"","null","html-keyboard-response","112","468907","0.0-27.0-0.0","SS1618365424357","","","null","","","","","","<p><img src= images/blank.png width =""600"" height = ""600"" style=""position:fixed;top:50%; left:50%; transform: translate(-50%, -50%); border:5px solid black"">","","","","","","","",""
"","5002.439999952912","sequential-stimulus-presentation-old","113","473962","0.0-27.0-1.0","SS1618365424357","trial","","40","500","5502.439999952912","images/stimuli/spore_stims/complex_18_A_a.gif","images/stimuli/spore_stims/complex_04_A_b.gif","forced_short","","9","complex_dissimilar","images/stimuli/spore_stims/complex_04_A_b.gif","","","","",""
"","null","html-keyboard-response","114","474849","0.0-27.0-0.1","SS1618365424357","","","null","","","","","","<p><img src= images/blank.png width =""600"" height = ""600"" style=""position:fixed;top:50%; left:50%; transform: translate(-50%, -50%); border:5px solid black"">","","","","","","","",""
"","5121.820000000298","sequential-stimulus-presentation-old","115","480474","0.0-27.0-1.1","SS1618365424357","trial","","40","500","5621.820000000298","images/stimuli/spore_stims/complex_18_A_a.gif","images/stimuli/spore_stims/complex_04_A_b.gif","forced_short","","9","complex_dissimilar","images/stimuli/spore_stims/complex_04_A_b.gif","","","","",""
"","null","html-keyboard-response","116","481436","0.0-27.0-0.2","SS1618365424357","","","null","","","","","","<p><img src= images/blank.png width =""600"" height = ""600"" style=""position:fixed;top:50%; left:50%; transform: translate(-50%, -50%); border:5px solid black"">","","","","","","","",""
"","3566.56499998644","sequential-stimulus-presentation-old","117","485505","0.0-27.0-1.2","SS1618365424357","trial","","40","500","4066.56499998644","images/stimuli/spore_stims/complex_18_A_a.gif","images/stimuli/spore_stims/complex_04_A_b.gif","forced_short","","9","complex_dissimilar","images/stimuli/spore_stims/complex_04_A_b.gif","","","","",""
"","null","html-keyboard-response","118","486648","0.0-27.0-0.3","SS1618365424357","","","null","","","","","","<p><img src= images/blank.png width =""600"" height = ""600"" style=""position:fixed;top:50%; left:50%; transform: translate(-50%, -50%); border:5px solid black"">","","","","","","","",""
"","7841.575000085868","sequential-stimulus-presentation-old","119","494994","0.0-27.0-1.3","SS1618365424357","trial","","40","500","8341.575000085868","images/stimuli/spore_stims/complex_18_A_a.gif","images/stimuli/spore_stims/complex_04_A_b.gif","forced_short","","9","complex_dissimilar","images/stimuli/spore_stims/complex_18_A_a.gif","","","","",""
"","null","html-keyboard-response","120","495959","0.0-27.0-0.4","SS1618365424357","","","null","","","","","","<p><img src= images/blank.png width =""600"" height = ""600"" style=""position:fixed;top:50%; left:50%; transform: translate(-50%, -50%); border:5px solid black"">","","","","","","","",""
"","2990.3599999379367","sequential-stimulus-presentation-old","121","499453","0.0-27.0-1.4","SS1618365424357","trial","","40","500","3490.3599999379367","images/stimuli/spore_stims/complex_18_A_a.gif","images/stimuli/spore_stims/complex_04_A_b.gif","forced_short","","9","complex_dissimilar","images/stimuli/spore_stims/complex_18_A_a.gif","","","","",""
"","3254.0299999527633","survey-multi-choice","122","502708","0.0-28.0","SS1618365424357","math_question","","","","","","","","","","","","{""Q0"":""10""}","[0]","10","",""
"","null","html-keyboard-response","123","503819","0.0-29.0-0.0","SS1618365424357","","","null","","","","","","<p><img src= images/blank.png width =""600"" height = ""600"" style=""position:fixed;top:50%; left:50%; transform: translate(-50%, -50%); border:5px solid black"">","","","","","","","",""
"","6583.90500000678","sequential-stimulus-presentation-old","124","510456","0.0-29.0-1.0","SS1618365424357","trial","","40","500","7083.90500000678","images/stimuli/spore_stims/simple_09_A_b.gif","images/stimuli/spore_stims/simple_11_A_a.gif","forced_short","","10","simple_dissimilar","images/stimuli/spore_stims/simple_11_A_a.gif","","","","",""
"","null","html-keyboard-response","125","511346","0.0-29.0-0.1","SS1618365424357","","","null","","","","","","<p><img src= images/blank.png width =""600"" height = ""600"" style=""position:fixed;top:50%; left:50%; transform: translate(-50%, -50%); border:5px solid black"">","","","","","","","",""
"","732.0149999577552","sequential-stimulus-presentation-old","126","512581","0.0-29.0-1.1","SS1618365424357","trial","","40","500","1232.0149999577552","images/stimuli/spore_stims/simple_09_A_b.gif","images/stimuli/spore_stims/simple_11_A_a.gif","forced_short","","10","simple_dissimilar","images/stimuli/spore_stims/simple_11_A_a.gif","","","","",""
"","null","html-keyboard-response","127","513473","0.0-29.0-0.2","SS1618365424357","","","null","","","","","","<p><img src= images/blank.png width =""600"" height = ""600"" style=""position:fixed;top:50%; left:50%; transform: translate(-50%, -50%); border:5px solid black"">","","","","","","","",""
"","199.4749999139458","sequential-stimulus-presentation-old","128","514176","0.0-29.0-1.2","SS1618365424357","trial","","40","500","699.4749999139458","images/stimuli/spore_stims/simple_09_A_b.gif","images/stimuli/spore_stims/simple_11_A_a.gif","forced_short","","10","simple_dissimilar","images/stimuli/spore_stims/simple_09_A_b.gif","","","","",""
"","null","html-keyboard-response","129","515150","0.0-29.0-0.3","SS1618365424357","","","null","","","","","","<p><img src= images/blank.png width =""600"" height = ""600"" style=""position:fixed;top:50%; left:50%; transform: translate(-50%, -50%); border:5px solid black"">","","","","","","","",""
"","276.5049999579787","sequential-stimulus-presentation-old","130","515929","0.0-29.0-1.3","SS1618365424357","trial","","40","500","776.5049999579787","images/stimuli/spore_stims/simple_09_A_b.gif","images/stimuli/spore_stims/simple_11_A_a.gif","forced_short","","10","simple_dissimilar","images/stimuli/spore_stims/simple_09_A_b.gif","","","","",""
"","8232.349999947473","survey-multi-choice","131","524163","0.0-30.0","SS1618365424357","math_question","","","","","","","","","","","","{""Q0"":""11""}","[0]","11","",""
"","null","html-keyboard-response","132","525258","0.0-31.0-0.0","SS1618365424357","","","null","","","","","","<p><img src= images/blank.png width =""600"" height = ""600"" style=""position:fixed;top:50%; left:50%; transform: translate(-50%, -50%); border:5px solid black"">","","","","","","","",""
"","4085.3350000688806","sequential-stimulus-presentation-old","133","534347","0.0-31.0-1.0","SS1618365424357","trial","","40","500","4585.335000068881","images/stimuli/spore_stims/simple_20_A_b.gif","images/stimuli/spore_stims/simple_10_A_a.gif","forced_long","","11","simple_dissimilar","images/stimuli/spore_stims/simple_10_A_a.gif","","","","",""
"","null","html-keyboard-response","134","535377","0.0-31.0-0.1","SS1618365424357","","","null","","","","","","<p><img src= images/blank.png width =""600"" height = ""600"" style=""position:fixed;top:50%; left:50%; transform: translate(-50%, -50%); border:5px solid black"">","","","","","","","",""
"","1571.8800000613555","sequential-stimulus-presentation-old","135","537452","0.0-31.0-1.1","SS1618365424357","trial","","40","500","2071.8800000613555","images/stimuli/spore_stims/simple_20_A_b.gif","images/stimuli/spore_stims/simple_10_A_a.gif","forced_long","","11","simple_dissimilar","images/stimuli/spore_stims/simple_20_A_b.gif","","","","",""
"","null","html-keyboard-response","136","538743","0.0-31.0-0.2","SS1618365424357","","","null","","","","","","<p><img src= images/blank.png width =""600"" height = ""600"" style=""position:fixed;top:50%; left:50%; transform: translate(-50%, -50%); border:5px solid black"">","","","","","","","",""
"","8472.019999986514","sequential-stimulus-presentation-old","137","547719","0.0-31.0-1.2","SS1618365424357","trial","","40","500","8972.019999986514","images/stimuli/spore_stims/simple_20_A_b.gif","images/stimuli/spore_stims/simple_10_A_a.gif","forced_long","","11","simple_dissimilar","images/stimuli/spore_stims/simple_10_A_a.gif","","","","",""
"","null","html-keyboard-response","138","548789","0.0-31.0-0.3","SS1618365424357","","","null","","","","","","<p><img src= images/blank.png width =""600"" height = ""600"" style=""position:fixed;top:50%; left:50%; transform: translate(-50%, -50%); border:5px solid black"">","","","","","","","",""
"","1575.124999973923","sequential-stimulus-presentation-old","139","550867","0.0-31.0-1.3","SS1618365424357","trial","","40","500","2075.124999973923","images/stimuli/spore_stims/simple_20_A_b.gif","images/stimuli/spore_stims/simple_10_A_a.gif","forced_long","","11","simple_dissimilar","images/stimuli/spore_stims/simple_10_A_a.gif","","","","",""
"","null","html-keyboard-response","140","551751","0.0-31.0-0.4","SS1618365424357","","","null","","","","","","<p><img src= images/blank.png width =""600"" height = ""600"" style=""position:fixed;top:50%; left:50%; transform: translate(-50%, -50%); border:5px solid black"">","","","","","","","",""
"","3733.8800000725314","sequential-stimulus-presentation-old","141","555988","0.0-31.0-1.4","SS1618365424357","trial","","40","500","4233.880000072531","images/stimuli/spore_stims/simple_20_A_b.gif","images/stimuli/spore_stims/simple_10_A_a.gif","forced_long","","11","simple_dissimilar","images/stimuli/spore_stims/simple_10_A_a.gif","","","","",""
"","null","html-keyboard-response","142","557026","0.0-31.0-0.5","SS1618365424357","","","null","","","","","","<p><img src= images/blank.png width =""600"" height = ""600"" style=""position:fixed;top:50%; left:50%; transform: translate(-50%, -50%); border:5px solid black"">","","","","","","","",""
"","517.020000028424","sequential-stimulus-presentation-old","143","558046","0.0-31.0-1.5","SS1618365424357","trial","","40","500","1017.020000028424","images/stimuli/spore_stims/simple_20_A_b.gif","images/stimuli/spore_stims/simple_10_A_a.gif","forced_long","","11","simple_dissimilar","images/stimuli/spore_stims/simple_20_A_b.gif","","","","",""
"[{""page_index"":0,""viewing_time"":6746.365000028163}]","6746.565000037663","instructions","144","564795","0.0-32.0","SS1618365424357","instructions","","","","","","","","","","","","","","","",""
"","11527.924999943934","survey-likert","145","576325","0.0-33.0","SS1618365424357","similarity_question","","","","","","","","","","","","{""Q0"":4}","[0]","","images/stimuli/spore_stims/complex_11_A_a.gif","images/stimuli/spore_stims/complex_14_A_b.gif"
"","6903.280000085942","survey-likert","146","583231","0.0-34.0","SS1618365424357","similarity_question","","","","","","","","","","","","{""Q0"":3}","[0]","","images/stimuli/spore_stims/complex_10_A_a.gif","images/stimuli/spore_stims/complex_01_A_b.gif"
"","4520.640000002459","survey-likert","147","587755","0.0-35.0","SS1618365424357","similarity_question","","","","","","","","","","","","{""Q0"":4}","[0]","","images/stimuli/spore_stims/simple_10_A_a.gif","images/stimuli/spore_stims/simple_20_A_b.gif"
"","2645.4849999863654","survey-likert","148","590402","0.0-36.0","SS1618365424357","similarity_question","","","","","","","","","","","","{""Q0"":5}","[0]","","images/stimuli/spore_stims/simple_02_A_b.gif","images/stimuli/spore_stims/simple_17_A_a.gif"
"","5421.124999993481","survey-likert","149","595826","0.0-37.0","SS1618365424357","similarity_question","","","","","","","","","","","","{""Q0"":1}","[0]","","images/stimuli/spore_stims/complex_04_A_a.gif","images/stimuli/spore_stims/complex_03_A_b.gif"
"","3639.8749999934807","survey-likert","150","599469","0.0-38.0","SS1618365424357","similarity_question","","","","","","","","","","","","{""Q0"":3}","[0]","","images/stimuli/spore_stims/complex_04_A_b.gif","images/stimuli/spore_stims/complex_18_A_a.gif"
"","2552.0200000610203","survey-likert","151","602023","0.0-39.0","SS1618365424357","similarity_question","","","","","","","","","","","","{""Q0"":5}","[0]","","images/stimuli/spore_stims/simple_11_A_a.gif","images/stimuli/spore_stims/simple_09_A_b.gif"
"","3079.7749999910593","survey-likert","152","605105","0.0-40.0","SS1618365424357","similarity_question","","","","","","","","","","","","{""Q0"":3}","[0]","","images/stimuli/spore_stims/simple_07_A_b.gif","images/stimuli/spore_stims/simple_20_A_a.gif"
"","16222.019999986514","survey-likert","153","621329","0.0-41.0","SS1618365424357","similarity_question","","","","","","","","","","","","{""Q0"":3}","[0]","","images/stimuli/spore_stims/complex_15_A_a.gif","images/stimuli/spore_stims/complex_07_A_b.gif"
"","17633.799999952316","survey-likert","154","638965","0.0-42.0","SS1618365424357","similarity_question","","","","","","","","","","","","{""Q0"":5}","[0]","","images/stimuli/spore_stims/simple_05_A_a.gif","images/stimuli/spore_stims/simple_03_A_b.gif"
"","8818.55500000529","survey-likert","155","647786","0.0-43.0","SS1618365424357","similarity_question","","","","","","","","","","","","{""Q0"":2}","[0]","","images/stimuli/spore_stims/complex_07_A_a.gif","images/stimuli/spore_stims/complex_19_A_b.gif"
"","5002.204999909736","survey-likert","156","652791","0.0-44.0","SS1618365424357","similarity_question","","","","","","","","","","","","{""Q0"":2}","[0]","","images/stimuli/spore_stims/simple_18_A_a.gif","images/stimuli/spore_stims/simple_08_A_b.gif"
"[{""page_index"":0,""viewing_time"":5052.284999983385}]","5052.595000015572","instructions","157","657845","0.0-45.0","SS1618365424357","instructions","","","","","","","","","","","","","","","",""
"","9338.929999968968","survey-likert","158","667186","0.0-46.0","SS1618365424357","","","","","","","","","images/stimuli/spore_stims/simple_17_A_a.gif","","","","{""Q0"":1}","[0]","","",""
"","3778.3900001086295","survey-likert","159","670968","0.0-47.0","SS1618365424357","","","","","","","","","images/stimuli/spore_stims/simple_20_A_b.gif","","","","{""Q0"":1}","[0]","","",""
"","5137.624999973923","survey-likert","160","676107","0.0-48.0","SS1618365424357","","","","","","","","","images/stimuli/spore_stims/simple_11_A_a.gif","","","","{""Q0"":1}","[0]","","",""
"","1946.8399999896064","survey-likert","161","678056","0.0-49.0","SS1618365424357","","","","","","","","","images/stimuli/spore_stims/simple_08_A_b.gif","","","","{""Q0"":2}","[0]","","",""
"","7416.71999997925","survey-likert","162","685476","0.0-50.0","SS1618365424357","","","","","","","","","images/stimuli/spore_stims/complex_07_A_b.gif","","","","{""Q0"":4}","[0]","","",""
"","1986.1249999376014","survey-likert","163","687464","0.0-51.0","SS1618365424357","","","","","","","","","images/stimuli/spore_stims/simple_20_A_a.gif","","","","{""Q0"":2}","[0]","","",""
"","2025.6850000005215","survey-likert","164","689493","0.0-52.0","SS1618365424357","","","","","","","","","images/stimuli/spore_stims/simple_03_A_b.gif","","","","{""Q0"":2}","[0]","","",""
"","1848.0700000654906","survey-likert","165","691343","0.0-53.0","SS1618365424357","","","","","","","","","images/stimuli/spore_stims/complex_04_A_a.gif","","","","{""Q0"":4}","[0]","","",""
"","2122.179999947548","survey-likert","166","693467","0.0-54.0","SS1618365424357","","","","","","","","","images/stimuli/spore_stims/complex_14_A_b.gif","","","","{""Q0"":5}","[0]","","",""
"","2719.0450000343844","survey-likert","167","696189","0.0-55.0","SS1618365424357","","","","","","","","","images/stimuli/spore_stims/complex_07_A_a.gif","","","","{""Q0"":6}","[0]","","",""
"","18215.94499994535","survey-likert","168","714408","0.0-56.0","SS1618365424357","","","","","","","","","images/stimuli/spore_stims/complex_04_A_b.gif","","","","{""Q0"":4}","[0]","","",""
"","3037.899999995716","survey-likert","169","717448","0.0-57.0","SS1618365424357","","","","","","","","","images/stimuli/spore_stims/complex_10_A_a.gif","","","","{""Q0"":5}","[0]","","",""
"[{""page_index"":0,""viewing_time"":1727.0699999062344}]","1727.269999915734","instructions","170","719177","0.0-58.0","SS1618365424357","instructions","","","","","","","","","","","","","","","",""
"","9206.825000001118","demog-age","171","728389","0.0-59.0","SS1618365424357","","","","","","","","","","","","","{""age"":""20""}","","","",""
"","6464.06000002753","demog-ethnic-US","172","734857","0.0-60.0","SS1618365424357","","","","","","","","","","","","","{""ethnicity"":[""White""]}","[0]","","",""
"","8515.770000056364","demog-gender-and-education","173","743376","0.0-61.0","SS1618365424357","","","","","","","","","","","","","{""gender"":""Male"",""education"":""High school diploma""}","[0,1]","","",""
"","24871.604999992996","survey-text","174","768251","0.0-62.0","SS1618365424357","feedback","","","","","","","","","","","","{""Q0"":""NO""}","","","",""
"[{""page_index"":0,""viewing_time"":1455.9499999741092}]","1456.1499999836087","instructions","175","769709","0.0-63.0","SS1618365424357","instructions","","","","","","","","","","","","","","","",""
