"view_history","rt","trial_type","trial_index","time_elapsed","internal_node_id","subject","stimulus_type","trial_stimulus","key_press","minimum_viewing_duration","trial_looking_time","block_deviant","block_background","exposure_type","stimulus","block_number","block_type","stimulus_displayed","responses","question_order","math_correct_answer","stimulus_left","stimulus_right"
"[{""page_index"":0,""viewing_time"":94303.09500000294}]","94303.88500000117","instructions","0","94307","0.0-0.0","SS1618435687525","","","","","","","","","","","","","","","","",""
"[{""page_index"":0,""viewing_time"":7077.744999998686},{""page_index"":1,""viewing_time"":2851.585000000341}]","9929.57000000024","instructions","1","106239","0.0-1.0","SS1618435687525","instructions","","","","","","","","","","","","","","","",""
"","5303.574999998091","sequential-stimulus-presentation-old","2","112046","0.0-2.0","SS1618435687525","","","40","500","5803.574999998091","null","null","self_paced","","","","","","","","",""
"","7645.539999997709","sequential-stimulus-presentation-old","3","120193","0.0-3.0","SS1618435687525","","","40","500","8145.539999997709","null","null","self_paced","","","","","","","","",""
"[{""page_index"":0,""viewing_time"":14304.394999999204}]","14304.664999999659","instructions","4","134499","0.0-4.0","SS1618435687525","instructions","","","","","","","","","","","","","","","",""
"","425.3549999993993","sequential-stimulus-presentation-old","5","139928","0.0-5.0","SS1618435687525","","","40","500","925.3549999993993","null","null","forced_long","","","","","","","","",""
"","20920.96500000116","sequential-stimulus-presentation-old","6","160903","0.0-6.0","SS1618435687525","","","40","50","20970.96500000116","null","null","forced_long","","","","","","","","",""
"[{""page_index"":0,""viewing_time"":4260.394999997516}]","4260.630000000674","instructions","7","165164","0.0-7.0","SS1618435687525","instructions","","","","","","","","","","","","","","","",""
"[{""page_index"":0,""viewing_time"":2969.7699999996985},{""page_index"":1,""viewing_time"":3503.550000001269},{""page_index"":2,""viewing_time"":3132.369999999355},{""page_index"":3,""viewing_time"":1800.3349999999045},{""page_index"":4,""viewing_time"":1065.4900000008638}]","12471.760000000359","instructions","8","177638","0.0-8.0","SS1618435687525","instructions","","","","","","","","","","","","","","","",""
"","null","html-keyboard-response","9","178517","0.0-9.0-0.0","SS1618435687525","","","null","","","","","","<p><img src= images/blank.png width =""600"" height = ""600"" style=""position:fixed;top:50%; left:50%; transform: translate(-50%, -50%); border:5px solid black"">","","","","","","","",""
"","713.4900000019115","sequential-stimulus-presentation-old","10","179290","0.0-9.0-1.0","SS1618435687525","trial","","40","500","1213.4900000019115","images/stimuli/spore_stims/simple_18_A_a.gif","images/stimuli/spore_stims/simple_20_A_b.gif","forced_short","","0","simple_dissimilar","images/stimuli/spore_stims/simple_20_A_b.gif","","","","",""
"","null","html-keyboard-response","11","180114","0.0-9.0-0.1","SS1618435687525","","","null","","","","","","<p><img src= images/blank.png width =""600"" height = ""600"" style=""position:fixed;top:50%; left:50%; transform: translate(-50%, -50%); border:5px solid black"">","","","","","","","",""
"","3654.54999999929","sequential-stimulus-presentation-old","12","184276","0.0-9.0-1.1","SS1618435687525","trial","","40","500","4154.54999999929","images/stimuli/spore_stims/simple_18_A_a.gif","images/stimuli/spore_stims/simple_20_A_b.gif","forced_short","","0","simple_dissimilar","images/stimuli/spore_stims/simple_20_A_b.gif","","","","",""
"","null","html-keyboard-response","13","185342","0.0-9.0-0.2","SS1618435687525","","","null","","","","","","<p><img src= images/blank.png width =""600"" height = ""600"" style=""position:fixed;top:50%; left:50%; transform: translate(-50%, -50%); border:5px solid black"">","","","","","","","",""
"","4143.879999999626","sequential-stimulus-presentation-old","14","189989","0.0-9.0-1.2","SS1618435687525","trial","","40","500","4643.879999999626","images/stimuli/spore_stims/simple_18_A_a.gif","images/stimuli/spore_stims/simple_20_A_b.gif","forced_short","","0","simple_dissimilar","images/stimuli/spore_stims/simple_20_A_b.gif","","","","",""
"","null","html-keyboard-response","15","191107","0.0-9.0-0.3","SS1618435687525","","","null","","","","","","<p><img src= images/blank.png width =""600"" height = ""600"" style=""position:fixed;top:50%; left:50%; transform: translate(-50%, -50%); border:5px solid black"">","","","","","","","",""
"","5720.045000001846","sequential-stimulus-presentation-old","16","197330","0.0-9.0-1.3","SS1618435687525","trial","","40","500","6220.045000001846","images/stimuli/spore_stims/simple_18_A_a.gif","images/stimuli/spore_stims/simple_20_A_b.gif","forced_short","","0","simple_dissimilar","images/stimuli/spore_stims/simple_18_A_a.gif","","","","",""
"","null","html-keyboard-response","17","198533","0.0-9.0-0.4","SS1618435687525","","","null","","","","","","<p><img src= images/blank.png width =""600"" height = ""600"" style=""position:fixed;top:50%; left:50%; transform: translate(-50%, -50%); border:5px solid black"">","","","","","","","",""
"","2650.4099999983737","sequential-stimulus-presentation-old","18","201688","0.0-9.0-1.4","SS1618435687525","trial","","40","500","3150.4099999983737","images/stimuli/spore_stims/simple_18_A_a.gif","images/stimuli/spore_stims/simple_20_A_b.gif","forced_short","","0","simple_dissimilar","images/stimuli/spore_stims/simple_18_A_a.gif","","","","",""
"","4445.5850000013015","survey-multi-choice","19","206137","0.0-10.0","SS1618435687525","math_question","","","","","","","","","","","","{""Q0"":""8""}","[0]","8","",""
"","null","html-keyboard-response","20","207164","0.0-11.0-0.0","SS1618435687525","","","null","","","","","","<p><img src= images/blank.png width =""600"" height = ""600"" style=""position:fixed;top:50%; left:50%; transform: translate(-50%, -50%); border:5px solid black"">","","","","","","","",""
"","484.6899999974994","sequential-stimulus-presentation-old","21","208153","0.0-11.0-1.0","SS1618435687525","trial","","40","500","984.6899999974994","images/stimuli/spore_stims/simple_06_A_b.gif","images/stimuli/spore_stims/simple_17_A_a.gif","self_paced","","1","simple_dissimilar","images/stimuli/spore_stims/simple_17_A_a.gif","","","","",""
"","null","html-keyboard-response","22","209159","0.0-11.0-0.1","SS1618435687525","","","null","","","","","","<p><img src= images/blank.png width =""600"" height = ""600"" style=""position:fixed;top:50%; left:50%; transform: translate(-50%, -50%); border:5px solid black"">","","","","","","","",""
"","508.12999999834574","sequential-stimulus-presentation-old","23","210173","0.0-11.0-1.1","SS1618435687525","trial","","40","500","1008.1299999983457","images/stimuli/spore_stims/simple_06_A_b.gif","images/stimuli/spore_stims/simple_17_A_a.gif","self_paced","","1","simple_dissimilar","images/stimuli/spore_stims/simple_17_A_a.gif","","","","",""
"","null","html-keyboard-response","24","211224","0.0-11.0-0.2","SS1618435687525","","","null","","","","","","<p><img src= images/blank.png width =""600"" height = ""600"" style=""position:fixed;top:50%; left:50%; transform: translate(-50%, -50%); border:5px solid black"">","","","","","","","",""
"","1139.0599999976985","sequential-stimulus-presentation-old","25","212866","0.0-11.0-1.2","SS1618435687525","trial","","40","500","1639.0599999976985","images/stimuli/spore_stims/simple_06_A_b.gif","images/stimuli/spore_stims/simple_17_A_a.gif","self_paced","","1","simple_dissimilar","images/stimuli/spore_stims/simple_17_A_a.gif","","","","",""
"","null","html-keyboard-response","26","214089","0.0-11.0-0.3","SS1618435687525","","","null","","","","","","<p><img src= images/blank.png width =""600"" height = ""600"" style=""position:fixed;top:50%; left:50%; transform: translate(-50%, -50%); border:5px solid black"">","","","","","","","",""
"","4156.8850000003295","sequential-stimulus-presentation-old","27","218750","0.0-11.0-1.3","SS1618435687525","trial","","40","500","4656.8850000003295","images/stimuli/spore_stims/simple_06_A_b.gif","images/stimuli/spore_stims/simple_17_A_a.gif","self_paced","","1","simple_dissimilar","images/stimuli/spore_stims/simple_06_A_b.gif","","","","",""
"","null","html-keyboard-response","28","219658","0.0-11.0-0.4","SS1618435687525","","","null","","","","","","<p><img src= images/blank.png width =""600"" height = ""600"" style=""position:fixed;top:50%; left:50%; transform: translate(-50%, -50%); border:5px solid black"">","","","","","","","",""
"","3649.2849999995087","sequential-stimulus-presentation-old","29","223813","0.0-11.0-1.4","SS1618435687525","trial","","40","500","4149.284999999509","images/stimuli/spore_stims/simple_06_A_b.gif","images/stimuli/spore_stims/simple_17_A_a.gif","self_paced","","1","simple_dissimilar","images/stimuli/spore_stims/simple_17_A_a.gif","","","","",""
"","2427.3099999991246","survey-multi-choice","30","226243","0.0-12.0","SS1618435687525","math_question","","","","","","","","","","","","{""Q0"":""18""}","[0]","18","",""
"","null","html-keyboard-response","31","227075","0.0-13.0-0.0","SS1618435687525","","","null","","","","","","<p><img src= images/blank.png width =""600"" height = ""600"" style=""position:fixed;top:50%; left:50%; transform: translate(-50%, -50%); border:5px solid black"">","","","","","","","",""
"","618.0100000019593","sequential-stimulus-presentation-old","32","232698","0.0-13.0-1.0","SS1618435687525","trial","","40","500","1118.0100000019593","images/stimuli/spore_stims/simple_13_A_b.gif","images/stimuli/spore_stims/simple_09_A_a.gif","forced_long","","2","simple_dissimilar","images/stimuli/spore_stims/simple_09_A_a.gif","","","","",""
"","null","html-keyboard-response","33","233830","0.0-13.0-0.1","SS1618435687525","","","null","","","","","","<p><img src= images/blank.png width =""600"" height = ""600"" style=""position:fixed;top:50%; left:50%; transform: translate(-50%, -50%); border:5px solid black"">","","","","","","","",""
"","1111.140000000887","sequential-stimulus-presentation-old","34","235447","0.0-13.0-1.1","SS1618435687525","trial","","40","500","1611.140000000887","images/stimuli/spore_stims/simple_13_A_b.gif","images/stimuli/spore_stims/simple_09_A_a.gif","forced_long","","2","simple_dissimilar","images/stimuli/spore_stims/simple_13_A_b.gif","","","","",""
"","null","html-keyboard-response","35","236736","0.0-13.0-0.2","SS1618435687525","","","null","","","","","","<p><img src= images/blank.png width =""600"" height = ""600"" style=""position:fixed;top:50%; left:50%; transform: translate(-50%, -50%); border:5px solid black"">","","","","","","","",""
"","1097.5699999980861","sequential-stimulus-presentation-old","36","238341","0.0-13.0-1.2","SS1618435687525","trial","","40","500","1597.5699999980861","images/stimuli/spore_stims/simple_13_A_b.gif","images/stimuli/spore_stims/simple_09_A_a.gif","forced_long","","2","simple_dissimilar","images/stimuli/spore_stims/simple_09_A_a.gif","","","","",""
"","null","html-keyboard-response","37","239572","0.0-13.0-0.3","SS1618435687525","","","null","","","","","","<p><img src= images/blank.png width =""600"" height = ""600"" style=""position:fixed;top:50%; left:50%; transform: translate(-50%, -50%); border:5px solid black"">","","","","","","","",""
"","175.32500000015716","sequential-stimulus-presentation-old","38","240253","0.0-13.0-1.3","SS1618435687525","trial","","40","500","675.3250000001572","images/stimuli/spore_stims/simple_13_A_b.gif","images/stimuli/spore_stims/simple_09_A_a.gif","forced_long","","2","simple_dissimilar","images/stimuli/spore_stims/simple_09_A_a.gif","","","","",""
"","null","html-keyboard-response","39","241518","0.0-13.0-0.4","SS1618435687525","","","null","","","","","","<p><img src= images/blank.png width =""600"" height = ""600"" style=""position:fixed;top:50%; left:50%; transform: translate(-50%, -50%); border:5px solid black"">","","","","","","","",""
"","2672.3149999997986","sequential-stimulus-presentation-old","40","244693","0.0-13.0-1.4","SS1618435687525","trial","","40","500","3172.3149999997986","images/stimuli/spore_stims/simple_13_A_b.gif","images/stimuli/spore_stims/simple_09_A_a.gif","forced_long","","2","simple_dissimilar","images/stimuli/spore_stims/simple_13_A_b.gif","","","","",""
"","1919.9850000004517","survey-multi-choice","41","246614","0.0-14.0","SS1618435687525","math_question","","","","","","","","","","","","{""Q0"":""15""}","[0]","15","",""
"","null","html-keyboard-response","42","247429","0.0-15.0-0.0","SS1618435687525","","","null","","","","","","<p><img src= images/blank.png width =""600"" height = ""600"" style=""position:fixed;top:50%; left:50%; transform: translate(-50%, -50%); border:5px solid black"">","","","","","","","",""
"","658.4000000002561","sequential-stimulus-presentation-old","43","248593","0.0-15.0-1.0","SS1618435687525","trial","","40","500","1158.4000000002561","images/stimuli/spore_stims/complex_02_A_a.gif","images/stimuli/spore_stims/complex_01_A_b.gif","self_paced","","3","complex_dissimilar","images/stimuli/spore_stims/complex_01_A_b.gif","","","","",""
"","null","html-keyboard-response","44","249861","0.0-15.0-0.1","SS1618435687525","","","null","","","","","","<p><img src= images/blank.png width =""600"" height = ""600"" style=""position:fixed;top:50%; left:50%; transform: translate(-50%, -50%); border:5px solid black"">","","","","","","","",""
"","3017.0499999985623","sequential-stimulus-presentation-old","45","253381","0.0-15.0-1.1","SS1618435687525","trial","","40","500","3517.0499999985623","images/stimuli/spore_stims/complex_02_A_a.gif","images/stimuli/spore_stims/complex_01_A_b.gif","self_paced","","3","complex_dissimilar","images/stimuli/spore_stims/complex_01_A_b.gif","","","","",""
"","null","html-keyboard-response","46","254223","0.0-15.0-0.2","SS1618435687525","","","null","","","","","","<p><img src= images/blank.png width =""600"" height = ""600"" style=""position:fixed;top:50%; left:50%; transform: translate(-50%, -50%); border:5px solid black"">","","","","","","","",""
"","454.2799999981071","sequential-stimulus-presentation-old","47","255183","0.0-15.0-1.2","SS1618435687525","trial","","40","500","954.2799999981071","images/stimuli/spore_stims/complex_02_A_a.gif","images/stimuli/spore_stims/complex_01_A_b.gif","self_paced","","3","complex_dissimilar","images/stimuli/spore_stims/complex_02_A_a.gif","","","","",""
"","null","html-keyboard-response","48","256064","0.0-15.0-0.3","SS1618435687525","","","null","","","","","","<p><img src= images/blank.png width =""600"" height = ""600"" style=""position:fixed;top:50%; left:50%; transform: translate(-50%, -50%); border:5px solid black"">","","","","","","","",""
"","4470.8599999975995","sequential-stimulus-presentation-old","49","261041","0.0-15.0-1.3","SS1618435687525","trial","","40","500","4970.8599999975995","images/stimuli/spore_stims/complex_02_A_a.gif","images/stimuli/spore_stims/complex_01_A_b.gif","self_paced","","3","complex_dissimilar","images/stimuli/spore_stims/complex_01_A_b.gif","","","","",""
"","null","html-keyboard-response","50","262023","0.0-15.0-0.4","SS1618435687525","","","null","","","","","","<p><img src= images/blank.png width =""600"" height = ""600"" style=""position:fixed;top:50%; left:50%; transform: translate(-50%, -50%); border:5px solid black"">","","","","","","","",""
"","1028.8849999997183","sequential-stimulus-presentation-old","51","263556","0.0-15.0-1.4","SS1618435687525","trial","","40","500","1528.8849999997183","images/stimuli/spore_stims/complex_02_A_a.gif","images/stimuli/spore_stims/complex_01_A_b.gif","self_paced","","3","complex_dissimilar","images/stimuli/spore_stims/complex_02_A_a.gif","","","","",""
"","2940.9799999993993","survey-multi-choice","52","266498","0.0-16.0","SS1618435687525","math_question","","","","","","","","","","","","{""Q0"":""10""}","[0]","10","",""
"","null","html-keyboard-response","53","267593","0.0-17.0-0.0","SS1618435687525","","","null","","","","","","<p><img src= images/blank.png width =""600"" height = ""600"" style=""position:fixed;top:50%; left:50%; transform: translate(-50%, -50%); border:5px solid black"">","","","","","","","",""
"","1088.7949999996927","sequential-stimulus-presentation-old","54","273689","0.0-17.0-1.0","SS1618435687525","trial","","40","500","1588.7949999996927","images/stimuli/spore_stims/complex_03_A_b.gif","images/stimuli/spore_stims/complex_18_A_a.gif","forced_long","","4","complex_dissimilar","images/stimuli/spore_stims/complex_18_A_a.gif","","","","",""
"","null","html-keyboard-response","55","274745","0.0-17.0-0.1","SS1618435687525","","","null","","","","","","<p><img src= images/blank.png width =""600"" height = ""600"" style=""position:fixed;top:50%; left:50%; transform: translate(-50%, -50%); border:5px solid black"">","","","","","","","",""
"","2420.825000001001","sequential-stimulus-presentation-old","56","277670","0.0-17.0-1.1","SS1618435687525","trial","","40","500","2920.825000001001","images/stimuli/spore_stims/complex_03_A_b.gif","images/stimuli/spore_stims/complex_18_A_a.gif","forced_long","","4","complex_dissimilar","images/stimuli/spore_stims/complex_18_A_a.gif","","","","",""
"","null","html-keyboard-response","57","278918","0.0-17.0-0.2","SS1618435687525","","","null","","","","","","<p><img src= images/blank.png width =""600"" height = ""600"" style=""position:fixed;top:50%; left:50%; transform: translate(-50%, -50%); border:5px solid black"">","","","","","","","",""
"","3017.004999997851","sequential-stimulus-presentation-old","58","282439","0.0-17.0-1.2","SS1618435687525","trial","","40","500","3517.004999997851","images/stimuli/spore_stims/complex_03_A_b.gif","images/stimuli/spore_stims/complex_18_A_a.gif","forced_long","","4","complex_dissimilar","images/stimuli/spore_stims/complex_18_A_a.gif","","","","",""
"","null","html-keyboard-response","59","283737","0.0-17.0-0.3","SS1618435687525","","","null","","","","","","<p><img src= images/blank.png width =""600"" height = ""600"" style=""position:fixed;top:50%; left:50%; transform: translate(-50%, -50%); border:5px solid black"">","","","","","","","",""
"","2955.5249999975786","sequential-stimulus-presentation-old","60","287197","0.0-17.0-1.3","SS1618435687525","trial","","40","500","3455.5249999975786","images/stimuli/spore_stims/complex_03_A_b.gif","images/stimuli/spore_stims/complex_18_A_a.gif","forced_long","","4","complex_dissimilar","images/stimuli/spore_stims/complex_03_A_b.gif","","","","",""
"","null","html-keyboard-response","61","288469","0.0-17.0-0.4","SS1618435687525","","","null","","","","","","<p><img src= images/blank.png width =""600"" height = ""600"" style=""position:fixed;top:50%; left:50%; transform: translate(-50%, -50%); border:5px solid black"">","","","","","","","",""
"","3387.140000002517","sequential-stimulus-presentation-old","62","292364","0.0-17.0-1.4","SS1618435687525","trial","","40","500","3887.140000002517","images/stimuli/spore_stims/complex_03_A_b.gif","images/stimuli/spore_stims/complex_18_A_a.gif","forced_long","","4","complex_dissimilar","images/stimuli/spore_stims/complex_18_A_a.gif","","","","",""
"","null","html-keyboard-response","63","293519","0.0-17.0-0.5","SS1618435687525","","","null","","","","","","<p><img src= images/blank.png width =""600"" height = ""600"" style=""position:fixed;top:50%; left:50%; transform: translate(-50%, -50%); border:5px solid black"">","","","","","","","",""
"","2520.895000001474","sequential-stimulus-presentation-old","64","296543","0.0-17.0-1.5","SS1618435687525","trial","","40","500","3020.895000001474","images/stimuli/spore_stims/complex_03_A_b.gif","images/stimuli/spore_stims/complex_18_A_a.gif","forced_long","","4","complex_dissimilar","images/stimuli/spore_stims/complex_18_A_a.gif","","","","",""
"","2744.6500000006054","survey-multi-choice","65","299289","0.0-18.0","SS1618435687525","math_question","","","","","","","","","","","","{""Q0"":""11""}","[0]","11","",""
"","null","html-keyboard-response","66","300320","0.0-19.0-0.0","SS1618435687525","","","null","","","","","","<p><img src= images/blank.png width =""600"" height = ""600"" style=""position:fixed;top:50%; left:50%; transform: translate(-50%, -50%); border:5px solid black"">","","","","","","","",""
"","7589.959999997518","sequential-stimulus-presentation-old","67","312916","0.0-19.0-1.0","SS1618435687525","trial","","40","500","8089.959999997518","images/stimuli/spore_stims/complex_10_A_a.gif","images/stimuli/spore_stims/complex_04_A_b.gif","forced_long","","5","complex_dissimilar","images/stimuli/spore_stims/complex_04_A_b.gif","","","","",""
"","null","html-keyboard-response","68","313793","0.0-19.0-0.1","SS1618435687525","","","null","","","","","","<p><img src= images/blank.png width =""600"" height = ""600"" style=""position:fixed;top:50%; left:50%; transform: translate(-50%, -50%); border:5px solid black"">","","","","","","","",""
"","371.15000000270084","sequential-stimulus-presentation-old","69","314671","0.0-19.0-1.1","SS1618435687525","trial","","40","500","871.1500000027008","images/stimuli/spore_stims/complex_10_A_a.gif","images/stimuli/spore_stims/complex_04_A_b.gif","forced_long","","5","complex_dissimilar","images/stimuli/spore_stims/complex_04_A_b.gif","","","","",""
"","null","html-keyboard-response","70","315758","0.0-19.0-0.2","SS1618435687525","","","null","","","","","","<p><img src= images/blank.png width =""600"" height = ""600"" style=""position:fixed;top:50%; left:50%; transform: translate(-50%, -50%); border:5px solid black"">","","","","","","","",""
"","2629.899999999907","sequential-stimulus-presentation-old","71","318892","0.0-19.0-1.2","SS1618435687525","trial","","40","500","3129.899999999907","images/stimuli/spore_stims/complex_10_A_a.gif","images/stimuli/spore_stims/complex_04_A_b.gif","forced_long","","5","complex_dissimilar","images/stimuli/spore_stims/complex_10_A_a.gif","","","","",""
"","null","html-keyboard-response","72","320130","0.0-19.0-0.3","SS1618435687525","","","null","","","","","","<p><img src= images/blank.png width =""600"" height = ""600"" style=""position:fixed;top:50%; left:50%; transform: translate(-50%, -50%); border:5px solid black"">","","","","","","","",""
"","1462.585000001127","sequential-stimulus-presentation-old","73","322099","0.0-19.0-1.3","SS1618435687525","trial","","40","500","1962.585000001127","images/stimuli/spore_stims/complex_10_A_a.gif","images/stimuli/spore_stims/complex_04_A_b.gif","forced_long","","5","complex_dissimilar","images/stimuli/spore_stims/complex_04_A_b.gif","","","","",""
"","null","html-keyboard-response","74","323187","0.0-19.0-0.4","SS1618435687525","","","null","","","","","","<p><img src= images/blank.png width =""600"" height = ""600"" style=""position:fixed;top:50%; left:50%; transform: translate(-50%, -50%); border:5px solid black"">","","","","","","","",""
"","307.85000000102445","sequential-stimulus-presentation-old","75","324001","0.0-19.0-1.4","SS1618435687525","trial","","40","500","807.8500000010245","images/stimuli/spore_stims/complex_10_A_a.gif","images/stimuli/spore_stims/complex_04_A_b.gif","forced_long","","5","complex_dissimilar","images/stimuli/spore_stims/complex_04_A_b.gif","","","","",""
"","null","html-keyboard-response","76","325043","0.0-19.0-0.5","SS1618435687525","","","null","","","","","","<p><img src= images/blank.png width =""600"" height = ""600"" style=""position:fixed;top:50%; left:50%; transform: translate(-50%, -50%); border:5px solid black"">","","","","","","","",""
"","26.609999997133855","sequential-stimulus-presentation-old","77","325576","0.0-19.0-1.5","SS1618435687525","trial","","40","500","526.6099999971339","images/stimuli/spore_stims/complex_10_A_a.gif","images/stimuli/spore_stims/complex_04_A_b.gif","forced_long","","5","complex_dissimilar","images/stimuli/spore_stims/complex_04_A_b.gif","","","","",""
"","2909.7250000013737","survey-multi-choice","78","328487","0.0-20.0","SS1618435687525","math_question","","","","","","","","","","","","{""Q0"":""5""}","[0]","5","",""
"","null","html-keyboard-response","79","329711","0.0-21.0-0.0","SS1618435687525","","","null","","","","","","<p><img src= images/blank.png width =""600"" height = ""600"" style=""position:fixed;top:50%; left:50%; transform: translate(-50%, -50%); border:5px solid black"">","","","","","","","",""
"","205.1099999989383","sequential-stimulus-presentation-old","80","330422","0.0-21.0-1.0","SS1618435687525","trial","","40","500","705.1099999989383","images/stimuli/spore_stims/simple_02_A_b.gif","images/stimuli/spore_stims/simple_01_A_a.gif","self_paced","","6","simple_dissimilar","images/stimuli/spore_stims/simple_01_A_a.gif","","","","",""
"","null","html-keyboard-response","81","331608","0.0-21.0-0.1","SS1618435687525","","","null","","","","","","<p><img src= images/blank.png width =""600"" height = ""600"" style=""position:fixed;top:50%; left:50%; transform: translate(-50%, -50%); border:5px solid black"">","","","","","","","",""
"","1018.5349999992177","sequential-stimulus-presentation-old","82","333136","0.0-21.0-1.1","SS1618435687525","trial","","40","500","1518.5349999992177","images/stimuli/spore_stims/simple_02_A_b.gif","images/stimuli/spore_stims/simple_01_A_a.gif","self_paced","","6","simple_dissimilar","images/stimuli/spore_stims/simple_01_A_a.gif","","","","",""
"","null","html-keyboard-response","83","334297","0.0-21.0-0.2","SS1618435687525","","","null","","","","","","<p><img src= images/blank.png width =""600"" height = ""600"" style=""position:fixed;top:50%; left:50%; transform: translate(-50%, -50%); border:5px solid black"">","","","","","","","",""
"","1081.7150000002584","sequential-stimulus-presentation-old","84","335887","0.0-21.0-1.2","SS1618435687525","trial","","40","500","1581.7150000002584","images/stimuli/spore_stims/simple_02_A_b.gif","images/stimuli/spore_stims/simple_01_A_a.gif","self_paced","","6","simple_dissimilar","images/stimuli/spore_stims/simple_01_A_a.gif","","","","",""
"","null","html-keyboard-response","85","337005","0.0-21.0-0.3","SS1618435687525","","","null","","","","","","<p><img src= images/blank.png width =""600"" height = ""600"" style=""position:fixed;top:50%; left:50%; transform: translate(-50%, -50%); border:5px solid black"">","","","","","","","",""
"","784.8949999971082","sequential-stimulus-presentation-old","86","338299","0.0-21.0-1.3","SS1618435687525","trial","","40","500","1284.8949999971082","images/stimuli/spore_stims/simple_02_A_b.gif","images/stimuli/spore_stims/simple_01_A_a.gif","self_paced","","6","simple_dissimilar","images/stimuli/spore_stims/simple_01_A_a.gif","","","","",""
"","null","html-keyboard-response","87","339587","0.0-21.0-0.4","SS1618435687525","","","null","","","","","","<p><img src= images/blank.png width =""600"" height = ""600"" style=""position:fixed;top:50%; left:50%; transform: translate(-50%, -50%); border:5px solid black"">","","","","","","","",""
"","872.175000000454","sequential-stimulus-presentation-old","88","340964","0.0-21.0-1.4","SS1618435687525","trial","","40","500","1372.175000000454","images/stimuli/spore_stims/simple_02_A_b.gif","images/stimuli/spore_stims/simple_01_A_a.gif","self_paced","","6","simple_dissimilar","images/stimuli/spore_stims/simple_01_A_a.gif","","","","",""
"","2577.3999999983353","survey-multi-choice","89","343546","0.0-22.0","SS1618435687525","math_question","","","","","","","","","","","","{""Q0"":""14""}","[0]","14","",""
"","null","html-keyboard-response","90","344450","0.0-23.0-0.0","SS1618435687525","","","null","","","","","","<p><img src= images/blank.png width =""600"" height = ""600"" style=""position:fixed;top:50%; left:50%; transform: translate(-50%, -50%); border:5px solid black"">","","","","","","","",""
"","609.7799999988638","sequential-stimulus-presentation-old","91","345117","0.0-23.0-1.0","SS1618435687525","trial","","40","500","1109.7799999988638","images/stimuli/spore_stims/complex_02_A_b.gif","images/stimuli/spore_stims/complex_03_A_a.gif","forced_short","","7","complex_dissimilar","images/stimuli/spore_stims/complex_03_A_a.gif","","","","",""
"","null","html-keyboard-response","92","346097","0.0-23.0-0.1","SS1618435687525","","","null","","","","","","<p><img src= images/blank.png width =""600"" height = ""600"" style=""position:fixed;top:50%; left:50%; transform: translate(-50%, -50%); border:5px solid black"">","","","","","","","",""
"","1593.3949999999022","sequential-stimulus-presentation-old","93","348197","0.0-23.0-1.1","SS1618435687525","trial","","40","500","2093.394999999902","images/stimuli/spore_stims/complex_02_A_b.gif","images/stimuli/spore_stims/complex_03_A_a.gif","forced_short","","7","complex_dissimilar","images/stimuli/spore_stims/complex_02_A_b.gif","","","","",""
"","null","html-keyboard-response","94","349213","0.0-23.0-0.2","SS1618435687525","","","null","","","","","","<p><img src= images/blank.png width =""600"" height = ""600"" style=""position:fixed;top:50%; left:50%; transform: translate(-50%, -50%); border:5px solid black"">","","","","","","","",""
"","3401.2949999996345","sequential-stimulus-presentation-old","95","353119","0.0-23.0-1.2","SS1618435687525","trial","","40","500","3901.2949999996345","images/stimuli/spore_stims/complex_02_A_b.gif","images/stimuli/spore_stims/complex_03_A_a.gif","forced_short","","7","complex_dissimilar","images/stimuli/spore_stims/complex_03_A_a.gif","","","","",""
"","null","html-keyboard-response","96","354408","0.0-23.0-0.3","SS1618435687525","","","null","","","","","","<p><img src= images/blank.png width =""600"" height = ""600"" style=""position:fixed;top:50%; left:50%; transform: translate(-50%, -50%); border:5px solid black"">","","","","","","","",""
"","655.6650000020163","sequential-stimulus-presentation-old","97","355573","0.0-23.0-1.3","SS1618435687525","trial","","40","500","1155.6650000020163","images/stimuli/spore_stims/complex_02_A_b.gif","images/stimuli/spore_stims/complex_03_A_a.gif","forced_short","","7","complex_dissimilar","images/stimuli/spore_stims/complex_03_A_a.gif","","","","",""
"","2389.5099999972736","survey-multi-choice","98","357965","0.0-24.0","SS1618435687525","math_question","","","","","","","","","","","","{""Q0"":""17""}","[0]","17","",""
"","null","html-keyboard-response","99","358784","0.0-25.0-0.0","SS1618435687525","","","null","","","","","","<p><img src= images/blank.png width =""600"" height = ""600"" style=""position:fixed;top:50%; left:50%; transform: translate(-50%, -50%); border:5px solid black"">","","","","","","","",""
"","4666.815000000526","sequential-stimulus-presentation-old","100","368460","0.0-25.0-1.0","SS1618435687525","trial","","40","500","5166.815000000526","images/stimuli/spore_stims/simple_04_A_a.gif","images/stimuli/spore_stims/simple_14_A_b.gif","forced_long","","8","simple_dissimilar","images/stimuli/spore_stims/simple_14_A_b.gif","","","","",""
"","null","html-keyboard-response","101","369716","0.0-25.0-0.1","SS1618435687525","","","null","","","","","","<p><img src= images/blank.png width =""600"" height = ""600"" style=""position:fixed;top:50%; left:50%; transform: translate(-50%, -50%); border:5px solid black"">","","","","","","","",""
"","6828.52500000078","sequential-stimulus-presentation-old","102","377052","0.0-25.0-1.1","SS1618435687525","trial","","40","500","7328.52500000078","images/stimuli/spore_stims/simple_04_A_a.gif","images/stimuli/spore_stims/simple_14_A_b.gif","forced_long","","8","simple_dissimilar","images/stimuli/spore_stims/simple_14_A_b.gif","","","","",""
"","null","html-keyboard-response","103","378291","0.0-25.0-0.2","SS1618435687525","","","null","","","","","","<p><img src= images/blank.png width =""600"" height = ""600"" style=""position:fixed;top:50%; left:50%; transform: translate(-50%, -50%); border:5px solid black"">","","","","","","","",""
"","2929.229999997944","sequential-stimulus-presentation-old","104","381725","0.0-25.0-1.2","SS1618435687525","trial","","40","500","3429.229999997944","images/stimuli/spore_stims/simple_04_A_a.gif","images/stimuli/spore_stims/simple_14_A_b.gif","forced_long","","8","simple_dissimilar","images/stimuli/spore_stims/simple_04_A_a.gif","","","","",""
"","null","html-keyboard-response","105","382679","0.0-25.0-0.3","SS1618435687525","","","null","","","","","","<p><img src= images/blank.png width =""600"" height = ""600"" style=""position:fixed;top:50%; left:50%; transform: translate(-50%, -50%); border:5px solid black"">","","","","","","","",""
"","2238.864999999292","sequential-stimulus-presentation-old","106","385427","0.0-25.0-1.3","SS1618435687525","trial","","40","500","2738.864999999292","images/stimuli/spore_stims/simple_04_A_a.gif","images/stimuli/spore_stims/simple_14_A_b.gif","forced_long","","8","simple_dissimilar","images/stimuli/spore_stims/simple_14_A_b.gif","","","","",""
"","null","html-keyboard-response","107","386234","0.0-25.0-0.4","SS1618435687525","","","null","","","","","","<p><img src= images/blank.png width =""600"" height = ""600"" style=""position:fixed;top:50%; left:50%; transform: translate(-50%, -50%); border:5px solid black"">","","","","","","","",""
"","1949.5749999986729","sequential-stimulus-presentation-old","108","388690","0.0-25.0-1.4","SS1618435687525","trial","","40","500","2449.574999998673","images/stimuli/spore_stims/simple_04_A_a.gif","images/stimuli/spore_stims/simple_14_A_b.gif","forced_long","","8","simple_dissimilar","images/stimuli/spore_stims/simple_14_A_b.gif","","","","",""
"","4104.645000003104","survey-multi-choice","109","392797","0.0-26.0","SS1618435687525","math_question","","","","","","","","","","","","{""Q0"":""12""}","[0]","12","",""
"","null","html-keyboard-response","110","393672","0.0-27.0-0.0","SS1618435687525","","","null","","","","","","<p><img src= images/blank.png width =""600"" height = ""600"" style=""position:fixed;top:50%; left:50%; transform: translate(-50%, -50%); border:5px solid black"">","","","","","","","",""
"","1631.22999999905","sequential-stimulus-presentation-old","111","395360","0.0-27.0-1.0","SS1618435687525","trial","","40","500","2131.22999999905","images/stimuli/spore_stims/complex_11_A_b.gif","images/stimuli/spore_stims/complex_09_A_a.gif","forced_short","","9","complex_dissimilar","images/stimuli/spore_stims/complex_09_A_a.gif","","","","",""
"","null","html-keyboard-response","112","396226","0.0-27.0-0.1","SS1618435687525","","","null","","","","","","<p><img src= images/blank.png width =""600"" height = ""600"" style=""position:fixed;top:50%; left:50%; transform: translate(-50%, -50%); border:5px solid black"">","","","","","","","",""
"","4958.9300000006915","sequential-stimulus-presentation-old","113","401689","0.0-27.0-1.1","SS1618435687525","trial","","40","500","5458.9300000006915","images/stimuli/spore_stims/complex_11_A_b.gif","images/stimuli/spore_stims/complex_09_A_a.gif","forced_short","","9","complex_dissimilar","images/stimuli/spore_stims/complex_09_A_a.gif","","","","",""
"","null","html-keyboard-response","114","402883","0.0-27.0-0.2","SS1618435687525","","","null","","","","","","<p><img src= images/blank.png width =""600"" height = ""600"" style=""position:fixed;top:50%; left:50%; transform: translate(-50%, -50%); border:5px solid black"">","","","","","","","",""
"","2545.8100000033155","sequential-stimulus-presentation-old","115","405932","0.0-27.0-1.2","SS1618435687525","trial","","40","500","3045.8100000033155","images/stimuli/spore_stims/complex_11_A_b.gif","images/stimuli/spore_stims/complex_09_A_a.gif","forced_short","","9","complex_dissimilar","images/stimuli/spore_stims/complex_09_A_a.gif","","","","",""
"","null","html-keyboard-response","116","406883","0.0-27.0-0.3","SS1618435687525","","","null","","","","","","<p><img src= images/blank.png width =""600"" height = ""600"" style=""position:fixed;top:50%; left:50%; transform: translate(-50%, -50%); border:5px solid black"">","","","","","","","",""
"","7479.71999999939","sequential-stimulus-presentation-old","117","414867","0.0-27.0-1.3","SS1618435687525","trial","","40","500","7979.71999999939","images/stimuli/spore_stims/complex_11_A_b.gif","images/stimuli/spore_stims/complex_09_A_a.gif","forced_short","","9","complex_dissimilar","images/stimuli/spore_stims/complex_09_A_a.gif","","","","",""
"","null","html-keyboard-response","118","415941","0.0-27.0-0.4","SS1618435687525","","","null","","","","","","<p><img src= images/blank.png width =""600"" height = ""600"" style=""position:fixed;top:50%; left:50%; transform: translate(-50%, -50%); border:5px solid black"">","","","","","","","",""
"","3903.4650000030524","sequential-stimulus-presentation-old","119","420349","0.0-27.0-1.4","SS1618435687525","trial","","40","500","4403.465000003052","images/stimuli/spore_stims/complex_11_A_b.gif","images/stimuli/spore_stims/complex_09_A_a.gif","forced_short","","9","complex_dissimilar","images/stimuli/spore_stims/complex_11_A_b.gif","","","","",""
"","null","html-keyboard-response","120","421615","0.0-27.0-0.5","SS1618435687525","","","null","","","","","","<p><img src= images/blank.png width =""600"" height = ""600"" style=""position:fixed;top:50%; left:50%; transform: translate(-50%, -50%); border:5px solid black"">","","","","","","","",""
"","463.49999999802094","sequential-stimulus-presentation-old","121","422585","0.0-27.0-1.5","SS1618435687525","trial","","40","500","963.4999999980209","images/stimuli/spore_stims/complex_11_A_b.gif","images/stimuli/spore_stims/complex_09_A_a.gif","forced_short","","9","complex_dissimilar","images/stimuli/spore_stims/complex_11_A_b.gif","","","","",""
"","2455.89000000112","survey-multi-choice","122","425044","0.0-28.0","SS1618435687525","math_question","","","","","","","","","","","","{""Q0"":""14""}","[0]","14","",""
"","null","html-keyboard-response","123","426066","0.0-29.0-0.0","SS1618435687525","","","null","","","","","","<p><img src= images/blank.png width =""600"" height = ""600"" style=""position:fixed;top:50%; left:50%; transform: translate(-50%, -50%); border:5px solid black"">","","","","","","","",""
"","832.2900000020745","sequential-stimulus-presentation-old","124","427407","0.0-29.0-1.0","SS1618435687525","trial","","40","500","1332.2900000020745","images/stimuli/spore_stims/complex_07_A_a.gif","images/stimuli/spore_stims/complex_20_A_b.gif","self_paced","","10","complex_dissimilar","images/stimuli/spore_stims/complex_20_A_b.gif","","","","",""
"","null","html-keyboard-response","125","428217","0.0-29.0-0.1","SS1618435687525","","","null","","","","","","<p><img src= images/blank.png width =""600"" height = ""600"" style=""position:fixed;top:50%; left:50%; transform: translate(-50%, -50%); border:5px solid black"">","","","","","","","",""
"","726.2800000025891","sequential-stimulus-presentation-old","126","429448","0.0-29.0-1.1","SS1618435687525","trial","","40","500","1226.280000002589","images/stimuli/spore_stims/complex_07_A_a.gif","images/stimuli/spore_stims/complex_20_A_b.gif","self_paced","","10","complex_dissimilar","images/stimuli/spore_stims/complex_20_A_b.gif","","","","",""
"","null","html-keyboard-response","127","430547","0.0-29.0-0.2","SS1618435687525","","","null","","","","","","<p><img src= images/blank.png width =""600"" height = ""600"" style=""position:fixed;top:50%; left:50%; transform: translate(-50%, -50%); border:5px solid black"">","","","","","","","",""
"","479.71999999939","sequential-stimulus-presentation-old","128","431536","0.0-29.0-1.2","SS1618435687525","trial","","40","500","979.71999999939","images/stimuli/spore_stims/complex_07_A_a.gif","images/stimuli/spore_stims/complex_20_A_b.gif","self_paced","","10","complex_dissimilar","images/stimuli/spore_stims/complex_20_A_b.gif","","","","",""
"","null","html-keyboard-response","129","432665","0.0-29.0-0.3","SS1618435687525","","","null","","","","","","<p><img src= images/blank.png width =""600"" height = ""600"" style=""position:fixed;top:50%; left:50%; transform: translate(-50%, -50%); border:5px solid black"">","","","","","","","",""
"","639.2599999999511","sequential-stimulus-presentation-old","130","433809","0.0-29.0-1.3","SS1618435687525","trial","","40","500","1139.259999999951","images/stimuli/spore_stims/complex_07_A_a.gif","images/stimuli/spore_stims/complex_20_A_b.gif","self_paced","","10","complex_dissimilar","images/stimuli/spore_stims/complex_20_A_b.gif","","","","",""
"","null","html-keyboard-response","131","434778","0.0-29.0-0.4","SS1618435687525","","","null","","","","","","<p><img src= images/blank.png width =""600"" height = ""600"" style=""position:fixed;top:50%; left:50%; transform: translate(-50%, -50%); border:5px solid black"">","","","","","","","",""
"","168.56499999994412","sequential-stimulus-presentation-old","132","435452","0.0-29.0-1.4","SS1618435687525","trial","","40","500","668.5649999999441","images/stimuli/spore_stims/complex_07_A_a.gif","images/stimuli/spore_stims/complex_20_A_b.gif","self_paced","","10","complex_dissimilar","images/stimuli/spore_stims/complex_20_A_b.gif","","","","",""
"","null","html-keyboard-response","133","436480","0.0-29.0-0.5","SS1618435687525","","","null","","","","","","<p><img src= images/blank.png width =""600"" height = ""600"" style=""position:fixed;top:50%; left:50%; transform: translate(-50%, -50%); border:5px solid black"">","","","","","","","",""
"","25.695000000298023","sequential-stimulus-presentation-old","134","437014","0.0-29.0-1.5","SS1618435687525","trial","","40","500","525.695000000298","images/stimuli/spore_stims/complex_07_A_a.gif","images/stimuli/spore_stims/complex_20_A_b.gif","self_paced","","10","complex_dissimilar","images/stimuli/spore_stims/complex_20_A_b.gif","","","","",""
"","2496.0949999986333","survey-multi-choice","135","439513","0.0-30.0","SS1618435687525","math_question","","","","","","","","","","","","{""Q0"":""17""}","[0]","17","",""
"","null","html-keyboard-response","136","440440","0.0-31.0-0.0","SS1618435687525","","","null","","","","","","<p><img src= images/blank.png width =""600"" height = ""600"" style=""position:fixed;top:50%; left:50%; transform: translate(-50%, -50%); border:5px solid black"">","","","","","","","",""
"","524.2600000019302","sequential-stimulus-presentation-old","137","441024","0.0-31.0-1.0","SS1618435687525","trial","","40","500","1024.2600000019302","images/stimuli/spore_stims/simple_09_A_b.gif","images/stimuli/spore_stims/simple_08_A_a.gif","forced_short","","11","simple_dissimilar","images/stimuli/spore_stims/simple_08_A_a.gif","","","","",""
"","null","html-keyboard-response","138","441891","0.0-31.0-0.1","SS1618435687525","","","null","","","","","","<p><img src= images/blank.png width =""600"" height = ""600"" style=""position:fixed;top:50%; left:50%; transform: translate(-50%, -50%); border:5px solid black"">","","","","","","","",""
"","1570.770000002114","sequential-stimulus-presentation-old","139","443966","0.0-31.0-1.1","SS1618435687525","trial","","40","500","2070.770000002114","images/stimuli/spore_stims/simple_09_A_b.gif","images/stimuli/spore_stims/simple_08_A_a.gif","forced_short","","11","simple_dissimilar","images/stimuli/spore_stims/simple_08_A_a.gif","","","","",""
"","null","html-keyboard-response","140","444936","0.0-31.0-0.2","SS1618435687525","","","null","","","","","","<p><img src= images/blank.png width =""600"" height = ""600"" style=""position:fixed;top:50%; left:50%; transform: translate(-50%, -50%); border:5px solid black"">","","","","","","","",""
"","237.65500000078464","sequential-stimulus-presentation-old","141","445678","0.0-31.0-1.2","SS1618435687525","trial","","40","500","737.6550000007846","images/stimuli/spore_stims/simple_09_A_b.gif","images/stimuli/spore_stims/simple_08_A_a.gif","forced_short","","11","simple_dissimilar","images/stimuli/spore_stims/simple_08_A_a.gif","","","","",""
"","null","html-keyboard-response","142","446581","0.0-31.0-0.3","SS1618435687525","","","null","","","","","","<p><img src= images/blank.png width =""600"" height = ""600"" style=""position:fixed;top:50%; left:50%; transform: translate(-50%, -50%); border:5px solid black"">","","","","","","","",""
"","164.3100000001141","sequential-stimulus-presentation-old","143","447250","0.0-31.0-1.3","SS1618435687525","trial","","40","500","664.3100000001141","images/stimuli/spore_stims/simple_09_A_b.gif","images/stimuli/spore_stims/simple_08_A_a.gif","forced_short","","11","simple_dissimilar","images/stimuli/spore_stims/simple_08_A_a.gif","","","","",""
"","null","html-keyboard-response","144","448170","0.0-31.0-0.4","SS1618435687525","","","null","","","","","","<p><img src= images/blank.png width =""600"" height = ""600"" style=""position:fixed;top:50%; left:50%; transform: translate(-50%, -50%); border:5px solid black"">","","","","","","","",""
"","1249.1749999971944","sequential-stimulus-presentation-old","145","449925","0.0-31.0-1.4","SS1618435687525","trial","","40","500","1749.1749999971944","images/stimuli/spore_stims/simple_09_A_b.gif","images/stimuli/spore_stims/simple_08_A_a.gif","forced_short","","11","simple_dissimilar","images/stimuli/spore_stims/simple_08_A_a.gif","","","","",""
"","null","html-keyboard-response","146","450826","0.0-31.0-0.5","SS1618435687525","","","null","","","","","","<p><img src= images/blank.png width =""600"" height = ""600"" style=""position:fixed;top:50%; left:50%; transform: translate(-50%, -50%); border:5px solid black"">","","","","","","","",""
"","237.02500000211876","sequential-stimulus-presentation-old","147","451572","0.0-31.0-1.5","SS1618435687525","trial","","40","500","737.0250000021188","images/stimuli/spore_stims/simple_09_A_b.gif","images/stimuli/spore_stims/simple_08_A_a.gif","forced_short","","11","simple_dissimilar","images/stimuli/spore_stims/simple_08_A_a.gif","","","","",""
"[{""page_index"":0,""viewing_time"":3672.5899999983376}]","3672.819999999774","instructions","148","455247","0.0-32.0","SS1618435687525","instructions","","","","","","","","","","","","","","","",""
"","6254.519999998622","survey-likert","149","461506","0.0-33.0","SS1618435687525","similarity_question","","","","","","","","","","","","{""Q0"":2}","[0]","","images/stimuli/spore_stims/simple_09_A_b.gif","images/stimuli/spore_stims/simple_08_A_a.gif"
"","2657.6249999998254","survey-likert","150","464171","0.0-34.0","SS1618435687525","similarity_question","","","","","","","","","","","","{""Q0"":1}","[0]","","images/stimuli/spore_stims/simple_04_A_a.gif","images/stimuli/spore_stims/simple_14_A_b.gif"
"","2291.2949999991106","survey-likert","151","466470","0.0-35.0","SS1618435687525","similarity_question","","","","","","","","","","","","{""Q0"":1}","[0]","","images/stimuli/spore_stims/complex_02_A_a.gif","images/stimuli/spore_stims/complex_01_A_b.gif"
"","3553.6600000014296","survey-likert","152","470031","0.0-36.0","SS1618435687525","similarity_question","","","","","","","","","","","","{""Q0"":0}","[0]","","images/stimuli/spore_stims/complex_09_A_a.gif","images/stimuli/spore_stims/complex_11_A_b.gif"
"","1832.059999997029","survey-likert","153","471871","0.0-37.0","SS1618435687525","similarity_question","","","","","","","","","","","","{""Q0"":0}","[0]","","images/stimuli/spore_stims/complex_02_A_b.gif","images/stimuli/spore_stims/complex_03_A_a.gif"
"","2753.9699999978766","survey-likert","154","474632","0.0-38.0","SS1618435687525","similarity_question","","","","","","","","","","","","{""Q0"":0}","[0]","","images/stimuli/spore_stims/complex_03_A_b.gif","images/stimuli/spore_stims/complex_18_A_a.gif"
"","3149.7299999974202","survey-likert","155","477789","0.0-39.0","SS1618435687525","similarity_question","","","","","","","","","","","","{""Q0"":1}","[0]","","images/stimuli/spore_stims/simple_18_A_a.gif","images/stimuli/spore_stims/simple_20_A_b.gif"
"","3012.5950000001467","survey-likert","156","480809","0.0-40.0","SS1618435687525","similarity_question","","","","","","","","","","","","{""Q0"":2}","[0]","","images/stimuli/spore_stims/simple_02_A_b.gif","images/stimuli/spore_stims/simple_01_A_a.gif"
"","2785.309999999241","survey-likert","157","483602","0.0-41.0","SS1618435687525","similarity_question","","","","","","","","","","","","{""Q0"":2}","[0]","","images/stimuli/spore_stims/complex_10_A_a.gif","images/stimuli/spore_stims/complex_04_A_b.gif"
"","2292.939999999362","survey-likert","158","485903","0.0-42.0","SS1618435687525","similarity_question","","","","","","","","","","","","{""Q0"":0}","[0]","","images/stimuli/spore_stims/simple_17_A_a.gif","images/stimuli/spore_stims/simple_06_A_b.gif"
"","2608.7049999987357","survey-likert","159","488519","0.0-43.0","SS1618435687525","similarity_question","","","","","","","","","","","","{""Q0"":2}","[0]","","images/stimuli/spore_stims/simple_09_A_a.gif","images/stimuli/spore_stims/simple_13_A_b.gif"
"","3291.414999999688","survey-likert","160","491820","0.0-44.0","SS1618435687525","similarity_question","","","","","","","","","","","","{""Q0"":0}","[0]","","images/stimuli/spore_stims/complex_07_A_a.gif","images/stimuli/spore_stims/complex_20_A_b.gif"
"[{""page_index"":0,""viewing_time"":3885.2000000005937}]","3885.420000002312","instructions","161","495711","0.0-45.0","SS1618435687525","instructions","","","","","","","","","","","","","","","",""
"","3394.9500000016997","survey-likert","162","499109","0.0-46.0","SS1618435687525","","","","","","","","","images/stimuli/spore_stims/simple_20_A_b.gif","","","","{""Q0"":0}","[0]","","",""
"","2111.3750000004075","survey-likert","163","501228","0.0-47.0","SS1618435687525","","","","","","","","","images/stimuli/spore_stims/complex_02_A_b.gif","","","","{""Q0"":5}","[0]","","",""
"","2620.5799999989104","survey-likert","164","503856","0.0-48.0","SS1618435687525","","","","","","","","","images/stimuli/spore_stims/simple_13_A_b.gif","","","","{""Q0"":0}","[0]","","",""
"","2078.545000000333","survey-likert","165","505940","0.0-49.0","SS1618435687525","","","","","","","","","images/stimuli/spore_stims/complex_18_A_a.gif","","","","{""Q0"":6}","[0]","","",""
"","2073.6900000011083","survey-likert","166","508022","0.0-50.0","SS1618435687525","","","","","","","","","images/stimuli/spore_stims/complex_09_A_a.gif","","","","{""Q0"":6}","[0]","","",""
"","2421.409999999043","survey-likert","167","510451","0.0-51.0","SS1618435687525","","","","","","","","","images/stimuli/spore_stims/simple_08_A_a.gif","","","","{""Q0"":0}","[0]","","",""
"","1647.8349999997881","survey-likert","168","512106","0.0-52.0","SS1618435687525","","","","","","","","","images/stimuli/spore_stims/simple_01_A_a.gif","","","","{""Q0"":0}","[0]","","",""
"","1462.4000000003725","survey-likert","169","513576","0.0-53.0","SS1618435687525","","","","","","","","","images/stimuli/spore_stims/simple_14_A_b.gif","","","","{""Q0"":0}","[0]","","",""
"","3424.220000000787","survey-likert","170","517008","0.0-54.0","SS1618435687525","","","","","","","","","images/stimuli/spore_stims/complex_02_A_a.gif","","","","{""Q0"":5}","[0]","","",""
"","1872.1149999982445","survey-likert","171","518888","0.0-55.0","SS1618435687525","","","","","","","","","images/stimuli/spore_stims/simple_06_A_b.gif","","","","{""Q0"":0}","[0]","","",""
"","1736.6299999994226","survey-likert","172","520632","0.0-56.0","SS1618435687525","","","","","","","","","images/stimuli/spore_stims/complex_20_A_b.gif","","","","{""Q0"":6}","[0]","","",""
"","2026.9250000019092","survey-likert","173","522667","0.0-57.0","SS1618435687525","","","","","","","","","images/stimuli/spore_stims/complex_10_A_a.gif","","","","{""Q0"":5}","[0]","","",""
"[{""page_index"":0,""viewing_time"":2147.8600000009174}]","2148.0899999988033","instructions","174","524822","0.0-58.0","SS1618435687525","instructions","","","","","","","","","","","","","","","",""
"","2051.7550000004703","demog-age","175","526880","0.0-59.0","SS1618435687525","","","","","","","","","","","","","{""age"":""19""}","","","",""
"","2714.1200000005774","demog-ethnic-US","176","529601","0.0-60.0","SS1618435687525","","","","","","","","","","","","","{""ethnicity"":[""White""]}","[0]","","",""
"","7250.355000000098","demog-gender-and-education","177","536859","0.0-61.0","SS1618435687525","","","","","","","","","","","","","{""gender"":""Male"",""education"":""High school diploma""}","[0,1]","","",""
"","5823.789999998524","survey-text","178","542692","0.0-62.0","SS1618435687525","feedback","","","","","","","","","","","","{""Q0"":""N/A""}","","","",""
"[{""page_index"":0,""viewing_time"":2078.555000000051}]","2078.7700000000186","instructions","179","544774","0.0-63.0","SS1618435687525","instructions","","","","","","","","","","","","","","","",""
