"view_history","rt","trial_type","trial_index","time_elapsed","internal_node_id","subject","stimulus_type","trial_stimulus","key_press","minimum_viewing_duration","trial_looking_time","block_deviant","block_background","exposure_type","stimulus","block_number","block_type","stimulus_displayed","responses","question_order","math_correct_answer","stimulus_left","stimulus_right"
"[{""page_index"":0,""viewing_time"":13115.435000043362}]","13120.51000026986","instructions","0","13125","0.0-0.0","SS1618365719560","","","","","","","","","","","","","","","","",""
"[{""page_index"":0,""viewing_time"":13800.569999963045},{""page_index"":1,""viewing_time"":5329.6850002370775}]","19131.335000041872","instructions","1","34276","0.0-1.0","SS1618365719560","instructions","","","","","","","","","","","","","","","",""
"","19498.13500000164","sequential-stimulus-presentation-old","2","54294","0.0-2.0","SS1618365719560","","","40","500","19998.13500000164","null","null","self_paced","","","","","","","","",""
"","7749.880000017583","sequential-stimulus-presentation-old","3","62560","0.0-3.0","SS1618365719560","","","40","500","8249.880000017583","null","null","self_paced","","","","","","","","",""
"[{""page_index"":0,""viewing_time"":74251.53000000864}]","74253.00499983132","instructions","4","136816","0.0-4.0","SS1618365719560","instructions","","","","","","","","","","","","","","","",""
"","5029.029999859631","sequential-stimulus-presentation-old","5","146857","0.0-5.0","SS1618365719560","","","40","500","5529.029999859631","null","null","forced_long","","","","","","","","",""
"","3214.1999998129904","sequential-stimulus-presentation-old","6","150145","0.0-6.0","SS1618365719560","","","40","50","3264.1999998129904","null","null","forced_long","","","","","","","","",""
"[{""page_index"":0,""viewing_time"":4523.165000136942}]","4524.200000334531","instructions","7","154674","0.0-7.0","SS1618365719560","instructions","","","","","","","","","","","","","","","",""
"[{""page_index"":0,""viewing_time"":6270.139999687672},{""page_index"":1,""viewing_time"":11286.280000116676},{""page_index"":2,""viewing_time"":5777.130000293255},{""page_index"":3,""viewing_time"":2641.669999808073},{""page_index"":4,""viewing_time"":1934.499999973923}]","27910.840000025928","instructions","8","182594","0.0-8.0","SS1618365719560","instructions","","","","","","","","","","","","","","","",""
"","null","html-keyboard-response","9","183697","0.0-9.0-0.0","SS1618365719560","","","null","","","","","","<p><img src= images/blank.png width =""600"" height = ""600"" style=""position:fixed;top:50%; left:50%; transform: translate(-50%, -50%); border:5px solid black"">","","","","","","","",""
"","1630.0099999643862","sequential-stimulus-presentation-old","10","190345","0.0-9.0-1.0","SS1618365719560","trial","","40","500","2130.009999964386","images/stimuli/spore_stims/simple_04_A_a.gif","images/stimuli/spore_stims/simple_03_A_b.gif","forced_long","","0","simple_dissimilar","images/stimuli/spore_stims/simple_03_A_b.gif","","","","",""
"","null","html-keyboard-response","11","191423","0.0-9.0-0.1","SS1618365719560","","","null","","","","","","<p><img src= images/blank.png width =""600"" height = ""600"" style=""position:fixed;top:50%; left:50%; transform: translate(-50%, -50%); border:5px solid black"">","","","","","","","",""
"","5479.260000400245","sequential-stimulus-presentation-old","12","197420","0.0-9.0-1.1","SS1618365719560","trial","","40","500","5979.260000400245","images/stimuli/spore_stims/simple_04_A_a.gif","images/stimuli/spore_stims/simple_03_A_b.gif","forced_long","","0","simple_dissimilar","images/stimuli/spore_stims/simple_03_A_b.gif","","","","",""
"","null","html-keyboard-response","13","198359","0.0-9.0-0.2","SS1618365719560","","","null","","","","","","<p><img src= images/blank.png width =""600"" height = ""600"" style=""position:fixed;top:50%; left:50%; transform: translate(-50%, -50%); border:5px solid black"">","","","","","","","",""
"","2368.189999833703","sequential-stimulus-presentation-old","14","201243","0.0-9.0-1.2","SS1618365719560","trial","","40","500","2868.189999833703","images/stimuli/spore_stims/simple_04_A_a.gif","images/stimuli/spore_stims/simple_03_A_b.gif","forced_long","","0","simple_dissimilar","images/stimuli/spore_stims/simple_03_A_b.gif","","","","",""
"","null","html-keyboard-response","15","202275","0.0-9.0-0.3","SS1618365719560","","","null","","","","","","<p><img src= images/blank.png width =""600"" height = ""600"" style=""position:fixed;top:50%; left:50%; transform: translate(-50%, -50%); border:5px solid black"">","","","","","","","",""
"","5201.100000180304","sequential-stimulus-presentation-old","16","207996","0.0-9.0-1.3","SS1618365719560","trial","","40","500","5701.100000180304","images/stimuli/spore_stims/simple_04_A_a.gif","images/stimuli/spore_stims/simple_03_A_b.gif","forced_long","","0","simple_dissimilar","images/stimuli/spore_stims/simple_04_A_a.gif","","","","",""
"","null","html-keyboard-response","17","208877","0.0-9.0-0.4","SS1618365719560","","","null","","","","","","<p><img src= images/blank.png width =""600"" height = ""600"" style=""position:fixed;top:50%; left:50%; transform: translate(-50%, -50%); border:5px solid black"">","","","","","","","",""
"","1705.2100002765656","sequential-stimulus-presentation-old","18","211106","0.0-9.0-1.4","SS1618365719560","trial","","40","500","2205.2100002765656","images/stimuli/spore_stims/simple_04_A_a.gif","images/stimuli/spore_stims/simple_03_A_b.gif","forced_long","","0","simple_dissimilar","images/stimuli/spore_stims/simple_03_A_b.gif","","","","",""
"","6507.5449999421835","survey-multi-choice","19","217703","0.0-10.0","SS1618365719560","math_question","","","","","","","","","","","","{""Q0"":""9""}","[0]","9","",""
"","null","html-keyboard-response","20","218883","0.0-11.0-0.0","SS1618365719560","","","null","","","","","","<p><img src= images/blank.png width =""600"" height = ""600"" style=""position:fixed;top:50%; left:50%; transform: translate(-50%, -50%); border:5px solid black"">","","","","","","","",""
"","3986.3700000569224","sequential-stimulus-presentation-old","21","223387","0.0-11.0-1.0","SS1618365719560","trial","","40","500","4486.370000056922","images/stimuli/spore_stims/simple_02_A_b.gif","images/stimuli/spore_stims/simple_10_A_a.gif","self_paced","","1","simple_dissimilar","images/stimuli/spore_stims/simple_10_A_a.gif","","","","",""
"","null","html-keyboard-response","22","224303","0.0-11.0-0.1","SS1618365719560","","","null","","","","","","<p><img src= images/blank.png width =""600"" height = ""600"" style=""position:fixed;top:50%; left:50%; transform: translate(-50%, -50%); border:5px solid black"">","","","","","","","",""
"","2579.619999974966","sequential-stimulus-presentation-old","23","227402","0.0-11.0-1.1","SS1618365719560","trial","","40","500","3079.619999974966","images/stimuli/spore_stims/simple_02_A_b.gif","images/stimuli/spore_stims/simple_10_A_a.gif","self_paced","","1","simple_dissimilar","images/stimuli/spore_stims/simple_10_A_a.gif","","","","",""
"","null","html-keyboard-response","24","228602","0.0-11.0-0.2","SS1618365719560","","","null","","","","","","<p><img src= images/blank.png width =""600"" height = ""600"" style=""position:fixed;top:50%; left:50%; transform: translate(-50%, -50%); border:5px solid black"">","","","","","","","",""
"","1265.099999960512","sequential-stimulus-presentation-old","25","230384","0.0-11.0-1.2","SS1618365719560","trial","","40","500","1765.099999960512","images/stimuli/spore_stims/simple_02_A_b.gif","images/stimuli/spore_stims/simple_10_A_a.gif","self_paced","","1","simple_dissimilar","images/stimuli/spore_stims/simple_10_A_a.gif","","","","",""
"","null","html-keyboard-response","26","231397","0.0-11.0-0.3","SS1618365719560","","","null","","","","","","<p><img src= images/blank.png width =""600"" height = ""600"" style=""position:fixed;top:50%; left:50%; transform: translate(-50%, -50%); border:5px solid black"">","","","","","","","",""
"","1841.8250000104308","sequential-stimulus-presentation-old","27","233755","0.0-11.0-1.3","SS1618365719560","trial","","40","500","2341.825000010431","images/stimuli/spore_stims/simple_02_A_b.gif","images/stimuli/spore_stims/simple_10_A_a.gif","self_paced","","1","simple_dissimilar","images/stimuli/spore_stims/simple_10_A_a.gif","","","","",""
"","null","html-keyboard-response","28","234845","0.0-11.0-0.4","SS1618365719560","","","null","","","","","","<p><img src= images/blank.png width =""600"" height = ""600"" style=""position:fixed;top:50%; left:50%; transform: translate(-50%, -50%); border:5px solid black"">","","","","","","","",""
"","1340.3449999168515","sequential-stimulus-presentation-old","29","236701","0.0-11.0-1.4","SS1618365719560","trial","","40","500","1840.3449999168515","images/stimuli/spore_stims/simple_02_A_b.gif","images/stimuli/spore_stims/simple_10_A_a.gif","self_paced","","1","simple_dissimilar","images/stimuli/spore_stims/simple_10_A_a.gif","","","","",""
"","null","html-keyboard-response","30","237959","0.0-11.0-0.5","SS1618365719560","","","null","","","","","","<p><img src= images/blank.png width =""600"" height = ""600"" style=""position:fixed;top:50%; left:50%; transform: translate(-50%, -50%); border:5px solid black"">","","","","","","","",""
"","2031.870000064373","sequential-stimulus-presentation-old","31","240517","0.0-11.0-1.5","SS1618365719560","trial","","40","500","2531.870000064373","images/stimuli/spore_stims/simple_02_A_b.gif","images/stimuli/spore_stims/simple_10_A_a.gif","self_paced","","1","simple_dissimilar","images/stimuli/spore_stims/simple_10_A_a.gif","","","","",""
"","5695.995000191033","survey-multi-choice","32","246224","0.0-12.0","SS1618365719560","math_question","","","","","","","","","","","","{""Q0"":""3""}","[0]","3","",""
"","null","html-keyboard-response","33","247537","0.0-13.0-0.0","SS1618365719560","","","null","","","","","","<p><img src= images/blank.png width =""600"" height = ""600"" style=""position:fixed;top:50%; left:50%; transform: translate(-50%, -50%); border:5px solid black"">","","","","","","","",""
"","791.6699997149408","sequential-stimulus-presentation-old","34","248404","0.0-13.0-1.0","SS1618365719560","trial","","40","500","1291.6699997149408","images/stimuli/spore_stims/complex_18_A_b.gif","images/stimuli/spore_stims/complex_17_A_a.gif","forced_short","","2","complex_dissimilar","images/stimuli/spore_stims/complex_17_A_a.gif","","","","",""
"","null","html-keyboard-response","35","249378","0.0-13.0-0.1","SS1618365719560","","","null","","","","","","<p><img src= images/blank.png width =""600"" height = ""600"" style=""position:fixed;top:50%; left:50%; transform: translate(-50%, -50%); border:5px solid black"">","","","","","","","",""
"","14221.454999875277","sequential-stimulus-presentation-old","36","264108","0.0-13.0-1.1","SS1618365719560","trial","","40","500","14721.454999875277","images/stimuli/spore_stims/complex_18_A_b.gif","images/stimuli/spore_stims/complex_17_A_a.gif","forced_short","","2","complex_dissimilar","images/stimuli/spore_stims/complex_18_A_b.gif","","","","",""
"","null","html-keyboard-response","37","265128","0.0-13.0-0.2","SS1618365719560","","","null","","","","","","<p><img src= images/blank.png width =""600"" height = ""600"" style=""position:fixed;top:50%; left:50%; transform: translate(-50%, -50%); border:5px solid black"">","","","","","","","",""
"","3952.759999781847","sequential-stimulus-presentation-old","38","269602","0.0-13.0-1.2","SS1618365719560","trial","","40","500","4452.759999781847","images/stimuli/spore_stims/complex_18_A_b.gif","images/stimuli/spore_stims/complex_17_A_a.gif","forced_short","","2","complex_dissimilar","images/stimuli/spore_stims/complex_17_A_a.gif","","","","",""
"","null","html-keyboard-response","39","270488","0.0-13.0-0.3","SS1618365719560","","","null","","","","","","<p><img src= images/blank.png width =""600"" height = ""600"" style=""position:fixed;top:50%; left:50%; transform: translate(-50%, -50%); border:5px solid black"">","","","","","","","",""
"","2817.144999746233","sequential-stimulus-presentation-old","40","273829","0.0-13.0-1.3","SS1618365719560","trial","","40","500","3317.144999746233","images/stimuli/spore_stims/complex_18_A_b.gif","images/stimuli/spore_stims/complex_17_A_a.gif","forced_short","","2","complex_dissimilar","images/stimuli/spore_stims/complex_17_A_a.gif","","","","",""
"","11676.854999735951","survey-multi-choice","41","285514","0.0-14.0","SS1618365719560","math_question","","","","","","","","","","","","{""Q0"":""12""}","[0]","12","",""
"","null","html-keyboard-response","42","286666","0.0-15.0-0.0","SS1618365719560","","","null","","","","","","<p><img src= images/blank.png width =""600"" height = ""600"" style=""position:fixed;top:50%; left:50%; transform: translate(-50%, -50%); border:5px solid black"">","","","","","","","",""
"","2940.3750002384186","sequential-stimulus-presentation-old","43","290125","0.0-15.0-1.0","SS1618365719560","trial","","40","500","3440.3750002384186","images/stimuli/spore_stims/complex_11_A_b.gif","images/stimuli/spore_stims/complex_09_A_a.gif","self_paced","","3","complex_dissimilar","images/stimuli/spore_stims/complex_09_A_a.gif","","","","",""
"","null","html-keyboard-response","44","290945","0.0-15.0-0.1","SS1618365719560","","","null","","","","","","<p><img src= images/blank.png width =""600"" height = ""600"" style=""position:fixed;top:50%; left:50%; transform: translate(-50%, -50%); border:5px solid black"">","","","","","","","",""
"","2301.2449997477233","sequential-stimulus-presentation-old","45","293772","0.0-15.0-1.1","SS1618365719560","trial","","40","500","2801.2449997477233","images/stimuli/spore_stims/complex_11_A_b.gif","images/stimuli/spore_stims/complex_09_A_a.gif","self_paced","","3","complex_dissimilar","images/stimuli/spore_stims/complex_09_A_a.gif","","","","",""
"","null","html-keyboard-response","46","295010","0.0-15.0-0.2","SS1618365719560","","","null","","","","","","<p><img src= images/blank.png width =""600"" height = ""600"" style=""position:fixed;top:50%; left:50%; transform: translate(-50%, -50%); border:5px solid black"">","","","","","","","",""
"","9789.925000164658","sequential-stimulus-presentation-old","47","305315","0.0-15.0-1.2","SS1618365719560","trial","","40","500","10289.925000164658","images/stimuli/spore_stims/complex_11_A_b.gif","images/stimuli/spore_stims/complex_09_A_a.gif","self_paced","","3","complex_dissimilar","images/stimuli/spore_stims/complex_09_A_a.gif","","","","",""
"","null","html-keyboard-response","48","306678","0.0-15.0-0.3","SS1618365719560","","","null","","","","","","<p><img src= images/blank.png width =""600"" height = ""600"" style=""position:fixed;top:50%; left:50%; transform: translate(-50%, -50%); border:5px solid black"">","","","","","","","",""
"","15694.354999810457","sequential-stimulus-presentation-old","49","322898","0.0-15.0-1.3","SS1618365719560","trial","","40","500","16194.354999810457","images/stimuli/spore_stims/complex_11_A_b.gif","images/stimuli/spore_stims/complex_09_A_a.gif","self_paced","","3","complex_dissimilar","images/stimuli/spore_stims/complex_11_A_b.gif","","","","",""
"","null","html-keyboard-response","50","323787","0.0-15.0-0.4","SS1618365719560","","","null","","","","","","<p><img src= images/blank.png width =""600"" height = ""600"" style=""position:fixed;top:50%; left:50%; transform: translate(-50%, -50%); border:5px solid black"">","","","","","","","",""
"","4082.4599997140467","sequential-stimulus-presentation-old","51","328391","0.0-15.0-1.4","SS1618365719560","trial","","40","500","4582.459999714047","images/stimuli/spore_stims/complex_11_A_b.gif","images/stimuli/spore_stims/complex_09_A_a.gif","self_paced","","3","complex_dissimilar","images/stimuli/spore_stims/complex_09_A_a.gif","","","","",""
"","null","html-keyboard-response","52","329663","0.0-15.0-0.5","SS1618365719560","","","null","","","","","","<p><img src= images/blank.png width =""600"" height = ""600"" style=""position:fixed;top:50%; left:50%; transform: translate(-50%, -50%); border:5px solid black"">","","","","","","","",""
"","3889.634999912232","sequential-stimulus-presentation-old","53","334070","0.0-15.0-1.5","SS1618365719560","trial","","40","500","4389.634999912232","images/stimuli/spore_stims/complex_11_A_b.gif","images/stimuli/spore_stims/complex_09_A_a.gif","self_paced","","3","complex_dissimilar","images/stimuli/spore_stims/complex_11_A_b.gif","","","","",""
"","6345.875000115484","survey-multi-choice","54","340427","0.0-16.0","SS1618365719560","math_question","","","","","","","","","","","","{""Q0"":""12""}","[0]","12","",""
"","null","html-keyboard-response","55","341485","0.0-17.0-0.0","SS1618365719560","","","null","","","","","","<p><img src= images/blank.png width =""600"" height = ""600"" style=""position:fixed;top:50%; left:50%; transform: translate(-50%, -50%); border:5px solid black"">","","","","","","","",""
"","1843.6400000937283","sequential-stimulus-presentation-old","56","343400","0.0-17.0-1.0","SS1618365719560","trial","","40","500","2343.6400000937283","images/stimuli/spore_stims/simple_18_A_a.gif","images/stimuli/spore_stims/simple_01_A_b.gif","forced_short","","4","simple_dissimilar","images/stimuli/spore_stims/simple_01_A_b.gif","","","","",""
"","null","html-keyboard-response","57","344522","0.0-17.0-0.1","SS1618365719560","","","null","","","","","","<p><img src= images/blank.png width =""600"" height = ""600"" style=""position:fixed;top:50%; left:50%; transform: translate(-50%, -50%); border:5px solid black"">","","","","","","","",""
"","2960.890000220388","sequential-stimulus-presentation-old","58","347997","0.0-17.0-1.1","SS1618365719560","trial","","40","500","3460.890000220388","images/stimuli/spore_stims/simple_18_A_a.gif","images/stimuli/spore_stims/simple_01_A_b.gif","forced_short","","4","simple_dissimilar","images/stimuli/spore_stims/simple_01_A_b.gif","","","","",""
"","null","html-keyboard-response","59","349226","0.0-17.0-0.2","SS1618365719560","","","null","","","","","","<p><img src= images/blank.png width =""600"" height = ""600"" style=""position:fixed;top:50%; left:50%; transform: translate(-50%, -50%); border:5px solid black"">","","","","","","","",""
"","1565.350000280887","sequential-stimulus-presentation-old","60","351324","0.0-17.0-1.2","SS1618365719560","trial","","40","500","2065.350000280887","images/stimuli/spore_stims/simple_18_A_a.gif","images/stimuli/spore_stims/simple_01_A_b.gif","forced_short","","4","simple_dissimilar","images/stimuli/spore_stims/simple_01_A_b.gif","","","","",""
"","null","html-keyboard-response","61","352356","0.0-17.0-0.3","SS1618365719560","","","null","","","","","","<p><img src= images/blank.png width =""600"" height = ""600"" style=""position:fixed;top:50%; left:50%; transform: translate(-50%, -50%); border:5px solid black"">","","","","","","","",""
"","1200.7900001481175","sequential-stimulus-presentation-old","62","354074","0.0-17.0-1.3","SS1618365719560","trial","","40","500","1700.7900001481175","images/stimuli/spore_stims/simple_18_A_a.gif","images/stimuli/spore_stims/simple_01_A_b.gif","forced_short","","4","simple_dissimilar","images/stimuli/spore_stims/simple_01_A_b.gif","","","","",""
"","null","html-keyboard-response","63","355198","0.0-17.0-0.4","SS1618365719560","","","null","","","","","","<p><img src= images/blank.png width =""600"" height = ""600"" style=""position:fixed;top:50%; left:50%; transform: translate(-50%, -50%); border:5px solid black"">","","","","","","","",""
"","2701.284999959171","sequential-stimulus-presentation-old","64","358424","0.0-17.0-1.4","SS1618365719560","trial","","40","500","3201.284999959171","images/stimuli/spore_stims/simple_18_A_a.gif","images/stimuli/spore_stims/simple_01_A_b.gif","forced_short","","4","simple_dissimilar","images/stimuli/spore_stims/simple_01_A_b.gif","","","","",""
"","27273.0749999173","survey-multi-choice","65","385709","0.0-18.0","SS1618365719560","math_question","","","","","","","","","","","","{""Q0"":""14""}","[0]","14","",""
"","null","html-keyboard-response","66","386711","0.0-19.0-0.0","SS1618365719560","","","null","","","","","","<p><img src= images/blank.png width =""600"" height = ""600"" style=""position:fixed;top:50%; left:50%; transform: translate(-50%, -50%); border:5px solid black"">","","","","","","","",""
"","559.6949998289347","sequential-stimulus-presentation-old","67","392290","0.0-19.0-1.0","SS1618365719560","trial","","40","500","1059.6949998289347","images/stimuli/spore_stims/complex_01_A_a.gif","images/stimuli/spore_stims/complex_08_A_b.gif","forced_long","","5","complex_dissimilar","images/stimuli/spore_stims/complex_08_A_b.gif","","","","",""
"","null","html-keyboard-response","68","393373","0.0-19.0-0.1","SS1618365719560","","","null","","","","","","<p><img src= images/blank.png width =""600"" height = ""600"" style=""position:fixed;top:50%; left:50%; transform: translate(-50%, -50%); border:5px solid black"">","","","","","","","",""
"","3781.1199999414384","sequential-stimulus-presentation-old","69","397684","0.0-19.0-1.1","SS1618365719560","trial","","40","500","4281.119999941438","images/stimuli/spore_stims/complex_01_A_a.gif","images/stimuli/spore_stims/complex_08_A_b.gif","forced_long","","5","complex_dissimilar","images/stimuli/spore_stims/complex_01_A_a.gif","","","","",""
"","null","html-keyboard-response","70","398620","0.0-19.0-0.2","SS1618365719560","","","null","","","","","","<p><img src= images/blank.png width =""600"" height = ""600"" style=""position:fixed;top:50%; left:50%; transform: translate(-50%, -50%); border:5px solid black"">","","","","","","","",""
"","4302.360000088811","sequential-stimulus-presentation-old","71","403442","0.0-19.0-1.2","SS1618365719560","trial","","40","500","4802.360000088811","images/stimuli/spore_stims/complex_01_A_a.gif","images/stimuli/spore_stims/complex_08_A_b.gif","forced_long","","5","complex_dissimilar","images/stimuli/spore_stims/complex_08_A_b.gif","","","","",""
"","null","html-keyboard-response","72","404495","0.0-19.0-0.3","SS1618365719560","","","null","","","","","","<p><img src= images/blank.png width =""600"" height = ""600"" style=""position:fixed;top:50%; left:50%; transform: translate(-50%, -50%); border:5px solid black"">","","","","","","","",""
"","1113.159999717027","sequential-stimulus-presentation-old","73","406127","0.0-19.0-1.3","SS1618365719560","trial","","40","500","1613.159999717027","images/stimuli/spore_stims/complex_01_A_a.gif","images/stimuli/spore_stims/complex_08_A_b.gif","forced_long","","5","complex_dissimilar","images/stimuli/spore_stims/complex_08_A_b.gif","","","","",""
"","null","html-keyboard-response","74","407223","0.0-19.0-0.4","SS1618365719560","","","null","","","","","","<p><img src= images/blank.png width =""600"" height = ""600"" style=""position:fixed;top:50%; left:50%; transform: translate(-50%, -50%); border:5px solid black"">","","","","","","","",""
"","2826.5250003896654","sequential-stimulus-presentation-old","75","410566","0.0-19.0-1.4","SS1618365719560","trial","","40","500","3326.5250003896654","images/stimuli/spore_stims/complex_01_A_a.gif","images/stimuli/spore_stims/complex_08_A_b.gif","forced_long","","5","complex_dissimilar","images/stimuli/spore_stims/complex_01_A_a.gif","","","","",""
"","3795.2450001612306","survey-multi-choice","76","414374","0.0-20.0","SS1618365719560","math_question","","","","","","","","","","","","{""Q0"":""10""}","[0]","10","",""
"","null","html-keyboard-response","77","415637","0.0-21.0-0.0","SS1618365719560","","","null","","","","","","<p><img src= images/blank.png width =""600"" height = ""600"" style=""position:fixed;top:50%; left:50%; transform: translate(-50%, -50%); border:5px solid black"">","","","","","","","",""
"","3136.905000079423","sequential-stimulus-presentation-old","78","419289","0.0-21.0-1.0","SS1618365719560","trial","","40","500","3636.905000079423","images/stimuli/spore_stims/complex_03_A_a.gif","images/stimuli/spore_stims/complex_04_A_b.gif","self_paced","","6","complex_dissimilar","images/stimuli/spore_stims/complex_04_A_b.gif","","","","",""
"","null","html-keyboard-response","79","420479","0.0-21.0-0.1","SS1618365719560","","","null","","","","","","<p><img src= images/blank.png width =""600"" height = ""600"" style=""position:fixed;top:50%; left:50%; transform: translate(-50%, -50%); border:5px solid black"">","","","","","","","",""
"","10975.920000113547","sequential-stimulus-presentation-old","80","431972","0.0-21.0-1.1","SS1618365719560","trial","","40","500","11475.920000113547","images/stimuli/spore_stims/complex_03_A_a.gif","images/stimuli/spore_stims/complex_04_A_b.gif","self_paced","","6","complex_dissimilar","images/stimuli/spore_stims/complex_03_A_a.gif","","","","",""
"","null","html-keyboard-response","81","432947","0.0-21.0-0.2","SS1618365719560","","","null","","","","","","<p><img src= images/blank.png width =""600"" height = ""600"" style=""position:fixed;top:50%; left:50%; transform: translate(-50%, -50%); border:5px solid black"">","","","","","","","",""
"","14179.765000008047","sequential-stimulus-presentation-old","82","447641","0.0-21.0-1.2","SS1618365719560","trial","","40","500","14679.765000008047","images/stimuli/spore_stims/complex_03_A_a.gif","images/stimuli/spore_stims/complex_04_A_b.gif","self_paced","","6","complex_dissimilar","images/stimuli/spore_stims/complex_03_A_a.gif","","","","",""
"","null","html-keyboard-response","83","448919","0.0-21.0-0.3","SS1618365719560","","","null","","","","","","<p><img src= images/blank.png width =""600"" height = ""600"" style=""position:fixed;top:50%; left:50%; transform: translate(-50%, -50%); border:5px solid black"">","","","","","","","",""
"","9717.064999975264","sequential-stimulus-presentation-old","84","459154","0.0-21.0-1.3","SS1618365719560","trial","","40","500","10217.064999975264","images/stimuli/spore_stims/complex_03_A_a.gif","images/stimuli/spore_stims/complex_04_A_b.gif","self_paced","","6","complex_dissimilar","images/stimuli/spore_stims/complex_04_A_b.gif","","","","",""
"","8370.63999986276","survey-multi-choice","85","467537","0.0-22.0","SS1618365719560","math_question","","","","","","","","","","","","{""Q0"":""13""}","[0]","13","",""
"","null","html-keyboard-response","86","468621","0.0-23.0-0.0","SS1618365719560","","","null","","","","","","<p><img src= images/blank.png width =""600"" height = ""600"" style=""position:fixed;top:50%; left:50%; transform: translate(-50%, -50%); border:5px solid black"">","","","","","","","",""
"","620.9250004030764","sequential-stimulus-presentation-old","87","474263","0.0-23.0-1.0","SS1618365719560","trial","","40","500","1120.9250004030764","images/stimuli/spore_stims/complex_07_A_a.gif","images/stimuli/spore_stims/complex_10_A_b.gif","forced_long","","7","complex_dissimilar","images/stimuli/spore_stims/complex_10_A_b.gif","","","","",""
"","null","html-keyboard-response","88","475263","0.0-23.0-0.1","SS1618365719560","","","null","","","","","","<p><img src= images/blank.png width =""600"" height = ""600"" style=""position:fixed;top:50%; left:50%; transform: translate(-50%, -50%); border:5px solid black"">","","","","","","","",""
"","9082.595000043511","sequential-stimulus-presentation-old","89","484867","0.0-23.0-1.1","SS1618365719560","trial","","40","500","9582.595000043511","images/stimuli/spore_stims/complex_07_A_a.gif","images/stimuli/spore_stims/complex_10_A_b.gif","forced_long","","7","complex_dissimilar","images/stimuli/spore_stims/complex_10_A_b.gif","","","","",""
"","null","html-keyboard-response","90","485917","0.0-23.0-0.2","SS1618365719560","","","null","","","","","","<p><img src= images/blank.png width =""600"" height = ""600"" style=""position:fixed;top:50%; left:50%; transform: translate(-50%, -50%); border:5px solid black"">","","","","","","","",""
"","3170.485000126064","sequential-stimulus-presentation-old","91","489607","0.0-23.0-1.2","SS1618365719560","trial","","40","500","3670.485000126064","images/stimuli/spore_stims/complex_07_A_a.gif","images/stimuli/spore_stims/complex_10_A_b.gif","forced_long","","7","complex_dissimilar","images/stimuli/spore_stims/complex_10_A_b.gif","","","","",""
"","null","html-keyboard-response","92","490482","0.0-23.0-0.3","SS1618365719560","","","null","","","","","","<p><img src= images/blank.png width =""600"" height = ""600"" style=""position:fixed;top:50%; left:50%; transform: translate(-50%, -50%); border:5px solid black"">","","","","","","","",""
"","2897.795000113547","sequential-stimulus-presentation-old","93","493900","0.0-23.0-1.3","SS1618365719560","trial","","40","500","3397.795000113547","images/stimuli/spore_stims/complex_07_A_a.gif","images/stimuli/spore_stims/complex_10_A_b.gif","forced_long","","7","complex_dissimilar","images/stimuli/spore_stims/complex_07_A_a.gif","","","","",""
"","null","html-keyboard-response","94","495056","0.0-23.0-0.4","SS1618365719560","","","null","","","","","","<p><img src= images/blank.png width =""600"" height = ""600"" style=""position:fixed;top:50%; left:50%; transform: translate(-50%, -50%); border:5px solid black"">","","","","","","","",""
"","1805.9249999932945","sequential-stimulus-presentation-old","95","497385","0.0-23.0-1.4","SS1618365719560","trial","","40","500","2305.9249999932945","images/stimuli/spore_stims/complex_07_A_a.gif","images/stimuli/spore_stims/complex_10_A_b.gif","forced_long","","7","complex_dissimilar","images/stimuli/spore_stims/complex_07_A_a.gif","","","","",""
"","8403.574999887496","survey-multi-choice","96","505866","0.0-24.0","SS1618365719560","math_question","","","","","","","","","","","","{""Q0"":""12""}","[0]","12","",""
"","null","html-keyboard-response","97","506766","0.0-25.0-0.0","SS1618365719560","","","null","","","","","","<p><img src= images/blank.png width =""600"" height = ""600"" style=""position:fixed;top:50%; left:50%; transform: translate(-50%, -50%); border:5px solid black"">","","","","","","","",""
"","1664.969999808818","sequential-stimulus-presentation-old","98","508511","0.0-25.0-1.0","SS1618365719560","trial","","40","500","2164.969999808818","images/stimuli/spore_stims/complex_19_A_a.gif","images/stimuli/spore_stims/complex_02_A_b.gif","forced_short","","8","complex_dissimilar","images/stimuli/spore_stims/complex_02_A_b.gif","","","","",""
"","null","html-keyboard-response","99","509790","0.0-25.0-0.1","SS1618365719560","","","null","","","","","","<p><img src= images/blank.png width =""600"" height = ""600"" style=""position:fixed;top:50%; left:50%; transform: translate(-50%, -50%); border:5px solid black"">","","","","","","","",""
"","8099.7049999423325","sequential-stimulus-presentation-old","100","518410","0.0-25.0-1.1","SS1618365719560","trial","","40","500","8599.704999942333","images/stimuli/spore_stims/complex_19_A_a.gif","images/stimuli/spore_stims/complex_02_A_b.gif","forced_short","","8","complex_dissimilar","images/stimuli/spore_stims/complex_02_A_b.gif","","","","",""
"","null","html-keyboard-response","101","519715","0.0-25.0-0.2","SS1618365719560","","","null","","","","","","<p><img src= images/blank.png width =""600"" height = ""600"" style=""position:fixed;top:50%; left:50%; transform: translate(-50%, -50%); border:5px solid black"">","","","","","","","",""
"","8020.709999836981","sequential-stimulus-presentation-old","102","528253","0.0-25.0-1.2","SS1618365719560","trial","","40","500","8520.709999836981","images/stimuli/spore_stims/complex_19_A_a.gif","images/stimuli/spore_stims/complex_02_A_b.gif","forced_short","","8","complex_dissimilar","images/stimuli/spore_stims/complex_19_A_a.gif","","","","",""
"","null","html-keyboard-response","103","529357","0.0-25.0-0.3","SS1618365719560","","","null","","","","","","<p><img src= images/blank.png width =""600"" height = ""600"" style=""position:fixed;top:50%; left:50%; transform: translate(-50%, -50%); border:5px solid black"">","","","","","","","",""
"","6740.190000273287","sequential-stimulus-presentation-old","104","536622","0.0-25.0-1.3","SS1618365719560","trial","","40","500","7240.190000273287","images/stimuli/spore_stims/complex_19_A_a.gif","images/stimuli/spore_stims/complex_02_A_b.gif","forced_short","","8","complex_dissimilar","images/stimuli/spore_stims/complex_19_A_a.gif","","","","",""
"","7725.655000191182","survey-multi-choice","105","544362","0.0-26.0","SS1618365719560","math_question","","","","","","","","","","","","{""Q0"":""15""}","[0]","15","",""
"","null","html-keyboard-response","106","545676","0.0-27.0-0.0","SS1618365719560","","","null","","","","","","<p><img src= images/blank.png width =""600"" height = ""600"" style=""position:fixed;top:50%; left:50%; transform: translate(-50%, -50%); border:5px solid black"">","","","","","","","",""
"","8203.495000023395","sequential-stimulus-presentation-old","107","554402","0.0-27.0-1.0","SS1618365719560","trial","","40","500","8703.495000023395","images/stimuli/spore_stims/simple_05_A_b.gif","images/stimuli/spore_stims/simple_01_A_a.gif","self_paced","","9","simple_dissimilar","images/stimuli/spore_stims/simple_01_A_a.gif","","","","",""
"","null","html-keyboard-response","108","555709","0.0-27.0-0.1","SS1618365719560","","","null","","","","","","<p><img src= images/blank.png width =""600"" height = ""600"" style=""position:fixed;top:50%; left:50%; transform: translate(-50%, -50%); border:5px solid black"">","","","","","","","",""
"","606.8699997849762","sequential-stimulus-presentation-old","109","556839","0.0-27.0-1.1","SS1618365719560","trial","","40","500","1106.8699997849762","images/stimuli/spore_stims/simple_05_A_b.gif","images/stimuli/spore_stims/simple_01_A_a.gif","self_paced","","9","simple_dissimilar","images/stimuli/spore_stims/simple_01_A_a.gif","","","","",""
"","null","html-keyboard-response","110","558151","0.0-27.0-0.2","SS1618365719560","","","null","","","","","","<p><img src= images/blank.png width =""600"" height = ""600"" style=""position:fixed;top:50%; left:50%; transform: translate(-50%, -50%); border:5px solid black"">","","","","","","","",""
"","336.58500015735626","sequential-stimulus-presentation-old","111","559013","0.0-27.0-1.2","SS1618365719560","trial","","40","500","836.5850001573563","images/stimuli/spore_stims/simple_05_A_b.gif","images/stimuli/spore_stims/simple_01_A_a.gif","self_paced","","9","simple_dissimilar","images/stimuli/spore_stims/simple_01_A_a.gif","","","","",""
"","null","html-keyboard-response","112","560295","0.0-27.0-0.3","SS1618365719560","","","null","","","","","","<p><img src= images/blank.png width =""600"" height = ""600"" style=""position:fixed;top:50%; left:50%; transform: translate(-50%, -50%); border:5px solid black"">","","","","","","","",""
"","952.2649999707937","sequential-stimulus-presentation-old","113","561764","0.0-27.0-1.3","SS1618365719560","trial","","40","500","1452.2649999707937","images/stimuli/spore_stims/simple_05_A_b.gif","images/stimuli/spore_stims/simple_01_A_a.gif","self_paced","","9","simple_dissimilar","images/stimuli/spore_stims/simple_01_A_a.gif","","","","",""
"","3944.3299998529255","survey-multi-choice","114","565725","0.0-28.0","SS1618365719560","math_question","","","","","","","","","","","","{""Q0"":""6""}","[0]","6","",""
"","null","html-keyboard-response","115","566922","0.0-29.0-0.0","SS1618365719560","","","null","","","","","","<p><img src= images/blank.png width =""600"" height = ""600"" style=""position:fixed;top:50%; left:50%; transform: translate(-50%, -50%); border:5px solid black"">","","","","","","","",""
"","4282.380000222474","sequential-stimulus-presentation-old","116","576226","0.0-29.0-1.0","SS1618365719560","trial","","40","500","4782.380000222474","images/stimuli/spore_stims/simple_12_A_b.gif","images/stimuli/spore_stims/simple_09_A_a.gif","forced_long","","10","simple_dissimilar","images/stimuli/spore_stims/simple_09_A_a.gif","","","","",""
"","null","html-keyboard-response","117","577409","0.0-29.0-0.1","SS1618365719560","","","null","","","","","","<p><img src= images/blank.png width =""600"" height = ""600"" style=""position:fixed;top:50%; left:50%; transform: translate(-50%, -50%); border:5px solid black"">","","","","","","","",""
"","3158.114999998361","sequential-stimulus-presentation-old","118","581084","0.0-29.0-1.1","SS1618365719560","trial","","40","500","3658.114999998361","images/stimuli/spore_stims/simple_12_A_b.gif","images/stimuli/spore_stims/simple_09_A_a.gif","forced_long","","10","simple_dissimilar","images/stimuli/spore_stims/simple_12_A_b.gif","","","","",""
"","null","html-keyboard-response","119","582126","0.0-29.0-0.2","SS1618365719560","","","null","","","","","","<p><img src= images/blank.png width =""600"" height = ""600"" style=""position:fixed;top:50%; left:50%; transform: translate(-50%, -50%); border:5px solid black"">","","","","","","","",""
"","2670.4150000587106","sequential-stimulus-presentation-old","120","585319","0.0-29.0-1.2","SS1618365719560","trial","","40","500","3170.4150000587106","images/stimuli/spore_stims/simple_12_A_b.gif","images/stimuli/spore_stims/simple_09_A_a.gif","forced_long","","10","simple_dissimilar","images/stimuli/spore_stims/simple_09_A_a.gif","","","","",""
"","null","html-keyboard-response","121","586374","0.0-29.0-0.3","SS1618365719560","","","null","","","","","","<p><img src= images/blank.png width =""600"" height = ""600"" style=""position:fixed;top:50%; left:50%; transform: translate(-50%, -50%); border:5px solid black"">","","","","","","","",""
"","3000.1199999824166","sequential-stimulus-presentation-old","122","589896","0.0-29.0-1.3","SS1618365719560","trial","","40","500","3500.1199999824166","images/stimuli/spore_stims/simple_12_A_b.gif","images/stimuli/spore_stims/simple_09_A_a.gif","forced_long","","10","simple_dissimilar","images/stimuli/spore_stims/simple_09_A_a.gif","","","","",""
"","null","html-keyboard-response","123","591064","0.0-29.0-0.4","SS1618365719560","","","null","","","","","","<p><img src= images/blank.png width =""600"" height = ""600"" style=""position:fixed;top:50%; left:50%; transform: translate(-50%, -50%); border:5px solid black"">","","","","","","","",""
"","6624.279999639839","sequential-stimulus-presentation-old","124","598219","0.0-29.0-1.4","SS1618365719560","trial","","40","500","7124.279999639839","images/stimuli/spore_stims/simple_12_A_b.gif","images/stimuli/spore_stims/simple_09_A_a.gif","forced_long","","10","simple_dissimilar","images/stimuli/spore_stims/simple_09_A_a.gif","","","","",""
"","27955.49500035122","survey-multi-choice","125","626194","0.0-30.0","SS1618365719560","math_question","","","","","","","","","","","","{""Q0"":""10""}","[0]","10","",""
"","null","html-keyboard-response","126","627364","0.0-31.0-0.0","SS1618365719560","","","null","","","","","","<p><img src= images/blank.png width =""600"" height = ""600"" style=""position:fixed;top:50%; left:50%; transform: translate(-50%, -50%); border:5px solid black"">","","","","","","","",""
"","1389.0949999913573","sequential-stimulus-presentation-old","127","628836","0.0-31.0-1.0","SS1618365719560","trial","","40","500","1889.0949999913573","images/stimuli/spore_stims/simple_06_A_b.gif","images/stimuli/spore_stims/simple_11_A_a.gif","forced_short","","11","simple_dissimilar","images/stimuli/spore_stims/simple_11_A_a.gif","","","","",""
"","null","html-keyboard-response","128","629786","0.0-31.0-0.1","SS1618365719560","","","null","","","","","","<p><img src= images/blank.png width =""600"" height = ""600"" style=""position:fixed;top:50%; left:50%; transform: translate(-50%, -50%); border:5px solid black"">","","","","","","","",""
"","2886.634999886155","sequential-stimulus-presentation-old","129","633192","0.0-31.0-1.1","SS1618365719560","trial","","40","500","3386.634999886155","images/stimuli/spore_stims/simple_06_A_b.gif","images/stimuli/spore_stims/simple_11_A_a.gif","forced_short","","11","simple_dissimilar","images/stimuli/spore_stims/simple_06_A_b.gif","","","","",""
"","null","html-keyboard-response","130","634350","0.0-31.0-0.2","SS1618365719560","","","null","","","","","","<p><img src= images/blank.png width =""600"" height = ""600"" style=""position:fixed;top:50%; left:50%; transform: translate(-50%, -50%); border:5px solid black"">","","","","","","","",""
"","2742.490000091493","sequential-stimulus-presentation-old","131","637613","0.0-31.0-1.2","SS1618365719560","trial","","40","500","3242.490000091493","images/stimuli/spore_stims/simple_06_A_b.gif","images/stimuli/spore_stims/simple_11_A_a.gif","forced_short","","11","simple_dissimilar","images/stimuli/spore_stims/simple_06_A_b.gif","","","","",""
"","null","html-keyboard-response","132","638528","0.0-31.0-0.3","SS1618365719560","","","null","","","","","","<p><img src= images/blank.png width =""600"" height = ""600"" style=""position:fixed;top:50%; left:50%; transform: translate(-50%, -50%); border:5px solid black"">","","","","","","","",""
"","2510.3699997998774","sequential-stimulus-presentation-old","133","641565","0.0-31.0-1.3","SS1618365719560","trial","","40","500","3010.3699997998774","images/stimuli/spore_stims/simple_06_A_b.gif","images/stimuli/spore_stims/simple_11_A_a.gif","forced_short","","11","simple_dissimilar","images/stimuli/spore_stims/simple_11_A_a.gif","","","","",""
"","null","html-keyboard-response","134","642822","0.0-31.0-0.4","SS1618365719560","","","null","","","","","","<p><img src= images/blank.png width =""600"" height = ""600"" style=""position:fixed;top:50%; left:50%; transform: translate(-50%, -50%); border:5px solid black"">","","","","","","","",""
"","2484.1450001113117","sequential-stimulus-presentation-old","135","645829","0.0-31.0-1.4","SS1618365719560","trial","","40","500","2984.1450001113117","images/stimuli/spore_stims/simple_06_A_b.gif","images/stimuli/spore_stims/simple_11_A_a.gif","forced_short","","11","simple_dissimilar","images/stimuli/spore_stims/simple_11_A_a.gif","","","","",""
"","null","html-keyboard-response","136","646742","0.0-31.0-0.5","SS1618365719560","","","null","","","","","","<p><img src= images/blank.png width =""600"" height = ""600"" style=""position:fixed;top:50%; left:50%; transform: translate(-50%, -50%); border:5px solid black"">","","","","","","","",""
"","1020.5899998545647","sequential-stimulus-presentation-old","137","648286","0.0-31.0-1.5","SS1618365719560","trial","","40","500","1520.5899998545647","images/stimuli/spore_stims/simple_06_A_b.gif","images/stimuli/spore_stims/simple_11_A_a.gif","forced_short","","11","simple_dissimilar","images/stimuli/spore_stims/simple_11_A_a.gif","","","","",""
"[{""page_index"":0,""viewing_time"":5295.589999761432}]","5296.589999925345","instructions","138","653596","0.0-32.0","SS1618365719560","instructions","","","","","","","","","","","","","","","",""
"","9446.479999925941","survey-likert","139","663122","0.0-33.0","SS1618365719560","similarity_question","","","","","","","","","","","","{""Q0"":4}","[0]","","images/stimuli/spore_stims/simple_09_A_a.gif","images/stimuli/spore_stims/simple_12_A_b.gif"
"","7528.980000410229","survey-likert","140","670681","0.0-34.0","SS1618365719560","similarity_question","","","","","","","","","","","","{""Q0"":0}","[0]","","images/stimuli/spore_stims/complex_01_A_a.gif","images/stimuli/spore_stims/complex_08_A_b.gif"
"","4829.3200000189245","survey-likert","141","675534","0.0-35.0","SS1618365719560","similarity_question","","","","","","","","","","","","{""Q0"":4}","[0]","","images/stimuli/spore_stims/simple_10_A_a.gif","images/stimuli/spore_stims/simple_02_A_b.gif"
"","4389.994999859482","survey-likert","142","679946","0.0-36.0","SS1618365719560","similarity_question","","","","","","","","","","","","{""Q0"":1}","[0]","","images/stimuli/spore_stims/simple_11_A_a.gif","images/stimuli/spore_stims/simple_06_A_b.gif"
"","5082.979999948293","survey-likert","143","685039","0.0-37.0","SS1618365719560","similarity_question","","","","","","","","","","","","{""Q0"":0}","[0]","","images/stimuli/spore_stims/simple_01_A_b.gif","images/stimuli/spore_stims/simple_18_A_a.gif"
"","10771.494999993593","survey-likert","144","695834","0.0-38.0","SS1618365719560","similarity_question","","","","","","","","","","","","{""Q0"":1}","[0]","","images/stimuli/spore_stims/simple_04_A_a.gif","images/stimuli/spore_stims/simple_03_A_b.gif"
"","31950.90000005439","survey-likert","145","727812","0.0-39.0","SS1618365719560","similarity_question","","","","","","","","","","","","{""Q0"":1}","[0]","","images/stimuli/spore_stims/simple_05_A_b.gif","images/stimuli/spore_stims/simple_01_A_a.gif"
"","5689.664999954402","survey-likert","146","733525","0.0-40.0","SS1618365719560","similarity_question","","","","","","","","","","","","{""Q0"":0}","[0]","","images/stimuli/spore_stims/complex_07_A_a.gif","images/stimuli/spore_stims/complex_10_A_b.gif"
"","4457.179999910295","survey-likert","147","738009","0.0-41.0","SS1618365719560","similarity_question","","","","","","","","","","","","{""Q0"":0}","[0]","","images/stimuli/spore_stims/complex_11_A_b.gif","images/stimuli/spore_stims/complex_09_A_a.gif"
"","4384.714999701828","survey-likert","148","742417","0.0-42.0","SS1618365719560","similarity_question","","","","","","","","","","","","{""Q0"":0}","[0]","","images/stimuli/spore_stims/complex_04_A_b.gif","images/stimuli/spore_stims/complex_03_A_a.gif"
"","8035.265000071377","survey-likert","149","750478","0.0-43.0","SS1618365719560","similarity_question","","","","","","","","","","","","{""Q0"":1}","[0]","","images/stimuli/spore_stims/complex_19_A_a.gif","images/stimuli/spore_stims/complex_02_A_b.gif"
"","21529.439999721944","survey-likert","150","772029","0.0-44.0","SS1618365719560","similarity_question","","","","","","","","","","","","{""Q0"":2}","[0]","","images/stimuli/spore_stims/complex_17_A_a.gif","images/stimuli/spore_stims/complex_18_A_b.gif"
"[{""page_index"":0,""viewing_time"":6583.26999982819}]","6584.444999694824","instructions","151","778631","0.0-45.0","SS1618365719560","instructions","","","","","","","","","","","","","","","",""
"","6005.220000166446","survey-likert","152","784657","0.0-46.0","SS1618365719560","","","","","","","","","images/stimuli/spore_stims/complex_10_A_b.gif","","","","{""Q0"":4}","[0]","","",""
"","3482.3150001466274","survey-likert","153","788161","0.0-47.0","SS1618365719560","","","","","","","","","images/stimuli/spore_stims/simple_10_A_a.gif","","","","{""Q0"":1}","[0]","","",""
"","4630.355000030249","survey-likert","154","792813","0.0-48.0","SS1618365719560","","","","","","","","","images/stimuli/spore_stims/complex_11_A_b.gif","","","","{""Q0"":6}","[0]","","",""
"","3581.6099997609854","survey-likert","155","796420","0.0-49.0","SS1618365719560","","","","","","","","","images/stimuli/spore_stims/complex_04_A_b.gif","","","","{""Q0"":5}","[0]","","",""
"","4817.26499972865","survey-likert","156","801260","0.0-50.0","SS1618365719560","","","","","","","","","images/stimuli/spore_stims/simple_18_A_a.gif","","","","{""Q0"":0}","[0]","","",""
"","3730.4700003005564","survey-likert","157","805013","0.0-51.0","SS1618365719560","","","","","","","","","images/stimuli/spore_stims/complex_17_A_a.gif","","","","{""Q0"":6}","[0]","","",""
"","2985.1500000804663","survey-likert","158","808025","0.0-52.0","SS1618365719560","","","","","","","","","images/stimuli/spore_stims/complex_19_A_a.gif","","","","{""Q0"":5}","[0]","","",""
"","3013.9649999327958","survey-likert","159","811062","0.0-53.0","SS1618365719560","","","","","","","","","images/stimuli/spore_stims/simple_03_A_b.gif","","","","{""Q0"":1}","[0]","","",""
"","4346.239999867976","survey-likert","160","815431","0.0-54.0","SS1618365719560","","","","","","","","","images/stimuli/spore_stims/simple_06_A_b.gif","","","","{""Q0"":1}","[0]","","",""
"","3387.6649998128414","survey-likert","161","818844","0.0-55.0","SS1618365719560","","","","","","","","","images/stimuli/spore_stims/simple_12_A_b.gif","","","","{""Q0"":1}","[0]","","",""
"","6833.564999978989","survey-likert","162","825700","0.0-56.0","SS1618365719560","","","","","","","","","images/stimuli/spore_stims/simple_05_A_b.gif","","","","{""Q0"":1}","[0]","","",""
"","23432.465000078082","survey-likert","163","849160","0.0-57.0","SS1618365719560","","","","","","","","","images/stimuli/spore_stims/complex_08_A_b.gif","","","","{""Q0"":5}","[0]","","",""
"[{""page_index"":0,""viewing_time"":2340.7300002872944}]","2341.830000281334","instructions","164","851524","0.0-58.0","SS1618365719560","instructions","","","","","","","","","","","","","","","",""
"","3538.7249998748302","demog-age","165","855155","0.0-59.0","SS1618365719560","","","","","","","","","","","","","{""age"":""24""}","","","",""
"","4076.030000112951","demog-ethnic-US","166","859315","0.0-60.0","SS1618365719560","","","","","","","","","","","","","{""ethnicity"":[""Hispanic or Latino""]}","[0]","","",""
"","13615.604999940842","demog-gender-and-education","167","872949","0.0-61.0","SS1618365719560","","","","","","","","","","","","","{""gender"":""Female"",""education"":""Bachelor's Degree""}","[0,1]","","",""
"","34324.70999984071","survey-text","168","907298","0.0-62.0","SS1618365719560","feedback","","","","","","","","","","","","{""Q0"":""All good! Good luck with your research!""}","","","",""
"[{""page_index"":0,""viewing_time"":3759.915000293404}]","3760.9400004148483","instructions","169","911077","0.0-63.0","SS1618365719560","instructions","","","","","","","","","","","","","","","",""
