"view_history","rt","trial_type","trial_index","time_elapsed","internal_node_id","subject","stimulus_type","trial_stimulus","key_press","minimum_viewing_duration","trial_looking_time","block_deviant","block_background","exposure_type","stimulus","block_number","block_type","stimulus_displayed","responses","question_order","math_correct_answer","stimulus_left","stimulus_right"
"[{""page_index"":0,""viewing_time"":11901.429999998072}]","11901.969999998983","instructions","0","11902","0.0-0.0","SS1618435642933","","","","","","","","","","","","","","","","",""
"[{""page_index"":0,""viewing_time"":16786.520000001474},{""page_index"":1,""viewing_time"":7678.805000003194}]","24465.53000000131","instructions","1","38377","0.0-1.0","SS1618435642933","instructions","","","","","","","","","","","","","","","",""
"","13198.694999999134","sequential-stimulus-presentation-old","2","52079","0.0-2.0","SS1618435642933","","","40","500","13698.694999999134","null","null","self_paced","","","","","","","","",""
"","6859.275000002526","sequential-stimulus-presentation-old","3","59439","0.0-3.0","SS1618435642933","","","40","500","7359.275000002526","null","null","self_paced","","","","","","","","",""
"[{""page_index"":0,""viewing_time"":17053.914999996778}]","17054.049999998824","instructions","4","76494","0.0-4.0","SS1618435642933","instructions","","","","","","","","","","","","","","","",""
"","3065.6249999956344","sequential-stimulus-presentation-old","5","84561","0.0-5.0","SS1618435642933","","","40","500","3565.6249999956344","null","null","forced_long","","","","","","","","",""
"","4709.504999998899","sequential-stimulus-presentation-old","6","89323","0.0-6.0","SS1618435642933","","","40","50","4759.504999998899","null","null","forced_long","","","","","","","","",""
"[{""page_index"":0,""viewing_time"":4400.939999999537}]","4401.064999998198","instructions","7","93724","0.0-7.0","SS1618435642933","instructions","","","","","","","","","","","","","","","",""
"[{""page_index"":0,""viewing_time"":8791.745000002265},{""page_index"":1,""viewing_time"":9218.784999997297},{""page_index"":2,""viewing_time"":5912.394999999378},{""page_index"":3,""viewing_time"":932.5300000054995},{""page_index"":4,""viewing_time"":1264.999999999418}]","26120.600000002014","instructions","8","119845","0.0-8.0","SS1618435642933","instructions","","","","","","","","","","","","","","","",""
"","null","html-keyboard-response","9","120761","0.0-9.0-0.0","SS1618435642933","","","null","","","","","","<p><img src= images/blank.png width =""600"" height = ""600"" style=""position:fixed;top:50%; left:50%; transform: translate(-50%, -50%); border:5px solid black"">","","","","","","","",""
"","1163.4500000000116","sequential-stimulus-presentation-old","10","126928","0.0-9.0-1.0","SS1618435642933","trial","","40","500","1663.4500000000116","images/stimuli/spore_stims/simple_09_A_a.gif","images/stimuli/spore_stims/simple_20_A_b.gif","forced_long","","0","simple_dissimilar","images/stimuli/spore_stims/simple_20_A_b.gif","","","","",""
"","null","html-keyboard-response","11","128125","0.0-9.0-0.1","SS1618435642933","","","null","","","","","","<p><img src= images/blank.png width =""600"" height = ""600"" style=""position:fixed;top:50%; left:50%; transform: translate(-50%, -50%); border:5px solid black"">","","","","","","","",""
"","8690.244999997958","sequential-stimulus-presentation-old","12","137317","0.0-9.0-1.1","SS1618435642933","trial","","40","500","9190.244999997958","images/stimuli/spore_stims/simple_09_A_a.gif","images/stimuli/spore_stims/simple_20_A_b.gif","forced_long","","0","simple_dissimilar","images/stimuli/spore_stims/simple_09_A_a.gif","","","","",""
"","null","html-keyboard-response","13","138130","0.0-9.0-0.2","SS1618435642933","","","null","","","","","","<p><img src= images/blank.png width =""600"" height = ""600"" style=""position:fixed;top:50%; left:50%; transform: translate(-50%, -50%); border:5px solid black"">","","","","","","","",""
"","2842.6949999993667","sequential-stimulus-presentation-old","14","141475","0.0-9.0-1.2","SS1618435642933","trial","","40","500","3342.6949999993667","images/stimuli/spore_stims/simple_09_A_a.gif","images/stimuli/spore_stims/simple_20_A_b.gif","forced_long","","0","simple_dissimilar","images/stimuli/spore_stims/simple_20_A_b.gif","","","","",""
"","null","html-keyboard-response","15","142707","0.0-9.0-0.3","SS1618435642933","","","null","","","","","","<p><img src= images/blank.png width =""600"" height = ""600"" style=""position:fixed;top:50%; left:50%; transform: translate(-50%, -50%); border:5px solid black"">","","","","","","","",""
"","5839.475000000675","sequential-stimulus-presentation-old","16","149048","0.0-9.0-1.3","SS1618435642933","trial","","40","500","6339.475000000675","images/stimuli/spore_stims/simple_09_A_a.gif","images/stimuli/spore_stims/simple_20_A_b.gif","forced_long","","0","simple_dissimilar","images/stimuli/spore_stims/simple_20_A_b.gif","","","","",""
"","null","html-keyboard-response","17","150299","0.0-9.0-0.4","SS1618435642933","","","null","","","","","","<p><img src= images/blank.png width =""600"" height = ""600"" style=""position:fixed;top:50%; left:50%; transform: translate(-50%, -50%); border:5px solid black"">","","","","","","","",""
"","1972.1299999946496","sequential-stimulus-presentation-old","18","152773","0.0-9.0-1.4","SS1618435642933","trial","","40","500","2472.1299999946496","images/stimuli/spore_stims/simple_09_A_a.gif","images/stimuli/spore_stims/simple_20_A_b.gif","forced_long","","0","simple_dissimilar","images/stimuli/spore_stims/simple_20_A_b.gif","","","","",""
"","null","html-keyboard-response","19","153774","0.0-9.0-0.5","SS1618435642933","","","null","","","","","","<p><img src= images/blank.png width =""600"" height = ""600"" style=""position:fixed;top:50%; left:50%; transform: translate(-50%, -50%); border:5px solid black"">","","","","","","","",""
"","368.5899999982212","sequential-stimulus-presentation-old","20","154645","0.0-9.0-1.5","SS1618435642933","trial","","40","500","868.5899999982212","images/stimuli/spore_stims/simple_09_A_a.gif","images/stimuli/spore_stims/simple_20_A_b.gif","forced_long","","0","simple_dissimilar","images/stimuli/spore_stims/simple_20_A_b.gif","","","","",""
"","4443.125000005239","survey-multi-choice","21","159090","0.0-10.0","SS1618435642933","math_question","","","","","","","","","","","","{""Q0"":""8""}","[0]","8","",""
"","null","html-keyboard-response","22","160048","0.0-11.0-0.0","SS1618435642933","","","null","","","","","","<p><img src= images/blank.png width =""600"" height = ""600"" style=""position:fixed;top:50%; left:50%; transform: translate(-50%, -50%); border:5px solid black"">","","","","","","","",""
"","5887.365000002319","sequential-stimulus-presentation-old","23","166437","0.0-11.0-1.0","SS1618435642933","trial","","40","500","6387.365000002319","images/stimuli/spore_stims/simple_20_A_a.gif","images/stimuli/spore_stims/simple_18_A_b.gif","self_paced","","1","simple_dissimilar","images/stimuli/spore_stims/simple_18_A_b.gif","","","","",""
"","null","html-keyboard-response","24","167267","0.0-11.0-0.1","SS1618435642933","","","null","","","","","","<p><img src= images/blank.png width =""600"" height = ""600"" style=""position:fixed;top:50%; left:50%; transform: translate(-50%, -50%); border:5px solid black"">","","","","","","","",""
"","3858.0050000018673","sequential-stimulus-presentation-old","25","171627","0.0-11.0-1.1","SS1618435642933","trial","","40","500","4358.005000001867","images/stimuli/spore_stims/simple_20_A_a.gif","images/stimuli/spore_stims/simple_18_A_b.gif","self_paced","","1","simple_dissimilar","images/stimuli/spore_stims/simple_18_A_b.gif","","","","",""
"","null","html-keyboard-response","26","172432","0.0-11.0-0.2","SS1618435642933","","","null","","","","","","<p><img src= images/blank.png width =""600"" height = ""600"" style=""position:fixed;top:50%; left:50%; transform: translate(-50%, -50%); border:5px solid black"">","","","","","","","",""
"","4515.509999997448","sequential-stimulus-presentation-old","27","177450","0.0-11.0-1.2","SS1618435642933","trial","","40","500","5015.509999997448","images/stimuli/spore_stims/simple_20_A_a.gif","images/stimuli/spore_stims/simple_18_A_b.gif","self_paced","","1","simple_dissimilar","images/stimuli/spore_stims/simple_18_A_b.gif","","","","",""
"","null","html-keyboard-response","28","178630","0.0-11.0-0.3","SS1618435642933","","","null","","","","","","<p><img src= images/blank.png width =""600"" height = ""600"" style=""position:fixed;top:50%; left:50%; transform: translate(-50%, -50%); border:5px solid black"">","","","","","","","",""
"","594.4950000048266","sequential-stimulus-presentation-old","29","179726","0.0-11.0-1.3","SS1618435642933","trial","","40","500","1094.4950000048266","images/stimuli/spore_stims/simple_20_A_a.gif","images/stimuli/spore_stims/simple_18_A_b.gif","self_paced","","1","simple_dissimilar","images/stimuli/spore_stims/simple_18_A_b.gif","","","","",""
"","null","html-keyboard-response","30","180575","0.0-11.0-0.4","SS1618435642933","","","null","","","","","","<p><img src= images/blank.png width =""600"" height = ""600"" style=""position:fixed;top:50%; left:50%; transform: translate(-50%, -50%); border:5px solid black"">","","","","","","","",""
"","862.5200000024051","sequential-stimulus-presentation-old","31","181939","0.0-11.0-1.4","SS1618435642933","trial","","40","500","1362.5200000024051","images/stimuli/spore_stims/simple_20_A_a.gif","images/stimuli/spore_stims/simple_18_A_b.gif","self_paced","","1","simple_dissimilar","images/stimuli/spore_stims/simple_18_A_b.gif","","","","",""
"","null","html-keyboard-response","32","182974","0.0-11.0-0.5","SS1618435642933","","","null","","","","","","<p><img src= images/blank.png width =""600"" height = ""600"" style=""position:fixed;top:50%; left:50%; transform: translate(-50%, -50%); border:5px solid black"">","","","","","","","",""
"","501.43499999830965","sequential-stimulus-presentation-old","33","183977","0.0-11.0-1.5","SS1618435642933","trial","","40","500","1001.4349999983096","images/stimuli/spore_stims/simple_20_A_a.gif","images/stimuli/spore_stims/simple_18_A_b.gif","self_paced","","1","simple_dissimilar","images/stimuli/spore_stims/simple_18_A_b.gif","","","","",""
"","3762.300000002142","survey-multi-choice","34","187741","0.0-12.0","SS1618435642933","math_question","","","","","","","","","","","","{""Q0"":""10""}","[0]","10","",""
"","null","html-keyboard-response","35","188757","0.0-13.0-0.0","SS1618435642933","","","null","","","","","","<p><img src= images/blank.png width =""600"" height = ""600"" style=""position:fixed;top:50%; left:50%; transform: translate(-50%, -50%); border:5px solid black"">","","","","","","","",""
"","1916.3550000012037","sequential-stimulus-presentation-old","36","190725","0.0-13.0-1.0","SS1618435642933","trial","","40","500","2416.3550000012037","images/stimuli/spore_stims/simple_02_A_b.gif","images/stimuli/spore_stims/simple_18_A_a.gif","forced_short","","2","simple_dissimilar","images/stimuli/spore_stims/simple_18_A_a.gif","","","","",""
"","null","html-keyboard-response","37","191713","0.0-13.0-0.1","SS1618435642933","","","null","","","","","","<p><img src= images/blank.png width =""600"" height = ""600"" style=""position:fixed;top:50%; left:50%; transform: translate(-50%, -50%); border:5px solid black"">","","","","","","","",""
"","2708.16499999637","sequential-stimulus-presentation-old","38","194922","0.0-13.0-1.1","SS1618435642933","trial","","40","500","3208.16499999637","images/stimuli/spore_stims/simple_02_A_b.gif","images/stimuli/spore_stims/simple_18_A_a.gif","forced_short","","2","simple_dissimilar","images/stimuli/spore_stims/simple_18_A_a.gif","","","","",""
"","null","html-keyboard-response","39","195789","0.0-13.0-0.2","SS1618435642933","","","null","","","","","","<p><img src= images/blank.png width =""600"" height = ""600"" style=""position:fixed;top:50%; left:50%; transform: translate(-50%, -50%); border:5px solid black"">","","","","","","","",""
"","3820.544999995036","sequential-stimulus-presentation-old","40","200112","0.0-13.0-1.2","SS1618435642933","trial","","40","500","4320.544999995036","images/stimuli/spore_stims/simple_02_A_b.gif","images/stimuli/spore_stims/simple_18_A_a.gif","forced_short","","2","simple_dissimilar","images/stimuli/spore_stims/simple_18_A_a.gif","","","","",""
"","null","html-keyboard-response","41","201340","0.0-13.0-0.3","SS1618435642933","","","null","","","","","","<p><img src= images/blank.png width =""600"" height = ""600"" style=""position:fixed;top:50%; left:50%; transform: translate(-50%, -50%); border:5px solid black"">","","","","","","","",""
"","2727.3150000037276","sequential-stimulus-presentation-old","42","204569","0.0-13.0-1.3","SS1618435642933","trial","","40","500","3227.3150000037276","images/stimuli/spore_stims/simple_02_A_b.gif","images/stimuli/spore_stims/simple_18_A_a.gif","forced_short","","2","simple_dissimilar","images/stimuli/spore_stims/simple_18_A_a.gif","","","","",""
"","null","html-keyboard-response","43","205420","0.0-13.0-0.4","SS1618435642933","","","null","","","","","","<p><img src= images/blank.png width =""600"" height = ""600"" style=""position:fixed;top:50%; left:50%; transform: translate(-50%, -50%); border:5px solid black"">","","","","","","","",""
"","2809.529999998631","sequential-stimulus-presentation-old","44","208731","0.0-13.0-1.4","SS1618435642933","trial","","40","500","3309.529999998631","images/stimuli/spore_stims/simple_02_A_b.gif","images/stimuli/spore_stims/simple_18_A_a.gif","forced_short","","2","simple_dissimilar","images/stimuli/spore_stims/simple_18_A_a.gif","","","","",""
"","null","html-keyboard-response","45","209797","0.0-13.0-0.5","SS1618435642933","","","null","","","","","","<p><img src= images/blank.png width =""600"" height = ""600"" style=""position:fixed;top:50%; left:50%; transform: translate(-50%, -50%); border:5px solid black"">","","","","","","","",""
"","296.0899999961839","sequential-stimulus-presentation-old","46","210595","0.0-13.0-1.5","SS1618435642933","trial","","40","500","796.0899999961839","images/stimuli/spore_stims/simple_02_A_b.gif","images/stimuli/spore_stims/simple_18_A_a.gif","forced_short","","2","simple_dissimilar","images/stimuli/spore_stims/simple_18_A_a.gif","","","","",""
"","2317.800000004354","survey-multi-choice","47","212914","0.0-14.0","SS1618435642933","math_question","","","","","","","","","","","","{""Q0"":""14""}","[0]","14","",""
"","null","html-keyboard-response","48","213960","0.0-15.0-0.0","SS1618435642933","","","null","","","","","","<p><img src= images/blank.png width =""600"" height = ""600"" style=""position:fixed;top:50%; left:50%; transform: translate(-50%, -50%); border:5px solid black"">","","","","","","","",""
"","4694.455000004382","sequential-stimulus-presentation-old","49","219156","0.0-15.0-1.0","SS1618435642933","trial","","40","500","5194.455000004382","images/stimuli/spore_stims/complex_10_A_a.gif","images/stimuli/spore_stims/complex_18_A_b.gif","self_paced","","3","complex_dissimilar","images/stimuli/spore_stims/complex_18_A_b.gif","","","","",""
"","null","html-keyboard-response","50","220077","0.0-15.0-0.1","SS1618435642933","","","null","","","","","","<p><img src= images/blank.png width =""600"" height = ""600"" style=""position:fixed;top:50%; left:50%; transform: translate(-50%, -50%); border:5px solid black"">","","","","","","","",""
"","2856.4400000032037","sequential-stimulus-presentation-old","51","223436","0.0-15.0-1.1","SS1618435642933","trial","","40","500","3356.4400000032037","images/stimuli/spore_stims/complex_10_A_a.gif","images/stimuli/spore_stims/complex_18_A_b.gif","self_paced","","3","complex_dissimilar","images/stimuli/spore_stims/complex_18_A_b.gif","","","","",""
"","null","html-keyboard-response","52","224493","0.0-15.0-0.2","SS1618435642933","","","null","","","","","","<p><img src= images/blank.png width =""600"" height = ""600"" style=""position:fixed;top:50%; left:50%; transform: translate(-50%, -50%); border:5px solid black"">","","","","","","","",""
"","1091.8149999997695","sequential-stimulus-presentation-old","53","226087","0.0-15.0-1.2","SS1618435642933","trial","","40","500","1591.8149999997695","images/stimuli/spore_stims/complex_10_A_a.gif","images/stimuli/spore_stims/complex_18_A_b.gif","self_paced","","3","complex_dissimilar","images/stimuli/spore_stims/complex_18_A_b.gif","","","","",""
"","null","html-keyboard-response","54","227363","0.0-15.0-0.3","SS1618435642933","","","null","","","","","","<p><img src= images/blank.png width =""600"" height = ""600"" style=""position:fixed;top:50%; left:50%; transform: translate(-50%, -50%); border:5px solid black"">","","","","","","","",""
"","2122.9650000022957","sequential-stimulus-presentation-old","55","229987","0.0-15.0-1.3","SS1618435642933","trial","","40","500","2622.9650000022957","images/stimuli/spore_stims/complex_10_A_a.gif","images/stimuli/spore_stims/complex_18_A_b.gif","self_paced","","3","complex_dissimilar","images/stimuli/spore_stims/complex_18_A_b.gif","","","","",""
"","null","html-keyboard-response","56","230815","0.0-15.0-0.4","SS1618435642933","","","null","","","","","","<p><img src= images/blank.png width =""600"" height = ""600"" style=""position:fixed;top:50%; left:50%; transform: translate(-50%, -50%); border:5px solid black"">","","","","","","","",""
"","913.8149999998859","sequential-stimulus-presentation-old","57","232231","0.0-15.0-1.4","SS1618435642933","trial","","40","500","1413.814999999886","images/stimuli/spore_stims/complex_10_A_a.gif","images/stimuli/spore_stims/complex_18_A_b.gif","self_paced","","3","complex_dissimilar","images/stimuli/spore_stims/complex_18_A_b.gif","","","","",""
"","2162.145000002056","survey-multi-choice","58","234395","0.0-16.0","SS1618435642933","math_question","","","","","","","","","","","","{""Q0"":""10""}","[0]","10","",""
"","null","html-keyboard-response","59","235372","0.0-17.0-0.0","SS1618435642933","","","null","","","","","","<p><img src= images/blank.png width =""600"" height = ""600"" style=""position:fixed;top:50%; left:50%; transform: translate(-50%, -50%); border:5px solid black"">","","","","","","","",""
"","396.3000000003376","sequential-stimulus-presentation-old","60","240770","0.0-17.0-1.0","SS1618435642933","trial","","40","500","896.3000000003376","images/stimuli/spore_stims/simple_04_A_b.gif","images/stimuli/spore_stims/simple_11_A_a.gif","forced_long","","4","simple_dissimilar","images/stimuli/spore_stims/simple_11_A_a.gif","","","","",""
"","null","html-keyboard-response","61","241755","0.0-17.0-0.1","SS1618435642933","","","null","","","","","","<p><img src= images/blank.png width =""600"" height = ""600"" style=""position:fixed;top:50%; left:50%; transform: translate(-50%, -50%); border:5px solid black"">","","","","","","","",""
"","5847.204999998212","sequential-stimulus-presentation-old","62","248104","0.0-17.0-1.1","SS1618435642933","trial","","40","500","6347.204999998212","images/stimuli/spore_stims/simple_04_A_b.gif","images/stimuli/spore_stims/simple_11_A_a.gif","forced_long","","4","simple_dissimilar","images/stimuli/spore_stims/simple_11_A_a.gif","","","","",""
"","null","html-keyboard-response","63","249085","0.0-17.0-0.2","SS1618435642933","","","null","","","","","","<p><img src= images/blank.png width =""600"" height = ""600"" style=""position:fixed;top:50%; left:50%; transform: translate(-50%, -50%); border:5px solid black"">","","","","","","","",""
"","4568.420000003243","sequential-stimulus-presentation-old","64","254155","0.0-17.0-1.2","SS1618435642933","trial","","40","500","5068.420000003243","images/stimuli/spore_stims/simple_04_A_b.gif","images/stimuli/spore_stims/simple_11_A_a.gif","forced_long","","4","simple_dissimilar","images/stimuli/spore_stims/simple_11_A_a.gif","","","","",""
"","null","html-keyboard-response","65","255251","0.0-17.0-0.3","SS1618435642933","","","null","","","","","","<p><img src= images/blank.png width =""600"" height = ""600"" style=""position:fixed;top:50%; left:50%; transform: translate(-50%, -50%); border:5px solid black"">","","","","","","","",""
"","3430.5099999983213","sequential-stimulus-presentation-old","66","259183","0.0-17.0-1.3","SS1618435642933","trial","","40","500","3930.5099999983213","images/stimuli/spore_stims/simple_04_A_b.gif","images/stimuli/spore_stims/simple_11_A_a.gif","forced_long","","4","simple_dissimilar","images/stimuli/spore_stims/simple_04_A_b.gif","","","","",""
"","null","html-keyboard-response","67","260350","0.0-17.0-0.4","SS1618435642933","","","null","","","","","","<p><img src= images/blank.png width =""600"" height = ""600"" style=""position:fixed;top:50%; left:50%; transform: translate(-50%, -50%); border:5px solid black"">","","","","","","","",""
"","344.42999999737367","sequential-stimulus-presentation-old","68","261196","0.0-17.0-1.4","SS1618435642933","trial","","40","500","844.4299999973737","images/stimuli/spore_stims/simple_04_A_b.gif","images/stimuli/spore_stims/simple_11_A_a.gif","forced_long","","4","simple_dissimilar","images/stimuli/spore_stims/simple_11_A_a.gif","","","","",""
"","null","html-keyboard-response","69","262120","0.0-17.0-0.5","SS1618435642933","","","null","","","","","","<p><img src= images/blank.png width =""600"" height = ""600"" style=""position:fixed;top:50%; left:50%; transform: translate(-50%, -50%); border:5px solid black"">","","","","","","","",""
"","585.6300000014016","sequential-stimulus-presentation-old","70","263207","0.0-17.0-1.5","SS1618435642933","trial","","40","500","1085.6300000014016","images/stimuli/spore_stims/simple_04_A_b.gif","images/stimuli/spore_stims/simple_11_A_a.gif","forced_long","","4","simple_dissimilar","images/stimuli/spore_stims/simple_04_A_b.gif","","","","",""
"","2588.709999996354","survey-multi-choice","71","265798","0.0-18.0","SS1618435642933","math_question","","","","","","","","","","","","{""Q0"":""9""}","[0]","9","",""
"","null","html-keyboard-response","72","266673","0.0-19.0-0.0","SS1618435642933","","","null","","","","","","<p><img src= images/blank.png width =""600"" height = ""600"" style=""position:fixed;top:50%; left:50%; transform: translate(-50%, -50%); border:5px solid black"">","","","","","","","",""
"","4294.6349999983795","sequential-stimulus-presentation-old","73","275970","0.0-19.0-1.0","SS1618435642933","trial","","40","500","4794.6349999983795","images/stimuli/spore_stims/complex_09_A_b.gif","images/stimuli/spore_stims/complex_01_A_a.gif","forced_long","","5","complex_dissimilar","images/stimuli/spore_stims/complex_01_A_a.gif","","","","",""
"","null","html-keyboard-response","74","276955","0.0-19.0-0.1","SS1618435642933","","","null","","","","","","<p><img src= images/blank.png width =""600"" height = ""600"" style=""position:fixed;top:50%; left:50%; transform: translate(-50%, -50%); border:5px solid black"">","","","","","","","",""
"","4283.074999999371","sequential-stimulus-presentation-old","75","281741","0.0-19.0-1.1","SS1618435642933","trial","","40","500","4783.074999999371","images/stimuli/spore_stims/complex_09_A_b.gif","images/stimuli/spore_stims/complex_01_A_a.gif","forced_long","","5","complex_dissimilar","images/stimuli/spore_stims/complex_09_A_b.gif","","","","",""
"","null","html-keyboard-response","76","282884","0.0-19.0-0.2","SS1618435642933","","","null","","","","","","<p><img src= images/blank.png width =""600"" height = ""600"" style=""position:fixed;top:50%; left:50%; transform: translate(-50%, -50%); border:5px solid black"">","","","","","","","",""
"","3165.4750000016065","sequential-stimulus-presentation-old","77","286552","0.0-19.0-1.2","SS1618435642933","trial","","40","500","3665.4750000016065","images/stimuli/spore_stims/complex_09_A_b.gif","images/stimuli/spore_stims/complex_01_A_a.gif","forced_long","","5","complex_dissimilar","images/stimuli/spore_stims/complex_09_A_b.gif","","","","",""
"","null","html-keyboard-response","78","287679","0.0-19.0-0.3","SS1618435642933","","","null","","","","","","<p><img src= images/blank.png width =""600"" height = ""600"" style=""position:fixed;top:50%; left:50%; transform: translate(-50%, -50%); border:5px solid black"">","","","","","","","",""
"","4310.030000000552","sequential-stimulus-presentation-old","79","292492","0.0-19.0-1.3","SS1618435642933","trial","","40","500","4810.030000000552","images/stimuli/spore_stims/complex_09_A_b.gif","images/stimuli/spore_stims/complex_01_A_a.gif","forced_long","","5","complex_dissimilar","images/stimuli/spore_stims/complex_01_A_a.gif","","","","",""
"","null","html-keyboard-response","80","293607","0.0-19.0-0.4","SS1618435642933","","","null","","","","","","<p><img src= images/blank.png width =""600"" height = ""600"" style=""position:fixed;top:50%; left:50%; transform: translate(-50%, -50%); border:5px solid black"">","","","","","","","",""
"","1209.62999999756","sequential-stimulus-presentation-old","81","295318","0.0-19.0-1.4","SS1618435642933","trial","","40","500","1709.62999999756","images/stimuli/spore_stims/complex_09_A_b.gif","images/stimuli/spore_stims/complex_01_A_a.gif","forced_long","","5","complex_dissimilar","images/stimuli/spore_stims/complex_01_A_a.gif","","","","",""
"","2798.080000000482","survey-multi-choice","82","298118","0.0-20.0","SS1618435642933","math_question","","","","","","","","","","","","{""Q0"":""10""}","[0]","10","",""
"","null","html-keyboard-response","83","299085","0.0-21.0-0.0","SS1618435642933","","","null","","","","","","<p><img src= images/blank.png width =""600"" height = ""600"" style=""position:fixed;top:50%; left:50%; transform: translate(-50%, -50%); border:5px solid black"">","","","","","","","",""
"","1272.4450000023353","sequential-stimulus-presentation-old","84","300409","0.0-21.0-1.0","SS1618435642933","trial","","40","500","1772.4450000023353","images/stimuli/spore_stims/complex_11_A_b.gif","images/stimuli/spore_stims/complex_17_A_a.gif","forced_short","","6","complex_dissimilar","images/stimuli/spore_stims/complex_17_A_a.gif","","","","",""
"","null","html-keyboard-response","85","301275","0.0-21.0-0.1","SS1618435642933","","","null","","","","","","<p><img src= images/blank.png width =""600"" height = ""600"" style=""position:fixed;top:50%; left:50%; transform: translate(-50%, -50%); border:5px solid black"">","","","","","","","",""
"","4149.839999998221","sequential-stimulus-presentation-old","86","305927","0.0-21.0-1.1","SS1618435642933","trial","","40","500","4649.839999998221","images/stimuli/spore_stims/complex_11_A_b.gif","images/stimuli/spore_stims/complex_17_A_a.gif","forced_short","","6","complex_dissimilar","images/stimuli/spore_stims/complex_17_A_a.gif","","","","",""
"","null","html-keyboard-response","87","307006","0.0-21.0-0.2","SS1618435642933","","","null","","","","","","<p><img src= images/blank.png width =""600"" height = ""600"" style=""position:fixed;top:50%; left:50%; transform: translate(-50%, -50%); border:5px solid black"">","","","","","","","",""
"","1636.3750000018626","sequential-stimulus-presentation-old","88","309144","0.0-21.0-1.2","SS1618435642933","trial","","40","500","2136.3750000018626","images/stimuli/spore_stims/complex_11_A_b.gif","images/stimuli/spore_stims/complex_17_A_a.gif","forced_short","","6","complex_dissimilar","images/stimuli/spore_stims/complex_17_A_a.gif","","","","",""
"","null","html-keyboard-response","89","310227","0.0-21.0-0.3","SS1618435642933","","","null","","","","","","<p><img src= images/blank.png width =""600"" height = ""600"" style=""position:fixed;top:50%; left:50%; transform: translate(-50%, -50%); border:5px solid black"">","","","","","","","",""
"","3942.1150000052876","sequential-stimulus-presentation-old","90","314671","0.0-21.0-1.3","SS1618435642933","trial","","40","500","4442.115000005288","images/stimuli/spore_stims/complex_11_A_b.gif","images/stimuli/spore_stims/complex_17_A_a.gif","forced_short","","6","complex_dissimilar","images/stimuli/spore_stims/complex_11_A_b.gif","","","","",""
"","null","html-keyboard-response","91","315969","0.0-21.0-0.4","SS1618435642933","","","null","","","","","","<p><img src= images/blank.png width =""600"" height = ""600"" style=""position:fixed;top:50%; left:50%; transform: translate(-50%, -50%); border:5px solid black"">","","","","","","","",""
"","45.76500000257511","sequential-stimulus-presentation-old","92","316517","0.0-21.0-1.4","SS1618435642933","trial","","40","500","545.7650000025751","images/stimuli/spore_stims/complex_11_A_b.gif","images/stimuli/spore_stims/complex_17_A_a.gif","forced_short","","6","complex_dissimilar","images/stimuli/spore_stims/complex_17_A_a.gif","","","","",""
"","2221.3799999954063","survey-multi-choice","93","318740","0.0-22.0","SS1618435642933","math_question","","","","","","","","","","","","{""Q0"":""10""}","[0]","10","",""
"","null","html-keyboard-response","94","319951","0.0-23.0-0.0","SS1618435642933","","","null","","","","","","<p><img src= images/blank.png width =""600"" height = ""600"" style=""position:fixed;top:50%; left:50%; transform: translate(-50%, -50%); border:5px solid black"">","","","","","","","",""
"","4141.830000000482","sequential-stimulus-presentation-old","95","324595","0.0-23.0-1.0","SS1618435642933","trial","","40","500","4641.830000000482","images/stimuli/spore_stims/complex_19_A_a.gif","images/stimuli/spore_stims/complex_15_A_b.gif","self_paced","","7","complex_dissimilar","images/stimuli/spore_stims/complex_15_A_b.gif","","","","",""
"","null","html-keyboard-response","96","325627","0.0-23.0-0.1","SS1618435642933","","","null","","","","","","<p><img src= images/blank.png width =""600"" height = ""600"" style=""position:fixed;top:50%; left:50%; transform: translate(-50%, -50%); border:5px solid black"">","","","","","","","",""
"","159.29000000323867","sequential-stimulus-presentation-old","97","326288","0.0-23.0-1.1","SS1618435642933","trial","","40","500","659.2900000032387","images/stimuli/spore_stims/complex_19_A_a.gif","images/stimuli/spore_stims/complex_15_A_b.gif","self_paced","","7","complex_dissimilar","images/stimuli/spore_stims/complex_15_A_b.gif","","","","",""
"","null","html-keyboard-response","98","327369","0.0-23.0-0.2","SS1618435642933","","","null","","","","","","<p><img src= images/blank.png width =""600"" height = ""600"" style=""position:fixed;top:50%; left:50%; transform: translate(-50%, -50%); border:5px solid black"">","","","","","","","",""
"","3507.7949999977136","sequential-stimulus-presentation-old","99","331380","0.0-23.0-1.2","SS1618435642933","trial","","40","500","4007.7949999977136","images/stimuli/spore_stims/complex_19_A_a.gif","images/stimuli/spore_stims/complex_15_A_b.gif","self_paced","","7","complex_dissimilar","images/stimuli/spore_stims/complex_15_A_b.gif","","","","",""
"","null","html-keyboard-response","100","332643","0.0-23.0-0.3","SS1618435642933","","","null","","","","","","<p><img src= images/blank.png width =""600"" height = ""600"" style=""position:fixed;top:50%; left:50%; transform: translate(-50%, -50%); border:5px solid black"">","","","","","","","",""
"","282.66000000439817","sequential-stimulus-presentation-old","101","333427","0.0-23.0-1.3","SS1618435642933","trial","","40","500","782.6600000043982","images/stimuli/spore_stims/complex_19_A_a.gif","images/stimuli/spore_stims/complex_15_A_b.gif","self_paced","","7","complex_dissimilar","images/stimuli/spore_stims/complex_15_A_b.gif","","","","",""
"","null","html-keyboard-response","102","334293","0.0-23.0-0.4","SS1618435642933","","","null","","","","","","<p><img src= images/blank.png width =""600"" height = ""600"" style=""position:fixed;top:50%; left:50%; transform: translate(-50%, -50%); border:5px solid black"">","","","","","","","",""
"","1440.584999996645","sequential-stimulus-presentation-old","103","336235","0.0-23.0-1.4","SS1618435642933","trial","","40","500","1940.584999996645","images/stimuli/spore_stims/complex_19_A_a.gif","images/stimuli/spore_stims/complex_15_A_b.gif","self_paced","","7","complex_dissimilar","images/stimuli/spore_stims/complex_15_A_b.gif","","","","",""
"","null","html-keyboard-response","104","337503","0.0-23.0-0.5","SS1618435642933","","","null","","","","","","<p><img src= images/blank.png width =""600"" height = ""600"" style=""position:fixed;top:50%; left:50%; transform: translate(-50%, -50%); border:5px solid black"">","","","","","","","",""
"","2832.6149999993504","sequential-stimulus-presentation-old","105","340839","0.0-23.0-1.5","SS1618435642933","trial","","40","500","3332.6149999993504","images/stimuli/spore_stims/complex_19_A_a.gif","images/stimuli/spore_stims/complex_15_A_b.gif","self_paced","","7","complex_dissimilar","images/stimuli/spore_stims/complex_19_A_a.gif","","","","",""
"","2516.5800000031595","survey-multi-choice","106","343357","0.0-24.0","SS1618435642933","math_question","","","","","","","","","","","","{""Q0"":""8""}","[0]","8","",""
"","null","html-keyboard-response","107","344209","0.0-25.0-0.0","SS1618435642933","","","null","","","","","","<p><img src= images/blank.png width =""600"" height = ""600"" style=""position:fixed;top:50%; left:50%; transform: translate(-50%, -50%); border:5px solid black"">","","","","","","","",""
"","1004.7449999983655","sequential-stimulus-presentation-old","108","345266","0.0-25.0-1.0","SS1618435642933","trial","","40","500","1504.7449999983655","images/stimuli/spore_stims/complex_06_A_a.gif","images/stimuli/spore_stims/complex_02_A_b.gif","forced_short","","8","complex_dissimilar","images/stimuli/spore_stims/complex_02_A_b.gif","","","","",""
"","null","html-keyboard-response","109","346241","0.0-25.0-0.1","SS1618435642933","","","null","","","","","","<p><img src= images/blank.png width =""600"" height = ""600"" style=""position:fixed;top:50%; left:50%; transform: translate(-50%, -50%); border:5px solid black"">","","","","","","","",""
"","2845.41999999783","sequential-stimulus-presentation-old","110","349589","0.0-25.0-1.1","SS1618435642933","trial","","40","500","3345.41999999783","images/stimuli/spore_stims/complex_06_A_a.gif","images/stimuli/spore_stims/complex_02_A_b.gif","forced_short","","8","complex_dissimilar","images/stimuli/spore_stims/complex_02_A_b.gif","","","","",""
"","null","html-keyboard-response","111","350602","0.0-25.0-0.2","SS1618435642933","","","null","","","","","","<p><img src= images/blank.png width =""600"" height = ""600"" style=""position:fixed;top:50%; left:50%; transform: translate(-50%, -50%); border:5px solid black"">","","","","","","","",""
"","583.7099999989732","sequential-stimulus-presentation-old","112","351688","0.0-25.0-1.2","SS1618435642933","trial","","40","500","1083.7099999989732","images/stimuli/spore_stims/complex_06_A_a.gif","images/stimuli/spore_stims/complex_02_A_b.gif","forced_short","","8","complex_dissimilar","images/stimuli/spore_stims/complex_02_A_b.gif","","","","",""
"","null","html-keyboard-response","113","352854","0.0-25.0-0.3","SS1618435642933","","","null","","","","","","<p><img src= images/blank.png width =""600"" height = ""600"" style=""position:fixed;top:50%; left:50%; transform: translate(-50%, -50%); border:5px solid black"">","","","","","","","",""
"","394.3199999994249","sequential-stimulus-presentation-old","114","353750","0.0-25.0-1.3","SS1618435642933","trial","","40","500","894.3199999994249","images/stimuli/spore_stims/complex_06_A_a.gif","images/stimuli/spore_stims/complex_02_A_b.gif","forced_short","","8","complex_dissimilar","images/stimuli/spore_stims/complex_02_A_b.gif","","","","",""
"","2074.5800000004238","survey-multi-choice","115","355827","0.0-26.0","SS1618435642933","math_question","","","","","","","","","","","","{""Q0"":""5""}","[0]","5","",""
"","null","html-keyboard-response","116","357078","0.0-27.0-0.0","SS1618435642933","","","null","","","","","","<p><img src= images/blank.png width =""600"" height = ""600"" style=""position:fixed;top:50%; left:50%; transform: translate(-50%, -50%); border:5px solid black"">","","","","","","","",""
"","1275.8949999988545","sequential-stimulus-presentation-old","117","358857","0.0-27.0-1.0","SS1618435642933","trial","","40","500","1775.8949999988545","images/stimuli/spore_stims/simple_06_A_a.gif","images/stimuli/spore_stims/simple_14_A_b.gif","self_paced","","9","simple_dissimilar","images/stimuli/spore_stims/simple_14_A_b.gif","","","","",""
"","null","html-keyboard-response","118","359686","0.0-27.0-0.1","SS1618435642933","","","null","","","","","","<p><img src= images/blank.png width =""600"" height = ""600"" style=""position:fixed;top:50%; left:50%; transform: translate(-50%, -50%); border:5px solid black"">","","","","","","","",""
"","1090.7250000018394","sequential-stimulus-presentation-old","119","361279","0.0-27.0-1.1","SS1618435642933","trial","","40","500","1590.7250000018394","images/stimuli/spore_stims/simple_06_A_a.gif","images/stimuli/spore_stims/simple_14_A_b.gif","self_paced","","9","simple_dissimilar","images/stimuli/spore_stims/simple_14_A_b.gif","","","","",""
"","null","html-keyboard-response","120","362221","0.0-27.0-0.2","SS1618435642933","","","null","","","","","","<p><img src= images/blank.png width =""600"" height = ""600"" style=""position:fixed;top:50%; left:50%; transform: translate(-50%, -50%); border:5px solid black"">","","","","","","","",""
"","2697.4499999996624","sequential-stimulus-presentation-old","121","365421","0.0-27.0-1.2","SS1618435642933","trial","","40","500","3197.4499999996624","images/stimuli/spore_stims/simple_06_A_a.gif","images/stimuli/spore_stims/simple_14_A_b.gif","self_paced","","9","simple_dissimilar","images/stimuli/spore_stims/simple_14_A_b.gif","","","","",""
"","null","html-keyboard-response","122","366379","0.0-27.0-0.3","SS1618435642933","","","null","","","","","","<p><img src= images/blank.png width =""600"" height = ""600"" style=""position:fixed;top:50%; left:50%; transform: translate(-50%, -50%); border:5px solid black"">","","","","","","","",""
"","1528.8500000024214","sequential-stimulus-presentation-old","123","368411","0.0-27.0-1.3","SS1618435642933","trial","","40","500","2028.8500000024214","images/stimuli/spore_stims/simple_06_A_a.gif","images/stimuli/spore_stims/simple_14_A_b.gif","self_paced","","9","simple_dissimilar","images/stimuli/spore_stims/simple_14_A_b.gif","","","","",""
"","null","html-keyboard-response","124","369541","0.0-27.0-0.4","SS1618435642933","","","null","","","","","","<p><img src= images/blank.png width =""600"" height = ""600"" style=""position:fixed;top:50%; left:50%; transform: translate(-50%, -50%); border:5px solid black"">","","","","","","","",""
"","1126.7550000047777","sequential-stimulus-presentation-old","125","371170","0.0-27.0-1.4","SS1618435642933","trial","","40","500","1626.7550000047777","images/stimuli/spore_stims/simple_06_A_a.gif","images/stimuli/spore_stims/simple_14_A_b.gif","self_paced","","9","simple_dissimilar","images/stimuli/spore_stims/simple_14_A_b.gif","","","","",""
"","4433.030000000144","survey-multi-choice","126","375605","0.0-28.0","SS1618435642933","math_question","","","","","","","","","","","","{""Q0"":""12""}","[0]","12","",""
"","null","html-keyboard-response","127","376828","0.0-29.0-0.0","SS1618435642933","","","null","","","","","","<p><img src= images/blank.png width =""600"" height = ""600"" style=""position:fixed;top:50%; left:50%; transform: translate(-50%, -50%); border:5px solid black"">","","","","","","","",""
"","3117.4400000018068","sequential-stimulus-presentation-old","128","384948","0.0-29.0-1.0","SS1618435642933","trial","","40","500","3617.4400000018068","images/stimuli/spore_stims/complex_07_A_b.gif","images/stimuli/spore_stims/complex_16_A_a.gif","forced_long","","10","complex_dissimilar","images/stimuli/spore_stims/complex_16_A_a.gif","","","","",""
"","null","html-keyboard-response","129","386222","0.0-29.0-0.1","SS1618435642933","","","null","","","","","","<p><img src= images/blank.png width =""600"" height = ""600"" style=""position:fixed;top:50%; left:50%; transform: translate(-50%, -50%); border:5px solid black"">","","","","","","","",""
"","1692.7649999997811","sequential-stimulus-presentation-old","130","388418","0.0-29.0-1.1","SS1618435642933","trial","","40","500","2192.764999999781","images/stimuli/spore_stims/complex_07_A_b.gif","images/stimuli/spore_stims/complex_16_A_a.gif","forced_long","","10","complex_dissimilar","images/stimuli/spore_stims/complex_07_A_b.gif","","","","",""
"","null","html-keyboard-response","131","389288","0.0-29.0-0.2","SS1618435642933","","","null","","","","","","<p><img src= images/blank.png width =""600"" height = ""600"" style=""position:fixed;top:50%; left:50%; transform: translate(-50%, -50%); border:5px solid black"">","","","","","","","",""
"","328.6999999982072","sequential-stimulus-presentation-old","132","390119","0.0-29.0-1.2","SS1618435642933","trial","","40","500","828.6999999982072","images/stimuli/spore_stims/complex_07_A_b.gif","images/stimuli/spore_stims/complex_16_A_a.gif","forced_long","","10","complex_dissimilar","images/stimuli/spore_stims/complex_07_A_b.gif","","","","",""
"","null","html-keyboard-response","133","391358","0.0-29.0-0.3","SS1618435642933","","","null","","","","","","<p><img src= images/blank.png width =""600"" height = ""600"" style=""position:fixed;top:50%; left:50%; transform: translate(-50%, -50%); border:5px solid black"">","","","","","","","",""
"","274.3850000042585","sequential-stimulus-presentation-old","134","392134","0.0-29.0-1.3","SS1618435642933","trial","","40","500","774.3850000042585","images/stimuli/spore_stims/complex_07_A_b.gif","images/stimuli/spore_stims/complex_16_A_a.gif","forced_long","","10","complex_dissimilar","images/stimuli/spore_stims/complex_16_A_a.gif","","","","",""
"","2481.3950000025216","survey-multi-choice","135","394618","0.0-30.0","SS1618435642933","math_question","","","","","","","","","","","","{""Q0"":""6""}","[0]","6","",""
"","null","html-keyboard-response","136","395684","0.0-31.0-0.0","SS1618435642933","","","null","","","","","","<p><img src= images/blank.png width =""600"" height = ""600"" style=""position:fixed;top:50%; left:50%; transform: translate(-50%, -50%); border:5px solid black"">","","","","","","","",""
"","508.2800000018324","sequential-stimulus-presentation-old","137","396246","0.0-31.0-1.0","SS1618435642933","trial","","40","500","1008.2800000018324","images/stimuli/spore_stims/simple_07_A_a.gif","images/stimuli/spore_stims/simple_17_A_b.gif","forced_short","","11","simple_dissimilar","images/stimuli/spore_stims/simple_17_A_b.gif","","","","",""
"","null","html-keyboard-response","138","397349","0.0-31.0-0.1","SS1618435642933","","","null","","","","","","<p><img src= images/blank.png width =""600"" height = ""600"" style=""position:fixed;top:50%; left:50%; transform: translate(-50%, -50%); border:5px solid black"">","","","","","","","",""
"","325.2100000026985","sequential-stimulus-presentation-old","139","398176","0.0-31.0-1.1","SS1618435642933","trial","","40","500","825.2100000026985","images/stimuli/spore_stims/simple_07_A_a.gif","images/stimuli/spore_stims/simple_17_A_b.gif","forced_short","","11","simple_dissimilar","images/stimuli/spore_stims/simple_17_A_b.gif","","","","",""
"","null","html-keyboard-response","140","399247","0.0-31.0-0.2","SS1618435642933","","","null","","","","","","<p><img src= images/blank.png width =""600"" height = ""600"" style=""position:fixed;top:50%; left:50%; transform: translate(-50%, -50%); border:5px solid black"">","","","","","","","",""
"","354.5349999985774","sequential-stimulus-presentation-old","141","400104","0.0-31.0-1.2","SS1618435642933","trial","","40","500","854.5349999985774","images/stimuli/spore_stims/simple_07_A_a.gif","images/stimuli/spore_stims/simple_17_A_b.gif","forced_short","","11","simple_dissimilar","images/stimuli/spore_stims/simple_17_A_b.gif","","","","",""
"","null","html-keyboard-response","142","401333","0.0-31.0-0.3","SS1618435642933","","","null","","","","","","<p><img src= images/blank.png width =""600"" height = ""600"" style=""position:fixed;top:50%; left:50%; transform: translate(-50%, -50%); border:5px solid black"">","","","","","","","",""
"","465.5849999981001","sequential-stimulus-presentation-old","143","402300","0.0-31.0-1.3","SS1618435642933","trial","","40","500","965.5849999981001","images/stimuli/spore_stims/simple_07_A_a.gif","images/stimuli/spore_stims/simple_17_A_b.gif","forced_short","","11","simple_dissimilar","images/stimuli/spore_stims/simple_17_A_b.gif","","","","",""
"","null","html-keyboard-response","144","403111","0.0-31.0-0.4","SS1618435642933","","","null","","","","","","<p><img src= images/blank.png width =""600"" height = ""600"" style=""position:fixed;top:50%; left:50%; transform: translate(-50%, -50%); border:5px solid black"">","","","","","","","",""
"","889.0849999952479","sequential-stimulus-presentation-old","145","404503","0.0-31.0-1.4","SS1618435642933","trial","","40","500","1389.084999995248","images/stimuli/spore_stims/simple_07_A_a.gif","images/stimuli/spore_stims/simple_17_A_b.gif","forced_short","","11","simple_dissimilar","images/stimuli/spore_stims/simple_17_A_b.gif","","","","",""
"[{""page_index"":0,""viewing_time"":5250.8450000023}]","5250.979999997071","instructions","146","409756","0.0-32.0","SS1618435642933","instructions","","","","","","","","","","","","","","","",""
"","10836.1950000035","survey-likert","147","420594","0.0-33.0","SS1618435642933","similarity_question","","","","","","","","","","","","{""Q0"":4}","[0]","","images/stimuli/spore_stims/simple_07_A_a.gif","images/stimuli/spore_stims/simple_17_A_b.gif"
"","13517.849999996542","survey-likert","148","434115","0.0-34.0","SS1618435642933","similarity_question","","","","","","","","","","","","{""Q0"":4}","[0]","","images/stimuli/spore_stims/simple_20_A_b.gif","images/stimuli/spore_stims/simple_09_A_a.gif"
"","13158.345000003465","survey-likert","149","447276","0.0-35.0","SS1618435642933","similarity_question","","","","","","","","","","","","{""Q0"":2}","[0]","","images/stimuli/spore_stims/complex_06_A_a.gif","images/stimuli/spore_stims/complex_02_A_b.gif"
"","7994.919999997364","survey-likert","150","455273","0.0-36.0","SS1618435642933","similarity_question","","","","","","","","","","","","{""Q0"":1}","[0]","","images/stimuli/spore_stims/complex_17_A_a.gif","images/stimuli/spore_stims/complex_11_A_b.gif"
"","8714.87000000343","survey-likert","151","463991","0.0-37.0","SS1618435642933","similarity_question","","","","","","","","","","","","{""Q0"":2}","[0]","","images/stimuli/spore_stims/simple_20_A_a.gif","images/stimuli/spore_stims/simple_18_A_b.gif"
"","2793.3049999992363","survey-likert","152","466787","0.0-38.0","SS1618435642933","similarity_question","","","","","","","","","","","","{""Q0"":2}","[0]","","images/stimuli/spore_stims/simple_06_A_a.gif","images/stimuli/spore_stims/simple_14_A_b.gif"
"","8066.350000000966","survey-likert","153","474856","0.0-39.0","SS1618435642933","similarity_question","","","","","","","","","","","","{""Q0"":0}","[0]","","images/stimuli/spore_stims/complex_01_A_a.gif","images/stimuli/spore_stims/complex_09_A_b.gif"
"","4798.165000000154","survey-likert","154","479657","0.0-40.0","SS1618435642933","similarity_question","","","","","","","","","","","","{""Q0"":0}","[0]","","images/stimuli/spore_stims/complex_18_A_b.gif","images/stimuli/spore_stims/complex_10_A_a.gif"
"","4372.770000001765","survey-likert","155","484032","0.0-41.0","SS1618435642933","similarity_question","","","","","","","","","","","","{""Q0"":1}","[0]","","images/stimuli/spore_stims/simple_02_A_b.gif","images/stimuli/spore_stims/simple_18_A_a.gif"
"","5566.435000000638","survey-likert","156","489601","0.0-42.0","SS1618435642933","similarity_question","","","","","","","","","","","","{""Q0"":1}","[0]","","images/stimuli/spore_stims/complex_16_A_a.gif","images/stimuli/spore_stims/complex_07_A_b.gif"
"","7702.469999996538","survey-likert","157","497306","0.0-43.0","SS1618435642933","similarity_question","","","","","","","","","","","","{""Q0"":3}","[0]","","images/stimuli/spore_stims/simple_04_A_b.gif","images/stimuli/spore_stims/simple_11_A_a.gif"
"","4252.605000001495","survey-likert","158","501561","0.0-44.0","SS1618435642933","similarity_question","","","","","","","","","","","","{""Q0"":0}","[0]","","images/stimuli/spore_stims/complex_15_A_b.gif","images/stimuli/spore_stims/complex_19_A_a.gif"
"[{""page_index"":0,""viewing_time"":3530.33499999583}]","3530.559999999241","instructions","159","505094","0.0-45.0","SS1618435642933","instructions","","","","","","","","","","","","","","","",""
"","13729.294999997364","survey-likert","160","518826","0.0-46.0","SS1618435642933","","","","","","","","","images/stimuli/spore_stims/complex_06_A_a.gif","","","","{""Q0"":4}","[0]","","",""
"","3603.9250000030734","survey-likert","161","522433","0.0-47.0","SS1618435642933","","","","","","","","","images/stimuli/spore_stims/complex_11_A_b.gif","","","","{""Q0"":5}","[0]","","",""
"","4083.5999999979977","survey-likert","162","526519","0.0-48.0","SS1618435642933","","","","","","","","","images/stimuli/spore_stims/simple_04_A_b.gif","","","","{""Q0"":1}","[0]","","",""
"","3706.539999999106","survey-likert","163","530228","0.0-49.0","SS1618435642933","","","","","","","","","images/stimuli/spore_stims/complex_10_A_a.gif","","","","{""Q0"":5}","[0]","","",""
"","3649.569999994128","survey-likert","164","533880","0.0-50.0","SS1618435642933","","","","","","","","","images/stimuli/spore_stims/complex_07_A_b.gif","","","","{""Q0"":6}","[0]","","",""
"","4238.46999999648","survey-likert","165","538121","0.0-51.0","SS1618435642933","","","","","","","","","images/stimuli/spore_stims/complex_01_A_a.gif","","","","{""Q0"":2}","[0]","","",""
"","4784.630000001984","survey-likert","166","542908","0.0-52.0","SS1618435642933","","","","","","","","","images/stimuli/spore_stims/simple_14_A_b.gif","","","","{""Q0"":0}","[0]","","",""
"","17025.78000000352","survey-likert","167","559937","0.0-53.0","SS1618435642933","","","","","","","","","images/stimuli/spore_stims/complex_19_A_a.gif","","","","{""Q0"":4}","[0]","","",""
"","2714.075000003446","survey-likert","168","562654","0.0-54.0","SS1618435642933","","","","","","","","","images/stimuli/spore_stims/simple_18_A_b.gif","","","","{""Q0"":2}","[0]","","",""
"","3277.5000000037253","survey-likert","169","565934","0.0-55.0","SS1618435642933","","","","","","","","","images/stimuli/spore_stims/simple_09_A_a.gif","","","","{""Q0"":1}","[0]","","",""
"","1960.9600000039209","survey-likert","170","567898","0.0-56.0","SS1618435642933","","","","","","","","","images/stimuli/spore_stims/simple_18_A_a.gif","","","","{""Q0"":1}","[0]","","",""
"","1878.8150000036694","survey-likert","171","569779","0.0-57.0","SS1618435642933","","","","","","","","","images/stimuli/spore_stims/simple_17_A_b.gif","","","","{""Q0"":1}","[0]","","",""
"[{""page_index"":0,""viewing_time"":1891.2799999961862}]","1891.524999999092","instructions","172","571675","0.0-58.0","SS1618435642933","instructions","","","","","","","","","","","","","","","",""
"","3604.4550000006566","demog-age","173","575283","0.0-59.0","SS1618435642933","","","","","","","","","","","","","{""age"":""21""}","","","",""
"","2685.0199999972247","demog-ethnic-US","174","577972","0.0-60.0","SS1618435642933","","","","","","","","","","","","","{""ethnicity"":[""White""]}","[0]","","",""
"","13553.330000002403","demog-gender-and-education","175","591528","0.0-61.0","SS1618435642933","","","","","","","","","","","","","{""gender"":""Male"",""education"":""High school diploma""}","[0,1]","","",""
"","6363.035000002012","survey-text","176","597894","0.0-62.0","SS1618435642933","feedback","","","","","","","","","","","","{""Q0"":""no""}","","","",""
"[{""page_index"":0,""viewing_time"":1711.4250000012107}]","1711.6099999984726","instructions","177","599608","0.0-63.0","SS1618435642933","instructions","","","","","","","","","","","","","","","",""
