"view_history","rt","trial_type","trial_index","time_elapsed","internal_node_id","subject","stimulus_type","trial_stimulus","key_press","minimum_viewing_duration","trial_looking_time","block_deviant","block_background","exposure_type","stimulus","block_number","block_type","stimulus_displayed","responses","question_order","math_correct_answer","stimulus_left","stimulus_right"
"[{""page_index"":0,""viewing_time"":11512.349999975413}]","11513.61500006169","instructions","0","11517","0.0-0.0","SS1618365857045","","","","","","","","","","","","","","","","",""
"[{""page_index"":0,""viewing_time"":3122.8600000031292},{""page_index"":1,""viewing_time"":9624.00500010699}]","12747.265000129119","instructions","1","26283","0.0-1.0","SS1618365857045","instructions","","","","","","","","","","","","","","","",""
"","9158.294999971986","sequential-stimulus-presentation-old","2","35946","0.0-2.0","SS1618365857045","","","40","500","9658.294999971986","null","null","self_paced","","","","","","","","",""
"","8240.870000096038","sequential-stimulus-presentation-old","3","44692","0.0-3.0","SS1618365857045","","","40","500","8740.870000096038","null","null","self_paced","","","","","","","","",""
"[{""page_index"":0,""viewing_time"":27539.795000106096}]","27540.070000104606","instructions","4","72235","0.0-4.0","SS1618365857045","instructions","","","","","","","","","","","","","","","",""
"","1626.6449999529868","sequential-stimulus-presentation-old","5","78865","0.0-5.0","SS1618365857045","","","40","500","2126.644999952987","null","null","forced_long","","","","","","","","",""
"","2773.0500001925975","sequential-stimulus-presentation-old","6","81693","0.0-6.0","SS1618365857045","","","40","50","2823.0500001925975","null","null","forced_long","","","","","","","","",""
"[{""page_index"":0,""viewing_time"":2860.3699998930097}]","2860.7299998402596","instructions","7","84555","0.0-7.0","SS1618365857045","instructions","","","","","","","","","","","","","","","",""
"[{""page_index"":0,""viewing_time"":8982.115000020713},{""page_index"":1,""viewing_time"":6663.889999967068},{""page_index"":2,""viewing_time"":4312.004999956116},{""page_index"":3,""viewing_time"":1768.0750000290573},{""page_index"":4,""viewing_time"":1311.920000007376}]","23038.410000037402","instructions","8","107595","0.0-8.0","SS1618365857045","instructions","","","","","","","","","","","","","","","",""
"","null","html-keyboard-response","9","108579","0.0-9.0-0.0","SS1618365857045","","","null","","","","","","<p><img src= images/blank.png width =""600"" height = ""600"" style=""position:fixed;top:50%; left:50%; transform: translate(-50%, -50%); border:5px solid black"">","","","","","","","",""
"","1057.7549999579787","sequential-stimulus-presentation-old","10","109695","0.0-9.0-1.0","SS1618365857045","trial","","40","500","1557.7549999579787","images/stimuli/spore_stims/complex_04_A_b.gif","images/stimuli/spore_stims/complex_12_A_a.gif","forced_short","","0","complex_dissimilar","images/stimuli/spore_stims/complex_12_A_a.gif","","","","",""
"","null","html-keyboard-response","11","110759","0.0-9.0-0.1","SS1618365857045","","","null","","","","","","<p><img src= images/blank.png width =""600"" height = ""600"" style=""position:fixed;top:50%; left:50%; transform: translate(-50%, -50%); border:5px solid black"">","","","","","","","",""
"","3492.7249997854233","sequential-stimulus-presentation-old","12","114756","0.0-9.0-1.1","SS1618365857045","trial","","40","500","3992.7249997854233","images/stimuli/spore_stims/complex_04_A_b.gif","images/stimuli/spore_stims/complex_12_A_a.gif","forced_short","","0","complex_dissimilar","images/stimuli/spore_stims/complex_12_A_a.gif","","","","",""
"","null","html-keyboard-response","13","116039","0.0-9.0-0.2","SS1618365857045","","","null","","","","","","<p><img src= images/blank.png width =""600"" height = ""600"" style=""position:fixed;top:50%; left:50%; transform: translate(-50%, -50%); border:5px solid black"">","","","","","","","",""
"","2754.729999927804","sequential-stimulus-presentation-old","14","119300","0.0-9.0-1.2","SS1618365857045","trial","","40","500","3254.729999927804","images/stimuli/spore_stims/complex_04_A_b.gif","images/stimuli/spore_stims/complex_12_A_a.gif","forced_short","","0","complex_dissimilar","images/stimuli/spore_stims/complex_04_A_b.gif","","","","",""
"","null","html-keyboard-response","15","120277","0.0-9.0-0.3","SS1618365857045","","","null","","","","","","<p><img src= images/blank.png width =""600"" height = ""600"" style=""position:fixed;top:50%; left:50%; transform: translate(-50%, -50%); border:5px solid black"">","","","","","","","",""
"","3886.7150000296533","sequential-stimulus-presentation-old","16","124672","0.0-9.0-1.3","SS1618365857045","trial","","40","500","4386.715000029653","images/stimuli/spore_stims/complex_04_A_b.gif","images/stimuli/spore_stims/complex_12_A_a.gif","forced_short","","0","complex_dissimilar","images/stimuli/spore_stims/complex_12_A_a.gif","","","","",""
"","null","html-keyboard-response","17","125597","0.0-9.0-0.4","SS1618365857045","","","null","","","","","","<p><img src= images/blank.png width =""600"" height = ""600"" style=""position:fixed;top:50%; left:50%; transform: translate(-50%, -50%); border:5px solid black"">","","","","","","","",""
"","3210.6849998235703","sequential-stimulus-presentation-old","18","129315","0.0-9.0-1.4","SS1618365857045","trial","","40","500","3710.6849998235703","images/stimuli/spore_stims/complex_04_A_b.gif","images/stimuli/spore_stims/complex_12_A_a.gif","forced_short","","0","complex_dissimilar","images/stimuli/spore_stims/complex_04_A_b.gif","","","","",""
"","null","html-keyboard-response","19","130241","0.0-9.0-0.5","SS1618365857045","","","null","","","","","","<p><img src= images/blank.png width =""600"" height = ""600"" style=""position:fixed;top:50%; left:50%; transform: translate(-50%, -50%); border:5px solid black"">","","","","","","","",""
"","1591.1550000309944","sequential-stimulus-presentation-old","20","132338","0.0-9.0-1.5","SS1618365857045","trial","","40","500","2091.1550000309944","images/stimuli/spore_stims/complex_04_A_b.gif","images/stimuli/spore_stims/complex_12_A_a.gif","forced_short","","0","complex_dissimilar","images/stimuli/spore_stims/complex_12_A_a.gif","","","","",""
"","3284.989999840036","survey-multi-choice","21","135628","0.0-10.0","SS1618365857045","math_question","","","","","","","","","","","","{""Q0"":""10""}","[0]","10","",""
"","null","html-keyboard-response","22","136919","0.0-11.0-0.0","SS1618365857045","","","null","","","","","","<p><img src= images/blank.png width =""600"" height = ""600"" style=""position:fixed;top:50%; left:50%; transform: translate(-50%, -50%); border:5px solid black"">","","","","","","","",""
"","4082.810000050813","sequential-stimulus-presentation-old","23","141059","0.0-11.0-1.0","SS1618365857045","trial","","40","500","4582.810000050813","images/stimuli/spore_stims/simple_13_A_a.gif","images/stimuli/spore_stims/simple_01_A_b.gif","forced_short","","1","simple_dissimilar","images/stimuli/spore_stims/simple_01_A_b.gif","","","","",""
"","null","html-keyboard-response","24","142312","0.0-11.0-0.1","SS1618365857045","","","null","","","","","","<p><img src= images/blank.png width =""600"" height = ""600"" style=""position:fixed;top:50%; left:50%; transform: translate(-50%, -50%); border:5px solid black"">","","","","","","","",""
"","1769.9399997945875","sequential-stimulus-presentation-old","25","144589","0.0-11.0-1.1","SS1618365857045","trial","","40","500","2269.9399997945875","images/stimuli/spore_stims/simple_13_A_a.gif","images/stimuli/spore_stims/simple_01_A_b.gif","forced_short","","1","simple_dissimilar","images/stimuli/spore_stims/simple_01_A_b.gif","","","","",""
"","null","html-keyboard-response","26","145490","0.0-11.0-0.2","SS1618365857045","","","null","","","","","","<p><img src= images/blank.png width =""600"" height = ""600"" style=""position:fixed;top:50%; left:50%; transform: translate(-50%, -50%); border:5px solid black"">","","","","","","","",""
"","1417.6700001116842","sequential-stimulus-presentation-old","27","147413","0.0-11.0-1.2","SS1618365857045","trial","","40","500","1917.6700001116842","images/stimuli/spore_stims/simple_13_A_a.gif","images/stimuli/spore_stims/simple_01_A_b.gif","forced_short","","1","simple_dissimilar","images/stimuli/spore_stims/simple_01_A_b.gif","","","","",""
"","null","html-keyboard-response","28","148482","0.0-11.0-0.3","SS1618365857045","","","null","","","","","","<p><img src= images/blank.png width =""600"" height = ""600"" style=""position:fixed;top:50%; left:50%; transform: translate(-50%, -50%); border:5px solid black"">","","","","","","","",""
"","2041.9749999418855","sequential-stimulus-presentation-old","29","151030","0.0-11.0-1.3","SS1618365857045","trial","","40","500","2541.9749999418855","images/stimuli/spore_stims/simple_13_A_a.gif","images/stimuli/spore_stims/simple_01_A_b.gif","forced_short","","1","simple_dissimilar","images/stimuli/spore_stims/simple_13_A_a.gif","","","","",""
"","null","html-keyboard-response","30","151890","0.0-11.0-0.4","SS1618365857045","","","null","","","","","","<p><img src= images/blank.png width =""600"" height = ""600"" style=""position:fixed;top:50%; left:50%; transform: translate(-50%, -50%); border:5px solid black"">","","","","","","","",""
"","1276.015000184998","sequential-stimulus-presentation-old","31","153672","0.0-11.0-1.4","SS1618365857045","trial","","40","500","1776.015000184998","images/stimuli/spore_stims/simple_13_A_a.gif","images/stimuli/spore_stims/simple_01_A_b.gif","forced_short","","1","simple_dissimilar","images/stimuli/spore_stims/simple_01_A_b.gif","","","","",""
"","null","html-keyboard-response","32","154836","0.0-11.0-0.5","SS1618365857045","","","null","","","","","","<p><img src= images/blank.png width =""600"" height = ""600"" style=""position:fixed;top:50%; left:50%; transform: translate(-50%, -50%); border:5px solid black"">","","","","","","","",""
"","1225.235000019893","sequential-stimulus-presentation-old","33","156567","0.0-11.0-1.5","SS1618365857045","trial","","40","500","1725.235000019893","images/stimuli/spore_stims/simple_13_A_a.gif","images/stimuli/spore_stims/simple_01_A_b.gif","forced_short","","1","simple_dissimilar","images/stimuli/spore_stims/simple_01_A_b.gif","","","","",""
"","3121.9449997879565","survey-multi-choice","34","159692","0.0-12.0","SS1618365857045","math_question","","","","","","","","","","","","{""Q0"":""13""}","[0]","13","",""
"","null","html-keyboard-response","35","160936","0.0-13.0-0.0","SS1618365857045","","","null","","","","","","<p><img src= images/blank.png width =""600"" height = ""600"" style=""position:fixed;top:50%; left:50%; transform: translate(-50%, -50%); border:5px solid black"">","","","","","","","",""
"","13440.799999982119","sequential-stimulus-presentation-old","36","179384","0.0-13.0-1.0","SS1618365857045","trial","","40","500","13940.799999982119","images/stimuli/spore_stims/complex_18_A_a.gif","images/stimuli/spore_stims/complex_17_A_b.gif","forced_long","","2","complex_dissimilar","images/stimuli/spore_stims/complex_17_A_b.gif","","","","",""
"","null","html-keyboard-response","37","180239","0.0-13.0-0.1","SS1618365857045","","","null","","","","","","<p><img src= images/blank.png width =""600"" height = ""600"" style=""position:fixed;top:50%; left:50%; transform: translate(-50%, -50%); border:5px solid black"">","","","","","","","",""
"","757.2550000622869","sequential-stimulus-presentation-old","38","181502","0.0-13.0-1.1","SS1618365857045","trial","","40","500","1257.2550000622869","images/stimuli/spore_stims/complex_18_A_a.gif","images/stimuli/spore_stims/complex_17_A_b.gif","forced_long","","2","complex_dissimilar","images/stimuli/spore_stims/complex_18_A_a.gif","","","","",""
"","null","html-keyboard-response","39","182453","0.0-13.0-0.2","SS1618365857045","","","null","","","","","","<p><img src= images/blank.png width =""600"" height = ""600"" style=""position:fixed;top:50%; left:50%; transform: translate(-50%, -50%); border:5px solid black"">","","","","","","","",""
"","2336.9249999523163","sequential-stimulus-presentation-old","40","185296","0.0-13.0-1.2","SS1618365857045","trial","","40","500","2836.9249999523163","images/stimuli/spore_stims/complex_18_A_a.gif","images/stimuli/spore_stims/complex_17_A_b.gif","forced_long","","2","complex_dissimilar","images/stimuli/spore_stims/complex_18_A_a.gif","","","","",""
"","null","html-keyboard-response","41","186123","0.0-13.0-0.3","SS1618365857045","","","null","","","","","","<p><img src= images/blank.png width =""600"" height = ""600"" style=""position:fixed;top:50%; left:50%; transform: translate(-50%, -50%); border:5px solid black"">","","","","","","","",""
"","1543.745000148192","sequential-stimulus-presentation-old","42","188173","0.0-13.0-1.3","SS1618365857045","trial","","40","500","2043.745000148192","images/stimuli/spore_stims/complex_18_A_a.gif","images/stimuli/spore_stims/complex_17_A_b.gif","forced_long","","2","complex_dissimilar","images/stimuli/spore_stims/complex_17_A_b.gif","","","","",""
"","null","html-keyboard-response","43","189059","0.0-13.0-0.4","SS1618365857045","","","null","","","","","","<p><img src= images/blank.png width =""600"" height = ""600"" style=""position:fixed;top:50%; left:50%; transform: translate(-50%, -50%); border:5px solid black"">","","","","","","","",""
"","864.5200000610203","sequential-stimulus-presentation-old","44","190429","0.0-13.0-1.4","SS1618365857045","trial","","40","500","1364.5200000610203","images/stimuli/spore_stims/complex_18_A_a.gif","images/stimuli/spore_stims/complex_17_A_b.gif","forced_long","","2","complex_dissimilar","images/stimuli/spore_stims/complex_17_A_b.gif","","","","",""
"","null","html-keyboard-response","45","191472","0.0-13.0-0.5","SS1618365857045","","","null","","","","","","<p><img src= images/blank.png width =""600"" height = ""600"" style=""position:fixed;top:50%; left:50%; transform: translate(-50%, -50%); border:5px solid black"">","","","","","","","",""
"","243.819999974221","sequential-stimulus-presentation-old","46","192223","0.0-13.0-1.5","SS1618365857045","trial","","40","500","743.819999974221","images/stimuli/spore_stims/complex_18_A_a.gif","images/stimuli/spore_stims/complex_17_A_b.gif","forced_long","","2","complex_dissimilar","images/stimuli/spore_stims/complex_17_A_b.gif","","","","",""
"","2248.9099998492748","survey-multi-choice","47","194476","0.0-14.0","SS1618365857045","math_question","","","","","","","","","","","","{""Q0"":""9""}","[0]","9","",""
"","null","html-keyboard-response","48","195322","0.0-15.0-0.0","SS1618365857045","","","null","","","","","","<p><img src= images/blank.png width =""600"" height = ""600"" style=""position:fixed;top:50%; left:50%; transform: translate(-50%, -50%); border:5px solid black"">","","","","","","","",""
"","996.1899998597801","sequential-stimulus-presentation-old","49","196825","0.0-15.0-1.0","SS1618365857045","trial","","40","500","1496.18999985978","images/stimuli/spore_stims/complex_01_A_a.gif","images/stimuli/spore_stims/complex_11_A_b.gif","self_paced","","3","complex_dissimilar","images/stimuli/spore_stims/complex_11_A_b.gif","","","","",""
"","null","html-keyboard-response","50","197913","0.0-15.0-0.1","SS1618365857045","","","null","","","","","","<p><img src= images/blank.png width =""600"" height = ""600"" style=""position:fixed;top:50%; left:50%; transform: translate(-50%, -50%); border:5px solid black"">","","","","","","","",""
"","379.2699999175966","sequential-stimulus-presentation-old","51","198799","0.0-15.0-1.1","SS1618365857045","trial","","40","500","879.2699999175966","images/stimuli/spore_stims/complex_01_A_a.gif","images/stimuli/spore_stims/complex_11_A_b.gif","self_paced","","3","complex_dissimilar","images/stimuli/spore_stims/complex_11_A_b.gif","","","","",""
"","null","html-keyboard-response","52","199756","0.0-15.0-0.2","SS1618365857045","","","null","","","","","","<p><img src= images/blank.png width =""600"" height = ""600"" style=""position:fixed;top:50%; left:50%; transform: translate(-50%, -50%); border:5px solid black"">","","","","","","","",""
"","911.060000071302","sequential-stimulus-presentation-old","53","201173","0.0-15.0-1.2","SS1618365857045","trial","","40","500","1411.060000071302","images/stimuli/spore_stims/complex_01_A_a.gif","images/stimuli/spore_stims/complex_11_A_b.gif","self_paced","","3","complex_dissimilar","images/stimuli/spore_stims/complex_11_A_b.gif","","","","",""
"","null","html-keyboard-response","54","202071","0.0-15.0-0.3","SS1618365857045","","","null","","","","","","<p><img src= images/blank.png width =""600"" height = ""600"" style=""position:fixed;top:50%; left:50%; transform: translate(-50%, -50%); border:5px solid black"">","","","","","","","",""
"","691.5500001050532","sequential-stimulus-presentation-old","55","203268","0.0-15.0-1.3","SS1618365857045","trial","","40","500","1191.5500001050532","images/stimuli/spore_stims/complex_01_A_a.gif","images/stimuli/spore_stims/complex_11_A_b.gif","self_paced","","3","complex_dissimilar","images/stimuli/spore_stims/complex_11_A_b.gif","","","","",""
"","null","html-keyboard-response","56","204332","0.0-15.0-0.4","SS1618365857045","","","null","","","","","","<p><img src= images/blank.png width =""600"" height = ""600"" style=""position:fixed;top:50%; left:50%; transform: translate(-50%, -50%); border:5px solid black"">","","","","","","","",""
"","13.269999995827675","sequential-stimulus-presentation-old","57","204852","0.0-15.0-1.4","SS1618365857045","trial","","40","500","513.2699999958277","images/stimuli/spore_stims/complex_01_A_a.gif","images/stimuli/spore_stims/complex_11_A_b.gif","self_paced","","3","complex_dissimilar","images/stimuli/spore_stims/complex_11_A_b.gif","","","","",""
"","2833.779999986291","survey-multi-choice","58","207692","0.0-16.0","SS1618365857045","math_question","","","","","","","","","","","","{""Q0"":""8""}","[0]","8","",""
"","null","html-keyboard-response","59","208651","0.0-17.0-0.0","SS1618365857045","","","null","","","","","","<p><img src= images/blank.png width =""600"" height = ""600"" style=""position:fixed;top:50%; left:50%; transform: translate(-50%, -50%); border:5px solid black"">","","","","","","","",""
"","503.6199998576194","sequential-stimulus-presentation-old","60","214162","0.0-17.0-1.0","SS1618365857045","trial","","40","500","1003.6199998576194","images/stimuli/spore_stims/simple_07_A_b.gif","images/stimuli/spore_stims/simple_16_A_a.gif","forced_long","","4","simple_dissimilar","images/stimuli/spore_stims/simple_16_A_a.gif","","","","",""
"","null","html-keyboard-response","61","215162","0.0-17.0-0.1","SS1618365857045","","","null","","","","","","<p><img src= images/blank.png width =""600"" height = ""600"" style=""position:fixed;top:50%; left:50%; transform: translate(-50%, -50%); border:5px solid black"">","","","","","","","",""
"","1411.1699999775738","sequential-stimulus-presentation-old","62","217082","0.0-17.0-1.1","SS1618365857045","trial","","40","500","1911.1699999775738","images/stimuli/spore_stims/simple_07_A_b.gif","images/stimuli/spore_stims/simple_16_A_a.gif","forced_long","","4","simple_dissimilar","images/stimuli/spore_stims/simple_16_A_a.gif","","","","",""
"","null","html-keyboard-response","63","218026","0.0-17.0-0.2","SS1618365857045","","","null","","","","","","<p><img src= images/blank.png width =""600"" height = ""600"" style=""position:fixed;top:50%; left:50%; transform: translate(-50%, -50%); border:5px solid black"">","","","","","","","",""
"","1266.6199998930097","sequential-stimulus-presentation-old","64","219798","0.0-17.0-1.2","SS1618365857045","trial","","40","500","1766.6199998930097","images/stimuli/spore_stims/simple_07_A_b.gif","images/stimuli/spore_stims/simple_16_A_a.gif","forced_long","","4","simple_dissimilar","images/stimuli/spore_stims/simple_07_A_b.gif","","","","",""
"","null","html-keyboard-response","65","220991","0.0-17.0-0.3","SS1618365857045","","","null","","","","","","<p><img src= images/blank.png width =""600"" height = ""600"" style=""position:fixed;top:50%; left:50%; transform: translate(-50%, -50%); border:5px solid black"">","","","","","","","",""
"","523.8600000739098","sequential-stimulus-presentation-old","66","222022","0.0-17.0-1.3","SS1618365857045","trial","","40","500","1023.8600000739098","images/stimuli/spore_stims/simple_07_A_b.gif","images/stimuli/spore_stims/simple_16_A_a.gif","forced_long","","4","simple_dissimilar","images/stimuli/spore_stims/simple_07_A_b.gif","","","","",""
"","null","html-keyboard-response","67","223064","0.0-17.0-0.4","SS1618365857045","","","null","","","","","","<p><img src= images/blank.png width =""600"" height = ""600"" style=""position:fixed;top:50%; left:50%; transform: translate(-50%, -50%); border:5px solid black"">","","","","","","","",""
"","820.3400000929832","sequential-stimulus-presentation-old","68","224390","0.0-17.0-1.4","SS1618365857045","trial","","40","500","1320.3400000929832","images/stimuli/spore_stims/simple_07_A_b.gif","images/stimuli/spore_stims/simple_16_A_a.gif","forced_long","","4","simple_dissimilar","images/stimuli/spore_stims/simple_16_A_a.gif","","","","",""
"","2236.6949999704957","survey-multi-choice","69","226636","0.0-18.0","SS1618365857045","math_question","","","","","","","","","","","","{""Q0"":""9""}","[0]","9","",""
"","null","html-keyboard-response","70","227497","0.0-19.0-0.0","SS1618365857045","","","null","","","","","","<p><img src= images/blank.png width =""600"" height = ""600"" style=""position:fixed;top:50%; left:50%; transform: translate(-50%, -50%); border:5px solid black"">","","","","","","","",""
"","3204.209999879822","sequential-stimulus-presentation-old","71","231208","0.0-19.0-1.0","SS1618365857045","trial","","40","500","3704.209999879822","images/stimuli/spore_stims/simple_06_A_a.gif","images/stimuli/spore_stims/simple_12_A_b.gif","self_paced","","5","simple_dissimilar","images/stimuli/spore_stims/simple_12_A_b.gif","","","","",""
"","null","html-keyboard-response","72","232291","0.0-19.0-0.1","SS1618365857045","","","null","","","","","","<p><img src= images/blank.png width =""600"" height = ""600"" style=""position:fixed;top:50%; left:50%; transform: translate(-50%, -50%); border:5px solid black"">","","","","","","","",""
"","1572.4949999712408","sequential-stimulus-presentation-old","73","234369","0.0-19.0-1.1","SS1618365857045","trial","","40","500","2072.4949999712408","images/stimuli/spore_stims/simple_06_A_a.gif","images/stimuli/spore_stims/simple_12_A_b.gif","self_paced","","5","simple_dissimilar","images/stimuli/spore_stims/simple_12_A_b.gif","","","","",""
"","null","html-keyboard-response","74","235480","0.0-19.0-0.2","SS1618365857045","","","null","","","","","","<p><img src= images/blank.png width =""600"" height = ""600"" style=""position:fixed;top:50%; left:50%; transform: translate(-50%, -50%); border:5px solid black"">","","","","","","","",""
"","150.41000000201166","sequential-stimulus-presentation-old","75","236137","0.0-19.0-1.2","SS1618365857045","trial","","40","500","650.4100000020117","images/stimuli/spore_stims/simple_06_A_a.gif","images/stimuli/spore_stims/simple_12_A_b.gif","self_paced","","5","simple_dissimilar","images/stimuli/spore_stims/simple_12_A_b.gif","","","","",""
"","null","html-keyboard-response","76","237111","0.0-19.0-0.3","SS1618365857045","","","null","","","","","","<p><img src= images/blank.png width =""600"" height = ""600"" style=""position:fixed;top:50%; left:50%; transform: translate(-50%, -50%); border:5px solid black"">","","","","","","","",""
"","386.9900000281632","sequential-stimulus-presentation-old","77","238005","0.0-19.0-1.3","SS1618365857045","trial","","40","500","886.9900000281632","images/stimuli/spore_stims/simple_06_A_a.gif","images/stimuli/spore_stims/simple_12_A_b.gif","self_paced","","5","simple_dissimilar","images/stimuli/spore_stims/simple_06_A_a.gif","","","","",""
"","null","html-keyboard-response","78","238971","0.0-19.0-0.4","SS1618365857045","","","null","","","","","","<p><img src= images/blank.png width =""600"" height = ""600"" style=""position:fixed;top:50%; left:50%; transform: translate(-50%, -50%); border:5px solid black"">","","","","","","","",""
"","51.38500011526048","sequential-stimulus-presentation-old","79","239528","0.0-19.0-1.4","SS1618365857045","trial","","40","500","551.3850001152605","images/stimuli/spore_stims/simple_06_A_a.gif","images/stimuli/spore_stims/simple_12_A_b.gif","self_paced","","5","simple_dissimilar","images/stimuli/spore_stims/simple_12_A_b.gif","","","","",""
"","null","html-keyboard-response","80","240406","0.0-19.0-0.5","SS1618365857045","","","null","","","","","","<p><img src= images/blank.png width =""600"" height = ""600"" style=""position:fixed;top:50%; left:50%; transform: translate(-50%, -50%); border:5px solid black"">","","","","","","","",""
"","242.65500018373132","sequential-stimulus-presentation-old","81","241156","0.0-19.0-1.5","SS1618365857045","trial","","40","500","742.6550001837313","images/stimuli/spore_stims/simple_06_A_a.gif","images/stimuli/spore_stims/simple_12_A_b.gif","self_paced","","5","simple_dissimilar","images/stimuli/spore_stims/simple_12_A_b.gif","","","","",""
"","3003.0499999411404","survey-multi-choice","82","244164","0.0-20.0","SS1618365857045","math_question","","","","","","","","","","","","{""Q0"":""6""}","[0]","6","",""
"","null","html-keyboard-response","83","245448","0.0-21.0-0.0","SS1618365857045","","","null","","","","","","<p><img src= images/blank.png width =""600"" height = ""600"" style=""position:fixed;top:50%; left:50%; transform: translate(-50%, -50%); border:5px solid black"">","","","","","","","",""
"","820.0400001369417","sequential-stimulus-presentation-old","84","246326","0.0-21.0-1.0","SS1618365857045","trial","","40","500","1320.0400001369417","images/stimuli/spore_stims/simple_07_A_a.gif","images/stimuli/spore_stims/simple_20_A_b.gif","forced_short","","6","simple_dissimilar","images/stimuli/spore_stims/simple_20_A_b.gif","","","","",""
"","null","html-keyboard-response","85","247366","0.0-21.0-0.1","SS1618365857045","","","null","","","","","","<p><img src= images/blank.png width =""600"" height = ""600"" style=""position:fixed;top:50%; left:50%; transform: translate(-50%, -50%); border:5px solid black"">","","","","","","","",""
"","325.6700001657009","sequential-stimulus-presentation-old","86","248198","0.0-21.0-1.1","SS1618365857045","trial","","40","500","825.6700001657009","images/stimuli/spore_stims/simple_07_A_a.gif","images/stimuli/spore_stims/simple_20_A_b.gif","forced_short","","6","simple_dissimilar","images/stimuli/spore_stims/simple_20_A_b.gif","","","","",""
"","null","html-keyboard-response","87","249172","0.0-21.0-0.2","SS1618365857045","","","null","","","","","","<p><img src= images/blank.png width =""600"" height = ""600"" style=""position:fixed;top:50%; left:50%; transform: translate(-50%, -50%); border:5px solid black"">","","","","","","","",""
"","174.79499988257885","sequential-stimulus-presentation-old","88","249853","0.0-21.0-1.2","SS1618365857045","trial","","40","500","674.7949998825788","images/stimuli/spore_stims/simple_07_A_a.gif","images/stimuli/spore_stims/simple_20_A_b.gif","forced_short","","6","simple_dissimilar","images/stimuli/spore_stims/simple_20_A_b.gif","","","","",""
"","null","html-keyboard-response","89","250954","0.0-21.0-0.3","SS1618365857045","","","null","","","","","","<p><img src= images/blank.png width =""600"" height = ""600"" style=""position:fixed;top:50%; left:50%; transform: translate(-50%, -50%); border:5px solid black"">","","","","","","","",""
"","70.18499984405935","sequential-stimulus-presentation-old","90","251532","0.0-21.0-1.3","SS1618365857045","trial","","40","500","570.1849998440593","images/stimuli/spore_stims/simple_07_A_a.gif","images/stimuli/spore_stims/simple_20_A_b.gif","forced_short","","6","simple_dissimilar","images/stimuli/spore_stims/simple_07_A_a.gif","","","","",""
"","3435.0100001320243","survey-multi-choice","91","254971","0.0-22.0","SS1618365857045","math_question","","","","","","","","","","","","{""Q0"":""13""}","[0]","13","",""
"","null","html-keyboard-response","92","255928","0.0-23.0-0.0","SS1618365857045","","","null","","","","","","<p><img src= images/blank.png width =""600"" height = ""600"" style=""position:fixed;top:50%; left:50%; transform: translate(-50%, -50%); border:5px solid black"">","","","","","","","",""
"","528.9950000587851","sequential-stimulus-presentation-old","93","261465","0.0-23.0-1.0","SS1618365857045","trial","","40","500","1028.995000058785","images/stimuli/spore_stims/complex_13_A_b.gif","images/stimuli/spore_stims/complex_06_A_a.gif","forced_long","","7","complex_dissimilar","images/stimuli/spore_stims/complex_06_A_a.gif","","","","",""
"","null","html-keyboard-response","94","262523","0.0-23.0-0.1","SS1618365857045","","","null","","","","","","<p><img src= images/blank.png width =""600"" height = ""600"" style=""position:fixed;top:50%; left:50%; transform: translate(-50%, -50%); border:5px solid black"">","","","","","","","",""
"","1633.9800001587719","sequential-stimulus-presentation-old","95","264666","0.0-23.0-1.1","SS1618365857045","trial","","40","500","2133.980000158772","images/stimuli/spore_stims/complex_13_A_b.gif","images/stimuli/spore_stims/complex_06_A_a.gif","forced_long","","7","complex_dissimilar","images/stimuli/spore_stims/complex_06_A_a.gif","","","","",""
"","null","html-keyboard-response","96","265591","0.0-23.0-0.2","SS1618365857045","","","null","","","","","","<p><img src= images/blank.png width =""600"" height = ""600"" style=""position:fixed;top:50%; left:50%; transform: translate(-50%, -50%); border:5px solid black"">","","","","","","","",""
"","533.32499996759","sequential-stimulus-presentation-old","97","266631","0.0-23.0-1.2","SS1618365857045","trial","","40","500","1033.32499996759","images/stimuli/spore_stims/complex_13_A_b.gif","images/stimuli/spore_stims/complex_06_A_a.gif","forced_long","","7","complex_dissimilar","images/stimuli/spore_stims/complex_06_A_a.gif","","","","",""
"","null","html-keyboard-response","98","267499","0.0-23.0-0.3","SS1618365857045","","","null","","","","","","<p><img src= images/blank.png width =""600"" height = ""600"" style=""position:fixed;top:50%; left:50%; transform: translate(-50%, -50%); border:5px solid black"">","","","","","","","",""
"","382.1500001940876","sequential-stimulus-presentation-old","99","268388","0.0-23.0-1.3","SS1618365857045","trial","","40","500","882.1500001940876","images/stimuli/spore_stims/complex_13_A_b.gif","images/stimuli/spore_stims/complex_06_A_a.gif","forced_long","","7","complex_dissimilar","images/stimuli/spore_stims/complex_06_A_a.gif","","","","",""
"","null","html-keyboard-response","100","269557","0.0-23.0-0.4","SS1618365857045","","","null","","","","","","<p><img src= images/blank.png width =""600"" height = ""600"" style=""position:fixed;top:50%; left:50%; transform: translate(-50%, -50%); border:5px solid black"">","","","","","","","",""
"","80.95499989576638","sequential-stimulus-presentation-old","101","270145","0.0-23.0-1.4","SS1618365857045","trial","","40","500","580.9549998957664","images/stimuli/spore_stims/complex_13_A_b.gif","images/stimuli/spore_stims/complex_06_A_a.gif","forced_long","","7","complex_dissimilar","images/stimuli/spore_stims/complex_06_A_a.gif","","","","",""
"","2404.059999855235","survey-multi-choice","102","272556","0.0-24.0","SS1618365857045","math_question","","","","","","","","","","","","{""Q0"":""11""}","[0]","11","",""
"","null","html-keyboard-response","103","273859","0.0-25.0-0.0","SS1618365857045","","","null","","","","","","<p><img src= images/blank.png width =""600"" height = ""600"" style=""position:fixed;top:50%; left:50%; transform: translate(-50%, -50%); border:5px solid black"">","","","","","","","",""
"","1054.1899998206645","sequential-stimulus-presentation-old","104","275422","0.0-25.0-1.0","SS1618365857045","trial","","40","500","1554.1899998206645","images/stimuli/spore_stims/simple_11_A_b.gif","images/stimuli/spore_stims/simple_17_A_a.gif","self_paced","","8","simple_dissimilar","images/stimuli/spore_stims/simple_17_A_a.gif","","","","",""
"","null","html-keyboard-response","105","276496","0.0-25.0-0.1","SS1618365857045","","","null","","","","","","<p><img src= images/blank.png width =""600"" height = ""600"" style=""position:fixed;top:50%; left:50%; transform: translate(-50%, -50%); border:5px solid black"">","","","","","","","",""
"","422.5250000599772","sequential-stimulus-presentation-old","106","277426","0.0-25.0-1.1","SS1618365857045","trial","","40","500","922.5250000599772","images/stimuli/spore_stims/simple_11_A_b.gif","images/stimuli/spore_stims/simple_17_A_a.gif","self_paced","","8","simple_dissimilar","images/stimuli/spore_stims/simple_11_A_b.gif","","","","",""
"","null","html-keyboard-response","107","278708","0.0-25.0-0.2","SS1618365857045","","","null","","","","","","<p><img src= images/blank.png width =""600"" height = ""600"" style=""position:fixed;top:50%; left:50%; transform: translate(-50%, -50%); border:5px solid black"">","","","","","","","",""
"","33.885000040754676","sequential-stimulus-presentation-old","108","279248","0.0-25.0-1.2","SS1618365857045","trial","","40","500","533.8850000407547","images/stimuli/spore_stims/simple_11_A_b.gif","images/stimuli/spore_stims/simple_17_A_a.gif","self_paced","","8","simple_dissimilar","images/stimuli/spore_stims/simple_17_A_a.gif","","","","",""
"","null","html-keyboard-response","109","280436","0.0-25.0-0.3","SS1618365857045","","","null","","","","","","<p><img src= images/blank.png width =""600"" height = ""600"" style=""position:fixed;top:50%; left:50%; transform: translate(-50%, -50%); border:5px solid black"">","","","","","","","",""
"","172.21500002779067","sequential-stimulus-presentation-old","110","281115","0.0-25.0-1.3","SS1618365857045","trial","","40","500","672.2150000277907","images/stimuli/spore_stims/simple_11_A_b.gif","images/stimuli/spore_stims/simple_17_A_a.gif","self_paced","","8","simple_dissimilar","images/stimuli/spore_stims/simple_17_A_a.gif","","","","",""
"","null","html-keyboard-response","111","282223","0.0-25.0-0.4","SS1618365857045","","","null","","","","","","<p><img src= images/blank.png width =""600"" height = ""600"" style=""position:fixed;top:50%; left:50%; transform: translate(-50%, -50%); border:5px solid black"">","","","","","","","",""
"","350.71499994955957","sequential-stimulus-presentation-old","112","283080","0.0-25.0-1.4","SS1618365857045","trial","","40","500","850.7149999495596","images/stimuli/spore_stims/simple_11_A_b.gif","images/stimuli/spore_stims/simple_17_A_a.gif","self_paced","","8","simple_dissimilar","images/stimuli/spore_stims/simple_17_A_a.gif","","","","",""
"","null","html-keyboard-response","113","283993","0.0-25.0-0.5","SS1618365857045","","","null","","","","","","<p><img src= images/blank.png width =""600"" height = ""600"" style=""position:fixed;top:50%; left:50%; transform: translate(-50%, -50%); border:5px solid black"">","","","","","","","",""
"","213.62499985843897","sequential-stimulus-presentation-old","114","284715","0.0-25.0-1.5","SS1618365857045","trial","","40","500","713.624999858439","images/stimuli/spore_stims/simple_11_A_b.gif","images/stimuli/spore_stims/simple_17_A_a.gif","self_paced","","8","simple_dissimilar","images/stimuli/spore_stims/simple_11_A_b.gif","","","","",""
"","2363.5599999688566","survey-multi-choice","115","287083","0.0-26.0","SS1618365857045","math_question","","","","","","","","","","","","{""Q0"":""11""}","[0]","11","",""
"","null","html-keyboard-response","116","288035","0.0-27.0-0.0","SS1618365857045","","","null","","","","","","<p><img src= images/blank.png width =""600"" height = ""600"" style=""position:fixed;top:50%; left:50%; transform: translate(-50%, -50%); border:5px solid black"">","","","","","","","",""
"","480.5200002156198","sequential-stimulus-presentation-old","117","289024","0.0-27.0-1.0","SS1618365857045","trial","","40","500","980.5200002156198","images/stimuli/spore_stims/complex_14_A_b.gif","images/stimuli/spore_stims/complex_19_A_a.gif","self_paced","","9","complex_dissimilar","images/stimuli/spore_stims/complex_19_A_a.gif","","","","",""
"","null","html-keyboard-response","118","290024","0.0-27.0-0.1","SS1618365857045","","","null","","","","","","<p><img src= images/blank.png width =""600"" height = ""600"" style=""position:fixed;top:50%; left:50%; transform: translate(-50%, -50%); border:5px solid black"">","","","","","","","",""
"","476.17499995976686","sequential-stimulus-presentation-old","119","291007","0.0-27.0-1.1","SS1618365857045","trial","","40","500","976.1749999597669","images/stimuli/spore_stims/complex_14_A_b.gif","images/stimuli/spore_stims/complex_19_A_a.gif","self_paced","","9","complex_dissimilar","images/stimuli/spore_stims/complex_19_A_a.gif","","","","",""
"","null","html-keyboard-response","120","292012","0.0-27.0-0.2","SS1618365857045","","","null","","","","","","<p><img src= images/blank.png width =""600"" height = ""600"" style=""position:fixed;top:50%; left:50%; transform: translate(-50%, -50%); border:5px solid black"">","","","","","","","",""
"","84.10000009462237","sequential-stimulus-presentation-old","121","292603","0.0-27.0-1.2","SS1618365857045","trial","","40","500","584.1000000946224","images/stimuli/spore_stims/complex_14_A_b.gif","images/stimuli/spore_stims/complex_19_A_a.gif","self_paced","","9","complex_dissimilar","images/stimuli/spore_stims/complex_19_A_a.gif","","","","",""
"","null","html-keyboard-response","122","293477","0.0-27.0-0.3","SS1618365857045","","","null","","","","","","<p><img src= images/blank.png width =""600"" height = ""600"" style=""position:fixed;top:50%; left:50%; transform: translate(-50%, -50%); border:5px solid black"">","","","","","","","",""
"","37.89499984122813","sequential-stimulus-presentation-old","123","294021","0.0-27.0-1.3","SS1618365857045","trial","","40","500","537.8949998412281","images/stimuli/spore_stims/complex_14_A_b.gif","images/stimuli/spore_stims/complex_19_A_a.gif","self_paced","","9","complex_dissimilar","images/stimuli/spore_stims/complex_19_A_a.gif","","","","",""
"","2360.8099999837577","survey-multi-choice","124","296388","0.0-28.0","SS1618365857045","math_question","","","","","","","","","","","","{""Q0"":""16""}","[0]","16","",""
"","null","html-keyboard-response","125","297359","0.0-29.0-0.0","SS1618365857045","","","null","","","","","","<p><img src= images/blank.png width =""600"" height = ""600"" style=""position:fixed;top:50%; left:50%; transform: translate(-50%, -50%); border:5px solid black"">","","","","","","","",""
"","628.9399999659508","sequential-stimulus-presentation-old","126","298047","0.0-29.0-1.0","SS1618365857045","trial","","40","500","1128.9399999659508","images/stimuli/spore_stims/complex_11_A_a.gif","images/stimuli/spore_stims/complex_12_A_b.gif","forced_short","","10","complex_dissimilar","images/stimuli/spore_stims/complex_12_A_b.gif","","","","",""
"","null","html-keyboard-response","127","299273","0.0-29.0-0.1","SS1618365857045","","","null","","","","","","<p><img src= images/blank.png width =""600"" height = ""600"" style=""position:fixed;top:50%; left:50%; transform: translate(-50%, -50%); border:5px solid black"">","","","","","","","",""
"","3.920000046491623","sequential-stimulus-presentation-old","128","299784","0.0-29.0-1.1","SS1618365857045","trial","","40","500","503.9200000464916","images/stimuli/spore_stims/complex_11_A_a.gif","images/stimuli/spore_stims/complex_12_A_b.gif","forced_short","","10","complex_dissimilar","images/stimuli/spore_stims/complex_12_A_b.gif","","","","",""
"","null","html-keyboard-response","129","300642","0.0-29.0-0.2","SS1618365857045","","","null","","","","","","<p><img src= images/blank.png width =""600"" height = ""600"" style=""position:fixed;top:50%; left:50%; transform: translate(-50%, -50%); border:5px solid black"">","","","","","","","",""
"","1085.3899999056011","sequential-stimulus-presentation-old","130","302236","0.0-29.0-1.2","SS1618365857045","trial","","40","500","1585.3899999056011","images/stimuli/spore_stims/complex_11_A_a.gif","images/stimuli/spore_stims/complex_12_A_b.gif","forced_short","","10","complex_dissimilar","images/stimuli/spore_stims/complex_11_A_a.gif","","","","",""
"","null","html-keyboard-response","131","303226","0.0-29.0-0.3","SS1618365857045","","","null","","","","","","<p><img src= images/blank.png width =""600"" height = ""600"" style=""position:fixed;top:50%; left:50%; transform: translate(-50%, -50%); border:5px solid black"">","","","","","","","",""
"","169.50000007636845","sequential-stimulus-presentation-old","132","303904","0.0-29.0-1.3","SS1618365857045","trial","","40","500","669.5000000763685","images/stimuli/spore_stims/complex_11_A_a.gif","images/stimuli/spore_stims/complex_12_A_b.gif","forced_short","","10","complex_dissimilar","images/stimuli/spore_stims/complex_12_A_b.gif","","","","",""
"","2310.330000007525","survey-multi-choice","133","306220","0.0-30.0","SS1618365857045","math_question","","","","","","","","","","","","{""Q0"":""10""}","[0]","10","",""
"","null","html-keyboard-response","134","307207","0.0-31.0-0.0","SS1618365857045","","","null","","","","","","<p><img src= images/blank.png width =""600"" height = ""600"" style=""position:fixed;top:50%; left:50%; transform: translate(-50%, -50%); border:5px solid black"">","","","","","","","",""
"","414.5200001075864","sequential-stimulus-presentation-old","135","312630","0.0-31.0-1.0","SS1618365857045","trial","","40","500","914.5200001075864","images/stimuli/spore_stims/simple_18_A_b.gif","images/stimuli/spore_stims/simple_12_A_a.gif","forced_long","","11","simple_dissimilar","images/stimuli/spore_stims/simple_12_A_a.gif","","","","",""
"","null","html-keyboard-response","136","313603","0.0-31.0-0.1","SS1618365857045","","","null","","","","","","<p><img src= images/blank.png width =""600"" height = ""600"" style=""position:fixed;top:50%; left:50%; transform: translate(-50%, -50%); border:5px solid black"">","","","","","","","",""
"","39.409999968484044","sequential-stimulus-presentation-old","137","314151","0.0-31.0-1.1","SS1618365857045","trial","","40","500","539.409999968484","images/stimuli/spore_stims/simple_18_A_b.gif","images/stimuli/spore_stims/simple_12_A_a.gif","forced_long","","11","simple_dissimilar","images/stimuli/spore_stims/simple_12_A_a.gif","","","","",""
"","null","html-keyboard-response","138","315430","0.0-31.0-0.2","SS1618365857045","","","null","","","","","","<p><img src= images/blank.png width =""600"" height = ""600"" style=""position:fixed;top:50%; left:50%; transform: translate(-50%, -50%); border:5px solid black"">","","","","","","","",""
"","441.1849998869002","sequential-stimulus-presentation-old","139","316379","0.0-31.0-1.2","SS1618365857045","trial","","40","500","941.1849998869002","images/stimuli/spore_stims/simple_18_A_b.gif","images/stimuli/spore_stims/simple_12_A_a.gif","forced_long","","11","simple_dissimilar","images/stimuli/spore_stims/simple_12_A_a.gif","","","","",""
"","null","html-keyboard-response","140","317676","0.0-31.0-0.3","SS1618365857045","","","null","","","","","","<p><img src= images/blank.png width =""600"" height = ""600"" style=""position:fixed;top:50%; left:50%; transform: translate(-50%, -50%); border:5px solid black"">","","","","","","","",""
"","326.06000010855496","sequential-stimulus-presentation-old","141","318512","0.0-31.0-1.3","SS1618365857045","trial","","40","500","826.060000108555","images/stimuli/spore_stims/simple_18_A_b.gif","images/stimuli/spore_stims/simple_12_A_a.gif","forced_long","","11","simple_dissimilar","images/stimuli/spore_stims/simple_18_A_b.gif","","","","",""
"","null","html-keyboard-response","142","319522","0.0-31.0-0.4","SS1618365857045","","","null","","","","","","<p><img src= images/blank.png width =""600"" height = ""600"" style=""position:fixed;top:50%; left:50%; transform: translate(-50%, -50%); border:5px solid black"">","","","","","","","",""
"","12.9549999255687","sequential-stimulus-presentation-old","143","320043","0.0-31.0-1.4","SS1618365857045","trial","","40","500","512.9549999255687","images/stimuli/spore_stims/simple_18_A_b.gif","images/stimuli/spore_stims/simple_12_A_a.gif","forced_long","","11","simple_dissimilar","images/stimuli/spore_stims/simple_18_A_b.gif","","","","",""
"[{""page_index"":0,""viewing_time"":4106.829999946058}]","4107.129999902099","instructions","144","324155","0.0-32.0","SS1618365857045","instructions","","","","","","","","","","","","","","","",""
"","6738.789999857545","survey-likert","145","330900","0.0-33.0","SS1618365857045","similarity_question","","","","","","","","","","","","{""Q0"":4}","[0]","","images/stimuli/spore_stims/simple_13_A_a.gif","images/stimuli/spore_stims/simple_01_A_b.gif"
"","3279.409999959171","survey-likert","146","334187","0.0-34.0","SS1618365857045","similarity_question","","","","","","","","","","","","{""Q0"":3}","[0]","","images/stimuli/spore_stims/simple_16_A_a.gif","images/stimuli/spore_stims/simple_07_A_b.gif"
"","4551.9550000317395","survey-likert","147","338748","0.0-35.0","SS1618365857045","similarity_question","","","","","","","","","","","","{""Q0"":3}","[0]","","images/stimuli/spore_stims/simple_18_A_b.gif","images/stimuli/spore_stims/simple_12_A_a.gif"
"","5134.044999955222","survey-likert","148","343891","0.0-36.0","SS1618365857045","similarity_question","","","","","","","","","","","","{""Q0"":5}","[0]","","images/stimuli/spore_stims/complex_12_A_b.gif","images/stimuli/spore_stims/complex_11_A_a.gif"
"","3343.379999976605","survey-likert","149","347244","0.0-37.0","SS1618365857045","similarity_question","","","","","","","","","","","","{""Q0"":4}","[0]","","images/stimuli/spore_stims/complex_17_A_b.gif","images/stimuli/spore_stims/complex_18_A_a.gif"
"","3728.080000029877","survey-likert","150","350980","0.0-38.0","SS1618365857045","similarity_question","","","","","","","","","","","","{""Q0"":5}","[0]","","images/stimuli/spore_stims/simple_06_A_a.gif","images/stimuli/spore_stims/simple_12_A_b.gif"
"","4126.835000002757","survey-likert","151","355115","0.0-39.0","SS1618365857045","similarity_question","","","","","","","","","","","","{""Q0"":5}","[0]","","images/stimuli/spore_stims/complex_01_A_a.gif","images/stimuli/spore_stims/complex_11_A_b.gif"
"","2591.095000039786","survey-likert","152","357715","0.0-40.0","SS1618365857045","similarity_question","","","","","","","","","","","","{""Q0"":5}","[0]","","images/stimuli/spore_stims/complex_12_A_a.gif","images/stimuli/spore_stims/complex_04_A_b.gif"
"","3071.8350000679493","survey-likert","153","360796","0.0-41.0","SS1618365857045","similarity_question","","","","","","","","","","","","{""Q0"":6}","[0]","","images/stimuli/spore_stims/complex_13_A_b.gif","images/stimuli/spore_stims/complex_06_A_a.gif"
"","3440.150000154972","survey-likert","154","364244","0.0-42.0","SS1618365857045","similarity_question","","","","","","","","","","","","{""Q0"":5}","[0]","","images/stimuli/spore_stims/complex_19_A_a.gif","images/stimuli/spore_stims/complex_14_A_b.gif"
"","4166.495000012219","survey-likert","155","368419","0.0-43.0","SS1618365857045","similarity_question","","","","","","","","","","","","{""Q0"":5}","[0]","","images/stimuli/spore_stims/simple_11_A_b.gif","images/stimuli/spore_stims/simple_17_A_a.gif"
"","4567.440000129864","survey-likert","156","372995","0.0-44.0","SS1618365857045","similarity_question","","","","","","","","","","","","{""Q0"":3}","[0]","","images/stimuli/spore_stims/simple_07_A_a.gif","images/stimuli/spore_stims/simple_20_A_b.gif"
"[{""page_index"":0,""viewing_time"":3406.985000008717}]","3407.2849999647588","instructions","157","376411","0.0-45.0","SS1618365857045","instructions","","","","","","","","","","","","","","","",""
"","4587.515000021085","survey-likert","158","381003","0.0-46.0","SS1618365857045","","","","","","","","","images/stimuli/spore_stims/simple_06_A_a.gif","","","","{""Q0"":1}","[0]","","",""
"","1928.2549999188632","survey-likert","159","382940","0.0-47.0","SS1618365857045","","","","","","","","","images/stimuli/spore_stims/simple_18_A_b.gif","","","","{""Q0"":1}","[0]","","",""
"","4110.664999810979","survey-likert","160","387059","0.0-48.0","SS1618365857045","","","","","","","","","images/stimuli/spore_stims/complex_06_A_a.gif","","","","{""Q0"":5}","[0]","","",""
"","2775.19499999471","survey-likert","161","389844","0.0-49.0","SS1618365857045","","","","","","","","","images/stimuli/spore_stims/complex_01_A_a.gif","","","","{""Q0"":4}","[0]","","",""
"","4015.509999822825","survey-likert","162","393868","0.0-50.0","SS1618365857045","","","","","","","","","images/stimuli/spore_stims/simple_13_A_a.gif","","","","{""Q0"":0}","[0]","","",""
"","2271.3550000917166","survey-likert","163","396148","0.0-51.0","SS1618365857045","","","","","","","","","images/stimuli/spore_stims/simple_17_A_a.gif","","","","{""Q0"":1}","[0]","","",""
"","2591.9349999167025","survey-likert","164","398748","0.0-52.0","SS1618365857045","","","","","","","","","images/stimuli/spore_stims/complex_19_A_a.gif","","","","{""Q0"":6}","[0]","","",""
"","2207.0150000508875","survey-likert","165","400964","0.0-53.0","SS1618365857045","","","","","","","","","images/stimuli/spore_stims/complex_11_A_a.gif","","","","{""Q0"":5}","[0]","","",""
"","2016.1000001244247","survey-likert","166","402988","0.0-54.0","SS1618365857045","","","","","","","","","images/stimuli/spore_stims/complex_17_A_b.gif","","","","{""Q0"":5}","[0]","","",""
"","2271.1550001986325","survey-likert","167","405268","0.0-55.0","SS1618365857045","","","","","","","","","images/stimuli/spore_stims/complex_12_A_a.gif","","","","{""Q0"":6}","[0]","","",""
"","3823.0999999213964","survey-likert","168","409100","0.0-56.0","SS1618365857045","","","","","","","","","images/stimuli/spore_stims/simple_20_A_b.gif","","","","{""Q0"":2}","[0]","","",""
"","2342.505000066012","survey-likert","169","411452","0.0-57.0","SS1618365857045","","","","","","","","","images/stimuli/spore_stims/simple_16_A_a.gif","","","","{""Q0"":2}","[0]","","",""
"[{""page_index"":0,""viewing_time"":2526.5199998393655}]","2526.8349999096245","instructions","170","413987","0.0-58.0","SS1618365857045","instructions","","","","","","","","","","","","","","","",""
"","2871.1600000970066","demog-age","171","416868","0.0-59.0","SS1618365857045","","","","","","","","","","","","","{""age"":""34""}","","","",""
"","3125.6049999501556","demog-ethnic-US","172","420004","0.0-60.0","SS1618365857045","","","","","","","","","","","","","{""ethnicity"":[""White""]}","[0]","","",""
"","8646.694999886677","demog-gender-and-education","173","428660","0.0-61.0","SS1618365857045","","","","","","","","","","","","","{""gender"":""Female"",""education"":""Bachelor's Degree""}","[0,1]","","",""
"","14500.204999931157","survey-text","174","443172","0.0-62.0","SS1618365857045","feedback","","","","","","","","","","","","{""Q0"":""A bit laggy, but not too much.""}","","","",""
"[{""page_index"":0,""viewing_time"":1554.994999896735}]","1555.3249998483807","instructions","175","444731","0.0-63.0","SS1618365857045","instructions","","","","","","","","","","","","","","","",""
