"view_history","rt","trial_type","trial_index","time_elapsed","internal_node_id","subject","stimulus_type","trial_stimulus","key_press","minimum_viewing_duration","trial_looking_time","block_deviant","block_background","exposure_type","stimulus","block_number","block_type","stimulus_displayed","responses","question_order","math_correct_answer","stimulus_left","stimulus_right"
"[{""page_index"":0,""viewing_time"":3544.675000011921}]","3545.094999950379","instructions","0","3546","0.0-0.0","SS1618365533580","","","","","","","","","","","","","","","","",""
"[{""page_index"":0,""viewing_time"":13501.185000059195},{""page_index"":1,""viewing_time"":2843.089999980293}]","16344.419999979436","instructions","1","21904","0.0-1.0","SS1618365533580","instructions","","","","","","","","","","","","","","","",""
"","3677.1699999226257","sequential-stimulus-presentation-old","2","26084","0.0-2.0","SS1618365533580","","","40","500","4177.169999922626","null","null","self_paced","","","","","","","","",""
"","2998.035000055097","sequential-stimulus-presentation-old","3","29583","0.0-3.0","SS1618365533580","","","40","500","3498.035000055097","null","null","self_paced","","","","","","","","",""
"[{""page_index"":0,""viewing_time"":17351.290000020526}]","17351.439999998547","instructions","4","46935","0.0-4.0","SS1618365533580","instructions","","","","","","","","","","","","","","","",""
"","2988.5050000157207","sequential-stimulus-presentation-old","5","54924","0.0-5.0","SS1618365533580","","","40","500","3488.5050000157207","null","null","forced_long","","","","","","","","",""
"","4403.279999969527","sequential-stimulus-presentation-old","6","59380","0.0-6.0","SS1618365533580","","","40","50","4453.279999969527","null","null","forced_long","","","","","","","","",""
"[{""page_index"":0,""viewing_time"":3667.295000050217}]","3667.435000068508","instructions","7","63048","0.0-7.0","SS1618365533580","instructions","","","","","","","","","","","","","","","",""
"[{""page_index"":0,""viewing_time"":7976.275000022724},{""page_index"":1,""viewing_time"":5482.360000023618},{""page_index"":2,""viewing_time"":5663.244999945164},{""page_index"":3,""viewing_time"":1493.5800000093877},{""page_index"":4,""viewing_time"":1145.4450000310317}]","21761.06000004802","instructions","8","84810","0.0-8.0","SS1618365533580","instructions","","","","","","","","","","","","","","","",""
"","null","html-keyboard-response","9","86029","0.0-9.0-0.0","SS1618365533580","","","null","","","","","","<p><img src= images/blank.png width =""600"" height = ""600"" style=""position:fixed;top:50%; left:50%; transform: translate(-50%, -50%); border:5px solid black"">","","","","","","","",""
"","5292.030000011437","sequential-stimulus-presentation-old","10","91823","0.0-9.0-1.0","SS1618365533580","trial","","40","500","5792.030000011437","images/stimuli/spore_stims/complex_06_A_b.gif","images/stimuli/spore_stims/complex_20_A_a.gif","self_paced","","0","complex_dissimilar","images/stimuli/spore_stims/complex_20_A_a.gif","","","","",""
"","null","html-keyboard-response","11","92697","0.0-9.0-0.1","SS1618365533580","","","null","","","","","","<p><img src= images/blank.png width =""600"" height = ""600"" style=""position:fixed;top:50%; left:50%; transform: translate(-50%, -50%); border:5px solid black"">","","","","","","","",""
"","12878.660000045784","sequential-stimulus-presentation-old","12","106076","0.0-9.0-1.1","SS1618365533580","trial","","40","500","13378.660000045784","images/stimuli/spore_stims/complex_06_A_b.gif","images/stimuli/spore_stims/complex_20_A_a.gif","self_paced","","0","complex_dissimilar","images/stimuli/spore_stims/complex_20_A_a.gif","","","","",""
"","null","html-keyboard-response","13","106994","0.0-9.0-0.2","SS1618365533580","","","null","","","","","","<p><img src= images/blank.png width =""600"" height = ""600"" style=""position:fixed;top:50%; left:50%; transform: translate(-50%, -50%); border:5px solid black"">","","","","","","","",""
"","3876.200000056997","sequential-stimulus-presentation-old","14","111372","0.0-9.0-1.2","SS1618365533580","trial","","40","500","4376.200000056997","images/stimuli/spore_stims/complex_06_A_b.gif","images/stimuli/spore_stims/complex_20_A_a.gif","self_paced","","0","complex_dissimilar","images/stimuli/spore_stims/complex_06_A_b.gif","","","","",""
"","null","html-keyboard-response","15","112322","0.0-9.0-0.3","SS1618365533580","","","null","","","","","","<p><img src= images/blank.png width =""600"" height = ""600"" style=""position:fixed;top:50%; left:50%; transform: translate(-50%, -50%); border:5px solid black"">","","","","","","","",""
"","4176.8450000090525","sequential-stimulus-presentation-old","16","117001","0.0-9.0-1.3","SS1618365533580","trial","","40","500","4676.8450000090525","images/stimuli/spore_stims/complex_06_A_b.gif","images/stimuli/spore_stims/complex_20_A_a.gif","self_paced","","0","complex_dissimilar","images/stimuli/spore_stims/complex_20_A_a.gif","","","","",""
"","null","html-keyboard-response","17","117887","0.0-9.0-0.4","SS1618365533580","","","null","","","","","","<p><img src= images/blank.png width =""600"" height = ""600"" style=""position:fixed;top:50%; left:50%; transform: translate(-50%, -50%); border:5px solid black"">","","","","","","","",""
"","4796.605000039563","sequential-stimulus-presentation-old","18","123185","0.0-9.0-1.4","SS1618365533580","trial","","40","500","5296.605000039563","images/stimuli/spore_stims/complex_06_A_b.gif","images/stimuli/spore_stims/complex_20_A_a.gif","self_paced","","0","complex_dissimilar","images/stimuli/spore_stims/complex_20_A_a.gif","","","","",""
"","null","html-keyboard-response","19","124010","0.0-9.0-0.5","SS1618365533580","","","null","","","","","","<p><img src= images/blank.png width =""600"" height = ""600"" style=""position:fixed;top:50%; left:50%; transform: translate(-50%, -50%); border:5px solid black"">","","","","","","","",""
"","15995.65000005532","sequential-stimulus-presentation-old","20","140507","0.0-9.0-1.5","SS1618365533580","trial","","40","500","16495.65000005532","images/stimuli/spore_stims/complex_06_A_b.gif","images/stimuli/spore_stims/complex_20_A_a.gif","self_paced","","0","complex_dissimilar","images/stimuli/spore_stims/complex_20_A_a.gif","","","","",""
"","4418.750000069849","survey-multi-choice","21","144928","0.0-10.0","SS1618365533580","math_question","","","","","","","","","","","","{""Q0"":""16""}","[0]","16","",""
"","null","html-keyboard-response","22","145736","0.0-11.0-0.0","SS1618365533580","","","null","","","","","","<p><img src= images/blank.png width =""600"" height = ""600"" style=""position:fixed;top:50%; left:50%; transform: translate(-50%, -50%); border:5px solid black"">","","","","","","","",""
"","4039.424999966286","sequential-stimulus-presentation-old","23","154778","0.0-11.0-1.0","SS1618365533580","trial","","40","500","4539.424999966286","images/stimuli/spore_stims/simple_06_A_a.gif","images/stimuli/spore_stims/simple_20_A_b.gif","forced_long","","1","simple_dissimilar","images/stimuli/spore_stims/simple_20_A_b.gif","","","","",""
"","null","html-keyboard-response","24","155669","0.0-11.0-0.1","SS1618365533580","","","null","","","","","","<p><img src= images/blank.png width =""600"" height = ""600"" style=""position:fixed;top:50%; left:50%; transform: translate(-50%, -50%); border:5px solid black"">","","","","","","","",""
"","4993.345000082627","sequential-stimulus-presentation-old","25","161164","0.0-11.0-1.1","SS1618365533580","trial","","40","500","5493.345000082627","images/stimuli/spore_stims/simple_06_A_a.gif","images/stimuli/spore_stims/simple_20_A_b.gif","forced_long","","1","simple_dissimilar","images/stimuli/spore_stims/simple_20_A_b.gif","","","","",""
"","null","html-keyboard-response","26","162337","0.0-11.0-0.2","SS1618365533580","","","null","","","","","","<p><img src= images/blank.png width =""600"" height = ""600"" style=""position:fixed;top:50%; left:50%; transform: translate(-50%, -50%); border:5px solid black"">","","","","","","","",""
"","3995.9250000538304","sequential-stimulus-presentation-old","27","166844","0.0-11.0-1.2","SS1618365533580","trial","","40","500","4495.92500005383","images/stimuli/spore_stims/simple_06_A_a.gif","images/stimuli/spore_stims/simple_20_A_b.gif","forced_long","","1","simple_dissimilar","images/stimuli/spore_stims/simple_20_A_b.gif","","","","",""
"","null","html-keyboard-response","28","167998","0.0-11.0-0.3","SS1618365533580","","","null","","","","","","<p><img src= images/blank.png width =""600"" height = ""600"" style=""position:fixed;top:50%; left:50%; transform: translate(-50%, -50%); border:5px solid black"">","","","","","","","",""
"","6008.4799999604","sequential-stimulus-presentation-old","29","174509","0.0-11.0-1.3","SS1618365533580","trial","","40","500","6508.4799999604","images/stimuli/spore_stims/simple_06_A_a.gif","images/stimuli/spore_stims/simple_20_A_b.gif","forced_long","","1","simple_dissimilar","images/stimuli/spore_stims/simple_20_A_b.gif","","","","",""
"","2847.0199999865144","survey-multi-choice","30","177357","0.0-12.0","SS1618365533580","math_question","","","","","","","","","","","","{""Q0"":""5""}","[0]","5","",""
"","null","html-keyboard-response","31","178417","0.0-13.0-0.0","SS1618365533580","","","null","","","","","","<p><img src= images/blank.png width =""600"" height = ""600"" style=""position:fixed;top:50%; left:50%; transform: translate(-50%, -50%); border:5px solid black"">","","","","","","","",""
"","999.9249998945743","sequential-stimulus-presentation-old","32","184427","0.0-13.0-1.0","SS1618365533580","trial","","40","500","1499.9249998945743","images/stimuli/spore_stims/complex_07_A_a.gif","images/stimuli/spore_stims/complex_11_A_b.gif","forced_long","","2","complex_dissimilar","images/stimuli/spore_stims/complex_11_A_b.gif","","","","",""
"","null","html-keyboard-response","33","185365","0.0-13.0-0.1","SS1618365533580","","","null","","","","","","<p><img src= images/blank.png width =""600"" height = ""600"" style=""position:fixed;top:50%; left:50%; transform: translate(-50%, -50%); border:5px solid black"">","","","","","","","",""
"","6692.9950000485405","sequential-stimulus-presentation-old","34","192560","0.0-13.0-1.1","SS1618365533580","trial","","40","500","7192.9950000485405","images/stimuli/spore_stims/complex_07_A_a.gif","images/stimuli/spore_stims/complex_11_A_b.gif","forced_long","","2","complex_dissimilar","images/stimuli/spore_stims/complex_11_A_b.gif","","","","",""
"","null","html-keyboard-response","35","193467","0.0-13.0-0.2","SS1618365533580","","","null","","","","","","<p><img src= images/blank.png width =""600"" height = ""600"" style=""position:fixed;top:50%; left:50%; transform: translate(-50%, -50%); border:5px solid black"">","","","","","","","",""
"","9524.96000006795","sequential-stimulus-presentation-old","36","203493","0.0-13.0-1.2","SS1618365533580","trial","","40","500","10024.96000006795","images/stimuli/spore_stims/complex_07_A_a.gif","images/stimuli/spore_stims/complex_11_A_b.gif","forced_long","","2","complex_dissimilar","images/stimuli/spore_stims/complex_11_A_b.gif","","","","",""
"","null","html-keyboard-response","37","204618","0.0-13.0-0.3","SS1618365533580","","","null","","","","","","<p><img src= images/blank.png width =""600"" height = ""600"" style=""position:fixed;top:50%; left:50%; transform: translate(-50%, -50%); border:5px solid black"">","","","","","","","",""
"","5750.494999927469","sequential-stimulus-presentation-old","38","210870","0.0-13.0-1.3","SS1618365533580","trial","","40","500","6250.494999927469","images/stimuli/spore_stims/complex_07_A_a.gif","images/stimuli/spore_stims/complex_11_A_b.gif","forced_long","","2","complex_dissimilar","images/stimuli/spore_stims/complex_11_A_b.gif","","","","",""
"","null","html-keyboard-response","39","211933","0.0-13.0-0.4","SS1618365533580","","","null","","","","","","<p><img src= images/blank.png width =""600"" height = ""600"" style=""position:fixed;top:50%; left:50%; transform: translate(-50%, -50%); border:5px solid black"">","","","","","","","",""
"","4129.319999949075","sequential-stimulus-presentation-old","40","216564","0.0-13.0-1.4","SS1618365533580","trial","","40","500","4629.319999949075","images/stimuli/spore_stims/complex_07_A_a.gif","images/stimuli/spore_stims/complex_11_A_b.gif","forced_long","","2","complex_dissimilar","images/stimuli/spore_stims/complex_11_A_b.gif","","","","",""
"","null","html-keyboard-response","41","217790","0.0-13.0-0.5","SS1618365533580","","","null","","","","","","<p><img src= images/blank.png width =""600"" height = ""600"" style=""position:fixed;top:50%; left:50%; transform: translate(-50%, -50%); border:5px solid black"">","","","","","","","",""
"","2732.1849999716505","sequential-stimulus-presentation-old","42","221024","0.0-13.0-1.5","SS1618365533580","trial","","40","500","3232.1849999716505","images/stimuli/spore_stims/complex_07_A_a.gif","images/stimuli/spore_stims/complex_11_A_b.gif","forced_long","","2","complex_dissimilar","images/stimuli/spore_stims/complex_07_A_a.gif","","","","",""
"","3429.759999969974","survey-multi-choice","43","224455","0.0-14.0","SS1618365533580","math_question","","","","","","","","","","","","{""Q0"":""6""}","[0]","6","",""
"","null","html-keyboard-response","44","225711","0.0-15.0-0.0","SS1618365533580","","","null","","","","","","<p><img src= images/blank.png width =""600"" height = ""600"" style=""position:fixed;top:50%; left:50%; transform: translate(-50%, -50%); border:5px solid black"">","","","","","","","",""
"","2824.7599999886006","sequential-stimulus-presentation-old","45","233554","0.0-15.0-1.0","SS1618365533580","trial","","40","500","3324.7599999886006","images/stimuli/spore_stims/simple_12_A_a.gif","images/stimuli/spore_stims/simple_13_A_b.gif","forced_long","","3","simple_dissimilar","images/stimuli/spore_stims/simple_13_A_b.gif","","","","",""
"","null","html-keyboard-response","46","234618","0.0-15.0-0.1","SS1618365533580","","","null","","","","","","<p><img src= images/blank.png width =""600"" height = ""600"" style=""position:fixed;top:50%; left:50%; transform: translate(-50%, -50%); border:5px solid black"">","","","","","","","",""
"","5074.789999984205","sequential-stimulus-presentation-old","47","240195","0.0-15.0-1.1","SS1618365533580","trial","","40","500","5574.789999984205","images/stimuli/spore_stims/simple_12_A_a.gif","images/stimuli/spore_stims/simple_13_A_b.gif","forced_long","","3","simple_dissimilar","images/stimuli/spore_stims/simple_12_A_a.gif","","","","",""
"","null","html-keyboard-response","48","241021","0.0-15.0-0.2","SS1618365533580","","","null","","","","","","<p><img src= images/blank.png width =""600"" height = ""600"" style=""position:fixed;top:50%; left:50%; transform: translate(-50%, -50%); border:5px solid black"">","","","","","","","",""
"","3613.969999947585","sequential-stimulus-presentation-old","49","245138","0.0-15.0-1.2","SS1618365533580","trial","","40","500","4113.969999947585","images/stimuli/spore_stims/simple_12_A_a.gif","images/stimuli/spore_stims/simple_13_A_b.gif","forced_long","","3","simple_dissimilar","images/stimuli/spore_stims/simple_13_A_b.gif","","","","",""
"","null","html-keyboard-response","50","246309","0.0-15.0-0.3","SS1618365533580","","","null","","","","","","<p><img src= images/blank.png width =""600"" height = ""600"" style=""position:fixed;top:50%; left:50%; transform: translate(-50%, -50%); border:5px solid black"">","","","","","","","",""
"","4194.374999962747","sequential-stimulus-presentation-old","51","251005","0.0-15.0-1.3","SS1618365533580","trial","","40","500","4694.374999962747","images/stimuli/spore_stims/simple_12_A_a.gif","images/stimuli/spore_stims/simple_13_A_b.gif","forced_long","","3","simple_dissimilar","images/stimuli/spore_stims/simple_13_A_b.gif","","","","",""
"","null","html-keyboard-response","52","251902","0.0-15.0-0.4","SS1618365533580","","","null","","","","","","<p><img src= images/blank.png width =""600"" height = ""600"" style=""position:fixed;top:50%; left:50%; transform: translate(-50%, -50%); border:5px solid black"">","","","","","","","",""
"","3463.4099999675527","sequential-stimulus-presentation-old","53","255867","0.0-15.0-1.4","SS1618365533580","trial","","40","500","3963.4099999675527","images/stimuli/spore_stims/simple_12_A_a.gif","images/stimuli/spore_stims/simple_13_A_b.gif","forced_long","","3","simple_dissimilar","images/stimuli/spore_stims/simple_13_A_b.gif","","","","",""
"","null","html-keyboard-response","54","257104","0.0-15.0-0.5","SS1618365533580","","","null","","","","","","<p><img src= images/blank.png width =""600"" height = ""600"" style=""position:fixed;top:50%; left:50%; transform: translate(-50%, -50%); border:5px solid black"">","","","","","","","",""
"","1835.4949998902157","sequential-stimulus-presentation-old","55","259442","0.0-15.0-1.5","SS1618365533580","trial","","40","500","2335.4949998902157","images/stimuli/spore_stims/simple_12_A_a.gif","images/stimuli/spore_stims/simple_13_A_b.gif","forced_long","","3","simple_dissimilar","images/stimuli/spore_stims/simple_13_A_b.gif","","","","",""
"","3647.084999945946","survey-multi-choice","56","263090","0.0-16.0","SS1618365533580","math_question","","","","","","","","","","","","{""Q0"":""16""}","[0]","16","",""
"","null","html-keyboard-response","57","264090","0.0-17.0-0.0","SS1618365533580","","","null","","","","","","<p><img src= images/blank.png width =""600"" height = ""600"" style=""position:fixed;top:50%; left:50%; transform: translate(-50%, -50%); border:5px solid black"">","","","","","","","",""
"","3434.6150000346825","sequential-stimulus-presentation-old","58","268027","0.0-17.0-1.0","SS1618365533580","trial","","40","500","3934.6150000346825","images/stimuli/spore_stims/simple_18_A_b.gif","images/stimuli/spore_stims/simple_03_A_a.gif","self_paced","","4","simple_dissimilar","images/stimuli/spore_stims/simple_03_A_a.gif","","","","",""
"","null","html-keyboard-response","59","269059","0.0-17.0-0.1","SS1618365533580","","","null","","","","","","<p><img src= images/blank.png width =""600"" height = ""600"" style=""position:fixed;top:50%; left:50%; transform: translate(-50%, -50%); border:5px solid black"">","","","","","","","",""
"","2848.8450000295416","sequential-stimulus-presentation-old","60","272411","0.0-17.0-1.1","SS1618365533580","trial","","40","500","3348.8450000295416","images/stimuli/spore_stims/simple_18_A_b.gif","images/stimuli/spore_stims/simple_03_A_a.gif","self_paced","","4","simple_dissimilar","images/stimuli/spore_stims/simple_03_A_a.gif","","","","",""
"","null","html-keyboard-response","61","273400","0.0-17.0-0.2","SS1618365533580","","","null","","","","","","<p><img src= images/blank.png width =""600"" height = ""600"" style=""position:fixed;top:50%; left:50%; transform: translate(-50%, -50%); border:5px solid black"">","","","","","","","",""
"","3553.7550000008196","sequential-stimulus-presentation-old","62","277456","0.0-17.0-1.2","SS1618365533580","trial","","40","500","4053.7550000008196","images/stimuli/spore_stims/simple_18_A_b.gif","images/stimuli/spore_stims/simple_03_A_a.gif","self_paced","","4","simple_dissimilar","images/stimuli/spore_stims/simple_03_A_a.gif","","","","",""
"","null","html-keyboard-response","63","278709","0.0-17.0-0.3","SS1618365533580","","","null","","","","","","<p><img src= images/blank.png width =""600"" height = ""600"" style=""position:fixed;top:50%; left:50%; transform: translate(-50%, -50%); border:5px solid black"">","","","","","","","",""
"","4426.905000000261","sequential-stimulus-presentation-old","64","283647","0.0-17.0-1.3","SS1618365533580","trial","","40","500","4926.905000000261","images/stimuli/spore_stims/simple_18_A_b.gif","images/stimuli/spore_stims/simple_03_A_a.gif","self_paced","","4","simple_dissimilar","images/stimuli/spore_stims/simple_03_A_a.gif","","","","",""
"","3504.4749999651685","survey-multi-choice","65","287152","0.0-18.0","SS1618365533580","math_question","","","","","","","","","","","","{""Q0"":""7""}","[0]","7","",""
"","null","html-keyboard-response","66","288244","0.0-19.0-0.0","SS1618365533580","","","null","","","","","","<p><img src= images/blank.png width =""600"" height = ""600"" style=""position:fixed;top:50%; left:50%; transform: translate(-50%, -50%); border:5px solid black"">","","","","","","","",""
"","3114.350000047125","sequential-stimulus-presentation-old","67","291860","0.0-19.0-1.0","SS1618365533580","trial","","40","500","3614.350000047125","images/stimuli/spore_stims/simple_01_A_a.gif","images/stimuli/spore_stims/simple_09_A_b.gif","self_paced","","5","simple_dissimilar","images/stimuli/spore_stims/simple_09_A_b.gif","","","","",""
"","null","html-keyboard-response","68","293070","0.0-19.0-0.1","SS1618365533580","","","null","","","","","","<p><img src= images/blank.png width =""600"" height = ""600"" style=""position:fixed;top:50%; left:50%; transform: translate(-50%, -50%); border:5px solid black"">","","","","","","","",""
"","1625.5700000328943","sequential-stimulus-presentation-old","69","295199","0.0-19.0-1.1","SS1618365533580","trial","","40","500","2125.5700000328943","images/stimuli/spore_stims/simple_01_A_a.gif","images/stimuli/spore_stims/simple_09_A_b.gif","self_paced","","5","simple_dissimilar","images/stimuli/spore_stims/simple_09_A_b.gif","","","","",""
"","null","html-keyboard-response","70","296028","0.0-19.0-0.2","SS1618365533580","","","null","","","","","","<p><img src= images/blank.png width =""600"" height = ""600"" style=""position:fixed;top:50%; left:50%; transform: translate(-50%, -50%); border:5px solid black"">","","","","","","","",""
"","1256.249999976717","sequential-stimulus-presentation-old","71","297786","0.0-19.0-1.2","SS1618365533580","trial","","40","500","1756.249999976717","images/stimuli/spore_stims/simple_01_A_a.gif","images/stimuli/spore_stims/simple_09_A_b.gif","self_paced","","5","simple_dissimilar","images/stimuli/spore_stims/simple_09_A_b.gif","","","","",""
"","null","html-keyboard-response","72","298919","0.0-19.0-0.3","SS1618365533580","","","null","","","","","","<p><img src= images/blank.png width =""600"" height = ""600"" style=""position:fixed;top:50%; left:50%; transform: translate(-50%, -50%); border:5px solid black"">","","","","","","","",""
"","2108.494999934919","sequential-stimulus-presentation-old","73","301530","0.0-19.0-1.3","SS1618365533580","trial","","40","500","2608.494999934919","images/stimuli/spore_stims/simple_01_A_a.gif","images/stimuli/spore_stims/simple_09_A_b.gif","self_paced","","5","simple_dissimilar","images/stimuli/spore_stims/simple_01_A_a.gif","","","","",""
"","2981.374999973923","survey-multi-choice","74","304512","0.0-20.0","SS1618365533580","math_question","","","","","","","","","","","","{""Q0"":""16""}","[0]","16","",""
"","null","html-keyboard-response","75","305497","0.0-21.0-0.0","SS1618365533580","","","null","","","","","","<p><img src= images/blank.png width =""600"" height = ""600"" style=""position:fixed;top:50%; left:50%; transform: translate(-50%, -50%); border:5px solid black"">","","","","","","","",""
"","3313.490000087768","sequential-stimulus-presentation-old","76","308863","0.0-21.0-1.0","SS1618365533580","trial","","40","500","3813.490000087768","images/stimuli/spore_stims/complex_10_A_a.gif","images/stimuli/spore_stims/complex_20_A_b.gif","forced_short","","6","complex_dissimilar","images/stimuli/spore_stims/complex_20_A_b.gif","","","","",""
"","null","html-keyboard-response","77","309693","0.0-21.0-0.1","SS1618365533580","","","null","","","","","","<p><img src= images/blank.png width =""600"" height = ""600"" style=""position:fixed;top:50%; left:50%; transform: translate(-50%, -50%); border:5px solid black"">","","","","","","","",""
"","6472.175000002608","sequential-stimulus-presentation-old","78","316667","0.0-21.0-1.1","SS1618365533580","trial","","40","500","6972.175000002608","images/stimuli/spore_stims/complex_10_A_a.gif","images/stimuli/spore_stims/complex_20_A_b.gif","forced_short","","6","complex_dissimilar","images/stimuli/spore_stims/complex_20_A_b.gif","","","","",""
"","null","html-keyboard-response","79","317717","0.0-21.0-0.2","SS1618365533580","","","null","","","","","","<p><img src= images/blank.png width =""600"" height = ""600"" style=""position:fixed;top:50%; left:50%; transform: translate(-50%, -50%); border:5px solid black"">","","","","","","","",""
"","5450.940000009723","sequential-stimulus-presentation-old","80","323671","0.0-21.0-1.2","SS1618365533580","trial","","40","500","5950.940000009723","images/stimuli/spore_stims/complex_10_A_a.gif","images/stimuli/spore_stims/complex_20_A_b.gif","forced_short","","6","complex_dissimilar","images/stimuli/spore_stims/complex_10_A_a.gif","","","","",""
"","null","html-keyboard-response","81","324679","0.0-21.0-0.3","SS1618365533580","","","null","","","","","","<p><img src= images/blank.png width =""600"" height = ""600"" style=""position:fixed;top:50%; left:50%; transform: translate(-50%, -50%); border:5px solid black"">","","","","","","","",""
"","3210.8050000388175","sequential-stimulus-presentation-old","82","328391","0.0-21.0-1.3","SS1618365533580","trial","","40","500","3710.8050000388175","images/stimuli/spore_stims/complex_10_A_a.gif","images/stimuli/spore_stims/complex_20_A_b.gif","forced_short","","6","complex_dissimilar","images/stimuli/spore_stims/complex_10_A_a.gif","","","","",""
"","2870.269999955781","survey-multi-choice","83","331263","0.0-22.0","SS1618365533580","math_question","","","","","","","","","","","","{""Q0"":""8""}","[0]","8","",""
"","null","html-keyboard-response","84","332321","0.0-23.0-0.0","SS1618365533580","","","null","","","","","","<p><img src= images/blank.png width =""600"" height = ""600"" style=""position:fixed;top:50%; left:50%; transform: translate(-50%, -50%); border:5px solid black"">","","","","","","","",""
"","4377.450000029057","sequential-stimulus-presentation-old","85","337201","0.0-23.0-1.0","SS1618365533580","trial","","40","500","4877.450000029057","images/stimuli/spore_stims/complex_03_A_b.gif","images/stimuli/spore_stims/complex_09_A_a.gif","self_paced","","7","complex_dissimilar","images/stimuli/spore_stims/complex_09_A_a.gif","","","","",""
"","null","html-keyboard-response","86","338510","0.0-23.0-0.1","SS1618365533580","","","null","","","","","","<p><img src= images/blank.png width =""600"" height = ""600"" style=""position:fixed;top:50%; left:50%; transform: translate(-50%, -50%); border:5px solid black"">","","","","","","","",""
"","2038.8449999736622","sequential-stimulus-presentation-old","87","341050","0.0-23.0-1.1","SS1618365533580","trial","","40","500","2538.844999973662","images/stimuli/spore_stims/complex_03_A_b.gif","images/stimuli/spore_stims/complex_09_A_a.gif","self_paced","","7","complex_dissimilar","images/stimuli/spore_stims/complex_09_A_a.gif","","","","",""
"","null","html-keyboard-response","88","341958","0.0-23.0-0.2","SS1618365533580","","","null","","","","","","<p><img src= images/blank.png width =""600"" height = ""600"" style=""position:fixed;top:50%; left:50%; transform: translate(-50%, -50%); border:5px solid black"">","","","","","","","",""
"","3946.5249999193475","sequential-stimulus-presentation-old","89","346407","0.0-23.0-1.2","SS1618365533580","trial","","40","500","4446.5249999193475","images/stimuli/spore_stims/complex_03_A_b.gif","images/stimuli/spore_stims/complex_09_A_a.gif","self_paced","","7","complex_dissimilar","images/stimuli/spore_stims/complex_03_A_b.gif","","","","",""
"","null","html-keyboard-response","90","347541","0.0-23.0-0.3","SS1618365533580","","","null","","","","","","<p><img src= images/blank.png width =""600"" height = ""600"" style=""position:fixed;top:50%; left:50%; transform: translate(-50%, -50%); border:5px solid black"">","","","","","","","",""
"","2886.2600000575185","sequential-stimulus-presentation-old","91","350929","0.0-23.0-1.3","SS1618365533580","trial","","40","500","3386.2600000575185","images/stimuli/spore_stims/complex_03_A_b.gif","images/stimuli/spore_stims/complex_09_A_a.gif","self_paced","","7","complex_dissimilar","images/stimuli/spore_stims/complex_03_A_b.gif","","","","",""
"","null","html-keyboard-response","92","352134","0.0-23.0-0.4","SS1618365533580","","","null","","","","","","<p><img src= images/blank.png width =""600"" height = ""600"" style=""position:fixed;top:50%; left:50%; transform: translate(-50%, -50%); border:5px solid black"">","","","","","","","",""
"","4080.5050000781193","sequential-stimulus-presentation-old","93","356716","0.0-23.0-1.4","SS1618365533580","trial","","40","500","4580.505000078119","images/stimuli/spore_stims/complex_03_A_b.gif","images/stimuli/spore_stims/complex_09_A_a.gif","self_paced","","7","complex_dissimilar","images/stimuli/spore_stims/complex_09_A_a.gif","","","","",""
"","null","html-keyboard-response","94","357586","0.0-23.0-0.5","SS1618365533580","","","null","","","","","","<p><img src= images/blank.png width =""600"" height = ""600"" style=""position:fixed;top:50%; left:50%; transform: translate(-50%, -50%); border:5px solid black"">","","","","","","","",""
"","1287.110000033863","sequential-stimulus-presentation-old","95","359377","0.0-23.0-1.5","SS1618365533580","trial","","40","500","1787.110000033863","images/stimuli/spore_stims/complex_03_A_b.gif","images/stimuli/spore_stims/complex_09_A_a.gif","self_paced","","7","complex_dissimilar","images/stimuli/spore_stims/complex_09_A_a.gif","","","","",""
"","3411.5149999270216","survey-multi-choice","96","362790","0.0-24.0","SS1618365533580","math_question","","","","","","","","","","","","{""Q0"":""12""}","[0]","12","",""
"","null","html-keyboard-response","97","363659","0.0-25.0-0.0","SS1618365533580","","","null","","","","","","<p><img src= images/blank.png width =""600"" height = ""600"" style=""position:fixed;top:50%; left:50%; transform: translate(-50%, -50%); border:5px solid black"">","","","","","","","",""
"","1922.164999996312","sequential-stimulus-presentation-old","98","365634","0.0-25.0-1.0","SS1618365533580","trial","","40","500","2422.164999996312","images/stimuli/spore_stims/simple_01_A_b.gif","images/stimuli/spore_stims/simple_17_A_a.gif","forced_short","","8","simple_dissimilar","images/stimuli/spore_stims/simple_17_A_a.gif","","","","",""
"","null","html-keyboard-response","99","366584","0.0-25.0-0.1","SS1618365533580","","","null","","","","","","<p><img src= images/blank.png width =""600"" height = ""600"" style=""position:fixed;top:50%; left:50%; transform: translate(-50%, -50%); border:5px solid black"">","","","","","","","",""
"","2575.609999941662","sequential-stimulus-presentation-old","100","369662","0.0-25.0-1.1","SS1618365533580","trial","","40","500","3075.609999941662","images/stimuli/spore_stims/simple_01_A_b.gif","images/stimuli/spore_stims/simple_17_A_a.gif","forced_short","","8","simple_dissimilar","images/stimuli/spore_stims/simple_01_A_b.gif","","","","",""
"","null","html-keyboard-response","101","370528","0.0-25.0-0.2","SS1618365533580","","","null","","","","","","<p><img src= images/blank.png width =""600"" height = ""600"" style=""position:fixed;top:50%; left:50%; transform: translate(-50%, -50%); border:5px solid black"">","","","","","","","",""
"","3805.930000031367","sequential-stimulus-presentation-old","102","374836","0.0-25.0-1.2","SS1618365533580","trial","","40","500","4305.930000031367","images/stimuli/spore_stims/simple_01_A_b.gif","images/stimuli/spore_stims/simple_17_A_a.gif","forced_short","","8","simple_dissimilar","images/stimuli/spore_stims/simple_01_A_b.gif","","","","",""
"","null","html-keyboard-response","103","375824","0.0-25.0-0.3","SS1618365533580","","","null","","","","","","<p><img src= images/blank.png width =""600"" height = ""600"" style=""position:fixed;top:50%; left:50%; transform: translate(-50%, -50%); border:5px solid black"">","","","","","","","",""
"","4649.949999991804","sequential-stimulus-presentation-old","104","380977","0.0-25.0-1.3","SS1618365533580","trial","","40","500","5149.949999991804","images/stimuli/spore_stims/simple_01_A_b.gif","images/stimuli/spore_stims/simple_17_A_a.gif","forced_short","","8","simple_dissimilar","images/stimuli/spore_stims/simple_17_A_a.gif","","","","",""
"","3876.454999903217","survey-multi-choice","105","384855","0.0-26.0","SS1618365533580","math_question","","","","","","","","","","","","{""Q0"":""12""}","[0]","12","",""
"","null","html-keyboard-response","106","385863","0.0-27.0-0.0","SS1618365533580","","","null","","","","","","<p><img src= images/blank.png width =""600"" height = ""600"" style=""position:fixed;top:50%; left:50%; transform: translate(-50%, -50%); border:5px solid black"">","","","","","","","",""
"","581.279999925755","sequential-stimulus-presentation-old","107","386497","0.0-27.0-1.0","SS1618365533580","trial","","40","500","1081.279999925755","images/stimuli/spore_stims/complex_07_A_b.gif","images/stimuli/spore_stims/complex_15_A_a.gif","forced_short","","9","complex_dissimilar","images/stimuli/spore_stims/complex_15_A_a.gif","","","","",""
"","null","html-keyboard-response","108","387527","0.0-27.0-0.1","SS1618365533580","","","null","","","","","","<p><img src= images/blank.png width =""600"" height = ""600"" style=""position:fixed;top:50%; left:50%; transform: translate(-50%, -50%); border:5px solid black"">","","","","","","","",""
"","2944.569999934174","sequential-stimulus-presentation-old","109","390974","0.0-27.0-1.1","SS1618365533580","trial","","40","500","3444.569999934174","images/stimuli/spore_stims/complex_07_A_b.gif","images/stimuli/spore_stims/complex_15_A_a.gif","forced_short","","9","complex_dissimilar","images/stimuli/spore_stims/complex_15_A_a.gif","","","","",""
"","null","html-keyboard-response","110","392248","0.0-27.0-0.2","SS1618365533580","","","null","","","","","","<p><img src= images/blank.png width =""600"" height = ""600"" style=""position:fixed;top:50%; left:50%; transform: translate(-50%, -50%); border:5px solid black"">","","","","","","","",""
"","420.6099999137223","sequential-stimulus-presentation-old","111","393171","0.0-27.0-1.2","SS1618365533580","trial","","40","500","920.6099999137223","images/stimuli/spore_stims/complex_07_A_b.gif","images/stimuli/spore_stims/complex_15_A_a.gif","forced_short","","9","complex_dissimilar","images/stimuli/spore_stims/complex_15_A_a.gif","","","","",""
"","null","html-keyboard-response","112","394299","0.0-27.0-0.3","SS1618365533580","","","null","","","","","","<p><img src= images/blank.png width =""600"" height = ""600"" style=""position:fixed;top:50%; left:50%; transform: translate(-50%, -50%); border:5px solid black"">","","","","","","","",""
"","832.4150000698864","sequential-stimulus-presentation-old","113","395634","0.0-27.0-1.3","SS1618365533580","trial","","40","500","1332.4150000698864","images/stimuli/spore_stims/complex_07_A_b.gif","images/stimuli/spore_stims/complex_15_A_a.gif","forced_short","","9","complex_dissimilar","images/stimuli/spore_stims/complex_15_A_a.gif","","","","",""
"","null","html-keyboard-response","114","396901","0.0-27.0-0.4","SS1618365533580","","","null","","","","","","<p><img src= images/blank.png width =""600"" height = ""600"" style=""position:fixed;top:50%; left:50%; transform: translate(-50%, -50%); border:5px solid black"">","","","","","","","",""
"","1942.1650000149384","sequential-stimulus-presentation-old","115","399346","0.0-27.0-1.4","SS1618365533580","trial","","40","500","2442.1650000149384","images/stimuli/spore_stims/complex_07_A_b.gif","images/stimuli/spore_stims/complex_15_A_a.gif","forced_short","","9","complex_dissimilar","images/stimuli/spore_stims/complex_15_A_a.gif","","","","",""
"","null","html-keyboard-response","116","400254","0.0-27.0-0.5","SS1618365533580","","","null","","","","","","<p><img src= images/blank.png width =""600"" height = ""600"" style=""position:fixed;top:50%; left:50%; transform: translate(-50%, -50%); border:5px solid black"">","","","","","","","",""
"","2960.4550000512972","sequential-stimulus-presentation-old","117","403725","0.0-27.0-1.5","SS1618365533580","trial","","40","500","3460.4550000512972","images/stimuli/spore_stims/complex_07_A_b.gif","images/stimuli/spore_stims/complex_15_A_a.gif","forced_short","","9","complex_dissimilar","images/stimuli/spore_stims/complex_07_A_b.gif","","","","",""
"","3170.750000048429","survey-multi-choice","118","406897","0.0-28.0","SS1618365533580","math_question","","","","","","","","","","","","{""Q0"":""9""}","[0]","9","",""
"","null","html-keyboard-response","119","407872","0.0-29.0-0.0","SS1618365533580","","","null","","","","","","<p><img src= images/blank.png width =""600"" height = ""600"" style=""position:fixed;top:50%; left:50%; transform: translate(-50%, -50%); border:5px solid black"">","","","","","","","",""
"","651.9949999637902","sequential-stimulus-presentation-old","120","413539","0.0-29.0-1.0","SS1618365533580","trial","","40","500","1151.9949999637902","images/stimuli/spore_stims/complex_13_A_b.gif","images/stimuli/spore_stims/complex_02_A_a.gif","forced_long","","10","complex_dissimilar","images/stimuli/spore_stims/complex_02_A_a.gif","","","","",""
"","null","html-keyboard-response","121","414731","0.0-29.0-0.1","SS1618365533580","","","null","","","","","","<p><img src= images/blank.png width =""600"" height = ""600"" style=""position:fixed;top:50%; left:50%; transform: translate(-50%, -50%); border:5px solid black"">","","","","","","","",""
"","1466.0350000485778","sequential-stimulus-presentation-old","122","416699","0.0-29.0-1.1","SS1618365533580","trial","","40","500","1966.0350000485778","images/stimuli/spore_stims/complex_13_A_b.gif","images/stimuli/spore_stims/complex_02_A_a.gif","forced_long","","10","complex_dissimilar","images/stimuli/spore_stims/complex_02_A_a.gif","","","","",""
"","null","html-keyboard-response","123","417869","0.0-29.0-0.2","SS1618365533580","","","null","","","","","","<p><img src= images/blank.png width =""600"" height = ""600"" style=""position:fixed;top:50%; left:50%; transform: translate(-50%, -50%); border:5px solid black"">","","","","","","","",""
"","2308.1900000106543","sequential-stimulus-presentation-old","124","420680","0.0-29.0-1.2","SS1618365533580","trial","","40","500","2808.1900000106543","images/stimuli/spore_stims/complex_13_A_b.gif","images/stimuli/spore_stims/complex_02_A_a.gif","forced_long","","10","complex_dissimilar","images/stimuli/spore_stims/complex_13_A_b.gif","","","","",""
"","null","html-keyboard-response","125","421857","0.0-29.0-0.3","SS1618365533580","","","null","","","","","","<p><img src= images/blank.png width =""600"" height = ""600"" style=""position:fixed;top:50%; left:50%; transform: translate(-50%, -50%); border:5px solid black"">","","","","","","","",""
"","2195.3600000124425","sequential-stimulus-presentation-old","126","424562","0.0-29.0-1.3","SS1618365533580","trial","","40","500","2695.3600000124425","images/stimuli/spore_stims/complex_13_A_b.gif","images/stimuli/spore_stims/complex_02_A_a.gif","forced_long","","10","complex_dissimilar","images/stimuli/spore_stims/complex_02_A_a.gif","","","","",""
"","null","html-keyboard-response","127","425771","0.0-29.0-0.4","SS1618365533580","","","null","","","","","","<p><img src= images/blank.png width =""600"" height = ""600"" style=""position:fixed;top:50%; left:50%; transform: translate(-50%, -50%); border:5px solid black"">","","","","","","","",""
"","2804.7699999297038","sequential-stimulus-presentation-old","128","429078","0.0-29.0-1.4","SS1618365533580","trial","","40","500","3304.7699999297038","images/stimuli/spore_stims/complex_13_A_b.gif","images/stimuli/spore_stims/complex_02_A_a.gif","forced_long","","10","complex_dissimilar","images/stimuli/spore_stims/complex_13_A_b.gif","","","","",""
"","null","html-keyboard-response","129","430254","0.0-29.0-0.5","SS1618365533580","","","null","","","","","","<p><img src= images/blank.png width =""600"" height = ""600"" style=""position:fixed;top:50%; left:50%; transform: translate(-50%, -50%); border:5px solid black"">","","","","","","","",""
"","4083.4800000302494","sequential-stimulus-presentation-old","130","434843","0.0-29.0-1.5","SS1618365533580","trial","","40","500","4583.480000030249","images/stimuli/spore_stims/complex_13_A_b.gif","images/stimuli/spore_stims/complex_02_A_a.gif","forced_long","","10","complex_dissimilar","images/stimuli/spore_stims/complex_02_A_a.gif","","","","",""
"","4564.080000040121","survey-multi-choice","131","439409","0.0-30.0","SS1618365533580","math_question","","","","","","","","","","","","{""Q0"":""17""}","[0]","17","",""
"","null","html-keyboard-response","132","440229","0.0-31.0-0.0","SS1618365533580","","","null","","","","","","<p><img src= images/blank.png width =""600"" height = ""600"" style=""position:fixed;top:50%; left:50%; transform: translate(-50%, -50%); border:5px solid black"">","","","","","","","",""
"","837.790000019595","sequential-stimulus-presentation-old","133","441120","0.0-31.0-1.0","SS1618365533580","trial","","40","500","1337.790000019595","images/stimuli/spore_stims/simple_20_A_a.gif","images/stimuli/spore_stims/simple_05_A_b.gif","forced_short","","11","simple_dissimilar","images/stimuli/spore_stims/simple_05_A_b.gif","","","","",""
"","null","html-keyboard-response","134","442384","0.0-31.0-0.1","SS1618365533580","","","null","","","","","","<p><img src= images/blank.png width =""600"" height = ""600"" style=""position:fixed;top:50%; left:50%; transform: translate(-50%, -50%); border:5px solid black"">","","","","","","","",""
"","1922.205000068061","sequential-stimulus-presentation-old","135","444809","0.0-31.0-1.1","SS1618365533580","trial","","40","500","2422.205000068061","images/stimuli/spore_stims/simple_20_A_a.gif","images/stimuli/spore_stims/simple_05_A_b.gif","forced_short","","11","simple_dissimilar","images/stimuli/spore_stims/simple_20_A_a.gif","","","","",""
"","null","html-keyboard-response","136","445848","0.0-31.0-0.2","SS1618365533580","","","null","","","","","","<p><img src= images/blank.png width =""600"" height = ""600"" style=""position:fixed;top:50%; left:50%; transform: translate(-50%, -50%); border:5px solid black"">","","","","","","","",""
"","4009.955000015907","sequential-stimulus-presentation-old","137","450366","0.0-31.0-1.2","SS1618365533580","trial","","40","500","4509.955000015907","images/stimuli/spore_stims/simple_20_A_a.gif","images/stimuli/spore_stims/simple_05_A_b.gif","forced_short","","11","simple_dissimilar","images/stimuli/spore_stims/simple_05_A_b.gif","","","","",""
"","null","html-keyboard-response","138","451292","0.0-31.0-0.3","SS1618365533580","","","null","","","","","","<p><img src= images/blank.png width =""600"" height = ""600"" style=""position:fixed;top:50%; left:50%; transform: translate(-50%, -50%); border:5px solid black"">","","","","","","","",""
"","6349.644999951124","sequential-stimulus-presentation-old","139","458147","0.0-31.0-1.3","SS1618365533580","trial","","40","500","6849.644999951124","images/stimuli/spore_stims/simple_20_A_a.gif","images/stimuli/spore_stims/simple_05_A_b.gif","forced_short","","11","simple_dissimilar","images/stimuli/spore_stims/simple_05_A_b.gif","","","","",""
"","null","html-keyboard-response","140","459421","0.0-31.0-0.4","SS1618365533580","","","null","","","","","","<p><img src= images/blank.png width =""600"" height = ""600"" style=""position:fixed;top:50%; left:50%; transform: translate(-50%, -50%); border:5px solid black"">","","","","","","","",""
"","3141.855000052601","sequential-stimulus-presentation-old","141","463070","0.0-31.0-1.4","SS1618365533580","trial","","40","500","3641.855000052601","images/stimuli/spore_stims/simple_20_A_a.gif","images/stimuli/spore_stims/simple_05_A_b.gif","forced_short","","11","simple_dissimilar","images/stimuli/spore_stims/simple_05_A_b.gif","","","","",""
"","null","html-keyboard-response","142","463931","0.0-31.0-0.5","SS1618365533580","","","null","","","","","","<p><img src= images/blank.png width =""600"" height = ""600"" style=""position:fixed;top:50%; left:50%; transform: translate(-50%, -50%); border:5px solid black"">","","","","","","","",""
"","3388.6299999430776","sequential-stimulus-presentation-old","143","467822","0.0-31.0-1.5","SS1618365533580","trial","","40","500","3888.6299999430776","images/stimuli/spore_stims/simple_20_A_a.gif","images/stimuli/spore_stims/simple_05_A_b.gif","forced_short","","11","simple_dissimilar","images/stimuli/spore_stims/simple_05_A_b.gif","","","","",""
"[{""page_index"":0,""viewing_time"":4429.5299999648705}]","4429.680000059307","instructions","144","472253","0.0-32.0","SS1618365533580","instructions","","","","","","","","","","","","","","","",""
"","5036.28999995999","survey-likert","145","477292","0.0-33.0","SS1618365533580","similarity_question","","","","","","","","","","","","{""Q0"":5}","[0]","","images/stimuli/spore_stims/simple_20_A_b.gif","images/stimuli/spore_stims/simple_06_A_a.gif"
"","3520.524999941699","survey-likert","146","480815","0.0-34.0","SS1618365533580","similarity_question","","","","","","","","","","","","{""Q0"":4}","[0]","","images/stimuli/spore_stims/simple_18_A_b.gif","images/stimuli/spore_stims/simple_03_A_a.gif"
"","6115.259999991395","survey-likert","147","486933","0.0-35.0","SS1618365533580","similarity_question","","","","","","","","","","","","{""Q0"":5}","[0]","","images/stimuli/spore_stims/complex_07_A_b.gif","images/stimuli/spore_stims/complex_15_A_a.gif"
"","5455.835000029765","survey-likert","148","492391","0.0-36.0","SS1618365533580","similarity_question","","","","","","","","","","","","{""Q0"":3}","[0]","","images/stimuli/spore_stims/complex_03_A_b.gif","images/stimuli/spore_stims/complex_09_A_a.gif"
"","4738.175000064075","survey-likert","149","497132","0.0-37.0","SS1618365533580","similarity_question","","","","","","","","","","","","{""Q0"":4}","[0]","","images/stimuli/spore_stims/simple_05_A_b.gif","images/stimuli/spore_stims/simple_20_A_a.gif"
"","6478.199999895878","survey-likert","150","503612","0.0-38.0","SS1618365533580","similarity_question","","","","","","","","","","","","{""Q0"":5}","[0]","","images/stimuli/spore_stims/complex_06_A_b.gif","images/stimuli/spore_stims/complex_20_A_a.gif"
"","3650.4350000759587","survey-likert","151","507266","0.0-39.0","SS1618365533580","similarity_question","","","","","","","","","","","","{""Q0"":5}","[0]","","images/stimuli/spore_stims/simple_13_A_b.gif","images/stimuli/spore_stims/simple_12_A_a.gif"
"","4078.785000019707","survey-likert","152","511347","0.0-40.0","SS1618365533580","similarity_question","","","","","","","","","","","","{""Q0"":5}","[0]","","images/stimuli/spore_stims/complex_13_A_b.gif","images/stimuli/spore_stims/complex_02_A_a.gif"
"","5346.82000009343","survey-likert","153","516696","0.0-41.0","SS1618365533580","similarity_question","","","","","","","","","","","","{""Q0"":5}","[0]","","images/stimuli/spore_stims/simple_09_A_b.gif","images/stimuli/spore_stims/simple_01_A_a.gif"
"","2186.960000079125","survey-likert","154","518885","0.0-42.0","SS1618365533580","similarity_question","","","","","","","","","","","","{""Q0"":5}","[0]","","images/stimuli/spore_stims/complex_10_A_a.gif","images/stimuli/spore_stims/complex_20_A_b.gif"
"","3476.6649999655783","survey-likert","155","522365","0.0-43.0","SS1618365533580","similarity_question","","","","","","","","","","","","{""Q0"":5}","[0]","","images/stimuli/spore_stims/complex_07_A_a.gif","images/stimuli/spore_stims/complex_11_A_b.gif"
"","4158.350000041537","survey-likert","156","526525","0.0-44.0","SS1618365533580","similarity_question","","","","","","","","","","","","{""Q0"":4}","[0]","","images/stimuli/spore_stims/simple_01_A_b.gif","images/stimuli/spore_stims/simple_17_A_a.gif"
"[{""page_index"":0,""viewing_time"":4238.415000028908}]","4238.580000004731","instructions","157","530766","0.0-45.0","SS1618365533580","instructions","","","","","","","","","","","","","","","",""
"","6681.319999974221","survey-likert","158","537450","0.0-46.0","SS1618365533580","","","","","","","","","images/stimuli/spore_stims/complex_11_A_b.gif","","","","{""Q0"":6}","[0]","","",""
"","3426.0850000428036","survey-likert","159","540878","0.0-47.0","SS1618365533580","","","","","","","","","images/stimuli/spore_stims/simple_12_A_a.gif","","","","{""Q0"":1}","[0]","","",""
"","2165.350000024773","survey-likert","160","543046","0.0-48.0","SS1618365533580","","","","","","","","","images/stimuli/spore_stims/complex_20_A_b.gif","","","","{""Q0"":6}","[0]","","",""
"","2607.0299999555573","survey-likert","161","545655","0.0-49.0","SS1618365533580","","","","","","","","","images/stimuli/spore_stims/simple_17_A_a.gif","","","","{""Q0"":1}","[0]","","",""
"","2157.3499999940395","survey-likert","162","547815","0.0-50.0","SS1618365533580","","","","","","","","","images/stimuli/spore_stims/complex_03_A_b.gif","","","","{""Q0"":6}","[0]","","",""
"","2005.6749999057502","survey-likert","163","549823","0.0-51.0","SS1618365533580","","","","","","","","","images/stimuli/spore_stims/complex_06_A_b.gif","","","","{""Q0"":6}","[0]","","",""
"","2135.5550000444055","survey-likert","164","551962","0.0-52.0","SS1618365533580","","","","","","","","","images/stimuli/spore_stims/simple_18_A_b.gif","","","","{""Q0"":0}","[0]","","",""
"","1947.2199999727309","survey-likert","165","553911","0.0-53.0","SS1618365533580","","","","","","","","","images/stimuli/spore_stims/simple_09_A_b.gif","","","","{""Q0"":1}","[0]","","",""
"","4288.874999969266","survey-likert","166","558202","0.0-54.0","SS1618365533580","","","","","","","","","images/stimuli/spore_stims/complex_02_A_a.gif","","","","{""Q0"":5}","[0]","","",""
"","2584.9750000052154","survey-likert","167","560790","0.0-55.0","SS1618365533580","","","","","","","","","images/stimuli/spore_stims/simple_06_A_a.gif","","","","{""Q0"":0}","[0]","","",""
"","2570.560000021942","survey-likert","168","563363","0.0-56.0","SS1618365533580","","","","","","","","","images/stimuli/spore_stims/simple_20_A_a.gif","","","","{""Q0"":1}","[0]","","",""
"","1990.819999948144","survey-likert","169","565356","0.0-57.0","SS1618365533580","","","","","","","","","images/stimuli/spore_stims/complex_15_A_a.gif","","","","{""Q0"":6}","[0]","","",""
"[{""page_index"":0,""viewing_time"":2918.3199999388307}]","2918.4799999929965","instructions","170","568277","0.0-58.0","SS1618365533580","instructions","","","","","","","","","","","","","","","",""
"","2251.52499997057","demog-age","171","570531","0.0-59.0","SS1618365533580","","","","","","","","","","","","","{""age"":""23""}","","","",""
"","2374.1650000447407","demog-ethnic-US","172","572909","0.0-60.0","SS1618365533580","","","","","","","","","","","","","{""ethnicity"":[""White""]}","[0]","","",""
"","4214.904999942519","demog-gender-and-education","173","577127","0.0-61.0","SS1618365533580","","","","","","","","","","","","","{""gender"":""Male"",""education"":""Master's Degree""}","[0,1]","","",""
"","5135.865000076592","survey-text","174","582266","0.0-62.0","SS1618365533580","feedback","","","","","","","","","","","","{""Q0"":""No""}","","","",""
"[{""page_index"":0,""viewing_time"":1635.8499999623746}]","1635.9849999425933","instructions","175","583903","0.0-63.0","SS1618365533580","instructions","","","","","","","","","","","","","","","",""
