"view_history","rt","trial_type","trial_index","time_elapsed","internal_node_id","subject","stimulus_type","trial_stimulus","key_press","minimum_viewing_duration","trial_looking_time","block_deviant","block_background","exposure_type","stimulus","block_number","block_type","stimulus_displayed","responses","question_order","math_correct_answer","stimulus_left","stimulus_right"
"[{""page_index"":0,""viewing_time"":12839}]","12840","instructions","0","12844","0.0-0.0","SS1618435635217","","","","","","","","","","","","","","","","",""
"[{""page_index"":0,""viewing_time"":17179},{""page_index"":1,""viewing_time"":4909}]","22089","instructions","1","36939","0.0-1.0","SS1618435635217","instructions","","","","","","","","","","","","","","","",""
"","4868","sequential-stimulus-presentation-old","2","42318","0.0-2.0","SS1618435635217","","","40","500","5368","null","null","self_paced","","","","","","","","",""
"","3730","sequential-stimulus-presentation-old","3","46562","0.0-3.0","SS1618435635217","","","40","500","4230","null","null","self_paced","","","","","","","","",""
"[{""page_index"":0,""viewing_time"":18121}]","18121","instructions","4","64685","0.0-4.0","SS1618435635217","instructions","","","","","","","","","","","","","","","",""
"","1194","sequential-stimulus-presentation-old","5","70887","0.0-5.0","SS1618435635217","","","40","500","1694","null","null","forced_long","","","","","","","","",""
"","2907","sequential-stimulus-presentation-old","6","73857","0.0-6.0","SS1618435635217","","","40","50","2957","null","null","forced_long","","","","","","","","",""
"[{""page_index"":0,""viewing_time"":2997}]","2997","instructions","7","76855","0.0-7.0","SS1618435635217","instructions","","","","","","","","","","","","","","","",""
"[{""page_index"":0,""viewing_time"":13161},{""page_index"":1,""viewing_time"":6857},{""page_index"":2,""viewing_time"":5165},{""page_index"":3,""viewing_time"":1171},{""page_index"":4,""viewing_time"":1133}]","27487","instructions","8","104343","0.0-8.0","SS1618435635217","instructions","","","","","","","","","","","","","","","",""
"","null","html-keyboard-response","9","105347","0.0-9.0-0.0","SS1618435635217","","","null","","","","","","<p><img src= images/blank.png width =""600"" height = ""600"" style=""position:fixed;top:50%; left:50%; transform: translate(-50%, -50%); border:5px solid black"">","","","","","","","",""
"","1007","sequential-stimulus-presentation-old","10","106418","0.0-9.0-1.0","SS1618435635217","trial","","40","500","1507","images/stimuli/spore_stims/simple_02_A_a.gif","images/stimuli/spore_stims/simple_07_A_b.gif","forced_short","","0","simple_dissimilar","images/stimuli/spore_stims/simple_07_A_b.gif","","","","",""
"","null","html-keyboard-response","11","107253","0.0-9.0-0.1","SS1618435635217","","","null","","","","","","<p><img src= images/blank.png width =""600"" height = ""600"" style=""position:fixed;top:50%; left:50%; transform: translate(-50%, -50%); border:5px solid black"">","","","","","","","",""
"","26577","sequential-stimulus-presentation-old","12","134341","0.0-9.0-1.1","SS1618435635217","trial","","40","500","27077","images/stimuli/spore_stims/simple_02_A_a.gif","images/stimuli/spore_stims/simple_07_A_b.gif","forced_short","","0","simple_dissimilar","images/stimuli/spore_stims/simple_07_A_b.gif","","","","",""
"","null","html-keyboard-response","13","135568","0.0-9.0-0.2","SS1618435635217","","","null","","","","","","<p><img src= images/blank.png width =""600"" height = ""600"" style=""position:fixed;top:50%; left:50%; transform: translate(-50%, -50%); border:5px solid black"">","","","","","","","",""
"","12970","sequential-stimulus-presentation-old","14","149054","0.0-9.0-1.2","SS1618435635217","trial","","40","500","13470","images/stimuli/spore_stims/simple_02_A_a.gif","images/stimuli/spore_stims/simple_07_A_b.gif","forced_short","","0","simple_dissimilar","images/stimuli/spore_stims/simple_07_A_b.gif","","","","",""
"","null","html-keyboard-response","15","150149","0.0-9.0-0.3","SS1618435635217","","","null","","","","","","<p><img src= images/blank.png width =""600"" height = ""600"" style=""position:fixed;top:50%; left:50%; transform: translate(-50%, -50%); border:5px solid black"">","","","","","","","",""
"","2808","sequential-stimulus-presentation-old","16","153474","0.0-9.0-1.3","SS1618435635217","trial","","40","500","3308","images/stimuli/spore_stims/simple_02_A_a.gif","images/stimuli/spore_stims/simple_07_A_b.gif","forced_short","","0","simple_dissimilar","images/stimuli/spore_stims/simple_07_A_b.gif","","","","",""
"","3659","survey-multi-choice","17","157137","0.0-10.0","SS1618435635217","math_question","","","","","","","","","","","","{""Q0"":""8""}","[0]","8","",""
"","null","html-keyboard-response","18","158351","0.0-11.0-0.0","SS1618435635217","","","null","","","","","","<p><img src= images/blank.png width =""600"" height = ""600"" style=""position:fixed;top:50%; left:50%; transform: translate(-50%, -50%); border:5px solid black"">","","","","","","","",""
"","1034","sequential-stimulus-presentation-old","19","164393","0.0-11.0-1.0","SS1618435635217","trial","","40","500","1534","images/stimuli/spore_stims/simple_16_A_b.gif","images/stimuli/spore_stims/simple_07_A_a.gif","forced_long","","1","simple_dissimilar","images/stimuli/spore_stims/simple_07_A_a.gif","","","","",""
"","null","html-keyboard-response","20","165288","0.0-11.0-0.1","SS1618435635217","","","null","","","","","","<p><img src= images/blank.png width =""600"" height = ""600"" style=""position:fixed;top:50%; left:50%; transform: translate(-50%, -50%); border:5px solid black"">","","","","","","","",""
"","2970","sequential-stimulus-presentation-old","21","168774","0.0-11.0-1.1","SS1618435635217","trial","","40","500","3470","images/stimuli/spore_stims/simple_16_A_b.gif","images/stimuli/spore_stims/simple_07_A_a.gif","forced_long","","1","simple_dissimilar","images/stimuli/spore_stims/simple_07_A_a.gif","","","","",""
"","null","html-keyboard-response","22","169739","0.0-11.0-0.2","SS1618435635217","","","null","","","","","","<p><img src= images/blank.png width =""600"" height = ""600"" style=""position:fixed;top:50%; left:50%; transform: translate(-50%, -50%); border:5px solid black"">","","","","","","","",""
"","2238","sequential-stimulus-presentation-old","23","172494","0.0-11.0-1.2","SS1618435635217","trial","","40","500","2738","images/stimuli/spore_stims/simple_16_A_b.gif","images/stimuli/spore_stims/simple_07_A_a.gif","forced_long","","1","simple_dissimilar","images/stimuli/spore_stims/simple_07_A_a.gif","","","","",""
"","null","html-keyboard-response","24","173338","0.0-11.0-0.3","SS1618435635217","","","null","","","","","","<p><img src= images/blank.png width =""600"" height = ""600"" style=""position:fixed;top:50%; left:50%; transform: translate(-50%, -50%); border:5px solid black"">","","","","","","","",""
"","2463","sequential-stimulus-presentation-old","25","176318","0.0-11.0-1.3","SS1618435635217","trial","","40","500","2963","images/stimuli/spore_stims/simple_16_A_b.gif","images/stimuli/spore_stims/simple_07_A_a.gif","forced_long","","1","simple_dissimilar","images/stimuli/spore_stims/simple_07_A_a.gif","","","","",""
"","null","html-keyboard-response","26","177241","0.0-11.0-0.4","SS1618435635217","","","null","","","","","","<p><img src= images/blank.png width =""600"" height = ""600"" style=""position:fixed;top:50%; left:50%; transform: translate(-50%, -50%); border:5px solid black"">","","","","","","","",""
"","2950","sequential-stimulus-presentation-old","27","180708","0.0-11.0-1.4","SS1618435635217","trial","","40","500","3450","images/stimuli/spore_stims/simple_16_A_b.gif","images/stimuli/spore_stims/simple_07_A_a.gif","forced_long","","1","simple_dissimilar","images/stimuli/spore_stims/simple_16_A_b.gif","","","","",""
"","2591","survey-multi-choice","28","183302","0.0-12.0","SS1618435635217","math_question","","","","","","","","","","","","{""Q0"":""12""}","[0]","12","",""
"","null","html-keyboard-response","29","184406","0.0-13.0-0.0","SS1618435635217","","","null","","","","","","<p><img src= images/blank.png width =""600"" height = ""600"" style=""position:fixed;top:50%; left:50%; transform: translate(-50%, -50%); border:5px solid black"">","","","","","","","",""
"","2266","sequential-stimulus-presentation-old","30","187187","0.0-13.0-1.0","SS1618435635217","trial","","40","500","2766","images/stimuli/spore_stims/complex_04_A_b.gif","images/stimuli/spore_stims/complex_20_A_a.gif","self_paced","","2","complex_dissimilar","images/stimuli/spore_stims/complex_20_A_a.gif","","","","",""
"","null","html-keyboard-response","31","188023","0.0-13.0-0.1","SS1618435635217","","","null","","","","","","<p><img src= images/blank.png width =""600"" height = ""600"" style=""position:fixed;top:50%; left:50%; transform: translate(-50%, -50%); border:5px solid black"">","","","","","","","",""
"","3680","sequential-stimulus-presentation-old","32","192217","0.0-13.0-1.1","SS1618435635217","trial","","40","500","4180","images/stimuli/spore_stims/complex_04_A_b.gif","images/stimuli/spore_stims/complex_20_A_a.gif","self_paced","","2","complex_dissimilar","images/stimuli/spore_stims/complex_20_A_a.gif","","","","",""
"","null","html-keyboard-response","33","193212","0.0-13.0-0.2","SS1618435635217","","","null","","","","","","<p><img src= images/blank.png width =""600"" height = ""600"" style=""position:fixed;top:50%; left:50%; transform: translate(-50%, -50%); border:5px solid black"">","","","","","","","",""
"","2424","sequential-stimulus-presentation-old","34","196152","0.0-13.0-1.2","SS1618435635217","trial","","40","500","2924","images/stimuli/spore_stims/complex_04_A_b.gif","images/stimuli/spore_stims/complex_20_A_a.gif","self_paced","","2","complex_dissimilar","images/stimuli/spore_stims/complex_20_A_a.gif","","","","",""
"","null","html-keyboard-response","35","197153","0.0-13.0-0.3","SS1618435635217","","","null","","","","","","<p><img src= images/blank.png width =""600"" height = ""600"" style=""position:fixed;top:50%; left:50%; transform: translate(-50%, -50%); border:5px solid black"">","","","","","","","",""
"","1037","sequential-stimulus-presentation-old","36","198707","0.0-13.0-1.3","SS1618435635217","trial","","40","500","1537","images/stimuli/spore_stims/complex_04_A_b.gif","images/stimuli/spore_stims/complex_20_A_a.gif","self_paced","","2","complex_dissimilar","images/stimuli/spore_stims/complex_20_A_a.gif","","","","",""
"","null","html-keyboard-response","37","200005","0.0-13.0-0.4","SS1618435635217","","","null","","","","","","<p><img src= images/blank.png width =""600"" height = ""600"" style=""position:fixed;top:50%; left:50%; transform: translate(-50%, -50%); border:5px solid black"">","","","","","","","",""
"","1687","sequential-stimulus-presentation-old","38","202211","0.0-13.0-1.4","SS1618435635217","trial","","40","500","2187","images/stimuli/spore_stims/complex_04_A_b.gif","images/stimuli/spore_stims/complex_20_A_a.gif","self_paced","","2","complex_dissimilar","images/stimuli/spore_stims/complex_04_A_b.gif","","","","",""
"","2242","survey-multi-choice","39","204459","0.0-14.0","SS1618435635217","math_question","","","","","","","","","","","","{""Q0"":""12""}","[0]","12","",""
"","null","html-keyboard-response","40","205502","0.0-15.0-0.0","SS1618435635217","","","null","","","","","","<p><img src= images/blank.png width =""600"" height = ""600"" style=""position:fixed;top:50%; left:50%; transform: translate(-50%, -50%); border:5px solid black"">","","","","","","","",""
"","1068","sequential-stimulus-presentation-old","41","206633","0.0-15.0-1.0","SS1618435635217","trial","","40","500","1568","images/stimuli/spore_stims/complex_04_A_a.gif","images/stimuli/spore_stims/complex_16_A_b.gif","forced_short","","3","complex_dissimilar","images/stimuli/spore_stims/complex_16_A_b.gif","","","","",""
"","null","html-keyboard-response","42","207542","0.0-15.0-0.1","SS1618435635217","","","null","","","","","","<p><img src= images/blank.png width =""600"" height = ""600"" style=""position:fixed;top:50%; left:50%; transform: translate(-50%, -50%); border:5px solid black"">","","","","","","","",""
"","1961","sequential-stimulus-presentation-old","43","210018","0.0-15.0-1.1","SS1618435635217","trial","","40","500","2461","images/stimuli/spore_stims/complex_04_A_a.gif","images/stimuli/spore_stims/complex_16_A_b.gif","forced_short","","3","complex_dissimilar","images/stimuli/spore_stims/complex_16_A_b.gif","","","","",""
"","null","html-keyboard-response","44","211253","0.0-15.0-0.2","SS1618435635217","","","null","","","","","","<p><img src= images/blank.png width =""600"" height = ""600"" style=""position:fixed;top:50%; left:50%; transform: translate(-50%, -50%); border:5px solid black"">","","","","","","","",""
"","1414","sequential-stimulus-presentation-old","45","213181","0.0-15.0-1.2","SS1618435635217","trial","","40","500","1914","images/stimuli/spore_stims/complex_04_A_a.gif","images/stimuli/spore_stims/complex_16_A_b.gif","forced_short","","3","complex_dissimilar","images/stimuli/spore_stims/complex_16_A_b.gif","","","","",""
"","null","html-keyboard-response","46","214118","0.0-15.0-0.3","SS1618435635217","","","null","","","","","","<p><img src= images/blank.png width =""600"" height = ""600"" style=""position:fixed;top:50%; left:50%; transform: translate(-50%, -50%); border:5px solid black"">","","","","","","","",""
"","1107","sequential-stimulus-presentation-old","47","215737","0.0-15.0-1.3","SS1618435635217","trial","","40","500","1607","images/stimuli/spore_stims/complex_04_A_a.gif","images/stimuli/spore_stims/complex_16_A_b.gif","forced_short","","3","complex_dissimilar","images/stimuli/spore_stims/complex_16_A_b.gif","","","","",""
"","null","html-keyboard-response","48","216629","0.0-15.0-0.4","SS1618435635217","","","null","","","","","","<p><img src= images/blank.png width =""600"" height = ""600"" style=""position:fixed;top:50%; left:50%; transform: translate(-50%, -50%); border:5px solid black"">","","","","","","","",""
"","1342","sequential-stimulus-presentation-old","49","218486","0.0-15.0-1.4","SS1618435635217","trial","","40","500","1842","images/stimuli/spore_stims/complex_04_A_a.gif","images/stimuli/spore_stims/complex_16_A_b.gif","forced_short","","3","complex_dissimilar","images/stimuli/spore_stims/complex_16_A_b.gif","","","","",""
"","null","html-keyboard-response","50","219752","0.0-15.0-0.5","SS1618435635217","","","null","","","","","","<p><img src= images/blank.png width =""600"" height = ""600"" style=""position:fixed;top:50%; left:50%; transform: translate(-50%, -50%); border:5px solid black"">","","","","","","","",""
"","3081","sequential-stimulus-presentation-old","51","223347","0.0-15.0-1.5","SS1618435635217","trial","","40","500","3581","images/stimuli/spore_stims/complex_04_A_a.gif","images/stimuli/spore_stims/complex_16_A_b.gif","forced_short","","3","complex_dissimilar","images/stimuli/spore_stims/complex_16_A_b.gif","","","","",""
"","3673","survey-multi-choice","52","227023","0.0-16.0","SS1618435635217","math_question","","","","","","","","","","","","{""Q0"":""12""}","[0]","12","",""
"","null","html-keyboard-response","53","227855","0.0-17.0-0.0","SS1618435635217","","","null","","","","","","<p><img src= images/blank.png width =""600"" height = ""600"" style=""position:fixed;top:50%; left:50%; transform: translate(-50%, -50%); border:5px solid black"">","","","","","","","",""
"","9639","sequential-stimulus-presentation-old","54","238009","0.0-17.0-1.0","SS1618435635217","trial","","40","500","10139","images/stimuli/spore_stims/complex_05_A_b.gif","images/stimuli/spore_stims/complex_15_A_a.gif","self_paced","","4","complex_dissimilar","images/stimuli/spore_stims/complex_15_A_a.gif","","","","",""
"","null","html-keyboard-response","55","239249","0.0-17.0-0.1","SS1618435635217","","","null","","","","","","<p><img src= images/blank.png width =""600"" height = ""600"" style=""position:fixed;top:50%; left:50%; transform: translate(-50%, -50%); border:5px solid black"">","","","","","","","",""
"","4121","sequential-stimulus-presentation-old","56","243884","0.0-17.0-1.1","SS1618435635217","trial","","40","500","4621","images/stimuli/spore_stims/complex_05_A_b.gif","images/stimuli/spore_stims/complex_15_A_a.gif","self_paced","","4","complex_dissimilar","images/stimuli/spore_stims/complex_15_A_a.gif","","","","",""
"","null","html-keyboard-response","57","244856","0.0-17.0-0.2","SS1618435635217","","","null","","","","","","<p><img src= images/blank.png width =""600"" height = ""600"" style=""position:fixed;top:50%; left:50%; transform: translate(-50%, -50%); border:5px solid black"">","","","","","","","",""
"","1739","sequential-stimulus-presentation-old","58","247105","0.0-17.0-1.2","SS1618435635217","trial","","40","500","2239","images/stimuli/spore_stims/complex_05_A_b.gif","images/stimuli/spore_stims/complex_15_A_a.gif","self_paced","","4","complex_dissimilar","images/stimuli/spore_stims/complex_15_A_a.gif","","","","",""
"","null","html-keyboard-response","59","247947","0.0-17.0-0.3","SS1618435635217","","","null","","","","","","<p><img src= images/blank.png width =""600"" height = ""600"" style=""position:fixed;top:50%; left:50%; transform: translate(-50%, -50%); border:5px solid black"">","","","","","","","",""
"","635","sequential-stimulus-presentation-old","60","249101","0.0-17.0-1.3","SS1618435635217","trial","","40","500","1135","images/stimuli/spore_stims/complex_05_A_b.gif","images/stimuli/spore_stims/complex_15_A_a.gif","self_paced","","4","complex_dissimilar","images/stimuli/spore_stims/complex_15_A_a.gif","","","","",""
"","null","html-keyboard-response","61","250204","0.0-17.0-0.4","SS1618435635217","","","null","","","","","","<p><img src= images/blank.png width =""600"" height = ""600"" style=""position:fixed;top:50%; left:50%; transform: translate(-50%, -50%); border:5px solid black"">","","","","","","","",""
"","855","sequential-stimulus-presentation-old","62","251570","0.0-17.0-1.4","SS1618435635217","trial","","40","500","1355","images/stimuli/spore_stims/complex_05_A_b.gif","images/stimuli/spore_stims/complex_15_A_a.gif","self_paced","","4","complex_dissimilar","images/stimuli/spore_stims/complex_15_A_a.gif","","","","",""
"","null","html-keyboard-response","63","252522","0.0-17.0-0.5","SS1618435635217","","","null","","","","","","<p><img src= images/blank.png width =""600"" height = ""600"" style=""position:fixed;top:50%; left:50%; transform: translate(-50%, -50%); border:5px solid black"">","","","","","","","",""
"","1684","sequential-stimulus-presentation-old","64","254725","0.0-17.0-1.5","SS1618435635217","trial","","40","500","2184","images/stimuli/spore_stims/complex_05_A_b.gif","images/stimuli/spore_stims/complex_15_A_a.gif","self_paced","","4","complex_dissimilar","images/stimuli/spore_stims/complex_05_A_b.gif","","","","",""
"","2740","survey-multi-choice","65","257469","0.0-18.0","SS1618435635217","math_question","","","","","","","","","","","","{""Q0"":""10""}","[0]","10","",""
"","null","html-keyboard-response","66","258331","0.0-19.0-0.0","SS1618435635217","","","null","","","","","","<p><img src= images/blank.png width =""600"" height = ""600"" style=""position:fixed;top:50%; left:50%; transform: translate(-50%, -50%); border:5px solid black"">","","","","","","","",""
"","1130","sequential-stimulus-presentation-old","67","259522","0.0-19.0-1.0","SS1618435635217","trial","","40","500","1630","images/stimuli/spore_stims/complex_14_A_b.gif","images/stimuli/spore_stims/complex_05_A_a.gif","forced_short","","5","complex_dissimilar","images/stimuli/spore_stims/complex_05_A_a.gif","","","","",""
"","null","html-keyboard-response","68","260831","0.0-19.0-0.1","SS1618435635217","","","null","","","","","","<p><img src= images/blank.png width =""600"" height = ""600"" style=""position:fixed;top:50%; left:50%; transform: translate(-50%, -50%); border:5px solid black"">","","","","","","","",""
"","1019","sequential-stimulus-presentation-old","69","262364","0.0-19.0-1.1","SS1618435635217","trial","","40","500","1519","images/stimuli/spore_stims/complex_14_A_b.gif","images/stimuli/spore_stims/complex_05_A_a.gif","forced_short","","5","complex_dissimilar","images/stimuli/spore_stims/complex_14_A_b.gif","","","","",""
"","null","html-keyboard-response","70","263558","0.0-19.0-0.2","SS1618435635217","","","null","","","","","","<p><img src= images/blank.png width =""600"" height = ""600"" style=""position:fixed;top:50%; left:50%; transform: translate(-50%, -50%); border:5px solid black"">","","","","","","","",""
"","2652","sequential-stimulus-presentation-old","71","266727","0.0-19.0-1.2","SS1618435635217","trial","","40","500","3152","images/stimuli/spore_stims/complex_14_A_b.gif","images/stimuli/spore_stims/complex_05_A_a.gif","forced_short","","5","complex_dissimilar","images/stimuli/spore_stims/complex_05_A_a.gif","","","","",""
"","null","html-keyboard-response","72","267600","0.0-19.0-0.3","SS1618435635217","","","null","","","","","","<p><img src= images/blank.png width =""600"" height = ""600"" style=""position:fixed;top:50%; left:50%; transform: translate(-50%, -50%); border:5px solid black"">","","","","","","","",""
"","282","sequential-stimulus-presentation-old","73","268397","0.0-19.0-1.3","SS1618435635217","trial","","40","500","782","images/stimuli/spore_stims/complex_14_A_b.gif","images/stimuli/spore_stims/complex_05_A_a.gif","forced_short","","5","complex_dissimilar","images/stimuli/spore_stims/complex_05_A_a.gif","","","","",""
"","null","html-keyboard-response","74","269390","0.0-19.0-0.4","SS1618435635217","","","null","","","","","","<p><img src= images/blank.png width =""600"" height = ""600"" style=""position:fixed;top:50%; left:50%; transform: translate(-50%, -50%); border:5px solid black"">","","","","","","","",""
"","1447","sequential-stimulus-presentation-old","75","271353","0.0-19.0-1.4","SS1618435635217","trial","","40","500","1947","images/stimuli/spore_stims/complex_14_A_b.gif","images/stimuli/spore_stims/complex_05_A_a.gif","forced_short","","5","complex_dissimilar","images/stimuli/spore_stims/complex_14_A_b.gif","","","","",""
"","4660","survey-multi-choice","76","276020","0.0-20.0","SS1618435635217","math_question","","","","","","","","","","","","{""Q0"":""15""}","[0]","15","",""
"","null","html-keyboard-response","77","277177","0.0-21.0-0.0","SS1618435635217","","","null","","","","","","<p><img src= images/blank.png width =""600"" height = ""600"" style=""position:fixed;top:50%; left:50%; transform: translate(-50%, -50%); border:5px solid black"">","","","","","","","",""
"","1450","sequential-stimulus-presentation-old","78","283643","0.0-21.0-1.0","SS1618435635217","trial","","40","500","1950","images/stimuli/spore_stims/complex_11_A_a.gif","images/stimuli/spore_stims/complex_07_A_b.gif","forced_long","","6","complex_dissimilar","images/stimuli/spore_stims/complex_07_A_b.gif","","","","",""
"","null","html-keyboard-response","79","284818","0.0-21.0-0.1","SS1618435635217","","","null","","","","","","<p><img src= images/blank.png width =""600"" height = ""600"" style=""position:fixed;top:50%; left:50%; transform: translate(-50%, -50%); border:5px solid black"">","","","","","","","",""
"","1399","sequential-stimulus-presentation-old","80","286728","0.0-21.0-1.1","SS1618435635217","trial","","40","500","1899","images/stimuli/spore_stims/complex_11_A_a.gif","images/stimuli/spore_stims/complex_07_A_b.gif","forced_long","","6","complex_dissimilar","images/stimuli/spore_stims/complex_11_A_a.gif","","","","",""
"","null","html-keyboard-response","81","287569","0.0-21.0-0.2","SS1618435635217","","","null","","","","","","<p><img src= images/blank.png width =""600"" height = ""600"" style=""position:fixed;top:50%; left:50%; transform: translate(-50%, -50%); border:5px solid black"">","","","","","","","",""
"","529","sequential-stimulus-presentation-old","82","288614","0.0-21.0-1.2","SS1618435635217","trial","","40","500","1029","images/stimuli/spore_stims/complex_11_A_a.gif","images/stimuli/spore_stims/complex_07_A_b.gif","forced_long","","6","complex_dissimilar","images/stimuli/spore_stims/complex_07_A_b.gif","","","","",""
"","null","html-keyboard-response","83","289706","0.0-21.0-0.3","SS1618435635217","","","null","","","","","","<p><img src= images/blank.png width =""600"" height = ""600"" style=""position:fixed;top:50%; left:50%; transform: translate(-50%, -50%); border:5px solid black"">","","","","","","","",""
"","1192","sequential-stimulus-presentation-old","84","291409","0.0-21.0-1.3","SS1618435635217","trial","","40","500","1692","images/stimuli/spore_stims/complex_11_A_a.gif","images/stimuli/spore_stims/complex_07_A_b.gif","forced_long","","6","complex_dissimilar","images/stimuli/spore_stims/complex_11_A_a.gif","","","","",""
"","2847","survey-multi-choice","85","294265","0.0-22.0","SS1618435635217","math_question","","","","","","","","","","","","{""Q0"":""7""}","[0]","7","",""
"","null","html-keyboard-response","86","295466","0.0-23.0-0.0","SS1618435635217","","","null","","","","","","<p><img src= images/blank.png width =""600"" height = ""600"" style=""position:fixed;top:50%; left:50%; transform: translate(-50%, -50%); border:5px solid black"">","","","","","","","",""
"","865","sequential-stimulus-presentation-old","87","296840","0.0-23.0-1.0","SS1618435635217","trial","","40","500","1365","images/stimuli/spore_stims/simple_10_A_b.gif","images/stimuli/spore_stims/simple_20_A_a.gif","self_paced","","7","simple_dissimilar","images/stimuli/spore_stims/simple_20_A_a.gif","","","","",""
"","null","html-keyboard-response","88","297916","0.0-23.0-0.1","SS1618435635217","","","null","","","","","","<p><img src= images/blank.png width =""600"" height = ""600"" style=""position:fixed;top:50%; left:50%; transform: translate(-50%, -50%); border:5px solid black"">","","","","","","","",""
"","1008","sequential-stimulus-presentation-old","89","299441","0.0-23.0-1.1","SS1618435635217","trial","","40","500","1508","images/stimuli/spore_stims/simple_10_A_b.gif","images/stimuli/spore_stims/simple_20_A_a.gif","self_paced","","7","simple_dissimilar","images/stimuli/spore_stims/simple_20_A_a.gif","","","","",""
"","null","html-keyboard-response","90","300371","0.0-23.0-0.2","SS1618435635217","","","null","","","","","","<p><img src= images/blank.png width =""600"" height = ""600"" style=""position:fixed;top:50%; left:50%; transform: translate(-50%, -50%); border:5px solid black"">","","","","","","","",""
"","1319","sequential-stimulus-presentation-old","91","302205","0.0-23.0-1.2","SS1618435635217","trial","","40","500","1819","images/stimuli/spore_stims/simple_10_A_b.gif","images/stimuli/spore_stims/simple_20_A_a.gif","self_paced","","7","simple_dissimilar","images/stimuli/spore_stims/simple_20_A_a.gif","","","","",""
"","null","html-keyboard-response","92","303048","0.0-23.0-0.3","SS1618435635217","","","null","","","","","","<p><img src= images/blank.png width =""600"" height = ""600"" style=""position:fixed;top:50%; left:50%; transform: translate(-50%, -50%); border:5px solid black"">","","","","","","","",""
"","492","sequential-stimulus-presentation-old","93","304055","0.0-23.0-1.3","SS1618435635217","trial","","40","500","992","images/stimuli/spore_stims/simple_10_A_b.gif","images/stimuli/spore_stims/simple_20_A_a.gif","self_paced","","7","simple_dissimilar","images/stimuli/spore_stims/simple_20_A_a.gif","","","","",""
"","null","html-keyboard-response","94","305304","0.0-23.0-0.4","SS1618435635217","","","null","","","","","","<p><img src= images/blank.png width =""600"" height = ""600"" style=""position:fixed;top:50%; left:50%; transform: translate(-50%, -50%); border:5px solid black"">","","","","","","","",""
"","770","sequential-stimulus-presentation-old","95","306591","0.0-23.0-1.4","SS1618435635217","trial","","40","500","1270","images/stimuli/spore_stims/simple_10_A_b.gif","images/stimuli/spore_stims/simple_20_A_a.gif","self_paced","","7","simple_dissimilar","images/stimuli/spore_stims/simple_10_A_b.gif","","","","",""
"","null","html-keyboard-response","96","307515","0.0-23.0-0.5","SS1618435635217","","","null","","","","","","<p><img src= images/blank.png width =""600"" height = ""600"" style=""position:fixed;top:50%; left:50%; transform: translate(-50%, -50%); border:5px solid black"">","","","","","","","",""
"","141","sequential-stimulus-presentation-old","97","308167","0.0-23.0-1.5","SS1618435635217","trial","","40","500","641","images/stimuli/spore_stims/simple_10_A_b.gif","images/stimuli/spore_stims/simple_20_A_a.gif","self_paced","","7","simple_dissimilar","images/stimuli/spore_stims/simple_20_A_a.gif","","","","",""
"","2258","survey-multi-choice","98","310436","0.0-24.0","SS1618435635217","math_question","","","","","","","","","","","","{""Q0"":""4""}","[0]","4","",""
"","null","html-keyboard-response","99","311334","0.0-25.0-0.0","SS1618435635217","","","null","","","","","","<p><img src= images/blank.png width =""600"" height = ""600"" style=""position:fixed;top:50%; left:50%; transform: translate(-50%, -50%); border:5px solid black"">","","","","","","","",""
"","771","sequential-stimulus-presentation-old","100","312169","0.0-25.0-1.0","SS1618435635217","trial","","40","500","1271","images/stimuli/spore_stims/simple_03_A_b.gif","images/stimuli/spore_stims/simple_19_A_a.gif","forced_short","","8","simple_dissimilar","images/stimuli/spore_stims/simple_19_A_a.gif","","","","",""
"","null","html-keyboard-response","101","313136","0.0-25.0-0.1","SS1618435635217","","","null","","","","","","<p><img src= images/blank.png width =""600"" height = ""600"" style=""position:fixed;top:50%; left:50%; transform: translate(-50%, -50%); border:5px solid black"">","","","","","","","",""
"","635","sequential-stimulus-presentation-old","102","314287","0.0-25.0-1.1","SS1618435635217","trial","","40","500","1135","images/stimuli/spore_stims/simple_03_A_b.gif","images/stimuli/spore_stims/simple_19_A_a.gif","forced_short","","8","simple_dissimilar","images/stimuli/spore_stims/simple_19_A_a.gif","","","","",""
"","null","html-keyboard-response","103","315146","0.0-25.0-0.2","SS1618435635217","","","null","","","","","","<p><img src= images/blank.png width =""600"" height = ""600"" style=""position:fixed;top:50%; left:50%; transform: translate(-50%, -50%); border:5px solid black"">","","","","","","","",""
"","207","sequential-stimulus-presentation-old","104","315871","0.0-25.0-1.2","SS1618435635217","trial","","40","500","707","images/stimuli/spore_stims/simple_03_A_b.gif","images/stimuli/spore_stims/simple_19_A_a.gif","forced_short","","8","simple_dissimilar","images/stimuli/spore_stims/simple_19_A_a.gif","","","","",""
"","null","html-keyboard-response","105","316867","0.0-25.0-0.3","SS1618435635217","","","null","","","","","","<p><img src= images/blank.png width =""600"" height = ""600"" style=""position:fixed;top:50%; left:50%; transform: translate(-50%, -50%); border:5px solid black"">","","","","","","","",""
"","134","sequential-stimulus-presentation-old","106","317517","0.0-25.0-1.3","SS1618435635217","trial","","40","500","634","images/stimuli/spore_stims/simple_03_A_b.gif","images/stimuli/spore_stims/simple_19_A_a.gif","forced_short","","8","simple_dissimilar","images/stimuli/spore_stims/simple_19_A_a.gif","","","","",""
"","null","html-keyboard-response","107","318549","0.0-25.0-0.4","SS1618435635217","","","null","","","","","","<p><img src= images/blank.png width =""600"" height = ""600"" style=""position:fixed;top:50%; left:50%; transform: translate(-50%, -50%); border:5px solid black"">","","","","","","","",""
"","113","sequential-stimulus-presentation-old","108","319177","0.0-25.0-1.4","SS1618435635217","trial","","40","500","613","images/stimuli/spore_stims/simple_03_A_b.gif","images/stimuli/spore_stims/simple_19_A_a.gif","forced_short","","8","simple_dissimilar","images/stimuli/spore_stims/simple_19_A_a.gif","","","","",""
"","2710","survey-multi-choice","109","321894","0.0-26.0","SS1618435635217","math_question","","","","","","","","","","","","{""Q0"":""16""}","[0]","16","",""
"","null","html-keyboard-response","110","323114","0.0-27.0-0.0","SS1618435635217","","","null","","","","","","<p><img src= images/blank.png width =""600"" height = ""600"" style=""position:fixed;top:50%; left:50%; transform: translate(-50%, -50%); border:5px solid black"">","","","","","","","",""
"","301","sequential-stimulus-presentation-old","111","328438","0.0-27.0-1.0","SS1618435635217","trial","","40","500","801","images/stimuli/spore_stims/simple_18_A_a.gif","images/stimuli/spore_stims/simple_09_A_b.gif","forced_long","","9","simple_dissimilar","images/stimuli/spore_stims/simple_09_A_b.gif","","","","",""
"","null","html-keyboard-response","112","329704","0.0-27.0-0.1","SS1618435635217","","","null","","","","","","<p><img src= images/blank.png width =""600"" height = ""600"" style=""position:fixed;top:50%; left:50%; transform: translate(-50%, -50%); border:5px solid black"">","","","","","","","",""
"","113","sequential-stimulus-presentation-old","113","330332","0.0-27.0-1.1","SS1618435635217","trial","","40","500","613","images/stimuli/spore_stims/simple_18_A_a.gif","images/stimuli/spore_stims/simple_09_A_b.gif","forced_long","","9","simple_dissimilar","images/stimuli/spore_stims/simple_09_A_b.gif","","","","",""
"","null","html-keyboard-response","114","331461","0.0-27.0-0.2","SS1618435635217","","","null","","","","","","<p><img src= images/blank.png width =""600"" height = ""600"" style=""position:fixed;top:50%; left:50%; transform: translate(-50%, -50%); border:5px solid black"">","","","","","","","",""
"","56","sequential-stimulus-presentation-old","115","332044","0.0-27.0-1.2","SS1618435635217","trial","","40","500","556","images/stimuli/spore_stims/simple_18_A_a.gif","images/stimuli/spore_stims/simple_09_A_b.gif","forced_long","","9","simple_dissimilar","images/stimuli/spore_stims/simple_09_A_b.gif","","","","",""
"","null","html-keyboard-response","116","333348","0.0-27.0-0.3","SS1618435635217","","","null","","","","","","<p><img src= images/blank.png width =""600"" height = ""600"" style=""position:fixed;top:50%; left:50%; transform: translate(-50%, -50%); border:5px solid black"">","","","","","","","",""
"","480","sequential-stimulus-presentation-old","117","334343","0.0-27.0-1.3","SS1618435635217","trial","","40","500","980","images/stimuli/spore_stims/simple_18_A_a.gif","images/stimuli/spore_stims/simple_09_A_b.gif","forced_long","","9","simple_dissimilar","images/stimuli/spore_stims/simple_18_A_a.gif","","","","",""
"","null","html-keyboard-response","118","335598","0.0-27.0-0.4","SS1618435635217","","","null","","","","","","<p><img src= images/blank.png width =""600"" height = ""600"" style=""position:fixed;top:50%; left:50%; transform: translate(-50%, -50%); border:5px solid black"">","","","","","","","",""
"","29","sequential-stimulus-presentation-old","119","336144","0.0-27.0-1.4","SS1618435635217","trial","","40","500","529","images/stimuli/spore_stims/simple_18_A_a.gif","images/stimuli/spore_stims/simple_09_A_b.gif","forced_long","","9","simple_dissimilar","images/stimuli/spore_stims/simple_09_A_b.gif","","","","",""
"","null","html-keyboard-response","120","337454","0.0-27.0-0.5","SS1618435635217","","","null","","","","","","<p><img src= images/blank.png width =""600"" height = ""600"" style=""position:fixed;top:50%; left:50%; transform: translate(-50%, -50%); border:5px solid black"">","","","","","","","",""
"","470","sequential-stimulus-presentation-old","121","338438","0.0-27.0-1.5","SS1618435635217","trial","","40","500","970","images/stimuli/spore_stims/simple_18_A_a.gif","images/stimuli/spore_stims/simple_09_A_b.gif","forced_long","","9","simple_dissimilar","images/stimuli/spore_stims/simple_18_A_a.gif","","","","",""
"","3596","survey-multi-choice","122","342049","0.0-28.0","SS1618435635217","math_question","","","","","","","","","","","","{""Q0"":""11""}","[0]","11","",""
"","null","html-keyboard-response","123","343293","0.0-29.0-0.0","SS1618435635217","","","null","","","","","","<p><img src= images/blank.png width =""600"" height = ""600"" style=""position:fixed;top:50%; left:50%; transform: translate(-50%, -50%); border:5px solid black"">","","","","","","","",""
"","419","sequential-stimulus-presentation-old","124","344227","0.0-29.0-1.0","SS1618435635217","trial","","40","500","919","images/stimuli/spore_stims/simple_06_A_b.gif","images/stimuli/spore_stims/simple_03_A_a.gif","self_paced","","10","simple_dissimilar","images/stimuli/spore_stims/simple_03_A_a.gif","","","","",""
"","null","html-keyboard-response","125","345335","0.0-29.0-0.1","SS1618435635217","","","null","","","","","","<p><img src= images/blank.png width =""600"" height = ""600"" style=""position:fixed;top:50%; left:50%; transform: translate(-50%, -50%); border:5px solid black"">","","","","","","","",""
"","372","sequential-stimulus-presentation-old","126","346221","0.0-29.0-1.1","SS1618435635217","trial","","40","500","872","images/stimuli/spore_stims/simple_06_A_b.gif","images/stimuli/spore_stims/simple_03_A_a.gif","self_paced","","10","simple_dissimilar","images/stimuli/spore_stims/simple_03_A_a.gif","","","","",""
"","null","html-keyboard-response","127","347279","0.0-29.0-0.2","SS1618435635217","","","null","","","","","","<p><img src= images/blank.png width =""600"" height = ""600"" style=""position:fixed;top:50%; left:50%; transform: translate(-50%, -50%); border:5px solid black"">","","","","","","","",""
"","451","sequential-stimulus-presentation-old","128","348245","0.0-29.0-1.2","SS1618435635217","trial","","40","500","951","images/stimuli/spore_stims/simple_06_A_b.gif","images/stimuli/spore_stims/simple_03_A_a.gif","self_paced","","10","simple_dissimilar","images/stimuli/spore_stims/simple_06_A_b.gif","","","","",""
"","null","html-keyboard-response","129","349414","0.0-29.0-0.3","SS1618435635217","","","null","","","","","","<p><img src= images/blank.png width =""600"" height = ""600"" style=""position:fixed;top:50%; left:50%; transform: translate(-50%, -50%); border:5px solid black"">","","","","","","","",""
"","54","sequential-stimulus-presentation-old","130","349985","0.0-29.0-1.3","SS1618435635217","trial","","40","500","554","images/stimuli/spore_stims/simple_06_A_b.gif","images/stimuli/spore_stims/simple_03_A_a.gif","self_paced","","10","simple_dissimilar","images/stimuli/spore_stims/simple_03_A_a.gif","","","","",""
"","null","html-keyboard-response","131","351037","0.0-29.0-0.4","SS1618435635217","","","null","","","","","","<p><img src= images/blank.png width =""600"" height = ""600"" style=""position:fixed;top:50%; left:50%; transform: translate(-50%, -50%); border:5px solid black"">","","","","","","","",""
"","208","sequential-stimulus-presentation-old","132","351759","0.0-29.0-1.4","SS1618435635217","trial","","40","500","708","images/stimuli/spore_stims/simple_06_A_b.gif","images/stimuli/spore_stims/simple_03_A_a.gif","self_paced","","10","simple_dissimilar","images/stimuli/spore_stims/simple_03_A_a.gif","","","","",""
"","2763","survey-multi-choice","133","354528","0.0-30.0","SS1618435635217","math_question","","","","","","","","","","","","{""Q0"":""9""}","[0]","9","",""
"","null","html-keyboard-response","134","355839","0.0-31.0-0.0","SS1618435635217","","","null","","","","","","<p><img src= images/blank.png width =""600"" height = ""600"" style=""position:fixed;top:50%; left:50%; transform: translate(-50%, -50%); border:5px solid black"">","","","","","","","",""
"","20174","sequential-stimulus-presentation-old","135","381030","0.0-31.0-1.0","SS1618435635217","trial","","40","500","20674","images/stimuli/spore_stims/complex_08_A_b.gif","images/stimuli/spore_stims/complex_02_A_a.gif","forced_long","","11","complex_dissimilar","images/stimuli/spore_stims/complex_02_A_a.gif","","","","",""
"","null","html-keyboard-response","136","382000","0.0-31.0-0.1","SS1618435635217","","","null","","","","","","<p><img src= images/blank.png width =""600"" height = ""600"" style=""position:fixed;top:50%; left:50%; transform: translate(-50%, -50%); border:5px solid black"">","","","","","","","",""
"","3030","sequential-stimulus-presentation-old","137","385544","0.0-31.0-1.1","SS1618435635217","trial","","40","500","3530","images/stimuli/spore_stims/complex_08_A_b.gif","images/stimuli/spore_stims/complex_02_A_a.gif","forced_long","","11","complex_dissimilar","images/stimuli/spore_stims/complex_08_A_b.gif","","","","",""
"","null","html-keyboard-response","138","386635","0.0-31.0-0.2","SS1618435635217","","","null","","","","","","<p><img src= images/blank.png width =""600"" height = ""600"" style=""position:fixed;top:50%; left:50%; transform: translate(-50%, -50%); border:5px solid black"">","","","","","","","",""
"","3200","sequential-stimulus-presentation-old","139","390351","0.0-31.0-1.2","SS1618435635217","trial","","40","500","3700","images/stimuli/spore_stims/complex_08_A_b.gif","images/stimuli/spore_stims/complex_02_A_a.gif","forced_long","","11","complex_dissimilar","images/stimuli/spore_stims/complex_08_A_b.gif","","","","",""
"","null","html-keyboard-response","140","391342","0.0-31.0-0.3","SS1618435635217","","","null","","","","","","<p><img src= images/blank.png width =""600"" height = ""600"" style=""position:fixed;top:50%; left:50%; transform: translate(-50%, -50%); border:5px solid black"">","","","","","","","",""
"","3638","sequential-stimulus-presentation-old","141","395496","0.0-31.0-1.3","SS1618435635217","trial","","40","500","4138","images/stimuli/spore_stims/complex_08_A_b.gif","images/stimuli/spore_stims/complex_02_A_a.gif","forced_long","","11","complex_dissimilar","images/stimuli/spore_stims/complex_02_A_a.gif","","","","",""
"","null","html-keyboard-response","142","396643","0.0-31.0-0.4","SS1618435635217","","","null","","","","","","<p><img src= images/blank.png width =""600"" height = ""600"" style=""position:fixed;top:50%; left:50%; transform: translate(-50%, -50%); border:5px solid black"">","","","","","","","",""
"","33","sequential-stimulus-presentation-old","143","397205","0.0-31.0-1.4","SS1618435635217","trial","","40","500","533","images/stimuli/spore_stims/complex_08_A_b.gif","images/stimuli/spore_stims/complex_02_A_a.gif","forced_long","","11","complex_dissimilar","images/stimuli/spore_stims/complex_02_A_a.gif","","","","",""
"","null","html-keyboard-response","144","398374","0.0-31.0-0.5","SS1618435635217","","","null","","","","","","<p><img src= images/blank.png width =""600"" height = ""600"" style=""position:fixed;top:50%; left:50%; transform: translate(-50%, -50%); border:5px solid black"">","","","","","","","",""
"","215","sequential-stimulus-presentation-old","145","399116","0.0-31.0-1.5","SS1618435635217","trial","","40","500","715","images/stimuli/spore_stims/complex_08_A_b.gif","images/stimuli/spore_stims/complex_02_A_a.gif","forced_long","","11","complex_dissimilar","images/stimuli/spore_stims/complex_02_A_a.gif","","","","",""
"[{""page_index"":0,""viewing_time"":4003}]","4003","instructions","146","403131","0.0-32.0","SS1618435635217","instructions","","","","","","","","","","","","","","","",""
"","5898","survey-likert","147","409034","0.0-33.0","SS1618435635217","similarity_question","","","","","","","","","","","","{""Q0"":4}","[0]","","images/stimuli/spore_stims/simple_18_A_a.gif","images/stimuli/spore_stims/simple_09_A_b.gif"
"","4627","survey-likert","148","413667","0.0-34.0","SS1618435635217","similarity_question","","","","","","","","","","","","{""Q0"":2}","[0]","","images/stimuli/spore_stims/complex_02_A_a.gif","images/stimuli/spore_stims/complex_08_A_b.gif"
"","3376","survey-likert","149","417048","0.0-35.0","SS1618435635217","similarity_question","","","","","","","","","","","","{""Q0"":1}","[0]","","images/stimuli/spore_stims/complex_07_A_b.gif","images/stimuli/spore_stims/complex_11_A_a.gif"
"","2657","survey-likert","150","419711","0.0-36.0","SS1618435635217","similarity_question","","","","","","","","","","","","{""Q0"":4}","[0]","","images/stimuli/spore_stims/simple_07_A_b.gif","images/stimuli/spore_stims/simple_02_A_a.gif"
"","3890","survey-likert","151","423605","0.0-37.0","SS1618435635217","similarity_question","","","","","","","","","","","","{""Q0"":2}","[0]","","images/stimuli/spore_stims/complex_14_A_b.gif","images/stimuli/spore_stims/complex_05_A_a.gif"
"","2449","survey-likert","152","426059","0.0-38.0","SS1618435635217","similarity_question","","","","","","","","","","","","{""Q0"":2}","[0]","","images/stimuli/spore_stims/complex_20_A_a.gif","images/stimuli/spore_stims/complex_04_A_b.gif"
"","2717","survey-likert","153","428783","0.0-39.0","SS1618435635217","similarity_question","","","","","","","","","","","","{""Q0"":5}","[0]","","images/stimuli/spore_stims/simple_03_A_a.gif","images/stimuli/spore_stims/simple_06_A_b.gif"
"","4027","survey-likert","154","432814","0.0-40.0","SS1618435635217","similarity_question","","","","","","","","","","","","{""Q0"":1}","[0]","","images/stimuli/spore_stims/complex_15_A_a.gif","images/stimuli/spore_stims/complex_05_A_b.gif"
"","3969","survey-likert","155","436786","0.0-41.0","SS1618435635217","similarity_question","","","","","","","","","","","","{""Q0"":5}","[0]","","images/stimuli/spore_stims/simple_03_A_b.gif","images/stimuli/spore_stims/simple_19_A_a.gif"
"","4688","survey-likert","156","441479","0.0-42.0","SS1618435635217","similarity_question","","","","","","","","","","","","{""Q0"":2}","[0]","","images/stimuli/spore_stims/complex_04_A_a.gif","images/stimuli/spore_stims/complex_16_A_b.gif"
"","3209","survey-likert","157","444694","0.0-43.0","SS1618435635217","similarity_question","","","","","","","","","","","","{""Q0"":4}","[0]","","images/stimuli/spore_stims/simple_16_A_b.gif","images/stimuli/spore_stims/simple_07_A_a.gif"
"","3900","survey-likert","158","448598","0.0-44.0","SS1618435635217","similarity_question","","","","","","","","","","","","{""Q0"":4}","[0]","","images/stimuli/spore_stims/simple_10_A_b.gif","images/stimuli/spore_stims/simple_20_A_a.gif"
"[{""page_index"":0,""viewing_time"":4066}]","4066","instructions","159","452668","0.0-45.0","SS1618435635217","instructions","","","","","","","","","","","","","","","",""
"","5043","survey-likert","160","457716","0.0-46.0","SS1618435635217","","","","","","","","","images/stimuli/spore_stims/simple_19_A_a.gif","","","","{""Q0"":1}","[0]","","",""
"","4243","survey-likert","161","461965","0.0-47.0","SS1618435635217","","","","","","","","","images/stimuli/spore_stims/complex_05_A_a.gif","","","","{""Q0"":4}","[0]","","",""
"","2242","survey-likert","162","464214","0.0-48.0","SS1618435635217","","","","","","","","","images/stimuli/spore_stims/complex_04_A_a.gif","","","","{""Q0"":5}","[0]","","",""
"","2499","survey-likert","163","466718","0.0-49.0","SS1618435635217","","","","","","","","","images/stimuli/spore_stims/complex_15_A_a.gif","","","","{""Q0"":5}","[0]","","",""
"","2421","survey-likert","164","469144","0.0-50.0","SS1618435635217","","","","","","","","","images/stimuli/spore_stims/complex_04_A_b.gif","","","","{""Q0"":5}","[0]","","",""
"","3325","survey-likert","165","472475","0.0-51.0","SS1618435635217","","","","","","","","","images/stimuli/spore_stims/simple_16_A_b.gif","","","","{""Q0"":1}","[0]","","",""
"","3258","survey-likert","166","475739","0.0-52.0","SS1618435635217","","","","","","","","","images/stimuli/spore_stims/simple_07_A_b.gif","","","","{""Q0"":0}","[0]","","",""
"","2310","survey-likert","167","478055","0.0-53.0","SS1618435635217","","","","","","","","","images/stimuli/spore_stims/simple_03_A_a.gif","","","","{""Q0"":1}","[0]","","",""
"","3071","survey-likert","168","481132","0.0-54.0","SS1618435635217","","","","","","","","","images/stimuli/spore_stims/complex_07_A_b.gif","","","","{""Q0"":6}","[0]","","",""
"","2911","survey-likert","169","484051","0.0-55.0","SS1618435635217","","","","","","","","","images/stimuli/spore_stims/simple_18_A_a.gif","","","","{""Q0"":1}","[0]","","",""
"","3328","survey-likert","170","487383","0.0-56.0","SS1618435635217","","","","","","","","","images/stimuli/spore_stims/simple_20_A_a.gif","","","","{""Q0"":1}","[0]","","",""
"","2371","survey-likert","171","489758","0.0-57.0","SS1618435635217","","","","","","","","","images/stimuli/spore_stims/complex_08_A_b.gif","","","","{""Q0"":5}","[0]","","",""
"[{""page_index"":0,""viewing_time"":1641}]","1641","instructions","172","491404","0.0-58.0","SS1618435635217","instructions","","","","","","","","","","","","","","","",""
"","2505","demog-age","173","493919","0.0-59.0","SS1618435635217","","","","","","","","","","","","","{""age"":""24""}","","","",""
"","6964","demog-ethnic-US","174","500889","0.0-60.0","SS1618435635217","","","","","","","","","","","","","{""ethnicity"":[""White""]}","[0]","","",""
"","6375","demog-gender-and-education","175","507271","0.0-61.0","SS1618435635217","","","","","","","","","","","","","{""gender"":""Male"",""education"":""High school diploma""}","[0,1]","","",""
"","11883","survey-text","176","519160","0.0-62.0","SS1618435635217","feedback","","","","","","","","","","","","{""Q0"":""No laggy animation""}","","","",""
"[{""page_index"":0,""viewing_time"":2221}]","2221","instructions","177","521387","0.0-63.0","SS1618435635217","instructions","","","","","","","","","","","","","","","",""
