"view_history","rt","trial_type","trial_index","time_elapsed","internal_node_id","subject","stimulus_type","trial_stimulus","key_press","minimum_viewing_duration","trial_looking_time","block_deviant","block_background","exposure_type","stimulus","block_number","block_type","stimulus_displayed","responses","question_order","math_correct_answer","stimulus_left","stimulus_right"
"[{""page_index"":0,""viewing_time"":26822.370000001683}]","26822.99499999499","instructions","0","26824","0.0-0.0","SS1618438130579","","","","","","","","","","","","","","","","",""
"[{""page_index"":0,""viewing_time"":24023.000000001048},{""page_index"":1,""viewing_time"":14965.69499999896}]","38988.96000000241","instructions","1","67824","0.0-1.0","SS1618438130579","instructions","","","","","","","","","","","","","","","",""
"","13617.815000005066","sequential-stimulus-presentation-old","2","81945","0.0-2.0","SS1618438130579","","","40","500","14117.815000005066","null","null","self_paced","","","","","","","","",""
"","10319.759999998496","sequential-stimulus-presentation-old","3","92769","0.0-3.0","SS1618438130579","","","40","500","10819.759999998496","null","null","self_paced","","","","","","","","",""
"[{""page_index"":0,""viewing_time"":32754.054999997607}]","32754.274999999325","instructions","4","125525","0.0-4.0","SS1618438130579","instructions","","","","","","","","","","","","","","","",""
"","7165.274999999383","sequential-stimulus-presentation-old","5","137696","0.0-5.0","SS1618438130579","","","40","500","7665.274999999383","null","null","forced_long","","","","","","","","",""
"","5388.555000004999","sequential-stimulus-presentation-old","6","143142","0.0-6.0","SS1618438130579","","","40","50","5438.555000004999","null","null","forced_long","","","","","","","","",""
"[{""page_index"":0,""viewing_time"":6204.6750000008615}]","6204.910000000382","instructions","7","149349","0.0-7.0","SS1618438130579","instructions","","","","","","","","","","","","","","","",""
"[{""page_index"":0,""viewing_time"":13638.379999996687},{""page_index"":1,""viewing_time"":18762.09000000381},{""page_index"":2,""viewing_time"":12535.584999997809},{""page_index"":3,""viewing_time"":3015.9249999996973},{""page_index"":4,""viewing_time"":2330.3450000021257}]","50282.61499999644","instructions","8","199632","0.0-8.0","SS1618438130579","instructions","","","","","","","","","","","","","","","",""
"","null","html-keyboard-response","9","200855","0.0-9.0-0.0","SS1618438130579","","","null","","","","","","<p><img src= images/blank.png width =""600"" height = ""600"" style=""position:fixed;top:50%; left:50%; transform: translate(-50%, -50%); border:5px solid black"">","","","","","","","",""
"","2393.0749999999534","sequential-stimulus-presentation-old","10","203323","0.0-9.0-1.0","SS1618438130579","trial","","40","500","2893.0749999999534","images/stimuli/spore_stims/complex_14_A_a.gif","images/stimuli/spore_stims/complex_19_A_b.gif","forced_short","","0","complex_dissimilar","images/stimuli/spore_stims/complex_19_A_b.gif","","","","",""
"","null","html-keyboard-response","11","204520","0.0-9.0-0.1","SS1618438130579","","","null","","","","","","<p><img src= images/blank.png width =""600"" height = ""600"" style=""position:fixed;top:50%; left:50%; transform: translate(-50%, -50%); border:5px solid black"">","","","","","","","",""
"","5532.075000002806","sequential-stimulus-presentation-old","12","210559","0.0-9.0-1.1","SS1618438130579","trial","","40","500","6032.075000002806","images/stimuli/spore_stims/complex_14_A_a.gif","images/stimuli/spore_stims/complex_19_A_b.gif","forced_short","","0","complex_dissimilar","images/stimuli/spore_stims/complex_14_A_a.gif","","","","",""
"","null","html-keyboard-response","13","211517","0.0-9.0-0.2","SS1618438130579","","","null","","","","","","<p><img src= images/blank.png width =""600"" height = ""600"" style=""position:fixed;top:50%; left:50%; transform: translate(-50%, -50%); border:5px solid black"">","","","","","","","",""
"","5338.900000002468","sequential-stimulus-presentation-old","14","217371","0.0-9.0-1.2","SS1618438130579","trial","","40","500","5838.900000002468","images/stimuli/spore_stims/complex_14_A_a.gif","images/stimuli/spore_stims/complex_19_A_b.gif","forced_short","","0","complex_dissimilar","images/stimuli/spore_stims/complex_19_A_b.gif","","","","",""
"","null","html-keyboard-response","15","218625","0.0-9.0-0.3","SS1618438130579","","","null","","","","","","<p><img src= images/blank.png width =""600"" height = ""600"" style=""position:fixed;top:50%; left:50%; transform: translate(-50%, -50%); border:5px solid black"">","","","","","","","",""
"","4508.569999998144","sequential-stimulus-presentation-old","16","223641","0.0-9.0-1.3","SS1618438130579","trial","","40","500","5008.569999998144","images/stimuli/spore_stims/complex_14_A_a.gif","images/stimuli/spore_stims/complex_19_A_b.gif","forced_short","","0","complex_dissimilar","images/stimuli/spore_stims/complex_19_A_b.gif","","","","",""
"","null","html-keyboard-response","17","224493","0.0-9.0-0.4","SS1618438130579","","","null","","","","","","<p><img src= images/blank.png width =""600"" height = ""600"" style=""position:fixed;top:50%; left:50%; transform: translate(-50%, -50%); border:5px solid black"">","","","","","","","",""
"","5972.670000002836","sequential-stimulus-presentation-old","18","230981","0.0-9.0-1.4","SS1618438130579","trial","","40","500","6472.670000002836","images/stimuli/spore_stims/complex_14_A_a.gif","images/stimuli/spore_stims/complex_19_A_b.gif","forced_short","","0","complex_dissimilar","images/stimuli/spore_stims/complex_19_A_b.gif","","","","",""
"","null","html-keyboard-response","19","232297","0.0-9.0-0.5","SS1618438130579","","","null","","","","","","<p><img src= images/blank.png width =""600"" height = ""600"" style=""position:fixed;top:50%; left:50%; transform: translate(-50%, -50%); border:5px solid black"">","","","","","","","",""
"","6706.239999999525","sequential-stimulus-presentation-old","20","239518","0.0-9.0-1.5","SS1618438130579","trial","","40","500","7206.239999999525","images/stimuli/spore_stims/complex_14_A_a.gif","images/stimuli/spore_stims/complex_19_A_b.gif","forced_short","","0","complex_dissimilar","images/stimuli/spore_stims/complex_19_A_b.gif","","","","",""
"","5613.024999998743","survey-multi-choice","21","245135","0.0-10.0","SS1618438130579","math_question","","","","","","","","","","","","{""Q0"":""10""}","[0]","10","",""
"","null","html-keyboard-response","22","245963","0.0-11.0-0.0","SS1618438130579","","","null","","","","","","<p><img src= images/blank.png width =""600"" height = ""600"" style=""position:fixed;top:50%; left:50%; transform: translate(-50%, -50%); border:5px solid black"">","","","","","","","",""
"","818.42499999766","sequential-stimulus-presentation-old","23","251803","0.0-11.0-1.0","SS1618438130579","trial","","40","500","1318.42499999766","images/stimuli/spore_stims/simple_17_A_b.gif","images/stimuli/spore_stims/simple_06_A_a.gif","forced_long","","1","simple_dissimilar","images/stimuli/spore_stims/simple_06_A_a.gif","","","","",""
"","null","html-keyboard-response","24","252642","0.0-11.0-0.1","SS1618438130579","","","null","","","","","","<p><img src= images/blank.png width =""600"" height = ""600"" style=""position:fixed;top:50%; left:50%; transform: translate(-50%, -50%); border:5px solid black"">","","","","","","","",""
"","3983.619999999064","sequential-stimulus-presentation-old","25","257140","0.0-11.0-1.1","SS1618438130579","trial","","40","500","4483.619999999064","images/stimuli/spore_stims/simple_17_A_b.gif","images/stimuli/spore_stims/simple_06_A_a.gif","forced_long","","1","simple_dissimilar","images/stimuli/spore_stims/simple_17_A_b.gif","","","","",""
"","null","html-keyboard-response","26","258215","0.0-11.0-0.2","SS1618438130579","","","null","","","","","","<p><img src= images/blank.png width =""600"" height = ""600"" style=""position:fixed;top:50%; left:50%; transform: translate(-50%, -50%); border:5px solid black"">","","","","","","","",""
"","3254.644999993616","sequential-stimulus-presentation-old","27","261976","0.0-11.0-1.2","SS1618438130579","trial","","40","500","3754.644999993616","images/stimuli/spore_stims/simple_17_A_b.gif","images/stimuli/spore_stims/simple_06_A_a.gif","forced_long","","1","simple_dissimilar","images/stimuli/spore_stims/simple_06_A_a.gif","","","","",""
"","null","html-keyboard-response","28","263118","0.0-11.0-0.3","SS1618438130579","","","null","","","","","","<p><img src= images/blank.png width =""600"" height = ""600"" style=""position:fixed;top:50%; left:50%; transform: translate(-50%, -50%); border:5px solid black"">","","","","","","","",""
"","6687.8450000003795","sequential-stimulus-presentation-old","29","270320","0.0-11.0-1.3","SS1618438130579","trial","","40","500","7187.8450000003795","images/stimuli/spore_stims/simple_17_A_b.gif","images/stimuli/spore_stims/simple_06_A_a.gif","forced_long","","1","simple_dissimilar","images/stimuli/spore_stims/simple_06_A_a.gif","","","","",""
"","null","html-keyboard-response","30","271228","0.0-11.0-0.4","SS1618438130579","","","null","","","","","","<p><img src= images/blank.png width =""600"" height = ""600"" style=""position:fixed;top:50%; left:50%; transform: translate(-50%, -50%); border:5px solid black"">","","","","","","","",""
"","4230.235000002722","sequential-stimulus-presentation-old","31","275967","0.0-11.0-1.4","SS1618438130579","trial","","40","500","4730.235000002722","images/stimuli/spore_stims/simple_17_A_b.gif","images/stimuli/spore_stims/simple_06_A_a.gif","forced_long","","1","simple_dissimilar","images/stimuli/spore_stims/simple_06_A_a.gif","","","","",""
"","null","html-keyboard-response","32","276877","0.0-11.0-0.5","SS1618438130579","","","null","","","","","","<p><img src= images/blank.png width =""600"" height = ""600"" style=""position:fixed;top:50%; left:50%; transform: translate(-50%, -50%); border:5px solid black"">","","","","","","","",""
"","3564.5150000054855","sequential-stimulus-presentation-old","33","280949","0.0-11.0-1.5","SS1618438130579","trial","","40","500","4064.5150000054855","images/stimuli/spore_stims/simple_17_A_b.gif","images/stimuli/spore_stims/simple_06_A_a.gif","forced_long","","1","simple_dissimilar","images/stimuli/spore_stims/simple_06_A_a.gif","","","","",""
"","5678.810000004887","survey-multi-choice","34","286631","0.0-12.0","SS1618438130579","math_question","","","","","","","","","","","","{""Q0"":""9""}","[0]","9","",""
"","null","html-keyboard-response","35","287479","0.0-13.0-0.0","SS1618438130579","","","null","","","","","","<p><img src= images/blank.png width =""600"" height = ""600"" style=""position:fixed;top:50%; left:50%; transform: translate(-50%, -50%); border:5px solid black"">","","","","","","","",""
"","838.2799999963026","sequential-stimulus-presentation-old","36","293328","0.0-13.0-1.0","SS1618438130579","trial","","40","500","1338.2799999963026","images/stimuli/spore_stims/complex_18_A_b.gif","images/stimuli/spore_stims/complex_01_A_a.gif","forced_long","","2","complex_dissimilar","images/stimuli/spore_stims/complex_01_A_a.gif","","","","",""
"","null","html-keyboard-response","37","294510","0.0-13.0-0.1","SS1618438130579","","","null","","","","","","<p><img src= images/blank.png width =""600"" height = ""600"" style=""position:fixed;top:50%; left:50%; transform: translate(-50%, -50%); border:5px solid black"">","","","","","","","",""
"","5384.099999995669","sequential-stimulus-presentation-old","38","300402","0.0-13.0-1.1","SS1618438130579","trial","","40","500","5884.099999995669","images/stimuli/spore_stims/complex_18_A_b.gif","images/stimuli/spore_stims/complex_01_A_a.gif","forced_long","","2","complex_dissimilar","images/stimuli/spore_stims/complex_01_A_a.gif","","","","",""
"","null","html-keyboard-response","39","301340","0.0-13.0-0.2","SS1618438130579","","","null","","","","","","<p><img src= images/blank.png width =""600"" height = ""600"" style=""position:fixed;top:50%; left:50%; transform: translate(-50%, -50%); border:5px solid black"">","","","","","","","",""
"","5850.665000005392","sequential-stimulus-presentation-old","40","307701","0.0-13.0-1.2","SS1618438130579","trial","","40","500","6350.665000005392","images/stimuli/spore_stims/complex_18_A_b.gif","images/stimuli/spore_stims/complex_01_A_a.gif","forced_long","","2","complex_dissimilar","images/stimuli/spore_stims/complex_01_A_a.gif","","","","",""
"","null","html-keyboard-response","41","308527","0.0-13.0-0.3","SS1618438130579","","","null","","","","","","<p><img src= images/blank.png width =""600"" height = ""600"" style=""position:fixed;top:50%; left:50%; transform: translate(-50%, -50%); border:5px solid black"">","","","","","","","",""
"","2389.3150000003516","sequential-stimulus-presentation-old","42","311429","0.0-13.0-1.3","SS1618438130579","trial","","40","500","2889.3150000003516","images/stimuli/spore_stims/complex_18_A_b.gif","images/stimuli/spore_stims/complex_01_A_a.gif","forced_long","","2","complex_dissimilar","images/stimuli/spore_stims/complex_01_A_a.gif","","","","",""
"","null","html-keyboard-response","43","312548","0.0-13.0-0.4","SS1618438130579","","","null","","","","","","<p><img src= images/blank.png width =""600"" height = ""600"" style=""position:fixed;top:50%; left:50%; transform: translate(-50%, -50%); border:5px solid black"">","","","","","","","",""
"","3432.3199999998906","sequential-stimulus-presentation-old","44","316485","0.0-13.0-1.4","SS1618438130579","trial","","40","500","3932.3199999998906","images/stimuli/spore_stims/complex_18_A_b.gif","images/stimuli/spore_stims/complex_01_A_a.gif","forced_long","","2","complex_dissimilar","images/stimuli/spore_stims/complex_01_A_a.gif","","","","",""
"","4678.115000002435","survey-multi-choice","45","321168","0.0-14.0","SS1618438130579","math_question","","","","","","","","","","","","{""Q0"":""8""}","[0]","8","",""
"","null","html-keyboard-response","46","322136","0.0-15.0-0.0","SS1618438130579","","","null","","","","","","<p><img src= images/blank.png width =""600"" height = ""600"" style=""position:fixed;top:50%; left:50%; transform: translate(-50%, -50%); border:5px solid black"">","","","","","","","",""
"","928.10499999905","sequential-stimulus-presentation-old","47","323120","0.0-15.0-1.0","SS1618438130579","trial","","40","500","1428.10499999905","images/stimuli/spore_stims/complex_19_A_a.gif","images/stimuli/spore_stims/complex_09_A_b.gif","forced_short","","3","complex_dissimilar","images/stimuli/spore_stims/complex_09_A_b.gif","","","","",""
"","null","html-keyboard-response","48","324192","0.0-15.0-0.1","SS1618438130579","","","null","","","","","","<p><img src= images/blank.png width =""600"" height = ""600"" style=""position:fixed;top:50%; left:50%; transform: translate(-50%, -50%); border:5px solid black"">","","","","","","","",""
"","2831.4050000044517","sequential-stimulus-presentation-old","49","327532","0.0-15.0-1.1","SS1618438130579","trial","","40","500","3331.4050000044517","images/stimuli/spore_stims/complex_19_A_a.gif","images/stimuli/spore_stims/complex_09_A_b.gif","forced_short","","3","complex_dissimilar","images/stimuli/spore_stims/complex_19_A_a.gif","","","","",""
"","null","html-keyboard-response","50","328644","0.0-15.0-0.2","SS1618438130579","","","null","","","","","","<p><img src= images/blank.png width =""600"" height = ""600"" style=""position:fixed;top:50%; left:50%; transform: translate(-50%, -50%); border:5px solid black"">","","","","","","","",""
"","6485.675000003539","sequential-stimulus-presentation-old","51","335637","0.0-15.0-1.2","SS1618438130579","trial","","40","500","6985.675000003539","images/stimuli/spore_stims/complex_19_A_a.gif","images/stimuli/spore_stims/complex_09_A_b.gif","forced_short","","3","complex_dissimilar","images/stimuli/spore_stims/complex_09_A_b.gif","","","","",""
"","null","html-keyboard-response","52","336873","0.0-15.0-0.3","SS1618438130579","","","null","","","","","","<p><img src= images/blank.png width =""600"" height = ""600"" style=""position:fixed;top:50%; left:50%; transform: translate(-50%, -50%); border:5px solid black"">","","","","","","","",""
"","4725.089999999909","sequential-stimulus-presentation-old","53","342104","0.0-15.0-1.3","SS1618438130579","trial","","40","500","5225.089999999909","images/stimuli/spore_stims/complex_19_A_a.gif","images/stimuli/spore_stims/complex_09_A_b.gif","forced_short","","3","complex_dissimilar","images/stimuli/spore_stims/complex_09_A_b.gif","","","","",""
"","null","html-keyboard-response","54","342975","0.0-15.0-0.4","SS1618438130579","","","null","","","","","","<p><img src= images/blank.png width =""600"" height = ""600"" style=""position:fixed;top:50%; left:50%; transform: translate(-50%, -50%); border:5px solid black"">","","","","","","","",""
"","5171.764999999141","sequential-stimulus-presentation-old","55","348657","0.0-15.0-1.4","SS1618438130579","trial","","40","500","5671.764999999141","images/stimuli/spore_stims/complex_19_A_a.gif","images/stimuli/spore_stims/complex_09_A_b.gif","forced_short","","3","complex_dissimilar","images/stimuli/spore_stims/complex_09_A_b.gif","","","","",""
"","null","html-keyboard-response","56","349556","0.0-15.0-0.5","SS1618438130579","","","null","","","","","","<p><img src= images/blank.png width =""600"" height = ""600"" style=""position:fixed;top:50%; left:50%; transform: translate(-50%, -50%); border:5px solid black"">","","","","","","","",""
"","3025.209999999788","sequential-stimulus-presentation-old","57","353087","0.0-15.0-1.5","SS1618438130579","trial","","40","500","3525.209999999788","images/stimuli/spore_stims/complex_19_A_a.gif","images/stimuli/spore_stims/complex_09_A_b.gif","forced_short","","3","complex_dissimilar","images/stimuli/spore_stims/complex_09_A_b.gif","","","","",""
"","6911.180000002787","survey-multi-choice","58","360002","0.0-16.0","SS1618438130579","math_question","","","","","","","","","","","","{""Q0"":""12""}","[0]","12","",""
"","null","html-keyboard-response","59","361091","0.0-17.0-0.0","SS1618438130579","","","null","","","","","","<p><img src= images/blank.png width =""600"" height = ""600"" style=""position:fixed;top:50%; left:50%; transform: translate(-50%, -50%); border:5px solid black"">","","","","","","","",""
"","4496.934999995574","sequential-stimulus-presentation-old","60","366101","0.0-17.0-1.0","SS1618438130579","trial","","40","500","4996.934999995574","images/stimuli/spore_stims/complex_01_A_b.gif","images/stimuli/spore_stims/complex_12_A_a.gif","self_paced","","4","complex_dissimilar","images/stimuli/spore_stims/complex_12_A_a.gif","","","","",""
"","null","html-keyboard-response","61","367346","0.0-17.0-0.1","SS1618438130579","","","null","","","","","","<p><img src= images/blank.png width =""600"" height = ""600"" style=""position:fixed;top:50%; left:50%; transform: translate(-50%, -50%); border:5px solid black"">","","","","","","","",""
"","2185.8500000016647","sequential-stimulus-presentation-old","62","370040","0.0-17.0-1.1","SS1618438130579","trial","","40","500","2685.8500000016647","images/stimuli/spore_stims/complex_01_A_b.gif","images/stimuli/spore_stims/complex_12_A_a.gif","self_paced","","4","complex_dissimilar","images/stimuli/spore_stims/complex_12_A_a.gif","","","","",""
"","null","html-keyboard-response","63","371205","0.0-17.0-0.2","SS1618438130579","","","null","","","","","","<p><img src= images/blank.png width =""600"" height = ""600"" style=""position:fixed;top:50%; left:50%; transform: translate(-50%, -50%); border:5px solid black"">","","","","","","","",""
"","3784.9199999982375","sequential-stimulus-presentation-old","64","375495","0.0-17.0-1.2","SS1618438130579","trial","","40","500","4284.9199999982375","images/stimuli/spore_stims/complex_01_A_b.gif","images/stimuli/spore_stims/complex_12_A_a.gif","self_paced","","4","complex_dissimilar","images/stimuli/spore_stims/complex_12_A_a.gif","","","","",""
"","null","html-keyboard-response","65","376528","0.0-17.0-0.3","SS1618438130579","","","null","","","","","","<p><img src= images/blank.png width =""600"" height = ""600"" style=""position:fixed;top:50%; left:50%; transform: translate(-50%, -50%); border:5px solid black"">","","","","","","","",""
"","2638.2549999980256","sequential-stimulus-presentation-old","66","379676","0.0-17.0-1.3","SS1618438130579","trial","","40","500","3138.2549999980256","images/stimuli/spore_stims/complex_01_A_b.gif","images/stimuli/spore_stims/complex_12_A_a.gif","self_paced","","4","complex_dissimilar","images/stimuli/spore_stims/complex_12_A_a.gif","","","","",""
"","null","html-keyboard-response","67","380890","0.0-17.0-0.4","SS1618438130579","","","null","","","","","","<p><img src= images/blank.png width =""600"" height = ""600"" style=""position:fixed;top:50%; left:50%; transform: translate(-50%, -50%); border:5px solid black"">","","","","","","","",""
"","2239.125000000058","sequential-stimulus-presentation-old","68","383643","0.0-17.0-1.4","SS1618438130579","trial","","40","500","2739.125000000058","images/stimuli/spore_stims/complex_01_A_b.gif","images/stimuli/spore_stims/complex_12_A_a.gif","self_paced","","4","complex_dissimilar","images/stimuli/spore_stims/complex_12_A_a.gif","","","","",""
"","null","html-keyboard-response","69","384723","0.0-17.0-0.5","SS1618438130579","","","null","","","","","","<p><img src= images/blank.png width =""600"" height = ""600"" style=""position:fixed;top:50%; left:50%; transform: translate(-50%, -50%); border:5px solid black"">","","","","","","","",""
"","1845.3799999988405","sequential-stimulus-presentation-old","70","387081","0.0-17.0-1.5","SS1618438130579","trial","","40","500","2345.3799999988405","images/stimuli/spore_stims/complex_01_A_b.gif","images/stimuli/spore_stims/complex_12_A_a.gif","self_paced","","4","complex_dissimilar","images/stimuli/spore_stims/complex_12_A_a.gif","","","","",""
"","5764.694999998028","survey-multi-choice","71","392847","0.0-18.0","SS1618438130579","math_question","","","","","","","","","","","","{""Q0"":""11""}","[0]","11","",""
"","null","html-keyboard-response","72","393736","0.0-19.0-0.0","SS1618438130579","","","null","","","","","","<p><img src= images/blank.png width =""600"" height = ""600"" style=""position:fixed;top:50%; left:50%; transform: translate(-50%, -50%); border:5px solid black"">","","","","","","","",""
"","4118.759999997565","sequential-stimulus-presentation-old","73","398369","0.0-19.0-1.0","SS1618438130579","trial","","40","500","4618.759999997565","images/stimuli/spore_stims/complex_06_A_a.gif","images/stimuli/spore_stims/complex_11_A_b.gif","self_paced","","5","complex_dissimilar","images/stimuli/spore_stims/complex_11_A_b.gif","","","","",""
"","null","html-keyboard-response","74","399454","0.0-19.0-0.1","SS1618438130579","","","null","","","","","","<p><img src= images/blank.png width =""600"" height = ""600"" style=""position:fixed;top:50%; left:50%; transform: translate(-50%, -50%); border:5px solid black"">","","","","","","","",""
"","8022.485000001325","sequential-stimulus-presentation-old","75","407999","0.0-19.0-1.1","SS1618438130579","trial","","40","500","8522.485000001325","images/stimuli/spore_stims/complex_06_A_a.gif","images/stimuli/spore_stims/complex_11_A_b.gif","self_paced","","5","complex_dissimilar","images/stimuli/spore_stims/complex_11_A_b.gif","","","","",""
"","null","html-keyboard-response","76","408932","0.0-19.0-0.2","SS1618438130579","","","null","","","","","","<p><img src= images/blank.png width =""600"" height = ""600"" style=""position:fixed;top:50%; left:50%; transform: translate(-50%, -50%); border:5px solid black"">","","","","","","","",""
"","4046.9000000011874","sequential-stimulus-presentation-old","77","413493","0.0-19.0-1.2","SS1618438130579","trial","","40","500","4546.900000001187","images/stimuli/spore_stims/complex_06_A_a.gif","images/stimuli/spore_stims/complex_11_A_b.gif","self_paced","","5","complex_dissimilar","images/stimuli/spore_stims/complex_11_A_b.gif","","","","",""
"","null","html-keyboard-response","78","414696","0.0-19.0-0.3","SS1618438130579","","","null","","","","","","<p><img src= images/blank.png width =""600"" height = ""600"" style=""position:fixed;top:50%; left:50%; transform: translate(-50%, -50%); border:5px solid black"">","","","","","","","",""
"","5338.839999996708","sequential-stimulus-presentation-old","79","420545","0.0-19.0-1.3","SS1618438130579","trial","","40","500","5838.839999996708","images/stimuli/spore_stims/complex_06_A_a.gif","images/stimuli/spore_stims/complex_11_A_b.gif","self_paced","","5","complex_dissimilar","images/stimuli/spore_stims/complex_11_A_b.gif","","","","",""
"","null","html-keyboard-response","80","421689","0.0-19.0-0.4","SS1618438130579","","","null","","","","","","<p><img src= images/blank.png width =""600"" height = ""600"" style=""position:fixed;top:50%; left:50%; transform: translate(-50%, -50%); border:5px solid black"">","","","","","","","",""
"","6354.025000000547","sequential-stimulus-presentation-old","81","428566","0.0-19.0-1.4","SS1618438130579","trial","","40","500","6854.025000000547","images/stimuli/spore_stims/complex_06_A_a.gif","images/stimuli/spore_stims/complex_11_A_b.gif","self_paced","","5","complex_dissimilar","images/stimuli/spore_stims/complex_11_A_b.gif","","","","",""
"","4979.055000003427","survey-multi-choice","82","433553","0.0-20.0","SS1618438130579","math_question","","","","","","","","","","","","{""Q0"":""10""}","[0]","10","",""
"","null","html-keyboard-response","83","434464","0.0-21.0-0.0","SS1618438130579","","","null","","","","","","<p><img src= images/blank.png width =""600"" height = ""600"" style=""position:fixed;top:50%; left:50%; transform: translate(-50%, -50%); border:5px solid black"">","","","","","","","",""
"","737.2049999976298","sequential-stimulus-presentation-old","84","435276","0.0-21.0-1.0","SS1618438130579","trial","","40","500","1237.2049999976298","images/stimuli/spore_stims/simple_09_A_a.gif","images/stimuli/spore_stims/simple_14_A_b.gif","forced_short","","6","simple_dissimilar","images/stimuli/spore_stims/simple_14_A_b.gif","","","","",""
"","null","html-keyboard-response","85","436193","0.0-21.0-0.1","SS1618438130579","","","null","","","","","","<p><img src= images/blank.png width =""600"" height = ""600"" style=""position:fixed;top:50%; left:50%; transform: translate(-50%, -50%); border:5px solid black"">","","","","","","","",""
"","3826.0000000009313","sequential-stimulus-presentation-old","86","440532","0.0-21.0-1.1","SS1618438130579","trial","","40","500","4326.000000000931","images/stimuli/spore_stims/simple_09_A_a.gif","images/stimuli/spore_stims/simple_14_A_b.gif","forced_short","","6","simple_dissimilar","images/stimuli/spore_stims/simple_14_A_b.gif","","","","",""
"","null","html-keyboard-response","87","441473","0.0-21.0-0.2","SS1618438130579","","","null","","","","","","<p><img src= images/blank.png width =""600"" height = ""600"" style=""position:fixed;top:50%; left:50%; transform: translate(-50%, -50%); border:5px solid black"">","","","","","","","",""
"","3156.394999998156","sequential-stimulus-presentation-old","88","445144","0.0-21.0-1.2","SS1618438130579","trial","","40","500","3656.394999998156","images/stimuli/spore_stims/simple_09_A_a.gif","images/stimuli/spore_stims/simple_14_A_b.gif","forced_short","","6","simple_dissimilar","images/stimuli/spore_stims/simple_14_A_b.gif","","","","",""
"","null","html-keyboard-response","89","446275","0.0-21.0-0.3","SS1618438130579","","","null","","","","","","<p><img src= images/blank.png width =""600"" height = ""600"" style=""position:fixed;top:50%; left:50%; transform: translate(-50%, -50%); border:5px solid black"">","","","","","","","",""
"","3796.860000002198","sequential-stimulus-presentation-old","90","450598","0.0-21.0-1.3","SS1618438130579","trial","","40","500","4296.860000002198","images/stimuli/spore_stims/simple_09_A_a.gif","images/stimuli/spore_stims/simple_14_A_b.gif","forced_short","","6","simple_dissimilar","images/stimuli/spore_stims/simple_14_A_b.gif","","","","",""
"","7224.900000001071","survey-multi-choice","91","457829","0.0-22.0","SS1618438130579","math_question","","","","","","","","","","","","{""Q0"":""17""}","[0]","17","",""
"","null","html-keyboard-response","92","459066","0.0-23.0-0.0","SS1618438130579","","","null","","","","","","<p><img src= images/blank.png width =""600"" height = ""600"" style=""position:fixed;top:50%; left:50%; transform: translate(-50%, -50%); border:5px solid black"">","","","","","","","",""
"","531.9850000014412","sequential-stimulus-presentation-old","93","464602","0.0-23.0-1.0","SS1618438130579","trial","","40","500","1031.9850000014412","images/stimuli/spore_stims/simple_17_A_a.gif","images/stimuli/spore_stims/simple_20_A_b.gif","forced_long","","7","simple_dissimilar","images/stimuli/spore_stims/simple_20_A_b.gif","","","","",""
"","null","html-keyboard-response","94","465690","0.0-23.0-0.1","SS1618438130579","","","null","","","","","","<p><img src= images/blank.png width =""600"" height = ""600"" style=""position:fixed;top:50%; left:50%; transform: translate(-50%, -50%); border:5px solid black"">","","","","","","","",""
"","3983.664999999746","sequential-stimulus-presentation-old","95","470191","0.0-23.0-1.1","SS1618438130579","trial","","40","500","4483.664999999746","images/stimuli/spore_stims/simple_17_A_a.gif","images/stimuli/spore_stims/simple_20_A_b.gif","forced_long","","7","simple_dissimilar","images/stimuli/spore_stims/simple_20_A_b.gif","","","","",""
"","null","html-keyboard-response","96","471130","0.0-23.0-0.2","SS1618438130579","","","null","","","","","","<p><img src= images/blank.png width =""600"" height = ""600"" style=""position:fixed;top:50%; left:50%; transform: translate(-50%, -50%); border:5px solid black"">","","","","","","","",""
"","4387.054999999236","sequential-stimulus-presentation-old","97","476032","0.0-23.0-1.2","SS1618438130579","trial","","40","500","4887.054999999236","images/stimuli/spore_stims/simple_17_A_a.gif","images/stimuli/spore_stims/simple_20_A_b.gif","forced_long","","7","simple_dissimilar","images/stimuli/spore_stims/simple_17_A_a.gif","","","","",""
"","null","html-keyboard-response","98","477072","0.0-23.0-0.3","SS1618438130579","","","null","","","","","","<p><img src= images/blank.png width =""600"" height = ""600"" style=""position:fixed;top:50%; left:50%; transform: translate(-50%, -50%); border:5px solid black"">","","","","","","","",""
"","4398.45499999501","sequential-stimulus-presentation-old","99","481985","0.0-23.0-1.3","SS1618438130579","trial","","40","500","4898.45499999501","images/stimuli/spore_stims/simple_17_A_a.gif","images/stimuli/spore_stims/simple_20_A_b.gif","forced_long","","7","simple_dissimilar","images/stimuli/spore_stims/simple_20_A_b.gif","","","","",""
"","null","html-keyboard-response","100","483200","0.0-23.0-0.4","SS1618438130579","","","null","","","","","","<p><img src= images/blank.png width =""600"" height = ""600"" style=""position:fixed;top:50%; left:50%; transform: translate(-50%, -50%); border:5px solid black"">","","","","","","","",""
"","3383.6599999995087","sequential-stimulus-presentation-old","101","487093","0.0-23.0-1.4","SS1618438130579","trial","","40","500","3883.6599999995087","images/stimuli/spore_stims/simple_17_A_a.gif","images/stimuli/spore_stims/simple_20_A_b.gif","forced_long","","7","simple_dissimilar","images/stimuli/spore_stims/simple_17_A_a.gif","","","","",""
"","3226.504999998724","survey-multi-choice","102","490327","0.0-24.0","SS1618438130579","math_question","","","","","","","","","","","","{""Q0"":""14""}","[0]","14","",""
"","null","html-keyboard-response","103","491595","0.0-25.0-0.0","SS1618438130579","","","null","","","","","","<p><img src= images/blank.png width =""600"" height = ""600"" style=""position:fixed;top:50%; left:50%; transform: translate(-50%, -50%); border:5px solid black"">","","","","","","","",""
"","4166.205000001355","sequential-stimulus-presentation-old","104","500780","0.0-25.0-1.0","SS1618438130579","trial","","40","500","4666.205000001355","images/stimuli/spore_stims/complex_12_A_b.gif","images/stimuli/spore_stims/complex_18_A_a.gif","forced_long","","8","complex_dissimilar","images/stimuli/spore_stims/complex_18_A_a.gif","","","","",""
"","null","html-keyboard-response","105","501666","0.0-25.0-0.1","SS1618438130579","","","null","","","","","","<p><img src= images/blank.png width =""600"" height = ""600"" style=""position:fixed;top:50%; left:50%; transform: translate(-50%, -50%); border:5px solid black"">","","","","","","","",""
"","3723.180000000866","sequential-stimulus-presentation-old","106","505893","0.0-25.0-1.1","SS1618438130579","trial","","40","500","4223.180000000866","images/stimuli/spore_stims/complex_12_A_b.gif","images/stimuli/spore_stims/complex_18_A_a.gif","forced_long","","8","complex_dissimilar","images/stimuli/spore_stims/complex_18_A_a.gif","","","","",""
"","null","html-keyboard-response","107","506722","0.0-25.0-0.2","SS1618438130579","","","null","","","","","","<p><img src= images/blank.png width =""600"" height = ""600"" style=""position:fixed;top:50%; left:50%; transform: translate(-50%, -50%); border:5px solid black"">","","","","","","","",""
"","7104.169999998703","sequential-stimulus-presentation-old","108","514348","0.0-25.0-1.2","SS1618438130579","trial","","40","500","7604.169999998703","images/stimuli/spore_stims/complex_12_A_b.gif","images/stimuli/spore_stims/complex_18_A_a.gif","forced_long","","8","complex_dissimilar","images/stimuli/spore_stims/complex_12_A_b.gif","","","","",""
"","null","html-keyboard-response","109","515565","0.0-25.0-0.3","SS1618438130579","","","null","","","","","","<p><img src= images/blank.png width =""600"" height = ""600"" style=""position:fixed;top:50%; left:50%; transform: translate(-50%, -50%); border:5px solid black"">","","","","","","","",""
"","4460.7249999971245","sequential-stimulus-presentation-old","110","520539","0.0-25.0-1.3","SS1618438130579","trial","","40","500","4960.7249999971245","images/stimuli/spore_stims/complex_12_A_b.gif","images/stimuli/spore_stims/complex_18_A_a.gif","forced_long","","8","complex_dissimilar","images/stimuli/spore_stims/complex_18_A_a.gif","","","","",""
"","null","html-keyboard-response","111","521518","0.0-25.0-0.4","SS1618438130579","","","null","","","","","","<p><img src= images/blank.png width =""600"" height = ""600"" style=""position:fixed;top:50%; left:50%; transform: translate(-50%, -50%); border:5px solid black"">","","","","","","","",""
"","5716.764999997336","sequential-stimulus-presentation-old","112","527741","0.0-25.0-1.4","SS1618438130579","trial","","40","500","6216.764999997336","images/stimuli/spore_stims/complex_12_A_b.gif","images/stimuli/spore_stims/complex_18_A_a.gif","forced_long","","8","complex_dissimilar","images/stimuli/spore_stims/complex_18_A_a.gif","","","","",""
"","null","html-keyboard-response","113","528681","0.0-25.0-0.5","SS1618438130579","","","null","","","","","","<p><img src= images/blank.png width =""600"" height = ""600"" style=""position:fixed;top:50%; left:50%; transform: translate(-50%, -50%); border:5px solid black"">","","","","","","","",""
"","5496.075000002747","sequential-stimulus-presentation-old","114","534696","0.0-25.0-1.5","SS1618438130579","trial","","40","500","5996.075000002747","images/stimuli/spore_stims/complex_12_A_b.gif","images/stimuli/spore_stims/complex_18_A_a.gif","forced_long","","8","complex_dissimilar","images/stimuli/spore_stims/complex_18_A_a.gif","","","","",""
"","3331.8749999961583","survey-multi-choice","115","538031","0.0-26.0","SS1618438130579","math_question","","","","","","","","","","","","{""Q0"":""12""}","[0]","12","",""
"","null","html-keyboard-response","116","538872","0.0-27.0-0.0","SS1618438130579","","","null","","","","","","<p><img src= images/blank.png width =""600"" height = ""600"" style=""position:fixed;top:50%; left:50%; transform: translate(-50%, -50%); border:5px solid black"">","","","","","","","",""
"","6934.05999999959","sequential-stimulus-presentation-old","117","546322","0.0-27.0-1.0","SS1618438130579","trial","","40","500","7434.05999999959","images/stimuli/spore_stims/simple_15_A_a.gif","images/stimuli/spore_stims/simple_09_A_b.gif","self_paced","","9","simple_dissimilar","images/stimuli/spore_stims/simple_09_A_b.gif","","","","",""
"","null","html-keyboard-response","118","547455","0.0-27.0-0.1","SS1618438130579","","","null","","","","","","<p><img src= images/blank.png width =""600"" height = ""600"" style=""position:fixed;top:50%; left:50%; transform: translate(-50%, -50%); border:5px solid black"">","","","","","","","",""
"","5923.314999999944","sequential-stimulus-presentation-old","119","553900","0.0-27.0-1.1","SS1618438130579","trial","","40","500","6423.314999999944","images/stimuli/spore_stims/simple_15_A_a.gif","images/stimuli/spore_stims/simple_09_A_b.gif","self_paced","","9","simple_dissimilar","images/stimuli/spore_stims/simple_09_A_b.gif","","","","",""
"","null","html-keyboard-response","120","554941","0.0-27.0-0.2","SS1618438130579","","","null","","","","","","<p><img src= images/blank.png width =""600"" height = ""600"" style=""position:fixed;top:50%; left:50%; transform: translate(-50%, -50%); border:5px solid black"">","","","","","","","",""
"","2132.825000000652","sequential-stimulus-presentation-old","121","557601","0.0-27.0-1.2","SS1618438130579","trial","","40","500","2632.825000000652","images/stimuli/spore_stims/simple_15_A_a.gif","images/stimuli/spore_stims/simple_09_A_b.gif","self_paced","","9","simple_dissimilar","images/stimuli/spore_stims/simple_09_A_b.gif","","","","",""
"","null","html-keyboard-response","122","558711","0.0-27.0-0.3","SS1618438130579","","","null","","","","","","<p><img src= images/blank.png width =""600"" height = ""600"" style=""position:fixed;top:50%; left:50%; transform: translate(-50%, -50%); border:5px solid black"">","","","","","","","",""
"","4186.51499999396","sequential-stimulus-presentation-old","123","563407","0.0-27.0-1.3","SS1618438130579","trial","","40","500","4686.51499999396","images/stimuli/spore_stims/simple_15_A_a.gif","images/stimuli/spore_stims/simple_09_A_b.gif","self_paced","","9","simple_dissimilar","images/stimuli/spore_stims/simple_09_A_b.gif","","","","",""
"","null","html-keyboard-response","124","564435","0.0-27.0-0.4","SS1618438130579","","","null","","","","","","<p><img src= images/blank.png width =""600"" height = ""600"" style=""position:fixed;top:50%; left:50%; transform: translate(-50%, -50%); border:5px solid black"">","","","","","","","",""
"","2161.5000000018626","sequential-stimulus-presentation-old","125","567105","0.0-27.0-1.4","SS1618438130579","trial","","40","500","2661.5000000018626","images/stimuli/spore_stims/simple_15_A_a.gif","images/stimuli/spore_stims/simple_09_A_b.gif","self_paced","","9","simple_dissimilar","images/stimuli/spore_stims/simple_09_A_b.gif","","","","",""
"","3457.0650000022724","survey-multi-choice","126","570571","0.0-28.0","SS1618438130579","math_question","","","","","","","","","","","","{""Q0"":""8""}","[0]","8","",""
"","null","html-keyboard-response","127","571428","0.0-29.0-0.0","SS1618438130579","","","null","","","","","","<p><img src= images/blank.png width =""600"" height = ""600"" style=""position:fixed;top:50%; left:50%; transform: translate(-50%, -50%); border:5px solid black"">","","","","","","","",""
"","7237.065000001225","sequential-stimulus-presentation-old","128","579175","0.0-29.0-1.0","SS1618438130579","trial","","40","500","7737.065000001225","images/stimuli/spore_stims/simple_12_A_b.gif","images/stimuli/spore_stims/simple_05_A_a.gif","self_paced","","10","simple_dissimilar","images/stimuli/spore_stims/simple_05_A_a.gif","","","","",""
"","null","html-keyboard-response","129","580469","0.0-29.0-0.1","SS1618438130579","","","null","","","","","","<p><img src= images/blank.png width =""600"" height = ""600"" style=""position:fixed;top:50%; left:50%; transform: translate(-50%, -50%); border:5px solid black"">","","","","","","","",""
"","9335.46999999811","sequential-stimulus-presentation-old","130","590318","0.0-29.0-1.1","SS1618438130579","trial","","40","500","9835.46999999811","images/stimuli/spore_stims/simple_12_A_b.gif","images/stimuli/spore_stims/simple_05_A_a.gif","self_paced","","10","simple_dissimilar","images/stimuli/spore_stims/simple_05_A_a.gif","","","","",""
"","null","html-keyboard-response","131","591235","0.0-29.0-0.2","SS1618438130579","","","null","","","","","","<p><img src= images/blank.png width =""600"" height = ""600"" style=""position:fixed;top:50%; left:50%; transform: translate(-50%, -50%); border:5px solid black"">","","","","","","","",""
"","3777.9499999961117","sequential-stimulus-presentation-old","132","595523","0.0-29.0-1.2","SS1618438130579","trial","","40","500","4277.949999996112","images/stimuli/spore_stims/simple_12_A_b.gif","images/stimuli/spore_stims/simple_05_A_a.gif","self_paced","","10","simple_dissimilar","images/stimuli/spore_stims/simple_12_A_b.gif","","","","",""
"","null","html-keyboard-response","133","596654","0.0-29.0-0.3","SS1618438130579","","","null","","","","","","<p><img src= images/blank.png width =""600"" height = ""600"" style=""position:fixed;top:50%; left:50%; transform: translate(-50%, -50%); border:5px solid black"">","","","","","","","",""
"","2864.9799999985844","sequential-stimulus-presentation-old","134","600026","0.0-29.0-1.3","SS1618438130579","trial","","40","500","3364.9799999985844","images/stimuli/spore_stims/simple_12_A_b.gif","images/stimuli/spore_stims/simple_05_A_a.gif","self_paced","","10","simple_dissimilar","images/stimuli/spore_stims/simple_05_A_a.gif","","","","",""
"","null","html-keyboard-response","135","601202","0.0-29.0-0.4","SS1618438130579","","","null","","","","","","<p><img src= images/blank.png width =""600"" height = ""600"" style=""position:fixed;top:50%; left:50%; transform: translate(-50%, -50%); border:5px solid black"">","","","","","","","",""
"","2939.7549999994226","sequential-stimulus-presentation-old","136","604658","0.0-29.0-1.4","SS1618438130579","trial","","40","500","3439.7549999994226","images/stimuli/spore_stims/simple_12_A_b.gif","images/stimuli/spore_stims/simple_05_A_a.gif","self_paced","","10","simple_dissimilar","images/stimuli/spore_stims/simple_05_A_a.gif","","","","",""
"","null","html-keyboard-response","137","605506","0.0-29.0-0.5","SS1618438130579","","","null","","","","","","<p><img src= images/blank.png width =""600"" height = ""600"" style=""position:fixed;top:50%; left:50%; transform: translate(-50%, -50%); border:5px solid black"">","","","","","","","",""
"","5928.550000004121","sequential-stimulus-presentation-old","138","611941","0.0-29.0-1.5","SS1618438130579","trial","","40","500","6428.550000004121","images/stimuli/spore_stims/simple_12_A_b.gif","images/stimuli/spore_stims/simple_05_A_a.gif","self_paced","","10","simple_dissimilar","images/stimuli/spore_stims/simple_12_A_b.gif","","","","",""
"","4221.799999999348","survey-multi-choice","139","616173","0.0-30.0","SS1618438130579","math_question","","","","","","","","","","","","{""Q0"":""8""}","[0]","8","",""
"","null","html-keyboard-response","140","617248","0.0-31.0-0.0","SS1618438130579","","","null","","","","","","<p><img src= images/blank.png width =""600"" height = ""600"" style=""position:fixed;top:50%; left:50%; transform: translate(-50%, -50%); border:5px solid black"">","","","","","","","",""
"","1717.4699999958975","sequential-stimulus-presentation-old","141","619023","0.0-31.0-1.0","SS1618438130579","trial","","40","500","2217.4699999958975","images/stimuli/spore_stims/simple_03_A_b.gif","images/stimuli/spore_stims/simple_04_A_a.gif","forced_short","","11","simple_dissimilar","images/stimuli/spore_stims/simple_04_A_a.gif","","","","",""
"","null","html-keyboard-response","142","619925","0.0-31.0-0.1","SS1618438130579","","","null","","","","","","<p><img src= images/blank.png width =""600"" height = ""600"" style=""position:fixed;top:50%; left:50%; transform: translate(-50%, -50%); border:5px solid black"">","","","","","","","",""
"","2872.5500000000466","sequential-stimulus-presentation-old","143","623310","0.0-31.0-1.1","SS1618438130579","trial","","40","500","3372.5500000000466","images/stimuli/spore_stims/simple_03_A_b.gif","images/stimuli/spore_stims/simple_04_A_a.gif","forced_short","","11","simple_dissimilar","images/stimuli/spore_stims/simple_04_A_a.gif","","","","",""
"","null","html-keyboard-response","144","624365","0.0-31.0-0.2","SS1618438130579","","","null","","","","","","<p><img src= images/blank.png width =""600"" height = ""600"" style=""position:fixed;top:50%; left:50%; transform: translate(-50%, -50%); border:5px solid black"">","","","","","","","",""
"","4307.014999998501","sequential-stimulus-presentation-old","145","629179","0.0-31.0-1.2","SS1618438130579","trial","","40","500","4807.014999998501","images/stimuli/spore_stims/simple_03_A_b.gif","images/stimuli/spore_stims/simple_04_A_a.gif","forced_short","","11","simple_dissimilar","images/stimuli/spore_stims/simple_04_A_a.gif","","","","",""
"","null","html-keyboard-response","146","630317","0.0-31.0-0.3","SS1618438130579","","","null","","","","","","<p><img src= images/blank.png width =""600"" height = ""600"" style=""position:fixed;top:50%; left:50%; transform: translate(-50%, -50%); border:5px solid black"">","","","","","","","",""
"","4269.609999995795","sequential-stimulus-presentation-old","147","635097","0.0-31.0-1.3","SS1618438130579","trial","","40","500","4769.609999995795","images/stimuli/spore_stims/simple_03_A_b.gif","images/stimuli/spore_stims/simple_04_A_a.gif","forced_short","","11","simple_dissimilar","images/stimuli/spore_stims/simple_04_A_a.gif","","","","",""
"","null","html-keyboard-response","148","636031","0.0-31.0-0.4","SS1618438130579","","","null","","","","","","<p><img src= images/blank.png width =""600"" height = ""600"" style=""position:fixed;top:50%; left:50%; transform: translate(-50%, -50%); border:5px solid black"">","","","","","","","",""
"","3469.844999999623","sequential-stimulus-presentation-old","149","640017","0.0-31.0-1.4","SS1618438130579","trial","","40","500","3969.844999999623","images/stimuli/spore_stims/simple_03_A_b.gif","images/stimuli/spore_stims/simple_04_A_a.gif","forced_short","","11","simple_dissimilar","images/stimuli/spore_stims/simple_04_A_a.gif","","","","",""
"","null","html-keyboard-response","150","641070","0.0-31.0-0.5","SS1618438130579","","","null","","","","","","<p><img src= images/blank.png width =""600"" height = ""600"" style=""position:fixed;top:50%; left:50%; transform: translate(-50%, -50%); border:5px solid black"">","","","","","","","",""
"","1836.3150000005262","sequential-stimulus-presentation-old","151","643410","0.0-31.0-1.5","SS1618438130579","trial","","40","500","2336.315000000526","images/stimuli/spore_stims/simple_03_A_b.gif","images/stimuli/spore_stims/simple_04_A_a.gif","forced_short","","11","simple_dissimilar","images/stimuli/spore_stims/simple_04_A_a.gif","","","","",""
"[{""page_index"":0,""viewing_time"":6623.260000000242}]","6623.560000000056","instructions","152","650037","0.0-32.0","SS1618438130579","instructions","","","","","","","","","","","","","","","",""
"","8380.560000005178","survey-likert","153","658422","0.0-33.0","SS1618438130579","similarity_question","","","","","","","","","","","","{""Q0"":5}","[0]","","images/stimuli/spore_stims/simple_17_A_a.gif","images/stimuli/spore_stims/simple_20_A_b.gif"
"","6499.329999998794","survey-likert","154","664928","0.0-34.0","SS1618438130579","similarity_question","","","","","","","","","","","","{""Q0"":4}","[0]","","images/stimuli/spore_stims/simple_09_A_a.gif","images/stimuli/spore_stims/simple_14_A_b.gif"
"","4768.649999998161","survey-likert","155","669704","0.0-35.0","SS1618438130579","similarity_question","","","","","","","","","","","","{""Q0"":4}","[0]","","images/stimuli/spore_stims/complex_14_A_a.gif","images/stimuli/spore_stims/complex_19_A_b.gif"
"","8108.4550000014715","survey-likert","156","677812","0.0-36.0","SS1618438130579","similarity_question","","","","","","","","","","","","{""Q0"":4}","[0]","","images/stimuli/spore_stims/complex_12_A_b.gif","images/stimuli/spore_stims/complex_18_A_a.gif"
"","6277.285000003874","survey-likert","157","684097","0.0-37.0","SS1618438130579","similarity_question","","","","","","","","","","","","{""Q0"":3}","[0]","","images/stimuli/spore_stims/complex_01_A_b.gif","images/stimuli/spore_stims/complex_12_A_a.gif"
"","7181.104999996023","survey-likert","158","691285","0.0-38.0","SS1618438130579","similarity_question","","","","","","","","","","","","{""Q0"":2}","[0]","","images/stimuli/spore_stims/complex_06_A_a.gif","images/stimuli/spore_stims/complex_11_A_b.gif"
"","3770.6500000057276","survey-likert","159","695062","0.0-39.0","SS1618438130579","similarity_question","","","","","","","","","","","","{""Q0"":4}","[0]","","images/stimuli/spore_stims/simple_12_A_b.gif","images/stimuli/spore_stims/simple_05_A_a.gif"
"","5713.690000004135","survey-likert","160","700783","0.0-40.0","SS1618438130579","similarity_question","","","","","","","","","","","","{""Q0"":6}","[0]","","images/stimuli/spore_stims/simple_09_A_b.gif","images/stimuli/spore_stims/simple_15_A_a.gif"
"","3309.9549999970477","survey-likert","161","704100","0.0-41.0","SS1618438130579","similarity_question","","","","","","","","","","","","{""Q0"":4}","[0]","","images/stimuli/spore_stims/simple_03_A_b.gif","images/stimuli/spore_stims/simple_04_A_a.gif"
"","4451.83000000543","survey-likert","162","708559","0.0-42.0","SS1618438130579","similarity_question","","","","","","","","","","","","{""Q0"":1}","[0]","","images/stimuli/spore_stims/complex_18_A_b.gif","images/stimuli/spore_stims/complex_01_A_a.gif"
"","4503.284999998752","survey-likert","163","713069","0.0-43.0","SS1618438130579","similarity_question","","","","","","","","","","","","{""Q0"":3}","[0]","","images/stimuli/spore_stims/simple_06_A_a.gif","images/stimuli/spore_stims/simple_17_A_b.gif"
"","5928.7750000003725","survey-likert","164","719005","0.0-44.0","SS1618438130579","similarity_question","","","","","","","","","","","","{""Q0"":4}","[0]","","images/stimuli/spore_stims/complex_09_A_b.gif","images/stimuli/spore_stims/complex_19_A_a.gif"
"[{""page_index"":0,""viewing_time"":4834.945000002277}]","4835.144999997341","instructions","165","723846","0.0-45.0","SS1618438130579","instructions","","","","","","","","","","","","","","","",""
"","4865.24500000081","survey-likert","166","728714","0.0-46.0","SS1618438130579","","","","","","","","","images/stimuli/spore_stims/simple_14_A_b.gif","","","","{""Q0"":0}","[0]","","",""
"","7184.8550000067335","survey-likert","167","735913","0.0-47.0","SS1618438130579","","","","","","","","","images/stimuli/spore_stims/complex_11_A_b.gif","","","","{""Q0"":6}","[0]","","",""
"","2948.864999998361","survey-likert","168","738869","0.0-48.0","SS1618438130579","","","","","","","","","images/stimuli/spore_stims/complex_12_A_a.gif","","","","{""Q0"":6}","[0]","","",""
"","2266.860000003362","survey-likert","169","741143","0.0-49.0","SS1618438130579","","","","","","","","","images/stimuli/spore_stims/complex_14_A_a.gif","","","","{""Q0"":5}","[0]","","",""
"","2869.8500000027707","survey-likert","170","744019","0.0-50.0","SS1618438130579","","","","","","","","","images/stimuli/spore_stims/complex_01_A_a.gif","","","","{""Q0"":5}","[0]","","",""
"","3736.030000000028","survey-likert","171","747761","0.0-51.0","SS1618438130579","","","","","","","","","images/stimuli/spore_stims/simple_15_A_a.gif","","","","{""Q0"":0}","[0]","","",""
"","7926.71499999403","survey-likert","172","755695","0.0-52.0","SS1618438130579","","","","","","","","","images/stimuli/spore_stims/complex_19_A_a.gif","","","","{""Q0"":5}","[0]","","",""
"","2907.274999997695","survey-likert","173","758610","0.0-53.0","SS1618438130579","","","","","","","","","images/stimuli/spore_stims/simple_03_A_b.gif","","","","{""Q0"":1}","[0]","","",""
"","3790.960000005667","survey-likert","174","762407","0.0-54.0","SS1618438130579","","","","","","","","","images/stimuli/spore_stims/complex_12_A_b.gif","","","","{""Q0"":6}","[0]","","",""
"","3398.6099999964936","survey-likert","175","765813","0.0-55.0","SS1618438130579","","","","","","","","","images/stimuli/spore_stims/simple_05_A_a.gif","","","","{""Q0"":0}","[0]","","",""
"","2420.1749999992317","survey-likert","176","768240","0.0-56.0","SS1618438130579","","","","","","","","","images/stimuli/spore_stims/simple_20_A_b.gif","","","","{""Q0"":1}","[0]","","",""
"","2644.9199999988778","survey-likert","177","770891","0.0-57.0","SS1618438130579","","","","","","","","","images/stimuli/spore_stims/simple_17_A_b.gif","","","","{""Q0"":0}","[0]","","",""
"[{""page_index"":0,""viewing_time"":1951.469999999972}]","1951.6849999999395","instructions","178","772849","0.0-58.0","SS1618438130579","instructions","","","","","","","","","","","","","","","",""
"","4906.380000000354","demog-age","179","777762","0.0-59.0","SS1618438130579","","","","","","","","","","","","","{""age"":""18""}","","","",""
"","4137.510000000475","demog-ethnic-US","180","781908","0.0-60.0","SS1618438130579","","","","","","","","","","","","","{""ethnicity"":[""White""]}","[0]","","",""
"","16407.16500000411","demog-gender-and-education","181","798321","0.0-61.0","SS1618438130579","","","","","","","","","","","","","{""gender"":""Male"",""education"":""High school diploma""}","[0,1]","","",""
"","38553.56500000204","survey-text","182","836884","0.0-62.0","SS1618438130579","feedback","","","","","","","","","","","","{""Q0"":""Everything was fine. No issues at all!""}","","","",""
"[{""page_index"":0,""viewing_time"":2444.6699999971315}]","2444.9600000006612","instructions","183","839336","0.0-63.0","SS1618438130579","instructions","","","","","","","","","","","","","","","",""
