"view_history","rt","trial_type","trial_index","time_elapsed","internal_node_id","subject","stimulus_type","trial_stimulus","key_press","minimum_viewing_duration","trial_looking_time","block_deviant","block_background","exposure_type","stimulus","block_number","block_type","stimulus_displayed","responses","question_order","math_correct_answer","stimulus_left","stimulus_right"
"[{""page_index"":0,""viewing_time"":1723.069999992731}]","1723.2700000022305","instructions","0","1724","0.0-0.0","SS1618366020131","","","","","","","","","","","","","","","","",""
"[{""page_index"":0,""viewing_time"":21917.379999998957},{""page_index"":1,""viewing_time"":4884.720000001835}]","26802.27499999455","instructions","1","30528","0.0-1.0","SS1618366020131","instructions","","","","","","","","","","","","","","","",""
"","3974.480000004405","sequential-stimulus-presentation-old","2","35006","0.0-2.0","SS1618366020131","","","40","500","4474.480000004405","null","null","self_paced","","","","","","","","",""
"","15729.46500001126","sequential-stimulus-presentation-old","3","51249","0.0-3.0","SS1618366020131","","","40","500","16229.46500001126","null","null","self_paced","","","","","","","","",""
"[{""page_index"":0,""viewing_time"":26243.229999992764}]","26243.384999994305","instructions","4","77492","0.0-4.0","SS1618366020131","instructions","","","","","","","","","","","","","","","",""
"","1926.6849999985425","sequential-stimulus-presentation-old","5","84421","0.0-5.0","SS1618366020131","","","40","500","2426.6849999985425","null","null","forced_long","","","","","","","","",""
"","6943.030000009458","sequential-stimulus-presentation-old","6","91417","0.0-6.0","SS1618366020131","","","40","50","6993.030000009458","null","null","forced_long","","","","","","","","",""
"[{""page_index"":0,""viewing_time"":2381.2550000002375}]","2381.3999999983935","instructions","7","93799","0.0-7.0","SS1618366020131","instructions","","","","","","","","","","","","","","","",""
"[{""page_index"":0,""viewing_time"":976550.5850000045},{""page_index"":1,""viewing_time"":3324.2549999994226},{""page_index"":2,""viewing_time"":1388.890000001993},{""page_index"":3,""viewing_time"":968.7299999934621},{""page_index"":4,""viewing_time"":1058.8900000001304}]","983291.5050000012","instructions","8","1077091","0.0-8.0","SS1618366020131","instructions","","","","","","","","","","","","","","","",""
"","null","html-keyboard-response","9","1078106","0.0-9.0-0.0","SS1618366020131","","","null","","","","","","<p><img src= images/blank.png width =""600"" height = ""600"" style=""position:fixed;top:50%; left:50%; transform: translate(-50%, -50%); border:5px solid black"">","","","","","","","",""
"","959.1599999982864","sequential-stimulus-presentation-old","10","1079117","0.0-9.0-1.0","SS1618366020131","trial","","40","500","1459.1599999982864","images/stimuli/spore_stims/simple_09_A_a.gif","images/stimuli/spore_stims/simple_08_A_b.gif","forced_short","","0","simple_dissimilar","images/stimuli/spore_stims/simple_08_A_b.gif","","","","",""
"","null","html-keyboard-response","11","1080177","0.0-9.0-0.1","SS1618366020131","","","null","","","","","","<p><img src= images/blank.png width =""600"" height = ""600"" style=""position:fixed;top:50%; left:50%; transform: translate(-50%, -50%); border:5px solid black"">","","","","","","","",""
"","4128.010000000242","sequential-stimulus-presentation-old","12","1084808","0.0-9.0-1.1","SS1618366020131","trial","","40","500","4628.010000000242","images/stimuli/spore_stims/simple_09_A_a.gif","images/stimuli/spore_stims/simple_08_A_b.gif","forced_short","","0","simple_dissimilar","images/stimuli/spore_stims/simple_08_A_b.gif","","","","",""
"","null","html-keyboard-response","13","1085721","0.0-9.0-0.2","SS1618366020131","","","null","","","","","","<p><img src= images/blank.png width =""600"" height = ""600"" style=""position:fixed;top:50%; left:50%; transform: translate(-50%, -50%); border:5px solid black"">","","","","","","","",""
"","2678.220000001602","sequential-stimulus-presentation-old","14","1088906","0.0-9.0-1.2","SS1618366020131","trial","","40","500","3178.220000001602","images/stimuli/spore_stims/simple_09_A_a.gif","images/stimuli/spore_stims/simple_08_A_b.gif","forced_short","","0","simple_dissimilar","images/stimuli/spore_stims/simple_08_A_b.gif","","","","",""
"","null","html-keyboard-response","15","1090055","0.0-9.0-0.3","SS1618366020131","","","null","","","","","","<p><img src= images/blank.png width =""600"" height = ""600"" style=""position:fixed;top:50%; left:50%; transform: translate(-50%, -50%); border:5px solid black"">","","","","","","","",""
"","3633.7249999926426","sequential-stimulus-presentation-old","16","1094191","0.0-9.0-1.3","SS1618366020131","trial","","40","500","4133.724999992643","images/stimuli/spore_stims/simple_09_A_a.gif","images/stimuli/spore_stims/simple_08_A_b.gif","forced_short","","0","simple_dissimilar","images/stimuli/spore_stims/simple_08_A_b.gif","","","","",""
"","null","html-keyboard-response","17","1095317","0.0-9.0-0.4","SS1618366020131","","","null","","","","","","<p><img src= images/blank.png width =""600"" height = ""600"" style=""position:fixed;top:50%; left:50%; transform: translate(-50%, -50%); border:5px solid black"">","","","","","","","",""
"","3057.2699999902397","sequential-stimulus-presentation-old","18","1098877","0.0-9.0-1.4","SS1618366020131","trial","","40","500","3557.2699999902397","images/stimuli/spore_stims/simple_09_A_a.gif","images/stimuli/spore_stims/simple_08_A_b.gif","forced_short","","0","simple_dissimilar","images/stimuli/spore_stims/simple_09_A_a.gif","","","","",""
"","null","html-keyboard-response","19","1099723","0.0-9.0-0.5","SS1618366020131","","","null","","","","","","<p><img src= images/blank.png width =""600"" height = ""600"" style=""position:fixed;top:50%; left:50%; transform: translate(-50%, -50%); border:5px solid black"">","","","","","","","",""
"","2628.0450000050478","sequential-stimulus-presentation-old","20","1102854","0.0-9.0-1.5","SS1618366020131","trial","","40","500","3128.0450000050478","images/stimuli/spore_stims/simple_09_A_a.gif","images/stimuli/spore_stims/simple_08_A_b.gif","forced_short","","0","simple_dissimilar","images/stimuli/spore_stims/simple_08_A_b.gif","","","","",""
"","2289.3250000053085","survey-multi-choice","21","1105144","0.0-10.0","SS1618366020131","math_question","","","","","","","","","","","","{""Q0"":""3""}","[0]","3","",""
"","null","html-keyboard-response","22","1106350","0.0-11.0-0.0","SS1618366020131","","","null","","","","","","<p><img src= images/blank.png width =""600"" height = ""600"" style=""position:fixed;top:50%; left:50%; transform: translate(-50%, -50%); border:5px solid black"">","","","","","","","",""
"","816.4950000061654","sequential-stimulus-presentation-old","23","1107219","0.0-11.0-1.0","SS1618366020131","trial","","40","500","1316.4950000061654","images/stimuli/spore_stims/complex_09_A_a.gif","images/stimuli/spore_stims/complex_01_A_b.gif","forced_short","","1","complex_dissimilar","images/stimuli/spore_stims/complex_01_A_b.gif","","","","",""
"","null","html-keyboard-response","24","1108338","0.0-11.0-0.1","SS1618366020131","","","null","","","","","","<p><img src= images/blank.png width =""600"" height = ""600"" style=""position:fixed;top:50%; left:50%; transform: translate(-50%, -50%); border:5px solid black"">","","","","","","","",""
"","3131.6550000046846","sequential-stimulus-presentation-old","25","1111971","0.0-11.0-1.1","SS1618366020131","trial","","40","500","3631.6550000046846","images/stimuli/spore_stims/complex_09_A_a.gif","images/stimuli/spore_stims/complex_01_A_b.gif","forced_short","","1","complex_dissimilar","images/stimuli/spore_stims/complex_09_A_a.gif","","","","",""
"","null","html-keyboard-response","26","1113141","0.0-11.0-0.2","SS1618366020131","","","null","","","","","","<p><img src= images/blank.png width =""600"" height = ""600"" style=""position:fixed;top:50%; left:50%; transform: translate(-50%, -50%); border:5px solid black"">","","","","","","","",""
"","2533.5199999972247","sequential-stimulus-presentation-old","27","1116177","0.0-11.0-1.2","SS1618366020131","trial","","40","500","3033.5199999972247","images/stimuli/spore_stims/complex_09_A_a.gif","images/stimuli/spore_stims/complex_01_A_b.gif","forced_short","","1","complex_dissimilar","images/stimuli/spore_stims/complex_01_A_b.gif","","","","",""
"","null","html-keyboard-response","28","1117488","0.0-11.0-0.3","SS1618366020131","","","null","","","","","","<p><img src= images/blank.png width =""600"" height = ""600"" style=""position:fixed;top:50%; left:50%; transform: translate(-50%, -50%); border:5px solid black"">","","","","","","","",""
"","4473.839999991469","sequential-stimulus-presentation-old","29","1122470","0.0-11.0-1.3","SS1618366020131","trial","","40","500","4973.839999991469","images/stimuli/spore_stims/complex_09_A_a.gif","images/stimuli/spore_stims/complex_01_A_b.gif","forced_short","","1","complex_dissimilar","images/stimuli/spore_stims/complex_09_A_a.gif","","","","",""
"","2327.900000003632","survey-multi-choice","30","1124799","0.0-12.0","SS1618366020131","math_question","","","","","","","","","","","","{""Q0"":""13""}","[0]","13","",""
"","null","html-keyboard-response","31","1125693","0.0-13.0-0.0","SS1618366020131","","","null","","","","","","<p><img src= images/blank.png width =""600"" height = ""600"" style=""position:fixed;top:50%; left:50%; transform: translate(-50%, -50%); border:5px solid black"">","","","","","","","",""
"","4202.1850000019185","sequential-stimulus-presentation-old","32","1130398","0.0-13.0-1.0","SS1618366020131","trial","","40","500","4702.1850000019185","images/stimuli/spore_stims/simple_16_A_a.gif","images/stimuli/spore_stims/simple_02_A_b.gif","self_paced","","2","simple_dissimilar","images/stimuli/spore_stims/simple_02_A_b.gif","","","","",""
"","null","html-keyboard-response","33","1131488","0.0-13.0-0.1","SS1618366020131","","","null","","","","","","<p><img src= images/blank.png width =""600"" height = ""600"" style=""position:fixed;top:50%; left:50%; transform: translate(-50%, -50%); border:5px solid black"">","","","","","","","",""
"","5426.3349999962375","sequential-stimulus-presentation-old","34","1137417","0.0-13.0-1.1","SS1618366020131","trial","","40","500","5926.3349999962375","images/stimuli/spore_stims/simple_16_A_a.gif","images/stimuli/spore_stims/simple_02_A_b.gif","self_paced","","2","simple_dissimilar","images/stimuli/spore_stims/simple_02_A_b.gif","","","","",""
"","null","html-keyboard-response","35","1138413","0.0-13.0-0.2","SS1618366020131","","","null","","","","","","<p><img src= images/blank.png width =""600"" height = ""600"" style=""position:fixed;top:50%; left:50%; transform: translate(-50%, -50%); border:5px solid black"">","","","","","","","",""
"","3101.8650000041816","sequential-stimulus-presentation-old","36","1142019","0.0-13.0-1.2","SS1618366020131","trial","","40","500","3601.8650000041816","images/stimuli/spore_stims/simple_16_A_a.gif","images/stimuli/spore_stims/simple_02_A_b.gif","self_paced","","2","simple_dissimilar","images/stimuli/spore_stims/simple_02_A_b.gif","","","","",""
"","null","html-keyboard-response","37","1143051","0.0-13.0-0.3","SS1618366020131","","","null","","","","","","<p><img src= images/blank.png width =""600"" height = ""600"" style=""position:fixed;top:50%; left:50%; transform: translate(-50%, -50%); border:5px solid black"">","","","","","","","",""
"","3987.0749999971595","sequential-stimulus-presentation-old","38","1147540","0.0-13.0-1.3","SS1618366020131","trial","","40","500","4487.0749999971595","images/stimuli/spore_stims/simple_16_A_a.gif","images/stimuli/spore_stims/simple_02_A_b.gif","self_paced","","2","simple_dissimilar","images/stimuli/spore_stims/simple_02_A_b.gif","","","","",""
"","null","html-keyboard-response","39","1148547","0.0-13.0-0.4","SS1618366020131","","","null","","","","","","<p><img src= images/blank.png width =""600"" height = ""600"" style=""position:fixed;top:50%; left:50%; transform: translate(-50%, -50%); border:5px solid black"">","","","","","","","",""
"","159.7299999995157","sequential-stimulus-presentation-old","40","1149210","0.0-13.0-1.4","SS1618366020131","trial","","40","500","659.7299999995157","images/stimuli/spore_stims/simple_16_A_a.gif","images/stimuli/spore_stims/simple_02_A_b.gif","self_paced","","2","simple_dissimilar","images/stimuli/spore_stims/simple_02_A_b.gif","","","","",""
"","null","html-keyboard-response","41","1150408","0.0-13.0-0.5","SS1618366020131","","","null","","","","","","<p><img src= images/blank.png width =""600"" height = ""600"" style=""position:fixed;top:50%; left:50%; transform: translate(-50%, -50%); border:5px solid black"">","","","","","","","",""
"","649.3649999902118","sequential-stimulus-presentation-old","42","1151561","0.0-13.0-1.5","SS1618366020131","trial","","40","500","1149.3649999902118","images/stimuli/spore_stims/simple_16_A_a.gif","images/stimuli/spore_stims/simple_02_A_b.gif","self_paced","","2","simple_dissimilar","images/stimuli/spore_stims/simple_02_A_b.gif","","","","",""
"","55341.54999999725","survey-multi-choice","43","1206904","0.0-14.0","SS1618366020131","math_question","","","","","","","","","","","","{""Q0"":""11""}","[0]","10","",""
"","null","html-keyboard-response","44","1207709","0.0-15.0-0.0","SS1618366020131","","","null","","","","","","<p><img src= images/blank.png width =""600"" height = ""600"" style=""position:fixed;top:50%; left:50%; transform: translate(-50%, -50%); border:5px solid black"">","","","","","","","",""
"","4781.684999994468","sequential-stimulus-presentation-old","45","1217494","0.0-15.0-1.0","SS1618366020131","trial","","40","500","5281.684999994468","images/stimuli/spore_stims/simple_07_A_b.gif","images/stimuli/spore_stims/simple_03_A_a.gif","forced_long","","3","simple_dissimilar","images/stimuli/spore_stims/simple_03_A_a.gif","","","","",""
"","null","html-keyboard-response","46","1218467","0.0-15.0-0.1","SS1618366020131","","","null","","","","","","<p><img src= images/blank.png width =""600"" height = ""600"" style=""position:fixed;top:50%; left:50%; transform: translate(-50%, -50%); border:5px solid black"">","","","","","","","",""
"","798.9850000012666","sequential-stimulus-presentation-old","47","1219769","0.0-15.0-1.1","SS1618366020131","trial","","40","500","1298.9850000012666","images/stimuli/spore_stims/simple_07_A_b.gif","images/stimuli/spore_stims/simple_03_A_a.gif","forced_long","","3","simple_dissimilar","images/stimuli/spore_stims/simple_07_A_b.gif","","","","",""
"","null","html-keyboard-response","48","1221513","0.0-15.0-0.2","SS1618366020131","","","null","","","","","","<p><img src= images/blank.png width =""600"" height = ""600"" style=""position:fixed;top:50%; left:50%; transform: translate(-50%, -50%); border:5px solid black"">","","","","","","","",""
"","41699.69000000856","sequential-stimulus-presentation-old","49","1264210","0.0-15.0-1.2","SS1618366020131","trial","","40","500","42199.69000000856","images/stimuli/spore_stims/simple_07_A_b.gif","images/stimuli/spore_stims/simple_03_A_a.gif","forced_long","","3","simple_dissimilar","images/stimuli/spore_stims/simple_03_A_a.gif","","","","",""
"","null","html-keyboard-response","50","1265339","0.0-15.0-0.3","SS1618366020131","","","null","","","","","","<p><img src= images/blank.png width =""600"" height = ""600"" style=""position:fixed;top:50%; left:50%; transform: translate(-50%, -50%); border:5px solid black"">","","","","","","","",""
"","1847.8049999978393","sequential-stimulus-presentation-old","51","1267690","0.0-15.0-1.3","SS1618366020131","trial","","40","500","2347.8049999978393","images/stimuli/spore_stims/simple_07_A_b.gif","images/stimuli/spore_stims/simple_03_A_a.gif","forced_long","","3","simple_dissimilar","images/stimuli/spore_stims/simple_03_A_a.gif","","","","",""
"","2220.679999998538","survey-multi-choice","52","1269912","0.0-16.0","SS1618366020131","math_question","","","","","","","","","","","","{""Q0"":""8""}","[0]","8","",""
"","null","html-keyboard-response","53","1270893","0.0-17.0-0.0","SS1618366020131","","","null","","","","","","<p><img src= images/blank.png width =""600"" height = ""600"" style=""position:fixed;top:50%; left:50%; transform: translate(-50%, -50%); border:5px solid black"">","","","","","","","",""
"","2962.534999998752","sequential-stimulus-presentation-old","54","1274358","0.0-17.0-1.0","SS1618366020131","trial","","40","500","3462.534999998752","images/stimuli/spore_stims/complex_03_A_b.gif","images/stimuli/spore_stims/complex_16_A_a.gif","self_paced","","4","complex_dissimilar","images/stimuli/spore_stims/complex_16_A_a.gif","","","","",""
"","null","html-keyboard-response","55","1275511","0.0-17.0-0.1","SS1618366020131","","","null","","","","","","<p><img src= images/blank.png width =""600"" height = ""600"" style=""position:fixed;top:50%; left:50%; transform: translate(-50%, -50%); border:5px solid black"">","","","","","","","",""
"","1143.884999997681","sequential-stimulus-presentation-old","56","1277159","0.0-17.0-1.1","SS1618366020131","trial","","40","500","1643.884999997681","images/stimuli/spore_stims/complex_03_A_b.gif","images/stimuli/spore_stims/complex_16_A_a.gif","self_paced","","4","complex_dissimilar","images/stimuli/spore_stims/complex_03_A_b.gif","","","","",""
"","null","html-keyboard-response","57","1278514","0.0-17.0-0.2","SS1618366020131","","","null","","","","","","<p><img src= images/blank.png width =""600"" height = ""600"" style=""position:fixed;top:50%; left:50%; transform: translate(-50%, -50%); border:5px solid black"">","","","","","","","",""
"","28055.29999999283","sequential-stimulus-presentation-old","58","1307566","0.0-17.0-1.2","SS1618366020131","trial","","40","500","28555.29999999283","images/stimuli/spore_stims/complex_03_A_b.gif","images/stimuli/spore_stims/complex_16_A_a.gif","self_paced","","4","complex_dissimilar","images/stimuli/spore_stims/complex_03_A_b.gif","","","","",""
"","null","html-keyboard-response","59","1308720","0.0-17.0-0.3","SS1618366020131","","","null","","","","","","<p><img src= images/blank.png width =""600"" height = ""600"" style=""position:fixed;top:50%; left:50%; transform: translate(-50%, -50%); border:5px solid black"">","","","","","","","",""
"","2153.030000001425","sequential-stimulus-presentation-old","60","1311376","0.0-17.0-1.3","SS1618366020131","trial","","40","500","2653.030000001425","images/stimuli/spore_stims/complex_03_A_b.gif","images/stimuli/spore_stims/complex_16_A_a.gif","self_paced","","4","complex_dissimilar","images/stimuli/spore_stims/complex_16_A_a.gif","","","","",""
"","3517.130000007339","survey-multi-choice","61","1314895","0.0-18.0","SS1618366020131","math_question","","","","","","","","","","","","{""Q0"":""11""}","[0]","11","",""
"","null","html-keyboard-response","62","1316032","0.0-19.0-0.0","SS1618366020131","","","null","","","","","","<p><img src= images/blank.png width =""600"" height = ""600"" style=""position:fixed;top:50%; left:50%; transform: translate(-50%, -50%); border:5px solid black"">","","","","","","","",""
"","310.84000000567175","sequential-stimulus-presentation-old","63","1321346","0.0-19.0-1.0","SS1618366020131","trial","","40","500","810.8400000056718","images/stimuli/spore_stims/simple_11_A_b.gif","images/stimuli/spore_stims/simple_02_A_a.gif","forced_long","","5","simple_dissimilar","images/stimuli/spore_stims/simple_02_A_a.gif","","","","",""
"","null","html-keyboard-response","64","1322515","0.0-19.0-0.1","SS1618366020131","","","null","","","","","","<p><img src= images/blank.png width =""600"" height = ""600"" style=""position:fixed;top:50%; left:50%; transform: translate(-50%, -50%); border:5px solid black"">","","","","","","","",""
"","250217.09499999974","sequential-stimulus-presentation-old","65","1573720","0.0-19.0-1.1","SS1618366020131","trial","","40","500","250717.09499999974","images/stimuli/spore_stims/simple_11_A_b.gif","images/stimuli/spore_stims/simple_02_A_a.gif","forced_long","","5","simple_dissimilar","images/stimuli/spore_stims/simple_02_A_a.gif","","","","",""
"","null","html-keyboard-response","66","1574879","0.0-19.0-0.2","SS1618366020131","","","null","","","","","","<p><img src= images/blank.png width =""600"" height = ""600"" style=""position:fixed;top:50%; left:50%; transform: translate(-50%, -50%); border:5px solid black"">","","","","","","","",""
"","1299.2899999953806","sequential-stimulus-presentation-old","67","1576680","0.0-19.0-1.2","SS1618366020131","trial","","40","500","1799.2899999953806","images/stimuli/spore_stims/simple_11_A_b.gif","images/stimuli/spore_stims/simple_02_A_a.gif","forced_long","","5","simple_dissimilar","images/stimuli/spore_stims/simple_11_A_b.gif","","","","",""
"","null","html-keyboard-response","68","1577535","0.0-19.0-0.3","SS1618366020131","","","null","","","","","","<p><img src= images/blank.png width =""600"" height = ""600"" style=""position:fixed;top:50%; left:50%; transform: translate(-50%, -50%); border:5px solid black"">","","","","","","","",""
"","1679.7399999923073","sequential-stimulus-presentation-old","69","1580196","0.0-19.0-1.3","SS1618366020131","trial","","40","500","2179.7399999923073","images/stimuli/spore_stims/simple_11_A_b.gif","images/stimuli/spore_stims/simple_02_A_a.gif","forced_long","","5","simple_dissimilar","images/stimuli/spore_stims/simple_02_A_a.gif","","","","",""
"","null","html-keyboard-response","70","1581346","0.0-19.0-0.4","SS1618366020131","","","null","","","","","","<p><img src= images/blank.png width =""600"" height = ""600"" style=""position:fixed;top:50%; left:50%; transform: translate(-50%, -50%); border:5px solid black"">","","","","","","","",""
"","390.62000000546686","sequential-stimulus-presentation-old","71","1582239","0.0-19.0-1.4","SS1618366020131","trial","","40","500","890.6200000054669","images/stimuli/spore_stims/simple_11_A_b.gif","images/stimuli/spore_stims/simple_02_A_a.gif","forced_long","","5","simple_dissimilar","images/stimuli/spore_stims/simple_02_A_a.gif","","","","",""
"","null","html-keyboard-response","72","1583445","0.0-19.0-0.5","SS1618366020131","","","null","","","","","","<p><img src= images/blank.png width =""600"" height = ""600"" style=""position:fixed;top:50%; left:50%; transform: translate(-50%, -50%); border:5px solid black"">","","","","","","","",""
"","1416.5150000043213","sequential-stimulus-presentation-old","73","1585365","0.0-19.0-1.5","SS1618366020131","trial","","40","500","1916.5150000043213","images/stimuli/spore_stims/simple_11_A_b.gif","images/stimuli/spore_stims/simple_02_A_a.gif","forced_long","","5","simple_dissimilar","images/stimuli/spore_stims/simple_11_A_b.gif","","","","",""
"","3197.06500000041","survey-multi-choice","74","1588564","0.0-20.0","SS1618366020131","math_question","","","","","","","","","","","","{""Q0"":""18""}","[0]","18","",""
"","null","html-keyboard-response","75","1589515","0.0-21.0-0.0","SS1618366020131","","","null","","","","","","<p><img src= images/blank.png width =""600"" height = ""600"" style=""position:fixed;top:50%; left:50%; transform: translate(-50%, -50%); border:5px solid black"">","","","","","","","",""
"","17043.34499999811","sequential-stimulus-presentation-old","76","1612555","0.0-21.0-1.0","SS1618366020131","trial","","40","500","17543.34499999811","images/stimuli/spore_stims/complex_18_A_b.gif","images/stimuli/spore_stims/complex_13_A_a.gif","forced_long","","6","complex_dissimilar","images/stimuli/spore_stims/complex_13_A_a.gif","","","","",""
"","null","html-keyboard-response","77","1613851","0.0-21.0-0.1","SS1618366020131","","","null","","","","","","<p><img src= images/blank.png width =""600"" height = ""600"" style=""position:fixed;top:50%; left:50%; transform: translate(-50%, -50%); border:5px solid black"">","","","","","","","",""
"","1221.035000009695","sequential-stimulus-presentation-old","78","1615575","0.0-21.0-1.1","SS1618366020131","trial","","40","500","1721.035000009695","images/stimuli/spore_stims/complex_18_A_b.gif","images/stimuli/spore_stims/complex_13_A_a.gif","forced_long","","6","complex_dissimilar","images/stimuli/spore_stims/complex_18_A_b.gif","","","","",""
"","null","html-keyboard-response","79","1616500","0.0-21.0-0.2","SS1618366020131","","","null","","","","","","<p><img src= images/blank.png width =""600"" height = ""600"" style=""position:fixed;top:50%; left:50%; transform: translate(-50%, -50%); border:5px solid black"">","","","","","","","",""
"","2118.275000000838","sequential-stimulus-presentation-old","80","1619563","0.0-21.0-1.2","SS1618366020131","trial","","40","500","2618.275000000838","images/stimuli/spore_stims/complex_18_A_b.gif","images/stimuli/spore_stims/complex_13_A_a.gif","forced_long","","6","complex_dissimilar","images/stimuli/spore_stims/complex_13_A_a.gif","","","","",""
"","null","html-keyboard-response","81","1620414","0.0-21.0-0.3","SS1618366020131","","","null","","","","","","<p><img src= images/blank.png width =""600"" height = ""600"" style=""position:fixed;top:50%; left:50%; transform: translate(-50%, -50%); border:5px solid black"">","","","","","","","",""
"","634.6550000016578","sequential-stimulus-presentation-old","82","1621551","0.0-21.0-1.3","SS1618366020131","trial","","40","500","1134.6550000016578","images/stimuli/spore_stims/complex_18_A_b.gif","images/stimuli/spore_stims/complex_13_A_a.gif","forced_long","","6","complex_dissimilar","images/stimuli/spore_stims/complex_13_A_a.gif","","","","",""
"","null","html-keyboard-response","83","1623503","0.0-21.0-0.4","SS1618366020131","","","null","","","","","","<p><img src= images/blank.png width =""600"" height = ""600"" style=""position:fixed;top:50%; left:50%; transform: translate(-50%, -50%); border:5px solid black"">","","","","","","","",""
"","23940.32000000868","sequential-stimulus-presentation-old","84","1648451","0.0-21.0-1.4","SS1618366020131","trial","","40","500","24440.32000000868","images/stimuli/spore_stims/complex_18_A_b.gif","images/stimuli/spore_stims/complex_13_A_a.gif","forced_long","","6","complex_dissimilar","images/stimuli/spore_stims/complex_13_A_a.gif","","","","",""
"","2609.1549999981653","survey-multi-choice","85","1651061","0.0-22.0","SS1618366020131","math_question","","","","","","","","","","","","{""Q0"":""8""}","[0]","8","",""
"","null","html-keyboard-response","86","1652510","0.0-23.0-0.0","SS1618366020131","","","null","","","","","","<p><img src= images/blank.png width =""600"" height = ""600"" style=""position:fixed;top:50%; left:50%; transform: translate(-50%, -50%); border:5px solid black"">","","","","","","","",""
"","7104.110000000102","sequential-stimulus-presentation-old","87","1660607","0.0-23.0-1.0","SS1618366020131","trial","","40","500","7604.110000000102","images/stimuli/spore_stims/complex_18_A_a.gif","images/stimuli/spore_stims/complex_14_A_b.gif","self_paced","","7","complex_dissimilar","images/stimuli/spore_stims/complex_14_A_b.gif","","","","",""
"","null","html-keyboard-response","88","1662513","0.0-23.0-0.1","SS1618366020131","","","null","","","","","","<p><img src= images/blank.png width =""600"" height = ""600"" style=""position:fixed;top:50%; left:50%; transform: translate(-50%, -50%); border:5px solid black"">","","","","","","","",""
"","4682.594999990892","sequential-stimulus-presentation-old","89","1668191","0.0-23.0-1.1","SS1618366020131","trial","","40","500","5182.594999990892","images/stimuli/spore_stims/complex_18_A_a.gif","images/stimuli/spore_stims/complex_14_A_b.gif","self_paced","","7","complex_dissimilar","images/stimuli/spore_stims/complex_14_A_b.gif","","","","",""
"","null","html-keyboard-response","90","1669489","0.0-23.0-0.2","SS1618366020131","","","null","","","","","","<p><img src= images/blank.png width =""600"" height = ""600"" style=""position:fixed;top:50%; left:50%; transform: translate(-50%, -50%); border:5px solid black"">","","","","","","","",""
"","172.19500000658445","sequential-stimulus-presentation-old","91","1670173","0.0-23.0-1.2","SS1618366020131","trial","","40","500","672.1950000065845","images/stimuli/spore_stims/complex_18_A_a.gif","images/stimuli/spore_stims/complex_14_A_b.gif","self_paced","","7","complex_dissimilar","images/stimuli/spore_stims/complex_14_A_b.gif","","","","",""
"","null","html-keyboard-response","92","1671269","0.0-23.0-0.3","SS1618366020131","","","null","","","","","","<p><img src= images/blank.png width =""600"" height = ""600"" style=""position:fixed;top:50%; left:50%; transform: translate(-50%, -50%); border:5px solid black"">","","","","","","","",""
"","900.3550000051036","sequential-stimulus-presentation-old","93","1672672","0.0-23.0-1.3","SS1618366020131","trial","","40","500","1400.3550000051036","images/stimuli/spore_stims/complex_18_A_a.gif","images/stimuli/spore_stims/complex_14_A_b.gif","self_paced","","7","complex_dissimilar","images/stimuli/spore_stims/complex_14_A_b.gif","","","","",""
"","null","html-keyboard-response","94","1673772","0.0-23.0-0.4","SS1618366020131","","","null","","","","","","<p><img src= images/blank.png width =""600"" height = ""600"" style=""position:fixed;top:50%; left:50%; transform: translate(-50%, -50%); border:5px solid black"">","","","","","","","",""
"","1628.9300000062212","sequential-stimulus-presentation-old","95","1675903","0.0-23.0-1.4","SS1618366020131","trial","","40","500","2128.9300000062212","images/stimuli/spore_stims/complex_18_A_a.gif","images/stimuli/spore_stims/complex_14_A_b.gif","self_paced","","7","complex_dissimilar","images/stimuli/spore_stims/complex_14_A_b.gif","","","","",""
"","null","html-keyboard-response","96","1677021","0.0-23.0-0.5","SS1618366020131","","","null","","","","","","<p><img src= images/blank.png width =""600"" height = ""600"" style=""position:fixed;top:50%; left:50%; transform: translate(-50%, -50%); border:5px solid black"">","","","","","","","",""
"","1334.6899999887682","sequential-stimulus-presentation-old","97","1678859","0.0-23.0-1.5","SS1618366020131","trial","","40","500","1834.6899999887682","images/stimuli/spore_stims/complex_18_A_a.gif","images/stimuli/spore_stims/complex_14_A_b.gif","self_paced","","7","complex_dissimilar","images/stimuli/spore_stims/complex_14_A_b.gif","","","","",""
"","2420.744999995688","survey-multi-choice","98","1681282","0.0-24.0","SS1618366020131","math_question","","","","","","","","","","","","{""Q0"":""9""}","[0]","9","",""
"","null","html-keyboard-response","99","1682515","0.0-25.0-0.0","SS1618366020131","","","null","","","","","","<p><img src= images/blank.png width =""600"" height = ""600"" style=""position:fixed;top:50%; left:50%; transform: translate(-50%, -50%); border:5px solid black"">","","","","","","","",""
"","14478.44500000053","sequential-stimulus-presentation-old","100","1697981","0.0-25.0-1.0","SS1618366020131","trial","","40","500","14978.44500000053","images/stimuli/spore_stims/simple_12_A_a.gif","images/stimuli/spore_stims/simple_16_A_b.gif","forced_short","","8","simple_dissimilar","images/stimuli/spore_stims/simple_16_A_b.gif","","","","",""
"","null","html-keyboard-response","101","1699103","0.0-25.0-0.1","SS1618366020131","","","null","","","","","","<p><img src= images/blank.png width =""600"" height = ""600"" style=""position:fixed;top:50%; left:50%; transform: translate(-50%, -50%); border:5px solid black"">","","","","","","","",""
"","1778.2050000093877","sequential-stimulus-presentation-old","102","1701383","0.0-25.0-1.1","SS1618366020131","trial","","40","500","2278.2050000093877","images/stimuli/spore_stims/simple_12_A_a.gif","images/stimuli/spore_stims/simple_16_A_b.gif","forced_short","","8","simple_dissimilar","images/stimuli/spore_stims/simple_16_A_b.gif","","","","",""
"","null","html-keyboard-response","103","1702446","0.0-25.0-0.2","SS1618366020131","","","null","","","","","","<p><img src= images/blank.png width =""600"" height = ""600"" style=""position:fixed;top:50%; left:50%; transform: translate(-50%, -50%); border:5px solid black"">","","","","","","","",""
"","618.0449999955017","sequential-stimulus-presentation-old","104","1703571","0.0-25.0-1.2","SS1618366020131","trial","","40","500","1118.0449999955017","images/stimuli/spore_stims/simple_12_A_a.gif","images/stimuli/spore_stims/simple_16_A_b.gif","forced_short","","8","simple_dissimilar","images/stimuli/spore_stims/simple_16_A_b.gif","","","","",""
"","null","html-keyboard-response","105","1704576","0.0-25.0-0.3","SS1618366020131","","","null","","","","","","<p><img src= images/blank.png width =""600"" height = ""600"" style=""position:fixed;top:50%; left:50%; transform: translate(-50%, -50%); border:5px solid black"">","","","","","","","",""
"","5091.929999995045","sequential-stimulus-presentation-old","106","1710173","0.0-25.0-1.3","SS1618366020131","trial","","40","500","5591.929999995045","images/stimuli/spore_stims/simple_12_A_a.gif","images/stimuli/spore_stims/simple_16_A_b.gif","forced_short","","8","simple_dissimilar","images/stimuli/spore_stims/simple_16_A_b.gif","","","","",""
"","3609.8100000091363","survey-multi-choice","107","1713785","0.0-26.0","SS1618366020131","math_question","","","","","","","","","","","","{""Q0"":""10""}","[0]","10","",""
"","null","html-keyboard-response","108","1714886","0.0-27.0-0.0","SS1618366020131","","","null","","","","","","<p><img src= images/blank.png width =""600"" height = ""600"" style=""position:fixed;top:50%; left:50%; transform: translate(-50%, -50%); border:5px solid black"">","","","","","","","",""
"","8498.40499999118","sequential-stimulus-presentation-old","109","1728390","0.0-27.0-1.0","SS1618366020131","trial","","40","500","8998.40499999118","images/stimuli/spore_stims/complex_11_A_a.gif","images/stimuli/spore_stims/complex_20_A_b.gif","forced_long","","9","complex_dissimilar","images/stimuli/spore_stims/complex_20_A_b.gif","","","","",""
"","null","html-keyboard-response","110","1729444","0.0-27.0-0.1","SS1618366020131","","","null","","","","","","<p><img src= images/blank.png width =""600"" height = ""600"" style=""position:fixed;top:50%; left:50%; transform: translate(-50%, -50%); border:5px solid black"">","","","","","","","",""
"","877.3999999975786","sequential-stimulus-presentation-old","111","1730823","0.0-27.0-1.1","SS1618366020131","trial","","40","500","1377.3999999975786","images/stimuli/spore_stims/complex_11_A_a.gif","images/stimuli/spore_stims/complex_20_A_b.gif","forced_long","","9","complex_dissimilar","images/stimuli/spore_stims/complex_20_A_b.gif","","","","",""
"","null","html-keyboard-response","112","1732504","0.0-27.0-0.2","SS1618366020131","","","null","","","","","","<p><img src= images/blank.png width =""600"" height = ""600"" style=""position:fixed;top:50%; left:50%; transform: translate(-50%, -50%); border:5px solid black"">","","","","","","","",""
"","8114.20500000543","sequential-stimulus-presentation-old","113","1741618","0.0-27.0-1.2","SS1618366020131","trial","","40","500","8614.20500000543","images/stimuli/spore_stims/complex_11_A_a.gif","images/stimuli/spore_stims/complex_20_A_b.gif","forced_long","","9","complex_dissimilar","images/stimuli/spore_stims/complex_20_A_b.gif","","","","",""
"","null","html-keyboard-response","114","1742503","0.0-27.0-0.3","SS1618366020131","","","null","","","","","","<p><img src= images/blank.png width =""600"" height = ""600"" style=""position:fixed;top:50%; left:50%; transform: translate(-50%, -50%); border:5px solid black"">","","","","","","","",""
"","14601.16999999457","sequential-stimulus-presentation-old","115","1758109","0.0-27.0-1.3","SS1618366020131","trial","","40","500","15101.16999999457","images/stimuli/spore_stims/complex_11_A_a.gif","images/stimuli/spore_stims/complex_20_A_b.gif","forced_long","","9","complex_dissimilar","images/stimuli/spore_stims/complex_20_A_b.gif","","","","",""
"","null","html-keyboard-response","116","1759091","0.0-27.0-0.4","SS1618366020131","","","null","","","","","","<p><img src= images/blank.png width =""600"" height = ""600"" style=""position:fixed;top:50%; left:50%; transform: translate(-50%, -50%); border:5px solid black"">","","","","","","","",""
"","1951.8199999877252","sequential-stimulus-presentation-old","117","1761548","0.0-27.0-1.4","SS1618366020131","trial","","40","500","2451.819999987725","images/stimuli/spore_stims/complex_11_A_a.gif","images/stimuli/spore_stims/complex_20_A_b.gif","forced_long","","9","complex_dissimilar","images/stimuli/spore_stims/complex_20_A_b.gif","","","","",""
"","null","html-keyboard-response","118","1762517","0.0-27.0-0.5","SS1618366020131","","","null","","","","","","<p><img src= images/blank.png width =""600"" height = ""600"" style=""position:fixed;top:50%; left:50%; transform: translate(-50%, -50%); border:5px solid black"">","","","","","","","",""
"","5187.409999998752","sequential-stimulus-presentation-old","119","1768696","0.0-27.0-1.5","SS1618366020131","trial","","40","500","5687.409999998752","images/stimuli/spore_stims/complex_11_A_a.gif","images/stimuli/spore_stims/complex_20_A_b.gif","forced_long","","9","complex_dissimilar","images/stimuli/spore_stims/complex_20_A_b.gif","","","","",""
"","135737.42499999935","survey-multi-choice","120","1904436","0.0-28.0","SS1618366020131","math_question","","","","","","","","","","","","{""Q0"":""8""}","[0]","8","",""
"","null","html-keyboard-response","121","1905364","0.0-29.0-0.0","SS1618366020131","","","null","","","","","","<p><img src= images/blank.png width =""600"" height = ""600"" style=""position:fixed;top:50%; left:50%; transform: translate(-50%, -50%); border:5px solid black"">","","","","","","","",""
"","185950.15499999863","sequential-stimulus-presentation-old","122","2091819","0.0-29.0-1.0","SS1618366020131","trial","","40","500","186450.15499999863","images/stimuli/spore_stims/simple_18_A_a.gif","images/stimuli/spore_stims/simple_12_A_b.gif","self_paced","","10","simple_dissimilar","images/stimuli/spore_stims/simple_12_A_b.gif","","","","",""
"","null","html-keyboard-response","123","2092664","0.0-29.0-0.1","SS1618366020131","","","null","","","","","","<p><img src= images/blank.png width =""600"" height = ""600"" style=""position:fixed;top:50%; left:50%; transform: translate(-50%, -50%); border:5px solid black"">","","","","","","","",""
"","4928.0049999943","sequential-stimulus-presentation-old","124","2098096","0.0-29.0-1.1","SS1618366020131","trial","","40","500","5428.0049999943","images/stimuli/spore_stims/simple_18_A_a.gif","images/stimuli/spore_stims/simple_12_A_b.gif","self_paced","","10","simple_dissimilar","images/stimuli/spore_stims/simple_18_A_a.gif","","","","",""
"","null","html-keyboard-response","125","2099194","0.0-29.0-0.2","SS1618366020131","","","null","","","","","","<p><img src= images/blank.png width =""600"" height = ""600"" style=""position:fixed;top:50%; left:50%; transform: translate(-50%, -50%); border:5px solid black"">","","","","","","","",""
"","758.9900000020862","sequential-stimulus-presentation-old","126","2100457","0.0-29.0-1.2","SS1618366020131","trial","","40","500","1258.9900000020862","images/stimuli/spore_stims/simple_18_A_a.gif","images/stimuli/spore_stims/simple_12_A_b.gif","self_paced","","10","simple_dissimilar","images/stimuli/spore_stims/simple_12_A_b.gif","","","","",""
"","null","html-keyboard-response","127","2101580","0.0-29.0-0.3","SS1618366020131","","","null","","","","","","<p><img src= images/blank.png width =""600"" height = ""600"" style=""position:fixed;top:50%; left:50%; transform: translate(-50%, -50%); border:5px solid black"">","","","","","","","",""
"","3602.580000006128","sequential-stimulus-presentation-old","128","2105686","0.0-29.0-1.3","SS1618366020131","trial","","40","500","4102.580000006128","images/stimuli/spore_stims/simple_18_A_a.gif","images/stimuli/spore_stims/simple_12_A_b.gif","self_paced","","10","simple_dissimilar","images/stimuli/spore_stims/simple_12_A_b.gif","","","","",""
"","null","html-keyboard-response","129","2106679","0.0-29.0-0.4","SS1618366020131","","","null","","","","","","<p><img src= images/blank.png width =""600"" height = ""600"" style=""position:fixed;top:50%; left:50%; transform: translate(-50%, -50%); border:5px solid black"">","","","","","","","",""
"","1339036.8000000017","sequential-stimulus-presentation-old","130","3446219","0.0-29.0-1.4","SS1618366020131","trial","","40","500","1339536.8000000017","images/stimuli/spore_stims/simple_18_A_a.gif","images/stimuli/spore_stims/simple_12_A_b.gif","self_paced","","10","simple_dissimilar","images/stimuli/spore_stims/simple_12_A_b.gif","","","","",""
"","null","html-keyboard-response","131","3447511","0.0-29.0-0.5","SS1618366020131","","","null","","","","","","<p><img src= images/blank.png width =""600"" height = ""600"" style=""position:fixed;top:50%; left:50%; transform: translate(-50%, -50%); border:5px solid black"">","","","","","","","",""
"","738.7749999905936","sequential-stimulus-presentation-old","132","3448760","0.0-29.0-1.5","SS1618366020131","trial","","40","500","1238.7749999905936","images/stimuli/spore_stims/simple_18_A_a.gif","images/stimuli/spore_stims/simple_12_A_b.gif","self_paced","","10","simple_dissimilar","images/stimuli/spore_stims/simple_12_A_b.gif","","","","",""
"","1750.249999997206","survey-multi-choice","133","3450512","0.0-30.0","SS1618366020131","math_question","","","","","","","","","","","","{""Q0"":""8""}","[0]","8","",""
"","null","html-keyboard-response","134","3451476","0.0-31.0-0.0","SS1618366020131","","","null","","","","","","<p><img src= images/blank.png width =""600"" height = ""600"" style=""position:fixed;top:50%; left:50%; transform: translate(-50%, -50%); border:5px solid black"">","","","","","","","",""
"","7004.325000002049","sequential-stimulus-presentation-old","135","3458535","0.0-31.0-1.0","SS1618366020131","trial","","40","500","7504.325000002049","images/stimuli/spore_stims/complex_14_A_a.gif","images/stimuli/spore_stims/complex_02_A_b.gif","forced_short","","11","complex_dissimilar","images/stimuli/spore_stims/complex_02_A_b.gif","","","","",""
"","null","html-keyboard-response","136","3459545","0.0-31.0-0.1","SS1618366020131","","","null","","","","","","<p><img src= images/blank.png width =""600"" height = ""600"" style=""position:fixed;top:50%; left:50%; transform: translate(-50%, -50%); border:5px solid black"">","","","","","","","",""
"","2551.500000001397","sequential-stimulus-presentation-old","137","3462601","0.0-31.0-1.1","SS1618366020131","trial","","40","500","3051.500000001397","images/stimuli/spore_stims/complex_14_A_a.gif","images/stimuli/spore_stims/complex_02_A_b.gif","forced_short","","11","complex_dissimilar","images/stimuli/spore_stims/complex_02_A_b.gif","","","","",""
"","null","html-keyboard-response","138","3463471","0.0-31.0-0.2","SS1618366020131","","","null","","","","","","<p><img src= images/blank.png width =""600"" height = ""600"" style=""position:fixed;top:50%; left:50%; transform: translate(-50%, -50%); border:5px solid black"">","","","","","","","",""
"","1790.2900000042282","sequential-stimulus-presentation-old","139","3465764","0.0-31.0-1.2","SS1618366020131","trial","","40","500","2290.290000004228","images/stimuli/spore_stims/complex_14_A_a.gif","images/stimuli/spore_stims/complex_02_A_b.gif","forced_short","","11","complex_dissimilar","images/stimuli/spore_stims/complex_02_A_b.gif","","","","",""
"","null","html-keyboard-response","140","3467067","0.0-31.0-0.3","SS1618366020131","","","null","","","","","","<p><img src= images/blank.png width =""600"" height = ""600"" style=""position:fixed;top:50%; left:50%; transform: translate(-50%, -50%); border:5px solid black"">","","","","","","","",""
"","1550.5500000002794","sequential-stimulus-presentation-old","141","3469129","0.0-31.0-1.3","SS1618366020131","trial","","40","500","2050.5500000002794","images/stimuli/spore_stims/complex_14_A_a.gif","images/stimuli/spore_stims/complex_02_A_b.gif","forced_short","","11","complex_dissimilar","images/stimuli/spore_stims/complex_02_A_b.gif","","","","",""
"","null","html-keyboard-response","142","3469963","0.0-31.0-0.4","SS1618366020131","","","null","","","","","","<p><img src= images/blank.png width =""600"" height = ""600"" style=""position:fixed;top:50%; left:50%; transform: translate(-50%, -50%); border:5px solid black"">","","","","","","","",""
"","1505.1200000015087","sequential-stimulus-presentation-old","143","3471978","0.0-31.0-1.4","SS1618366020131","trial","","40","500","2005.1200000015087","images/stimuli/spore_stims/complex_14_A_a.gif","images/stimuli/spore_stims/complex_02_A_b.gif","forced_short","","11","complex_dissimilar","images/stimuli/spore_stims/complex_14_A_a.gif","","","","",""
"","null","html-keyboard-response","144","3473138","0.0-31.0-0.5","SS1618366020131","","","null","","","","","","<p><img src= images/blank.png width =""600"" height = ""600"" style=""position:fixed;top:50%; left:50%; transform: translate(-50%, -50%); border:5px solid black"">","","","","","","","",""
"","941.3749999948777","sequential-stimulus-presentation-old","145","3474584","0.0-31.0-1.5","SS1618366020131","trial","","40","500","1441.3749999948777","images/stimuli/spore_stims/complex_14_A_a.gif","images/stimuli/spore_stims/complex_02_A_b.gif","forced_short","","11","complex_dissimilar","images/stimuli/spore_stims/complex_14_A_a.gif","","","","",""
"[{""page_index"":0,""viewing_time"":10909.980000011157}]","10910.17000000272","instructions","146","3485496","0.0-32.0","SS1618366020131","instructions","","","","","","","","","","","","","","","",""
"","5234.744999994524","survey-likert","147","3490733","0.0-33.0","SS1618366020131","similarity_question","","","","","","","","","","","","{""Q0"":3}","[0]","","images/stimuli/spore_stims/simple_16_A_a.gif","images/stimuli/spore_stims/simple_02_A_b.gif"
"","2432.1199999977835","survey-likert","148","3493169","0.0-34.0","SS1618366020131","similarity_question","","","","","","","","","","","","{""Q0"":2}","[0]","","images/stimuli/spore_stims/simple_11_A_b.gif","images/stimuli/spore_stims/simple_02_A_a.gif"
"","3178.9250000002794","survey-likert","149","3496350","0.0-35.0","SS1618366020131","similarity_question","","","","","","","","","","","","{""Q0"":2}","[0]","","images/stimuli/spore_stims/complex_11_A_a.gif","images/stimuli/spore_stims/complex_20_A_b.gif"
"","2687.39500000095","survey-likert","150","3499040","0.0-36.0","SS1618366020131","similarity_question","","","","","","","","","","","","{""Q0"":3}","[0]","","images/stimuli/spore_stims/simple_18_A_a.gif","images/stimuli/spore_stims/simple_12_A_b.gif"
"","3875.064999999944","survey-likert","151","3502918","0.0-37.0","SS1618366020131","similarity_question","","","","","","","","","","","","{""Q0"":4}","[0]","","images/stimuli/spore_stims/complex_14_A_a.gif","images/stimuli/spore_stims/complex_02_A_b.gif"
"","2586.3400000086986","survey-likert","152","3505508","0.0-38.0","SS1618366020131","similarity_question","","","","","","","","","","","","{""Q0"":4}","[0]","","images/stimuli/spore_stims/simple_09_A_a.gif","images/stimuli/spore_stims/simple_08_A_b.gif"
"","5816.2400000002235","survey-likert","153","3511327","0.0-39.0","SS1618366020131","similarity_question","","","","","","","","","","","","{""Q0"":4}","[0]","","images/stimuli/spore_stims/complex_13_A_a.gif","images/stimuli/spore_stims/complex_18_A_b.gif"
"","3699.0150000057183","survey-likert","154","3515028","0.0-40.0","SS1618366020131","similarity_question","","","","","","","","","","","","{""Q0"":4}","[0]","","images/stimuli/spore_stims/complex_03_A_b.gif","images/stimuli/spore_stims/complex_16_A_a.gif"
"","3847.079999992624","survey-likert","155","3518878","0.0-41.0","SS1618366020131","similarity_question","","","","","","","","","","","","{""Q0"":3}","[0]","","images/stimuli/spore_stims/simple_16_A_b.gif","images/stimuli/spore_stims/simple_12_A_a.gif"
"","2048.574999993667","survey-likert","156","3520929","0.0-42.0","SS1618366020131","similarity_question","","","","","","","","","","","","{""Q0"":2}","[0]","","images/stimuli/spore_stims/simple_07_A_b.gif","images/stimuli/spore_stims/simple_03_A_a.gif"
"","3431.0200000032783","survey-likert","157","3524362","0.0-43.0","SS1618366020131","similarity_question","","","","","","","","","","","","{""Q0"":4}","[0]","","images/stimuli/spore_stims/complex_09_A_a.gif","images/stimuli/spore_stims/complex_01_A_b.gif"
"","4331.509999988601","survey-likert","158","3528696","0.0-44.0","SS1618366020131","similarity_question","","","","","","","","","","","","{""Q0"":1}","[0]","","images/stimuli/spore_stims/complex_18_A_a.gif","images/stimuli/spore_stims/complex_14_A_b.gif"
"[{""page_index"":0,""viewing_time"":3098.564999992959}]","3098.719999994617","instructions","159","3531797","0.0-45.0","SS1618366020131","instructions","","","","","","","","","","","","","","","",""
"","3711.6300000050105","survey-likert","160","3535510","0.0-46.0","SS1618366020131","","","","","","","","","images/stimuli/spore_stims/complex_03_A_b.gif","","","","{""Q0"":5}","[0]","","",""
"","4133.80999999959","survey-likert","161","3539646","0.0-47.0","SS1618366020131","","","","","","","","","images/stimuli/spore_stims/simple_09_A_a.gif","","","","{""Q0"":1}","[0]","","",""
"","1928.4049999988638","survey-likert","162","3541577","0.0-48.0","SS1618366020131","","","","","","","","","images/stimuli/spore_stims/simple_16_A_b.gif","","","","{""Q0"":1}","[0]","","",""
"","2629.874999998603","survey-likert","163","3544210","0.0-49.0","SS1618366020131","","","","","","","","","images/stimuli/spore_stims/simple_02_A_a.gif","","","","{""Q0"":0}","[0]","","",""
"","1730.4799999985844","survey-likert","164","3545943","0.0-50.0","SS1618366020131","","","","","","","","","images/stimuli/spore_stims/simple_02_A_b.gif","","","","{""Q0"":0}","[0]","","",""
"","2304.2100000018254","survey-likert","165","3548250","0.0-51.0","SS1618366020131","","","","","","","","","images/stimuli/spore_stims/complex_20_A_b.gif","","","","{""Q0"":6}","[0]","","",""
"","2516.740000006277","survey-likert","166","3550769","0.0-52.0","SS1618366020131","","","","","","","","","images/stimuli/spore_stims/simple_03_A_a.gif","","","","{""Q0"":2}","[0]","","",""
"","3467.589999999851","survey-likert","167","3554239","0.0-53.0","SS1618366020131","","","","","","","","","images/stimuli/spore_stims/complex_13_A_a.gif","","","","{""Q0"":5}","[0]","","",""
"","1919.9500000104308","survey-likert","168","3556162","0.0-54.0","SS1618366020131","","","","","","","","","images/stimuli/spore_stims/simple_12_A_b.gif","","","","{""Q0"":1}","[0]","","",""
"","2011.5150000057183","survey-likert","169","3558176","0.0-55.0","SS1618366020131","","","","","","","","","images/stimuli/spore_stims/complex_09_A_a.gif","","","","{""Q0"":6}","[0]","","",""
"","1616.0149999922141","survey-likert","170","3559794","0.0-56.0","SS1618366020131","","","","","","","","","images/stimuli/spore_stims/complex_02_A_b.gif","","","","{""Q0"":5}","[0]","","",""
"","2522.88999999268","survey-likert","171","3562320","0.0-57.0","SS1618366020131","","","","","","","","","images/stimuli/spore_stims/complex_18_A_a.gif","","","","{""Q0"":5}","[0]","","",""
"[{""page_index"":0,""viewing_time"":1554.1299999896437}]","1554.2749999877997","instructions","172","3563877","0.0-58.0","SS1618366020131","instructions","","","","","","","","","","","","","","","",""
"","1603.7050000014715","demog-age","173","3565485","0.0-59.0","SS1618366020131","","","","","","","","","","","","","{""age"":""23""}","","","",""
"","1621.5999999982305","demog-ethnic-US","174","3567110","0.0-60.0","SS1618366020131","","","","","","","","","","","","","{""ethnicity"":[""Hispanic or Latino""]}","[0]","","",""
"","3255.1749999984168","demog-gender-and-education","175","3570370","0.0-61.0","SS1618366020131","","","","","","","","","","","","","{""gender"":""Male"",""education"":""Bachelor's Degree""}","[0,1]","","",""
"","3830.4150000037625","survey-text","176","3574205","0.0-62.0","SS1618366020131","feedback","","","","","","","","","","","","{""Q0"":""N/A""}","","","",""
"[{""page_index"":0,""viewing_time"":1339.395000002347}]","1339.5299999974668","instructions","177","3575546","0.0-63.0","SS1618366020131","instructions","","","","","","","","","","","","","","","",""
