"view_history","rt","trial_type","trial_index","time_elapsed","internal_node_id","subject","stimulus_type","trial_stimulus","key_press","minimum_viewing_duration","trial_looking_time","block_deviant","block_background","exposure_type","stimulus","block_number","block_type","stimulus_displayed","responses","question_order","math_correct_answer"
"[{""page_index"":0,""viewing_time"":2095.1750000000393}]","2095.725000000015","instructions","0","2098","0.0-0.0","SS1618365665480","","","","","","","","","","","","","","",""
"[{""page_index"":0,""viewing_time"":6584.540000000059},{""page_index"":1,""viewing_time"":6292.720000000034}]","12877.635000000053","instructions","1","16980","0.0-1.0","SS1618365665480","instructions","","","","","","","","","","","","","",""
"","6485.450000000019","sequential-stimulus-presentation-old","2","23971","0.0-2.0","SS1618365665480","","","40","500","6985.450000000019","null","null","self_paced","","","","","","",""
"","5112.979999999989","sequential-stimulus-presentation-old","3","29588","0.0-3.0","SS1618365665480","","","40","500","5612.979999999989","null","null","self_paced","","","","","","",""
"[{""page_index"":0,""viewing_time"":11491.62000000001}]","11491.994999999974","instructions","4","41082","0.0-4.0","SS1618365665480","instructions","","","","","","","","","","","","","",""
"","2429.1899999999514","sequential-stimulus-presentation-old","5","48514","0.0-5.0","SS1618365665480","","","40","500","2929.1899999999514","null","null","forced_long","","","","","","",""
"","29318.170000000006","sequential-stimulus-presentation-old","6","77886","0.0-6.0","SS1618365665480","","","40","50","29368.170000000006","null","null","forced_long","","","","","","",""
"[{""page_index"":0,""viewing_time"":3571.66499999995}]","3572.130000000019","instructions","7","81460","0.0-7.0","SS1618365665480","instructions","","","","","","","","","","","","","",""
"[{""page_index"":0,""viewing_time"":8886.544999999955},{""page_index"":1,""viewing_time"":16042.665000000052},{""page_index"":2,""viewing_time"":5454.789999999994},{""page_index"":3,""viewing_time"":1787.9749999999622},{""page_index"":4,""viewing_time"":1683.1850000000995}]","33855.485000000044","instructions","8","115317","0.0-8.0","SS1618365665480","instructions","","","","","","","","","","","","","",""
"","null","html-keyboard-response","9","116138","0.0-9.0-0.0","SS1618365665480","","","null","","","","","","<p><img src= images/blank.png width =""600"" height = ""600"" style=""position:fixed;top:50%; left:50%; transform: translate(-50%, -50%); border:5px solid black"">","","","","","",""
"","42878.695000000094","sequential-stimulus-presentation-old","10","159521","0.0-9.0-1.0","SS1618365665480","trial","","40","500","43378.695000000094","images/stimuli/spore_stims/simple_06_A_a.gif","images/stimuli/spore_stims/simple_11_A_b.gif","self_paced","","0","simple_dissimilar","images/stimuli/spore_stims/simple_11_A_b.gif","","",""
"","null","html-keyboard-response","11","160594","0.0-9.0-0.1","SS1618365665480","","","null","","","","","","<p><img src= images/blank.png width =""600"" height = ""600"" style=""position:fixed;top:50%; left:50%; transform: translate(-50%, -50%); border:5px solid black"">","","","","","",""
"","25398.010000000126","sequential-stimulus-presentation-old","12","186496","0.0-9.0-1.1","SS1618365665480","trial","","40","500","25898.010000000126","images/stimuli/spore_stims/simple_06_A_a.gif","images/stimuli/spore_stims/simple_11_A_b.gif","self_paced","","0","simple_dissimilar","images/stimuli/spore_stims/simple_06_A_a.gif","","",""
"","null","html-keyboard-response","13","187670","0.0-9.0-0.2","SS1618365665480","","","null","","","","","","<p><img src= images/blank.png width =""600"" height = ""600"" style=""position:fixed;top:50%; left:50%; transform: translate(-50%, -50%); border:5px solid black"">","","","","","",""
"","12712.82500000007","sequential-stimulus-presentation-old","14","200888","0.0-9.0-1.2","SS1618365665480","trial","","40","500","13212.82500000007","images/stimuli/spore_stims/simple_06_A_a.gif","images/stimuli/spore_stims/simple_11_A_b.gif","self_paced","","0","simple_dissimilar","images/stimuli/spore_stims/simple_11_A_b.gif","","",""
"","null","html-keyboard-response","15","201945","0.0-9.0-0.3","SS1618365665480","","","null","","","","","","<p><img src= images/blank.png width =""600"" height = ""600"" style=""position:fixed;top:50%; left:50%; transform: translate(-50%, -50%); border:5px solid black"">","","","","","",""
"","8731.26000000001","sequential-stimulus-presentation-old","16","211180","0.0-9.0-1.3","SS1618365665480","trial","","40","500","9231.26000000001","images/stimuli/spore_stims/simple_06_A_a.gif","images/stimuli/spore_stims/simple_11_A_b.gif","self_paced","","0","simple_dissimilar","images/stimuli/spore_stims/simple_11_A_b.gif","","",""
"","4453.449999999953","survey-multi-choice","17","215637","0.0-10.0","SS1618365665480","math_question","","","","","","","","","","","","{""Q0"":""8""}","[0]","8"
"","null","html-keyboard-response","18","216583","0.0-11.0-0.0","SS1618365665480","","","null","","","","","","<p><img src= images/blank.png width =""600"" height = ""600"" style=""position:fixed;top:50%; left:50%; transform: translate(-50%, -50%); border:5px solid black"">","","","","","",""
"","1429.4899999999907","sequential-stimulus-presentation-old","19","223019","0.0-11.0-1.0","SS1618365665480","trial","","40","500","1929.4899999999907","images/stimuli/spore_stims/complex_05_A_b.gif","images/stimuli/spore_stims/complex_09_A_a.gif","forced_long","","1","complex_dissimilar","images/stimuli/spore_stims/complex_09_A_a.gif","","",""
"","null","html-keyboard-response","20","224060","0.0-11.0-0.1","SS1618365665480","","","null","","","","","","<p><img src= images/blank.png width =""600"" height = ""600"" style=""position:fixed;top:50%; left:50%; transform: translate(-50%, -50%); border:5px solid black"">","","","","","",""
"","25767.58999999994","sequential-stimulus-presentation-old","21","250331","0.0-11.0-1.1","SS1618365665480","trial","","40","500","26267.58999999994","images/stimuli/spore_stims/complex_05_A_b.gif","images/stimuli/spore_stims/complex_09_A_a.gif","forced_long","","1","complex_dissimilar","images/stimuli/spore_stims/complex_09_A_a.gif","","",""
"","null","html-keyboard-response","22","251557","0.0-11.0-0.2","SS1618365665480","","","null","","","","","","<p><img src= images/blank.png width =""600"" height = ""600"" style=""position:fixed;top:50%; left:50%; transform: translate(-50%, -50%); border:5px solid black"">","","","","","",""
"","5609.6449999999895","sequential-stimulus-presentation-old","23","257671","0.0-11.0-1.2","SS1618365665480","trial","","40","500","6109.6449999999895","images/stimuli/spore_stims/complex_05_A_b.gif","images/stimuli/spore_stims/complex_09_A_a.gif","forced_long","","1","complex_dissimilar","images/stimuli/spore_stims/complex_05_A_b.gif","","",""
"","null","html-keyboard-response","24","258904","0.0-11.0-0.3","SS1618365665480","","","null","","","","","","<p><img src= images/blank.png width =""600"" height = ""600"" style=""position:fixed;top:50%; left:50%; transform: translate(-50%, -50%); border:5px solid black"">","","","","","",""
"","3299.0400000000955","sequential-stimulus-presentation-old","25","262707","0.0-11.0-1.3","SS1618365665480","trial","","40","500","3799.0400000000955","images/stimuli/spore_stims/complex_05_A_b.gif","images/stimuli/spore_stims/complex_09_A_a.gif","forced_long","","1","complex_dissimilar","images/stimuli/spore_stims/complex_05_A_b.gif","","",""
"","3386.829999999958","survey-multi-choice","26","266096","0.0-12.0","SS1618365665480","math_question","","","","","","","","","","","","{""Q0"":""9""}","[0]","9"
"","null","html-keyboard-response","27","267154","0.0-13.0-0.0","SS1618365665480","","","null","","","","","","<p><img src= images/blank.png width =""600"" height = ""600"" style=""position:fixed;top:50%; left:50%; transform: translate(-50%, -50%); border:5px solid black"">","","","","","",""
"","1278.3750000001164","sequential-stimulus-presentation-old","28","268488","0.0-13.0-1.0","SS1618365665480","trial","","40","500","1778.3750000001164","images/stimuli/spore_stims/simple_17_A_a.gif","images/stimuli/spore_stims/simple_16_A_b.gif","forced_short","","2","simple_dissimilar","images/stimuli/spore_stims/simple_16_A_b.gif","","",""
"","null","html-keyboard-response","29","269758","0.0-13.0-0.1","SS1618365665480","","","null","","","","","","<p><img src= images/blank.png width =""600"" height = ""600"" style=""position:fixed;top:50%; left:50%; transform: translate(-50%, -50%); border:5px solid black"">","","","","","",""
"","4045.699999999895","sequential-stimulus-presentation-old","30","274308","0.0-13.0-1.1","SS1618365665480","trial","","40","500","4545.699999999895","images/stimuli/spore_stims/simple_17_A_a.gif","images/stimuli/spore_stims/simple_16_A_b.gif","forced_short","","2","simple_dissimilar","images/stimuli/spore_stims/simple_16_A_b.gif","","",""
"","null","html-keyboard-response","31","275367","0.0-13.0-0.2","SS1618365665480","","","null","","","","","","<p><img src= images/blank.png width =""600"" height = ""600"" style=""position:fixed;top:50%; left:50%; transform: translate(-50%, -50%); border:5px solid black"">","","","","","",""
"","2111.4099999999744","sequential-stimulus-presentation-old","32","277983","0.0-13.0-1.2","SS1618365665480","trial","","40","500","2611.4099999999744","images/stimuli/spore_stims/simple_17_A_a.gif","images/stimuli/spore_stims/simple_16_A_b.gif","forced_short","","2","simple_dissimilar","images/stimuli/spore_stims/simple_16_A_b.gif","","",""
"","null","html-keyboard-response","33","279087","0.0-13.0-0.3","SS1618365665480","","","null","","","","","","<p><img src= images/blank.png width =""600"" height = ""600"" style=""position:fixed;top:50%; left:50%; transform: translate(-50%, -50%); border:5px solid black"">","","","","","",""
"","1679.8699999999371","sequential-stimulus-presentation-old","34","281271","0.0-13.0-1.3","SS1618365665480","trial","","40","500","2179.869999999937","images/stimuli/spore_stims/simple_17_A_a.gif","images/stimuli/spore_stims/simple_16_A_b.gif","forced_short","","2","simple_dissimilar","images/stimuli/spore_stims/simple_16_A_b.gif","","",""
"","null","html-keyboard-response","35","282479","0.0-13.0-0.4","SS1618365665480","","","null","","","","","","<p><img src= images/blank.png width =""600"" height = ""600"" style=""position:fixed;top:50%; left:50%; transform: translate(-50%, -50%); border:5px solid black"">","","","","","",""
"","151.47000000003027","sequential-stimulus-presentation-old","36","283135","0.0-13.0-1.4","SS1618365665480","trial","","40","500","651.4700000000303","images/stimuli/spore_stims/simple_17_A_a.gif","images/stimuli/spore_stims/simple_16_A_b.gif","forced_short","","2","simple_dissimilar","images/stimuli/spore_stims/simple_16_A_b.gif","","",""
"","8496.815000000002","survey-multi-choice","37","291634","0.0-14.0","SS1618365665480","math_question","","","","","","","","","","","","{""Q0"":""15""}","[0]","15"
"","null","html-keyboard-response","38","292701","0.0-15.0-0.0","SS1618365665480","","","null","","","","","","<p><img src= images/blank.png width =""600"" height = ""600"" style=""position:fixed;top:50%; left:50%; transform: translate(-50%, -50%); border:5px solid black"">","","","","","",""
"","14625.834999999846","sequential-stimulus-presentation-old","39","312331","0.0-15.0-1.0","SS1618365665480","trial","","40","500","15125.834999999846","images/stimuli/spore_stims/simple_01_A_a.gif","images/stimuli/spore_stims/simple_13_A_b.gif","forced_long","","3","simple_dissimilar","images/stimuli/spore_stims/simple_13_A_b.gif","","",""
"","null","html-keyboard-response","40","313392","0.0-15.0-0.1","SS1618365665480","","","null","","","","","","<p><img src= images/blank.png width =""600"" height = ""600"" style=""position:fixed;top:50%; left:50%; transform: translate(-50%, -50%); border:5px solid black"">","","","","","",""
"","3511.29999999993","sequential-stimulus-presentation-old","41","317407","0.0-15.0-1.1","SS1618365665480","trial","","40","500","4011.29999999993","images/stimuli/spore_stims/simple_01_A_a.gif","images/stimuli/spore_stims/simple_13_A_b.gif","forced_long","","3","simple_dissimilar","images/stimuli/spore_stims/simple_13_A_b.gif","","",""
"","null","html-keyboard-response","42","318277","0.0-15.0-0.2","SS1618365665480","","","null","","","","","","<p><img src= images/blank.png width =""600"" height = ""600"" style=""position:fixed;top:50%; left:50%; transform: translate(-50%, -50%); border:5px solid black"">","","","","","",""
