"view_history","rt","trial_type","trial_index","time_elapsed","internal_node_id","subject","stimulus_type","trial_stimulus","key_press","minimum_viewing_duration","trial_looking_time","block_deviant","block_background","exposure_type","stimulus","block_number","block_type","stimulus_displayed","responses","question_order","math_correct_answer","stimulus_left","stimulus_right"
"[{""page_index"":0,""viewing_time"":3171.139999998559}]","3171.5100000001257","instructions","0","3172","0.0-0.0","SS1618365930331","","","","","","","","","","","","","","","","",""
"[{""page_index"":0,""viewing_time"":6805.005000001984},{""page_index"":1,""viewing_time"":7985.910000003059}]","14791.284999999334","instructions","1","19975","0.0-1.0","SS1618365930331","instructions","","","","","","","","","","","","","","","",""
"","4808.7499999965075","sequential-stimulus-presentation-old","2","25288","0.0-2.0","SS1618365930331","","","40","500","5308.7499999965075","null","null","self_paced","","","","","","","","",""
"","3346.075000001292","sequential-stimulus-presentation-old","3","29150","0.0-3.0","SS1618365930331","","","40","500","3846.075000001292","null","null","self_paced","","","","","","","","",""
"[{""page_index"":0,""viewing_time"":13780.070000000705}]","13780.439999994996","instructions","4","42931","0.0-4.0","SS1618365930331","instructions","","","","","","","","","","","","","","","",""
"","348.2799999983399","sequential-stimulus-presentation-old","5","48282","0.0-5.0","SS1618365930331","","","40","500","848.2799999983399","null","null","forced_long","","","","","","","","",""
"","25297.980000003008","sequential-stimulus-presentation-old","6","73647","0.0-6.0","SS1618365930331","","","40","50","25347.980000003008","null","null","forced_long","","","","","","","","",""
"[{""page_index"":0,""viewing_time"":4122.4550000042655}]","4122.770000001765","instructions","7","77771","0.0-7.0","SS1618365930331","instructions","","","","","","","","","","","","","","","",""
"[{""page_index"":0,""viewing_time"":4638.234999998531},{""page_index"":1,""viewing_time"":6280.5200000002515},{""page_index"":2,""viewing_time"":3600.074999994831},{""page_index"":3,""viewing_time"":837.6500000013039},{""page_index"":4,""viewing_time"":749.4350000051782}]","16106.24999999709","instructions","8","93878","0.0-8.0","SS1618365930331","instructions","","","","","","","","","","","","","","","",""
"","null","html-keyboard-response","9","94693","0.0-9.0-0.0","SS1618365930331","","","null","","","","","","<p><img src= images/blank.png width =""600"" height = ""600"" style=""position:fixed;top:50%; left:50%; transform: translate(-50%, -50%); border:5px solid black"">","","","","","","","",""
"","704.9350000015693","sequential-stimulus-presentation-old","10","100402","0.0-9.0-1.0","SS1618365930331","trial","","40","500","1204.9350000015693","images/stimuli/spore_stims/complex_14_A_b.gif","images/stimuli/spore_stims/complex_16_A_a.gif","forced_long","","0","complex_dissimilar","images/stimuli/spore_stims/complex_16_A_a.gif","","","","",""
"","null","html-keyboard-response","11","101228","0.0-9.0-0.1","SS1618365930331","","","null","","","","","","<p><img src= images/blank.png width =""600"" height = ""600"" style=""position:fixed;top:50%; left:50%; transform: translate(-50%, -50%); border:5px solid black"">","","","","","","","",""
"","68036.2199999945","sequential-stimulus-presentation-old","12","169767","0.0-9.0-1.1","SS1618365930331","trial","","40","500","68536.2199999945","images/stimuli/spore_stims/complex_14_A_b.gif","images/stimuli/spore_stims/complex_16_A_a.gif","forced_long","","0","complex_dissimilar","images/stimuli/spore_stims/complex_16_A_a.gif","","","","",""
"","null","html-keyboard-response","13","170628","0.0-9.0-0.2","SS1618365930331","","","null","","","","","","<p><img src= images/blank.png width =""600"" height = ""600"" style=""position:fixed;top:50%; left:50%; transform: translate(-50%, -50%); border:5px solid black"">","","","","","","","",""
"","21942.64999999723","sequential-stimulus-presentation-old","14","193075","0.0-9.0-1.2","SS1618365930331","trial","","40","500","22442.64999999723","images/stimuli/spore_stims/complex_14_A_b.gif","images/stimuli/spore_stims/complex_16_A_a.gif","forced_long","","0","complex_dissimilar","images/stimuli/spore_stims/complex_14_A_b.gif","","","","",""
"","null","html-keyboard-response","15","193903","0.0-9.0-0.3","SS1618365930331","","","null","","","","","","<p><img src= images/blank.png width =""600"" height = ""600"" style=""position:fixed;top:50%; left:50%; transform: translate(-50%, -50%); border:5px solid black"">","","","","","","","",""
"","20929.45999999938","sequential-stimulus-presentation-old","16","215335","0.0-9.0-1.3","SS1618365930331","trial","","40","500","21429.45999999938","images/stimuli/spore_stims/complex_14_A_b.gif","images/stimuli/spore_stims/complex_16_A_a.gif","forced_long","","0","complex_dissimilar","images/stimuli/spore_stims/complex_16_A_a.gif","","","","",""
"","null","html-keyboard-response","17","216344","0.0-9.0-0.4","SS1618365930331","","","null","","","","","","<p><img src= images/blank.png width =""600"" height = ""600"" style=""position:fixed;top:50%; left:50%; transform: translate(-50%, -50%); border:5px solid black"">","","","","","","","",""
"","13669.349999996484","sequential-stimulus-presentation-old","18","230517","0.0-9.0-1.4","SS1618365930331","trial","","40","500","14169.349999996484","images/stimuli/spore_stims/complex_14_A_b.gif","images/stimuli/spore_stims/complex_16_A_a.gif","forced_long","","0","complex_dissimilar","images/stimuli/spore_stims/complex_16_A_a.gif","","","","",""
"","2479.045000000042","survey-multi-choice","19","232999","0.0-10.0","SS1618365930331","math_question","","","","","","","","","","","","{""Q0"":""8""}","[0]","8","",""
"","null","html-keyboard-response","20","233983","0.0-11.0-0.0","SS1618365930331","","","null","","","","","","<p><img src= images/blank.png width =""600"" height = ""600"" style=""position:fixed;top:50%; left:50%; transform: translate(-50%, -50%); border:5px solid black"">","","","","","","","",""
"","8083.084999998391","sequential-stimulus-presentation-old","21","242569","0.0-11.0-1.0","SS1618365930331","trial","","40","500","8583.084999998391","images/stimuli/spore_stims/complex_12_A_a.gif","images/stimuli/spore_stims/complex_17_A_b.gif","self_paced","","1","complex_dissimilar","images/stimuli/spore_stims/complex_17_A_b.gif","","","","",""
"","null","html-keyboard-response","22","243816","0.0-11.0-0.1","SS1618365930331","","","null","","","","","","<p><img src= images/blank.png width =""600"" height = ""600"" style=""position:fixed;top:50%; left:50%; transform: translate(-50%, -50%); border:5px solid black"">","","","","","","","",""
"","13488.984999996319","sequential-stimulus-presentation-old","23","257809","0.0-11.0-1.1","SS1618365930331","trial","","40","500","13988.984999996319","images/stimuli/spore_stims/complex_12_A_a.gif","images/stimuli/spore_stims/complex_17_A_b.gif","self_paced","","1","complex_dissimilar","images/stimuli/spore_stims/complex_17_A_b.gif","","","","",""
"","null","html-keyboard-response","24","258901","0.0-11.0-0.2","SS1618365930331","","","null","","","","","","<p><img src= images/blank.png width =""600"" height = ""600"" style=""position:fixed;top:50%; left:50%; transform: translate(-50%, -50%); border:5px solid black"">","","","","","","","",""
"","12657.145000004675","sequential-stimulus-presentation-old","25","272062","0.0-11.0-1.2","SS1618365930331","trial","","40","500","13157.145000004675","images/stimuli/spore_stims/complex_12_A_a.gif","images/stimuli/spore_stims/complex_17_A_b.gif","self_paced","","1","complex_dissimilar","images/stimuli/spore_stims/complex_17_A_b.gif","","","","",""
"","null","html-keyboard-response","26","273256","0.0-11.0-0.3","SS1618365930331","","","null","","","","","","<p><img src= images/blank.png width =""600"" height = ""600"" style=""position:fixed;top:50%; left:50%; transform: translate(-50%, -50%); border:5px solid black"">","","","","","","","",""
"","20772.684999996272","sequential-stimulus-presentation-old","27","294531","0.0-11.0-1.3","SS1618365930331","trial","","40","500","21272.684999996272","images/stimuli/spore_stims/complex_12_A_a.gif","images/stimuli/spore_stims/complex_17_A_b.gif","self_paced","","1","complex_dissimilar","images/stimuli/spore_stims/complex_12_A_a.gif","","","","",""
"","null","html-keyboard-response","28","295471","0.0-11.0-0.4","SS1618365930331","","","null","","","","","","<p><img src= images/blank.png width =""600"" height = ""600"" style=""position:fixed;top:50%; left:50%; transform: translate(-50%, -50%); border:5px solid black"">","","","","","","","",""
"","8103.634999999485","sequential-stimulus-presentation-old","29","304080","0.0-11.0-1.4","SS1618365930331","trial","","40","500","8603.634999999485","images/stimuli/spore_stims/complex_12_A_a.gif","images/stimuli/spore_stims/complex_17_A_b.gif","self_paced","","1","complex_dissimilar","images/stimuli/spore_stims/complex_12_A_a.gif","","","","",""
"","null","html-keyboard-response","30","305219","0.0-11.0-0.5","SS1618365930331","","","null","","","","","","<p><img src= images/blank.png width =""600"" height = ""600"" style=""position:fixed;top:50%; left:50%; transform: translate(-50%, -50%); border:5px solid black"">","","","","","","","",""
"","13055.860000000393","sequential-stimulus-presentation-old","31","318777","0.0-11.0-1.5","SS1618365930331","trial","","40","500","13555.860000000393","images/stimuli/spore_stims/complex_12_A_a.gif","images/stimuli/spore_stims/complex_17_A_b.gif","self_paced","","1","complex_dissimilar","images/stimuli/spore_stims/complex_17_A_b.gif","","","","",""
"","1933.5250000003725","survey-multi-choice","32","320713","0.0-12.0","SS1618365930331","math_question","","","","","","","","","","","","{""Q0"":""8""}","[0]","8","",""
"","null","html-keyboard-response","33","321916","0.0-13.0-0.0","SS1618365930331","","","null","","","","","","<p><img src= images/blank.png width =""600"" height = ""600"" style=""position:fixed;top:50%; left:50%; transform: translate(-50%, -50%); border:5px solid black"">","","","","","","","",""
"","5036.105000006501","sequential-stimulus-presentation-old","34","327456","0.0-13.0-1.0","SS1618365930331","trial","","40","500","5536.105000006501","images/stimuli/spore_stims/complex_02_A_a.gif","images/stimuli/spore_stims/complex_16_A_b.gif","self_paced","","2","complex_dissimilar","images/stimuli/spore_stims/complex_16_A_b.gif","","","","",""
"","null","html-keyboard-response","35","328575","0.0-13.0-0.1","SS1618365930331","","","null","","","","","","<p><img src= images/blank.png width =""600"" height = ""600"" style=""position:fixed;top:50%; left:50%; transform: translate(-50%, -50%); border:5px solid black"">","","","","","","","",""
"","8624.360000001616","sequential-stimulus-presentation-old","36","337704","0.0-13.0-1.1","SS1618365930331","trial","","40","500","9124.360000001616","images/stimuli/spore_stims/complex_02_A_a.gif","images/stimuli/spore_stims/complex_16_A_b.gif","self_paced","","2","complex_dissimilar","images/stimuli/spore_stims/complex_16_A_b.gif","","","","",""
"","null","html-keyboard-response","37","338635","0.0-13.0-0.2","SS1618365930331","","","null","","","","","","<p><img src= images/blank.png width =""600"" height = ""600"" style=""position:fixed;top:50%; left:50%; transform: translate(-50%, -50%); border:5px solid black"">","","","","","","","",""
"","6304.344999996829","sequential-stimulus-presentation-old","38","345443","0.0-13.0-1.2","SS1618365930331","trial","","40","500","6804.344999996829","images/stimuli/spore_stims/complex_02_A_a.gif","images/stimuli/spore_stims/complex_16_A_b.gif","self_paced","","2","complex_dissimilar","images/stimuli/spore_stims/complex_02_A_a.gif","","","","",""
"","null","html-keyboard-response","39","346650","0.0-13.0-0.3","SS1618365930331","","","null","","","","","","<p><img src= images/blank.png width =""600"" height = ""600"" style=""position:fixed;top:50%; left:50%; transform: translate(-50%, -50%); border:5px solid black"">","","","","","","","",""
"","4111.659999995027","sequential-stimulus-presentation-old","40","351265","0.0-13.0-1.3","SS1618365930331","trial","","40","500","4611.659999995027","images/stimuli/spore_stims/complex_02_A_a.gif","images/stimuli/spore_stims/complex_16_A_b.gif","self_paced","","2","complex_dissimilar","images/stimuli/spore_stims/complex_16_A_b.gif","","","","",""
"","2106.260000000475","survey-multi-choice","41","353373","0.0-14.0","SS1618365930331","math_question","","","","","","","","","","","","{""Q0"":""3""}","[0]","3","",""
"","null","html-keyboard-response","42","354349","0.0-15.0-0.0","SS1618365930331","","","null","","","","","","<p><img src= images/blank.png width =""600"" height = ""600"" style=""position:fixed;top:50%; left:50%; transform: translate(-50%, -50%); border:5px solid black"">","","","","","","","",""
"","1748.4999999942374","sequential-stimulus-presentation-old","43","356159","0.0-15.0-1.0","SS1618365930331","trial","","40","500","2248.4999999942374","images/stimuli/spore_stims/simple_09_A_a.gif","images/stimuli/spore_stims/simple_12_A_b.gif","forced_short","","3","simple_dissimilar","images/stimuli/spore_stims/simple_12_A_b.gif","","","","",""
"","null","html-keyboard-response","44","357308","0.0-15.0-0.1","SS1618365930331","","","null","","","","","","<p><img src= images/blank.png width =""600"" height = ""600"" style=""position:fixed;top:50%; left:50%; transform: translate(-50%, -50%); border:5px solid black"">","","","","","","","",""
"","3003.13499999902","sequential-stimulus-presentation-old","45","360813","0.0-15.0-1.1","SS1618365930331","trial","","40","500","3503.13499999902","images/stimuli/spore_stims/simple_09_A_a.gif","images/stimuli/spore_stims/simple_12_A_b.gif","forced_short","","3","simple_dissimilar","images/stimuli/spore_stims/simple_12_A_b.gif","","","","",""
"","null","html-keyboard-response","46","362105","0.0-15.0-0.2","SS1618365930331","","","null","","","","","","<p><img src= images/blank.png width =""600"" height = ""600"" style=""position:fixed;top:50%; left:50%; transform: translate(-50%, -50%); border:5px solid black"">","","","","","","","",""
"","3299.02499999298","sequential-stimulus-presentation-old","47","365920","0.0-15.0-1.2","SS1618365930331","trial","","40","500","3799.02499999298","images/stimuli/spore_stims/simple_09_A_a.gif","images/stimuli/spore_stims/simple_12_A_b.gif","forced_short","","3","simple_dissimilar","images/stimuli/spore_stims/simple_12_A_b.gif","","","","",""
"","null","html-keyboard-response","48","367019","0.0-15.0-0.3","SS1618365930331","","","null","","","","","","<p><img src= images/blank.png width =""600"" height = ""600"" style=""position:fixed;top:50%; left:50%; transform: translate(-50%, -50%); border:5px solid black"">","","","","","","","",""
"","4400.085000001127","sequential-stimulus-presentation-old","49","371923","0.0-15.0-1.3","SS1618365930331","trial","","40","500","4900.085000001127","images/stimuli/spore_stims/simple_09_A_a.gif","images/stimuli/spore_stims/simple_12_A_b.gif","forced_short","","3","simple_dissimilar","images/stimuli/spore_stims/simple_12_A_b.gif","","","","",""
"","null","html-keyboard-response","50","373168","0.0-15.0-0.4","SS1618365930331","","","null","","","","","","<p><img src= images/blank.png width =""600"" height = ""600"" style=""position:fixed;top:50%; left:50%; transform: translate(-50%, -50%); border:5px solid black"">","","","","","","","",""
"","3097.0950000046287","sequential-stimulus-presentation-old","51","376769","0.0-15.0-1.4","SS1618365930331","trial","","40","500","3597.0950000046287","images/stimuli/spore_stims/simple_09_A_a.gif","images/stimuli/spore_stims/simple_12_A_b.gif","forced_short","","3","simple_dissimilar","images/stimuli/spore_stims/simple_12_A_b.gif","","","","",""
"","1795.5799999981537","survey-multi-choice","52","378566","0.0-16.0","SS1618365930331","math_question","","","","","","","","","","","","{""Q0"":""7""}","[0]","7","",""
"","null","html-keyboard-response","53","379422","0.0-17.0-0.0","SS1618365930331","","","null","","","","","","<p><img src= images/blank.png width =""600"" height = ""600"" style=""position:fixed;top:50%; left:50%; transform: translate(-50%, -50%); border:5px solid black"">","","","","","","","",""
"","697.985000006156","sequential-stimulus-presentation-old","54","385124","0.0-17.0-1.0","SS1618365930331","trial","","40","500","1197.985000006156","images/stimuli/spore_stims/simple_01_A_b.gif","images/stimuli/spore_stims/simple_12_A_a.gif","forced_long","","4","simple_dissimilar","images/stimuli/spore_stims/simple_12_A_a.gif","","","","",""
"","null","html-keyboard-response","55","385970","0.0-17.0-0.1","SS1618365930331","","","null","","","","","","<p><img src= images/blank.png width =""600"" height = ""600"" style=""position:fixed;top:50%; left:50%; transform: translate(-50%, -50%); border:5px solid black"">","","","","","","","",""
"","6606.064999999944","sequential-stimulus-presentation-old","56","393080","0.0-17.0-1.1","SS1618365930331","trial","","40","500","7106.064999999944","images/stimuli/spore_stims/simple_01_A_b.gif","images/stimuli/spore_stims/simple_12_A_a.gif","forced_long","","4","simple_dissimilar","images/stimuli/spore_stims/simple_12_A_a.gif","","","","",""
"","null","html-keyboard-response","57","394120","0.0-17.0-0.2","SS1618365930331","","","null","","","","","","<p><img src= images/blank.png width =""600"" height = ""600"" style=""position:fixed;top:50%; left:50%; transform: translate(-50%, -50%); border:5px solid black"">","","","","","","","",""
"","3916.2599999981467","sequential-stimulus-presentation-old","58","398541","0.0-17.0-1.2","SS1618365930331","trial","","40","500","4416.259999998147","images/stimuli/spore_stims/simple_01_A_b.gif","images/stimuli/spore_stims/simple_12_A_a.gif","forced_long","","4","simple_dissimilar","images/stimuli/spore_stims/simple_12_A_a.gif","","","","",""
"","null","html-keyboard-response","59","399576","0.0-17.0-0.3","SS1618365930331","","","null","","","","","","<p><img src= images/blank.png width =""600"" height = ""600"" style=""position:fixed;top:50%; left:50%; transform: translate(-50%, -50%); border:5px solid black"">","","","","","","","",""
"","2727.0900000003166","sequential-stimulus-presentation-old","60","402817","0.0-17.0-1.3","SS1618365930331","trial","","40","500","3227.0900000003166","images/stimuli/spore_stims/simple_01_A_b.gif","images/stimuli/spore_stims/simple_12_A_a.gif","forced_long","","4","simple_dissimilar","images/stimuli/spore_stims/simple_12_A_a.gif","","","","",""
"","null","html-keyboard-response","61","403872","0.0-17.0-0.4","SS1618365930331","","","null","","","","","","<p><img src= images/blank.png width =""600"" height = ""600"" style=""position:fixed;top:50%; left:50%; transform: translate(-50%, -50%); border:5px solid black"">","","","","","","","",""
"","4818.274999997811","sequential-stimulus-presentation-old","62","409201","0.0-17.0-1.4","SS1618365930331","trial","","40","500","5318.274999997811","images/stimuli/spore_stims/simple_01_A_b.gif","images/stimuli/spore_stims/simple_12_A_a.gif","forced_long","","4","simple_dissimilar","images/stimuli/spore_stims/simple_01_A_b.gif","","","","",""
"","null","html-keyboard-response","63","410129","0.0-17.0-0.5","SS1618365930331","","","null","","","","","","<p><img src= images/blank.png width =""600"" height = ""600"" style=""position:fixed;top:50%; left:50%; transform: translate(-50%, -50%); border:5px solid black"">","","","","","","","",""
"","2396.515000000363","sequential-stimulus-presentation-old","64","413029","0.0-17.0-1.5","SS1618365930331","trial","","40","500","2896.515000000363","images/stimuli/spore_stims/simple_01_A_b.gif","images/stimuli/spore_stims/simple_12_A_a.gif","forced_long","","4","simple_dissimilar","images/stimuli/spore_stims/simple_12_A_a.gif","","","","",""
"","1947.4699999991572","survey-multi-choice","65","414979","0.0-18.0","SS1618365930331","math_question","","","","","","","","","","","","{""Q0"":""7""}","[0]","7","",""
"","null","html-keyboard-response","66","416091","0.0-19.0-0.0","SS1618365930331","","","null","","","","","","<p><img src= images/blank.png width =""600"" height = ""600"" style=""position:fixed;top:50%; left:50%; transform: translate(-50%, -50%); border:5px solid black"">","","","","","","","",""
"","1636.8699999948149","sequential-stimulus-presentation-old","67","417787","0.0-19.0-1.0","SS1618365930331","trial","","40","500","2136.869999994815","images/stimuli/spore_stims/simple_13_A_a.gif","images/stimuli/spore_stims/simple_16_A_b.gif","forced_short","","5","simple_dissimilar","images/stimuli/spore_stims/simple_16_A_b.gif","","","","",""
"","null","html-keyboard-response","68","419031","0.0-19.0-0.1","SS1618365930331","","","null","","","","","","<p><img src= images/blank.png width =""600"" height = ""600"" style=""position:fixed;top:50%; left:50%; transform: translate(-50%, -50%); border:5px solid black"">","","","","","","","",""
"","2301.195000000007","sequential-stimulus-presentation-old","69","421836","0.0-19.0-1.1","SS1618365930331","trial","","40","500","2801.195000000007","images/stimuli/spore_stims/simple_13_A_a.gif","images/stimuli/spore_stims/simple_16_A_b.gif","forced_short","","5","simple_dissimilar","images/stimuli/spore_stims/simple_16_A_b.gif","","","","",""
"","null","html-keyboard-response","70","423107","0.0-19.0-0.2","SS1618365930331","","","null","","","","","","<p><img src= images/blank.png width =""600"" height = ""600"" style=""position:fixed;top:50%; left:50%; transform: translate(-50%, -50%); border:5px solid black"">","","","","","","","",""
"","2952.5900000007823","sequential-stimulus-presentation-old","71","426562","0.0-19.0-1.2","SS1618365930331","trial","","40","500","3452.5900000007823","images/stimuli/spore_stims/simple_13_A_a.gif","images/stimuli/spore_stims/simple_16_A_b.gif","forced_short","","5","simple_dissimilar","images/stimuli/spore_stims/simple_13_A_a.gif","","","","",""
"","null","html-keyboard-response","72","427779","0.0-19.0-0.3","SS1618365930331","","","null","","","","","","<p><img src= images/blank.png width =""600"" height = ""600"" style=""position:fixed;top:50%; left:50%; transform: translate(-50%, -50%); border:5px solid black"">","","","","","","","",""
"","232.25999999704072","sequential-stimulus-presentation-old","73","428526","0.0-19.0-1.3","SS1618365930331","trial","","40","500","732.2599999970407","images/stimuli/spore_stims/simple_13_A_a.gif","images/stimuli/spore_stims/simple_16_A_b.gif","forced_short","","5","simple_dissimilar","images/stimuli/spore_stims/simple_13_A_a.gif","","","","",""
"","null","html-keyboard-response","74","429613","0.0-19.0-0.4","SS1618365930331","","","null","","","","","","<p><img src= images/blank.png width =""600"" height = ""600"" style=""position:fixed;top:50%; left:50%; transform: translate(-50%, -50%); border:5px solid black"">","","","","","","","",""
"","2201.0499999960302","sequential-stimulus-presentation-old","75","432317","0.0-19.0-1.4","SS1618365930331","trial","","40","500","2701.0499999960302","images/stimuli/spore_stims/simple_13_A_a.gif","images/stimuli/spore_stims/simple_16_A_b.gif","forced_short","","5","simple_dissimilar","images/stimuli/spore_stims/simple_16_A_b.gif","","","","",""
"","1956.8100000033155","survey-multi-choice","76","434276","0.0-20.0","SS1618365930331","math_question","","","","","","","","","","","","{""Q0"":""12""}","[0]","12","",""
"","null","html-keyboard-response","77","435476","0.0-21.0-0.0","SS1618365930331","","","null","","","","","","<p><img src= images/blank.png width =""600"" height = ""600"" style=""position:fixed;top:50%; left:50%; transform: translate(-50%, -50%); border:5px solid black"">","","","","","","","",""
"","345.82500000396976","sequential-stimulus-presentation-old","78","440830","0.0-21.0-1.0","SS1618365930331","trial","","40","500","845.8250000039698","images/stimuli/spore_stims/simple_18_A_b.gif","images/stimuli/spore_stims/simple_14_A_a.gif","forced_long","","6","simple_dissimilar","images/stimuli/spore_stims/simple_14_A_a.gif","","","","",""
"","null","html-keyboard-response","79","442007","0.0-21.0-0.1","SS1618365930331","","","null","","","","","","<p><img src= images/blank.png width =""600"" height = ""600"" style=""position:fixed;top:50%; left:50%; transform: translate(-50%, -50%); border:5px solid black"">","","","","","","","",""
"","1354.459999995015","sequential-stimulus-presentation-old","80","443877","0.0-21.0-1.1","SS1618365930331","trial","","40","500","1854.459999995015","images/stimuli/spore_stims/simple_18_A_b.gif","images/stimuli/spore_stims/simple_14_A_a.gif","forced_long","","6","simple_dissimilar","images/stimuli/spore_stims/simple_14_A_a.gif","","","","",""
"","null","html-keyboard-response","81","444884","0.0-21.0-0.2","SS1618365930331","","","null","","","","","","<p><img src= images/blank.png width =""600"" height = ""600"" style=""position:fixed;top:50%; left:50%; transform: translate(-50%, -50%); border:5px solid black"">","","","","","","","",""
"","4596.095000000787","sequential-stimulus-presentation-old","82","449983","0.0-21.0-1.2","SS1618365930331","trial","","40","500","5096.095000000787","images/stimuli/spore_stims/simple_18_A_b.gif","images/stimuli/spore_stims/simple_14_A_a.gif","forced_long","","6","simple_dissimilar","images/stimuli/spore_stims/simple_18_A_b.gif","","","","",""
"","null","html-keyboard-response","83","451004","0.0-21.0-0.3","SS1618365930331","","","null","","","","","","<p><img src= images/blank.png width =""600"" height = ""600"" style=""position:fixed;top:50%; left:50%; transform: translate(-50%, -50%); border:5px solid black"">","","","","","","","",""
"","355.82500000600703","sequential-stimulus-presentation-old","84","451863","0.0-21.0-1.3","SS1618365930331","trial","","40","500","855.825000006007","images/stimuli/spore_stims/simple_18_A_b.gif","images/stimuli/spore_stims/simple_14_A_a.gif","forced_long","","6","simple_dissimilar","images/stimuli/spore_stims/simple_14_A_a.gif","","","","",""
"","null","html-keyboard-response","85","453127","0.0-21.0-0.4","SS1618365930331","","","null","","","","","","<p><img src= images/blank.png width =""600"" height = ""600"" style=""position:fixed;top:50%; left:50%; transform: translate(-50%, -50%); border:5px solid black"">","","","","","","","",""
"","7543.825000000652","sequential-stimulus-presentation-old","86","461174","0.0-21.0-1.4","SS1618365930331","trial","","40","500","8043.825000000652","images/stimuli/spore_stims/simple_18_A_b.gif","images/stimuli/spore_stims/simple_14_A_a.gif","forced_long","","6","simple_dissimilar","images/stimuli/spore_stims/simple_14_A_a.gif","","","","",""
"","1841.3050000017392","survey-multi-choice","87","463017","0.0-22.0","SS1618365930331","math_question","","","","","","","","","","","","{""Q0"":""9""}","[0]","9","",""
"","null","html-keyboard-response","88","464087","0.0-23.0-0.0","SS1618365930331","","","null","","","","","","<p><img src= images/blank.png width =""600"" height = ""600"" style=""position:fixed;top:50%; left:50%; transform: translate(-50%, -50%); border:5px solid black"">","","","","","","","",""
"","7390.4400000028545","sequential-stimulus-presentation-old","89","471981","0.0-23.0-1.0","SS1618365930331","trial","","40","500","7890.4400000028545","images/stimuli/spore_stims/simple_17_A_a.gif","images/stimuli/spore_stims/simple_19_A_b.gif","self_paced","","7","simple_dissimilar","images/stimuli/spore_stims/simple_19_A_b.gif","","","","",""
"","null","html-keyboard-response","90","473216","0.0-23.0-0.1","SS1618365930331","","","null","","","","","","<p><img src= images/blank.png width =""600"" height = ""600"" style=""position:fixed;top:50%; left:50%; transform: translate(-50%, -50%); border:5px solid black"">","","","","","","","",""
"","1021.8349999995553","sequential-stimulus-presentation-old","91","474746","0.0-23.0-1.1","SS1618365930331","trial","","40","500","1521.8349999995553","images/stimuli/spore_stims/simple_17_A_a.gif","images/stimuli/spore_stims/simple_19_A_b.gif","self_paced","","7","simple_dissimilar","images/stimuli/spore_stims/simple_19_A_b.gif","","","","",""
"","null","html-keyboard-response","92","475875","0.0-23.0-0.2","SS1618365930331","","","null","","","","","","<p><img src= images/blank.png width =""600"" height = ""600"" style=""position:fixed;top:50%; left:50%; transform: translate(-50%, -50%); border:5px solid black"">","","","","","","","",""
"","135.63499999872874","sequential-stimulus-presentation-old","93","476513","0.0-23.0-1.2","SS1618365930331","trial","","40","500","635.6349999987287","images/stimuli/spore_stims/simple_17_A_a.gif","images/stimuli/spore_stims/simple_19_A_b.gif","self_paced","","7","simple_dissimilar","images/stimuli/spore_stims/simple_19_A_b.gif","","","","",""
"","null","html-keyboard-response","94","477727","0.0-23.0-0.3","SS1618365930331","","","null","","","","","","<p><img src= images/blank.png width =""600"" height = ""600"" style=""position:fixed;top:50%; left:50%; transform: translate(-50%, -50%); border:5px solid black"">","","","","","","","",""
"","419.95999999926426","sequential-stimulus-presentation-old","95","478650","0.0-23.0-1.3","SS1618365930331","trial","","40","500","919.9599999992643","images/stimuli/spore_stims/simple_17_A_a.gif","images/stimuli/spore_stims/simple_19_A_b.gif","self_paced","","7","simple_dissimilar","images/stimuli/spore_stims/simple_19_A_b.gif","","","","",""
"","3197.569999996631","survey-multi-choice","96","481849","0.0-24.0","SS1618365930331","math_question","","","","","","","","","","","","{""Q0"":""17""}","[0]","17","",""
"","null","html-keyboard-response","97","482999","0.0-25.0-0.0","SS1618365930331","","","null","","","","","","<p><img src= images/blank.png width =""600"" height = ""600"" style=""position:fixed;top:50%; left:50%; transform: translate(-50%, -50%); border:5px solid black"">","","","","","","","",""
"","1838.6050000044634","sequential-stimulus-presentation-old","98","484891","0.0-25.0-1.0","SS1618365930331","trial","","40","500","2338.6050000044634","images/stimuli/spore_stims/complex_08_A_a.gif","images/stimuli/spore_stims/complex_19_A_b.gif","forced_short","","8","complex_dissimilar","images/stimuli/spore_stims/complex_19_A_b.gif","","","","",""
"","null","html-keyboard-response","99","486133","0.0-25.0-0.1","SS1618365930331","","","null","","","","","","<p><img src= images/blank.png width =""600"" height = ""600"" style=""position:fixed;top:50%; left:50%; transform: translate(-50%, -50%); border:5px solid black"">","","","","","","","",""
"","2271.890000003623","sequential-stimulus-presentation-old","100","488909","0.0-25.0-1.1","SS1618365930331","trial","","40","500","2771.890000003623","images/stimuli/spore_stims/complex_08_A_a.gif","images/stimuli/spore_stims/complex_19_A_b.gif","forced_short","","8","complex_dissimilar","images/stimuli/spore_stims/complex_19_A_b.gif","","","","",""
"","null","html-keyboard-response","101","490141","0.0-25.0-0.2","SS1618365930331","","","null","","","","","","<p><img src= images/blank.png width =""600"" height = ""600"" style=""position:fixed;top:50%; left:50%; transform: translate(-50%, -50%); border:5px solid black"">","","","","","","","",""
"","2745.0000000026193","sequential-stimulus-presentation-old","102","493389","0.0-25.0-1.2","SS1618365930331","trial","","40","500","3245.0000000026193","images/stimuli/spore_stims/complex_08_A_a.gif","images/stimuli/spore_stims/complex_19_A_b.gif","forced_short","","8","complex_dissimilar","images/stimuli/spore_stims/complex_08_A_a.gif","","","","",""
"","null","html-keyboard-response","103","494493","0.0-25.0-0.3","SS1618365930331","","","null","","","","","","<p><img src= images/blank.png width =""600"" height = ""600"" style=""position:fixed;top:50%; left:50%; transform: translate(-50%, -50%); border:5px solid black"">","","","","","","","",""
"","1143.9200000022538","sequential-stimulus-presentation-old","104","496147","0.0-25.0-1.3","SS1618365930331","trial","","40","500","1643.9200000022538","images/stimuli/spore_stims/complex_08_A_a.gif","images/stimuli/spore_stims/complex_19_A_b.gif","forced_short","","8","complex_dissimilar","images/stimuli/spore_stims/complex_08_A_a.gif","","","","",""
"","null","html-keyboard-response","105","497337","0.0-25.0-0.4","SS1618365930331","","","null","","","","","","<p><img src= images/blank.png width =""600"" height = ""600"" style=""position:fixed;top:50%; left:50%; transform: translate(-50%, -50%); border:5px solid black"">","","","","","","","",""
"","731.1500000068918","sequential-stimulus-presentation-old","106","498571","0.0-25.0-1.4","SS1618365930331","trial","","40","500","1231.1500000068918","images/stimuli/spore_stims/complex_08_A_a.gif","images/stimuli/spore_stims/complex_19_A_b.gif","forced_short","","8","complex_dissimilar","images/stimuli/spore_stims/complex_19_A_b.gif","","","","",""
"","2325.665000003937","survey-multi-choice","107","500899","0.0-26.0","SS1618365930331","math_question","","","","","","","","","","","","{""Q0"":""13""}","[0]","13","",""
"","null","html-keyboard-response","108","501829","0.0-27.0-0.0","SS1618365930331","","","null","","","","","","<p><img src= images/blank.png width =""600"" height = ""600"" style=""position:fixed;top:50%; left:50%; transform: translate(-50%, -50%); border:5px solid black"">","","","","","","","",""
"","834.9899999957415","sequential-stimulus-presentation-old","109","503167","0.0-27.0-1.0","SS1618365930331","trial","","40","500","1334.9899999957415","images/stimuli/spore_stims/simple_06_A_a.gif","images/stimuli/spore_stims/simple_04_A_b.gif","self_paced","","9","simple_dissimilar","images/stimuli/spore_stims/simple_04_A_b.gif","","","","",""
"","null","html-keyboard-response","110","504239","0.0-27.0-0.1","SS1618365930331","","","null","","","","","","<p><img src= images/blank.png width =""600"" height = ""600"" style=""position:fixed;top:50%; left:50%; transform: translate(-50%, -50%); border:5px solid black"">","","","","","","","",""
"","95.96500000043306","sequential-stimulus-presentation-old","111","504839","0.0-27.0-1.1","SS1618365930331","trial","","40","500","595.9650000004331","images/stimuli/spore_stims/simple_06_A_a.gif","images/stimuli/spore_stims/simple_04_A_b.gif","self_paced","","9","simple_dissimilar","images/stimuli/spore_stims/simple_04_A_b.gif","","","","",""
"","null","html-keyboard-response","112","505966","0.0-27.0-0.2","SS1618365930331","","","null","","","","","","<p><img src= images/blank.png width =""600"" height = ""600"" style=""position:fixed;top:50%; left:50%; transform: translate(-50%, -50%); border:5px solid black"">","","","","","","","",""
"","988.1449999957113","sequential-stimulus-presentation-old","113","507457","0.0-27.0-1.2","SS1618365930331","trial","","40","500","1488.1449999957113","images/stimuli/spore_stims/simple_06_A_a.gif","images/stimuli/spore_stims/simple_04_A_b.gif","self_paced","","9","simple_dissimilar","images/stimuli/spore_stims/simple_04_A_b.gif","","","","",""
"","null","html-keyboard-response","114","508681","0.0-27.0-0.3","SS1618365930331","","","null","","","","","","<p><img src= images/blank.png width =""600"" height = ""600"" style=""position:fixed;top:50%; left:50%; transform: translate(-50%, -50%); border:5px solid black"">","","","","","","","",""
"","1896.3000000003376","sequential-stimulus-presentation-old","115","511082","0.0-27.0-1.3","SS1618365930331","trial","","40","500","2396.3000000003376","images/stimuli/spore_stims/simple_06_A_a.gif","images/stimuli/spore_stims/simple_04_A_b.gif","self_paced","","9","simple_dissimilar","images/stimuli/spore_stims/simple_06_A_a.gif","","","","",""
"","null","html-keyboard-response","116","511909","0.0-27.0-0.4","SS1618365930331","","","null","","","","","","<p><img src= images/blank.png width =""600"" height = ""600"" style=""position:fixed;top:50%; left:50%; transform: translate(-50%, -50%); border:5px solid black"">","","","","","","","",""
"","872.7750000034575","sequential-stimulus-presentation-old","117","513294","0.0-27.0-1.4","SS1618365930331","trial","","40","500","1372.7750000034575","images/stimuli/spore_stims/simple_06_A_a.gif","images/stimuli/spore_stims/simple_04_A_b.gif","self_paced","","9","simple_dissimilar","images/stimuli/spore_stims/simple_04_A_b.gif","","","","",""
"","2137.7100000026985","survey-multi-choice","118","515433","0.0-28.0","SS1618365930331","math_question","","","","","","","","","","","","{""Q0"":""11""}","[0]","11","",""
"","null","html-keyboard-response","119","516611","0.0-29.0-0.0","SS1618365930331","","","null","","","","","","<p><img src= images/blank.png width =""600"" height = ""600"" style=""position:fixed;top:50%; left:50%; transform: translate(-50%, -50%); border:5px solid black"">","","","","","","","",""
"","967.8099999945844","sequential-stimulus-presentation-old","120","517633","0.0-29.0-1.0","SS1618365930331","trial","","40","500","1467.8099999945844","images/stimuli/spore_stims/complex_15_A_a.gif","images/stimuli/spore_stims/complex_10_A_b.gif","forced_short","","10","complex_dissimilar","images/stimuli/spore_stims/complex_10_A_b.gif","","","","",""
"","null","html-keyboard-response","121","518710","0.0-29.0-0.1","SS1618365930331","","","null","","","","","","<p><img src= images/blank.png width =""600"" height = ""600"" style=""position:fixed;top:50%; left:50%; transform: translate(-50%, -50%); border:5px solid black"">","","","","","","","",""
"","1565.844999997411","sequential-stimulus-presentation-old","122","520789","0.0-29.0-1.1","SS1618365930331","trial","","40","500","2065.844999997411","images/stimuli/spore_stims/complex_15_A_a.gif","images/stimuli/spore_stims/complex_10_A_b.gif","forced_short","","10","complex_dissimilar","images/stimuli/spore_stims/complex_10_A_b.gif","","","","",""
"","null","html-keyboard-response","123","521709","0.0-29.0-0.2","SS1618365930331","","","null","","","","","","<p><img src= images/blank.png width =""600"" height = ""600"" style=""position:fixed;top:50%; left:50%; transform: translate(-50%, -50%); border:5px solid black"">","","","","","","","",""
"","2483.4950000003446","sequential-stimulus-presentation-old","124","524696","0.0-29.0-1.2","SS1618365930331","trial","","40","500","2983.4950000003446","images/stimuli/spore_stims/complex_15_A_a.gif","images/stimuli/spore_stims/complex_10_A_b.gif","forced_short","","10","complex_dissimilar","images/stimuli/spore_stims/complex_15_A_a.gif","","","","",""
"","null","html-keyboard-response","125","525707","0.0-29.0-0.3","SS1618365930331","","","null","","","","","","<p><img src= images/blank.png width =""600"" height = ""600"" style=""position:fixed;top:50%; left:50%; transform: translate(-50%, -50%); border:5px solid black"">","","","","","","","",""
"","1386.2050000024028","sequential-stimulus-presentation-old","126","527596","0.0-29.0-1.3","SS1618365930331","trial","","40","500","1886.2050000024028","images/stimuli/spore_stims/complex_15_A_a.gif","images/stimuli/spore_stims/complex_10_A_b.gif","forced_short","","10","complex_dissimilar","images/stimuli/spore_stims/complex_10_A_b.gif","","","","",""
"","1829.2849999997998","survey-multi-choice","127","529429","0.0-30.0","SS1618365930331","math_question","","","","","","","","","","","","{""Q0"":""12""}","[0]","12","",""
"","null","html-keyboard-response","128","530616","0.0-31.0-0.0","SS1618365930331","","","null","","","","","","<p><img src= images/blank.png width =""600"" height = ""600"" style=""position:fixed;top:50%; left:50%; transform: translate(-50%, -50%); border:5px solid black"">","","","","","","","",""
"","358.9750000028871","sequential-stimulus-presentation-old","129","535979","0.0-31.0-1.0","SS1618365930331","trial","","40","500","858.9750000028871","images/stimuli/spore_stims/complex_07_A_b.gif","images/stimuli/spore_stims/complex_06_A_a.gif","forced_long","","11","complex_dissimilar","images/stimuli/spore_stims/complex_06_A_a.gif","","","","",""
"","null","html-keyboard-response","130","537156","0.0-31.0-0.1","SS1618365930331","","","null","","","","","","<p><img src= images/blank.png width =""600"" height = ""600"" style=""position:fixed;top:50%; left:50%; transform: translate(-50%, -50%); border:5px solid black"">","","","","","","","",""
"","1768.0749999999534","sequential-stimulus-presentation-old","131","539427","0.0-31.0-1.1","SS1618365930331","trial","","40","500","2268.0749999999534","images/stimuli/spore_stims/complex_07_A_b.gif","images/stimuli/spore_stims/complex_06_A_a.gif","forced_long","","11","complex_dissimilar","images/stimuli/spore_stims/complex_06_A_a.gif","","","","",""
"","null","html-keyboard-response","132","540494","0.0-31.0-0.2","SS1618365930331","","","null","","","","","","<p><img src= images/blank.png width =""600"" height = ""600"" style=""position:fixed;top:50%; left:50%; transform: translate(-50%, -50%); border:5px solid black"">","","","","","","","",""
"","87.02500000083819","sequential-stimulus-presentation-old","133","541085","0.0-31.0-1.2","SS1618365930331","trial","","40","500","587.0250000008382","images/stimuli/spore_stims/complex_07_A_b.gif","images/stimuli/spore_stims/complex_06_A_a.gif","forced_long","","11","complex_dissimilar","images/stimuli/spore_stims/complex_06_A_a.gif","","","","",""
"","null","html-keyboard-response","134","542338","0.0-31.0-0.3","SS1618365930331","","","null","","","","","","<p><img src= images/blank.png width =""600"" height = ""600"" style=""position:fixed;top:50%; left:50%; transform: translate(-50%, -50%); border:5px solid black"">","","","","","","","",""
"","9.149999998044223","sequential-stimulus-presentation-old","135","542860","0.0-31.0-1.3","SS1618365930331","trial","","40","500","509.1499999980442","images/stimuli/spore_stims/complex_07_A_b.gif","images/stimuli/spore_stims/complex_06_A_a.gif","forced_long","","11","complex_dissimilar","images/stimuli/spore_stims/complex_06_A_a.gif","","","","",""
"","null","html-keyboard-response","136","543847","0.0-31.0-0.4","SS1618365930331","","","null","","","","","","<p><img src= images/blank.png width =""600"" height = ""600"" style=""position:fixed;top:50%; left:50%; transform: translate(-50%, -50%); border:5px solid black"">","","","","","","","",""
"","2919.2150000017136","sequential-stimulus-presentation-old","137","547270","0.0-31.0-1.4","SS1618365930331","trial","","40","500","3419.2150000017136","images/stimuli/spore_stims/complex_07_A_b.gif","images/stimuli/spore_stims/complex_06_A_a.gif","forced_long","","11","complex_dissimilar","images/stimuli/spore_stims/complex_07_A_b.gif","","","","",""
"[{""page_index"":0,""viewing_time"":3675.6249999961583}]","3676.0399999984074","instructions","138","550948","0.0-32.0","SS1618365930331","instructions","","","","","","","","","","","","","","","",""
"","7459.580000002519","survey-likert","139","558411","0.0-33.0","SS1618365930331","similarity_question","","","","","","","","","","","","{""Q0"":4}","[0]","","images/stimuli/spore_stims/simple_04_A_b.gif","images/stimuli/spore_stims/simple_06_A_a.gif"
"","3950.3349999940256","survey-likert","140","562370","0.0-34.0","SS1618365930331","similarity_question","","","","","","","","","","","","{""Q0"":2}","[0]","","images/stimuli/spore_stims/simple_13_A_a.gif","images/stimuli/spore_stims/simple_16_A_b.gif"
"","5022.400000001653","survey-likert","141","567399","0.0-35.0","SS1618365930331","similarity_question","","","","","","","","","","","","{""Q0"":5}","[0]","","images/stimuli/spore_stims/simple_09_A_a.gif","images/stimuli/spore_stims/simple_12_A_b.gif"
"","2979.210000005085","survey-likert","142","570387","0.0-36.0","SS1618365930331","similarity_question","","","","","","","","","","","","{""Q0"":5}","[0]","","images/stimuli/spore_stims/simple_12_A_a.gif","images/stimuli/spore_stims/simple_01_A_b.gif"
"","5022.134999999311","survey-likert","143","575416","0.0-37.0","SS1618365930331","similarity_question","","","","","","","","","","","","{""Q0"":1}","[0]","","images/stimuli/spore_stims/complex_12_A_a.gif","images/stimuli/spore_stims/complex_17_A_b.gif"
"","3979.6449999994365","survey-likert","144","579406","0.0-38.0","SS1618365930331","similarity_question","","","","","","","","","","","","{""Q0"":2}","[0]","","images/stimuli/spore_stims/complex_14_A_b.gif","images/stimuli/spore_stims/complex_16_A_a.gif"
"","6870.9450000023935","survey-likert","145","586284","0.0-39.0","SS1618365930331","similarity_question","","","","","","","","","","","","{""Q0"":1}","[0]","","images/stimuli/spore_stims/complex_15_A_a.gif","images/stimuli/spore_stims/complex_10_A_b.gif"
"","4850.340000004508","survey-likert","146","591142","0.0-40.0","SS1618365930331","similarity_question","","","","","","","","","","","","{""Q0"":1}","[0]","","images/stimuli/spore_stims/simple_14_A_a.gif","images/stimuli/spore_stims/simple_18_A_b.gif"
"","4834.550000006799","survey-likert","147","595984","0.0-41.0","SS1618365930331","similarity_question","","","","","","","","","","","","{""Q0"":0}","[0]","","images/stimuli/spore_stims/complex_07_A_b.gif","images/stimuli/spore_stims/complex_06_A_a.gif"
"","7799.025000000256","survey-likert","148","603790","0.0-42.0","SS1618365930331","similarity_question","","","","","","","","","","","","{""Q0"":1}","[0]","","images/stimuli/spore_stims/complex_02_A_a.gif","images/stimuli/spore_stims/complex_16_A_b.gif"
"","3292.915000005509","survey-likert","149","607091","0.0-43.0","SS1618365930331","similarity_question","","","","","","","","","","","","{""Q0"":0}","[0]","","images/stimuli/spore_stims/complex_08_A_a.gif","images/stimuli/spore_stims/complex_19_A_b.gif"
"","2514.619999994524","survey-likert","150","609614","0.0-44.0","SS1618365930331","similarity_question","","","","","","","","","","","","{""Q0"":4}","[0]","","images/stimuli/spore_stims/simple_19_A_b.gif","images/stimuli/spore_stims/simple_17_A_a.gif"
"[{""page_index"":0,""viewing_time"":3232.9250000038883}]","3233.2749999986263","instructions","151","612854","0.0-45.0","SS1618365930331","instructions","","","","","","","","","","","","","","","",""
"","5003.7650000012945","survey-likert","152","617862","0.0-46.0","SS1618365930331","","","","","","","","","images/stimuli/spore_stims/complex_02_A_a.gif","","","","{""Q0"":4}","[0]","","",""
"","3330.9700000026496","survey-likert","153","621200","0.0-47.0","SS1618365930331","","","","","","","","","images/stimuli/spore_stims/complex_08_A_a.gif","","","","{""Q0"":5}","[0]","","",""
"","2724.5100000000093","survey-likert","154","623932","0.0-48.0","SS1618365930331","","","","","","","","","images/stimuli/spore_stims/simple_06_A_a.gif","","","","{""Q0"":1}","[0]","","",""
"","2468.3349999978673","survey-likert","155","626410","0.0-49.0","SS1618365930331","","","","","","","","","images/stimuli/spore_stims/complex_10_A_b.gif","","","","{""Q0"":4}","[0]","","",""
"","1983.2600000008242","survey-likert","156","628401","0.0-50.0","SS1618365930331","","","","","","","","","images/stimuli/spore_stims/simple_19_A_b.gif","","","","{""Q0"":3}","[0]","","",""
"","2491.4500000013504","survey-likert","157","630901","0.0-51.0","SS1618365930331","","","","","","","","","images/stimuli/spore_stims/simple_01_A_b.gif","","","","{""Q0"":2}","[0]","","",""
"","3143.89500000095","survey-likert","158","634052","0.0-52.0","SS1618365930331","","","","","","","","","images/stimuli/spore_stims/complex_16_A_a.gif","","","","{""Q0"":6}","[0]","","",""
"","2342.1049999961397","survey-likert","159","636402","0.0-53.0","SS1618365930331","","","","","","","","","images/stimuli/spore_stims/complex_07_A_b.gif","","","","{""Q0"":5}","[0]","","",""
"","1714.2250000033528","survey-likert","160","638124","0.0-54.0","SS1618365930331","","","","","","","","","images/stimuli/spore_stims/simple_14_A_a.gif","","","","{""Q0"":1}","[0]","","",""
"","2028.745000003255","survey-likert","161","640160","0.0-55.0","SS1618365930331","","","","","","","","","images/stimuli/spore_stims/simple_13_A_a.gif","","","","{""Q0"":1}","[0]","","",""
"","1728.8950000002515","survey-likert","162","641897","0.0-56.0","SS1618365930331","","","","","","","","","images/stimuli/spore_stims/simple_12_A_b.gif","","","","{""Q0"":2}","[0]","","",""
"","2753.3499999990454","survey-likert","163","644658","0.0-57.0","SS1618365930331","","","","","","","","","images/stimuli/spore_stims/complex_12_A_a.gif","","","","{""Q0"":6}","[0]","","",""
"[{""page_index"":0,""viewing_time"":1025.2899999978254}]","1025.6450000016484","instructions","164","645691","0.0-58.0","SS1618365930331","instructions","","","","","","","","","","","","","","","",""
"","4471.160000000964","demog-age","165","650168","0.0-59.0","SS1618365930331","","","","","","","","","","","","","{""age"":""23""}","","","",""
"","2448.6850000030827","demog-ethnic-US","166","652623","0.0-60.0","SS1618365930331","","","","","","","","","","","","","{""ethnicity"":[""Hispanic or Latino""]}","[0]","","",""
"","6301.290000003064","demog-gender-and-education","167","658933","0.0-61.0","SS1618365930331","","","","","","","","","","","","","{""gender"":""Male"",""education"":""High school diploma""}","[0,1]","","",""
"","9599.78499999852","survey-text","168","668542","0.0-62.0","SS1618365930331","feedback","","","","","","","","","","","","{""Q0"":""everything went fine""}","","","",""
"[{""page_index"":0,""viewing_time"":1231.8700000033714}]","1232.2199999981094","instructions","169","669777","0.0-63.0","SS1618365930331","instructions","","","","","","","","","","","","","","","",""
