"view_history","rt","trial_type","trial_index","time_elapsed","internal_node_id","subject","stimulus_type","trial_stimulus","key_press","minimum_viewing_duration","trial_looking_time","block_deviant","block_background","exposure_type","stimulus","block_number","block_type","stimulus_displayed","responses","question_order","math_correct_answer","stimulus_left","stimulus_right"
"[{""page_index"":0,""viewing_time"":2469}]","2469","instructions","0","2586","0.0-0.0","SS1618365934552","","","","","","","","","","","","","","","","",""
"[{""page_index"":0,""viewing_time"":11856},{""page_index"":1,""viewing_time"":4920}]","16776","instructions","1","21369","0.0-1.0","SS1618365934552","instructions","","","","","","","","","","","","","","","",""
"","6408","sequential-stimulus-presentation-old","2","28286","0.0-2.0","SS1618365934552","","","40","500","6908","null","null","self_paced","","","","","","","","",""
"","2799","sequential-stimulus-presentation-old","3","31589","0.0-3.0","SS1618365934552","","","40","500","3299","null","null","self_paced","","","","","","","","",""
"[{""page_index"":0,""viewing_time"":15923}]","15923","instructions","4","47513","0.0-4.0","SS1618365934552","instructions","","","","","","","","","","","","","","","",""
"","1305","sequential-stimulus-presentation-old","5","53837","0.0-5.0","SS1618365934552","","","40","500","1805","null","null","forced_long","","","","","","","","",""
"","4006","sequential-stimulus-presentation-old","6","57905","0.0-6.0","SS1618365934552","","","40","50","4056","null","null","forced_long","","","","","","","","",""
"[{""page_index"":0,""viewing_time"":3669}]","3670","instructions","7","61576","0.0-7.0","SS1618365934552","instructions","","","","","","","","","","","","","","","",""
"[{""page_index"":0,""viewing_time"":4280},{""page_index"":1,""viewing_time"":7335},{""page_index"":2,""viewing_time"":3576},{""page_index"":3,""viewing_time"":992},{""page_index"":4,""viewing_time"":1040}]","17223","instructions","8","78801","0.0-8.0","SS1618365934552","instructions","","","","","","","","","","","","","","","",""
"","null","html-keyboard-response","9","79762","0.0-9.0-0.0","SS1618365934552","","","null","","","","","","<p><img src= images/blank.png width =""600"" height = ""600"" style=""position:fixed;top:50%; left:50%; transform: translate(-50%, -50%); border:5px solid black"">","","","","","","","",""
"","660","sequential-stimulus-presentation-old","10","85435","0.0-9.0-1.0","SS1618365934552","trial","","40","500","1160","images/stimuli/spore_stims/simple_06_A_a.gif","images/stimuli/spore_stims/simple_14_A_b.gif","forced_long","","0","simple_dissimilar","images/stimuli/spore_stims/simple_14_A_b.gif","","","","",""
"","null","html-keyboard-response","11","86562","0.0-9.0-0.1","SS1618365934552","","","null","","","","","","<p><img src= images/blank.png width =""600"" height = ""600"" style=""position:fixed;top:50%; left:50%; transform: translate(-50%, -50%); border:5px solid black"">","","","","","","","",""
"","55","sequential-stimulus-presentation-old","12","87123","0.0-9.0-1.1","SS1618365934552","trial","","40","500","555","images/stimuli/spore_stims/simple_06_A_a.gif","images/stimuli/spore_stims/simple_14_A_b.gif","forced_long","","0","simple_dissimilar","images/stimuli/spore_stims/simple_14_A_b.gif","","","","",""
"","null","html-keyboard-response","13","88327","0.0-9.0-0.2","SS1618365934552","","","null","","","","","","<p><img src= images/blank.png width =""600"" height = ""600"" style=""position:fixed;top:50%; left:50%; transform: translate(-50%, -50%); border:5px solid black"">","","","","","","","",""
"","16823","sequential-stimulus-presentation-old","14","105662","0.0-9.0-1.2","SS1618365934552","trial","","40","500","17323","images/stimuli/spore_stims/simple_06_A_a.gif","images/stimuli/spore_stims/simple_14_A_b.gif","forced_long","","0","simple_dissimilar","images/stimuli/spore_stims/simple_14_A_b.gif","","","","",""
"","null","html-keyboard-response","15","106492","0.0-9.0-0.3","SS1618365934552","","","null","","","","","","<p><img src= images/blank.png width =""600"" height = ""600"" style=""position:fixed;top:50%; left:50%; transform: translate(-50%, -50%); border:5px solid black"">","","","","","","","",""
"","2190","sequential-stimulus-presentation-old","16","109195","0.0-9.0-1.3","SS1618365934552","trial","","40","500","2690","images/stimuli/spore_stims/simple_06_A_a.gif","images/stimuli/spore_stims/simple_14_A_b.gif","forced_long","","0","simple_dissimilar","images/stimuli/spore_stims/simple_06_A_a.gif","","","","",""
"","null","html-keyboard-response","17","110097","0.0-9.0-0.4","SS1618365934552","","","null","","","","","","<p><img src= images/blank.png width =""600"" height = ""600"" style=""position:fixed;top:50%; left:50%; transform: translate(-50%, -50%); border:5px solid black"">","","","","","","","",""
"","6920","sequential-stimulus-presentation-old","18","117525","0.0-9.0-1.4","SS1618365934552","trial","","40","500","7420","images/stimuli/spore_stims/simple_06_A_a.gif","images/stimuli/spore_stims/simple_14_A_b.gif","forced_long","","0","simple_dissimilar","images/stimuli/spore_stims/simple_14_A_b.gif","","","","",""
"","null","html-keyboard-response","19","118463","0.0-9.0-0.5","SS1618365934552","","","null","","","","","","<p><img src= images/blank.png width =""600"" height = ""600"" style=""position:fixed;top:50%; left:50%; transform: translate(-50%, -50%); border:5px solid black"">","","","","","","","",""
"","1147","sequential-stimulus-presentation-old","20","120110","0.0-9.0-1.5","SS1618365934552","trial","","40","500","1647","images/stimuli/spore_stims/simple_06_A_a.gif","images/stimuli/spore_stims/simple_14_A_b.gif","forced_long","","0","simple_dissimilar","images/stimuli/spore_stims/simple_14_A_b.gif","","","","",""
"","4197","survey-multi-choice","21","124311","0.0-10.0","SS1618365934552","math_question","","","","","","","","","","","","{""Q0"":""10""}","[0]","10","",""
"","null","html-keyboard-response","22","125373","0.0-11.0-0.0","SS1618365934552","","","null","","","","","","<p><img src= images/blank.png width =""600"" height = ""600"" style=""position:fixed;top:50%; left:50%; transform: translate(-50%, -50%); border:5px solid black"">","","","","","","","",""
"","646","sequential-stimulus-presentation-old","23","126081","0.0-11.0-1.0","SS1618365934552","trial","","40","500","1146","images/stimuli/spore_stims/complex_17_A_a.gif","images/stimuli/spore_stims/complex_14_A_b.gif","forced_short","","1","complex_dissimilar","images/stimuli/spore_stims/complex_14_A_b.gif","","","","",""
"","null","html-keyboard-response","24","127198","0.0-11.0-0.1","SS1618365934552","","","null","","","","","","<p><img src= images/blank.png width =""600"" height = ""600"" style=""position:fixed;top:50%; left:50%; transform: translate(-50%, -50%); border:5px solid black"">","","","","","","","",""
"","2124","sequential-stimulus-presentation-old","25","129833","0.0-11.0-1.1","SS1618365934552","trial","","40","500","2624","images/stimuli/spore_stims/complex_17_A_a.gif","images/stimuli/spore_stims/complex_14_A_b.gif","forced_short","","1","complex_dissimilar","images/stimuli/spore_stims/complex_14_A_b.gif","","","","",""
"","null","html-keyboard-response","26","131047","0.0-11.0-0.2","SS1618365934552","","","null","","","","","","<p><img src= images/blank.png width =""600"" height = ""600"" style=""position:fixed;top:50%; left:50%; transform: translate(-50%, -50%); border:5px solid black"">","","","","","","","",""
"","418","sequential-stimulus-presentation-old","27","131976","0.0-11.0-1.2","SS1618365934552","trial","","40","500","918","images/stimuli/spore_stims/complex_17_A_a.gif","images/stimuli/spore_stims/complex_14_A_b.gif","forced_short","","1","complex_dissimilar","images/stimuli/spore_stims/complex_14_A_b.gif","","","","",""
"","null","html-keyboard-response","28","133051","0.0-11.0-0.3","SS1618365934552","","","null","","","","","","<p><img src= images/blank.png width =""600"" height = ""600"" style=""position:fixed;top:50%; left:50%; transform: translate(-50%, -50%); border:5px solid black"">","","","","","","","",""
"","466","sequential-stimulus-presentation-old","29","134027","0.0-11.0-1.3","SS1618365934552","trial","","40","500","966","images/stimuli/spore_stims/complex_17_A_a.gif","images/stimuli/spore_stims/complex_14_A_b.gif","forced_short","","1","complex_dissimilar","images/stimuli/spore_stims/complex_14_A_b.gif","","","","",""
"","null","html-keyboard-response","30","135128","0.0-11.0-0.4","SS1618365934552","","","null","","","","","","<p><img src= images/blank.png width =""600"" height = ""600"" style=""position:fixed;top:50%; left:50%; transform: translate(-50%, -50%); border:5px solid black"">","","","","","","","",""
"","2261","sequential-stimulus-presentation-old","31","137898","0.0-11.0-1.4","SS1618365934552","trial","","40","500","2761","images/stimuli/spore_stims/complex_17_A_a.gif","images/stimuli/spore_stims/complex_14_A_b.gif","forced_short","","1","complex_dissimilar","images/stimuli/spore_stims/complex_17_A_a.gif","","","","",""
"","7734","survey-multi-choice","32","145633","0.0-12.0","SS1618365934552","math_question","","","","","","","","","","","","{""Q0"":""11""}","[0]","11","",""
"","null","html-keyboard-response","33","146895","0.0-13.0-0.0","SS1618365934552","","","null","","","","","","<p><img src= images/blank.png width =""600"" height = ""600"" style=""position:fixed;top:50%; left:50%; transform: translate(-50%, -50%); border:5px solid black"">","","","","","","","",""
"","607","sequential-stimulus-presentation-old","34","147565","0.0-13.0-1.0","SS1618365934552","trial","","40","500","1107","images/stimuli/spore_stims/simple_19_A_a.gif","images/stimuli/spore_stims/simple_03_A_b.gif","forced_short","","2","simple_dissimilar","images/stimuli/spore_stims/simple_03_A_b.gif","","","","",""
"","null","html-keyboard-response","35","148495","0.0-13.0-0.1","SS1618365934552","","","null","","","","","","<p><img src= images/blank.png width =""600"" height = ""600"" style=""position:fixed;top:50%; left:50%; transform: translate(-50%, -50%); border:5px solid black"">","","","","","","","",""
"","39","sequential-stimulus-presentation-old","36","149047","0.0-13.0-1.1","SS1618365934552","trial","","40","500","539","images/stimuli/spore_stims/simple_19_A_a.gif","images/stimuli/spore_stims/simple_03_A_b.gif","forced_short","","2","simple_dissimilar","images/stimuli/spore_stims/simple_03_A_b.gif","","","","",""
"","null","html-keyboard-response","37","149908","0.0-13.0-0.2","SS1618365934552","","","null","","","","","","<p><img src= images/blank.png width =""600"" height = ""600"" style=""position:fixed;top:50%; left:50%; transform: translate(-50%, -50%); border:5px solid black"">","","","","","","","",""
"","473","sequential-stimulus-presentation-old","38","150892","0.0-13.0-1.2","SS1618365934552","trial","","40","500","973","images/stimuli/spore_stims/simple_19_A_a.gif","images/stimuli/spore_stims/simple_03_A_b.gif","forced_short","","2","simple_dissimilar","images/stimuli/spore_stims/simple_19_A_a.gif","","","","",""
"","null","html-keyboard-response","39","151942","0.0-13.0-0.3","SS1618365934552","","","null","","","","","","<p><img src= images/blank.png width =""600"" height = ""600"" style=""position:fixed;top:50%; left:50%; transform: translate(-50%, -50%); border:5px solid black"">","","","","","","","",""
"","174","sequential-stimulus-presentation-old","40","152630","0.0-13.0-1.3","SS1618365934552","trial","","40","500","674","images/stimuli/spore_stims/simple_19_A_a.gif","images/stimuli/spore_stims/simple_03_A_b.gif","forced_short","","2","simple_dissimilar","images/stimuli/spore_stims/simple_03_A_b.gif","","","","",""
"","null","html-keyboard-response","41","153493","0.0-13.0-0.4","SS1618365934552","","","null","","","","","","<p><img src= images/blank.png width =""600"" height = ""600"" style=""position:fixed;top:50%; left:50%; transform: translate(-50%, -50%); border:5px solid black"">","","","","","","","",""
"","954","sequential-stimulus-presentation-old","42","154958","0.0-13.0-1.4","SS1618365934552","trial","","40","500","1454","images/stimuli/spore_stims/simple_19_A_a.gif","images/stimuli/spore_stims/simple_03_A_b.gif","forced_short","","2","simple_dissimilar","images/stimuli/spore_stims/simple_19_A_a.gif","","","","",""
"","5330","survey-multi-choice","43","160289","0.0-14.0","SS1618365934552","math_question","","","","","","","","","","","","{""Q0"":""9""}","[0]","9","",""
"","null","html-keyboard-response","44","161173","0.0-15.0-0.0","SS1618365934552","","","null","","","","","","<p><img src= images/blank.png width =""600"" height = ""600"" style=""position:fixed;top:50%; left:50%; transform: translate(-50%, -50%); border:5px solid black"">","","","","","","","",""
"","1114","sequential-stimulus-presentation-old","45","162797","0.0-15.0-1.0","SS1618365934552","trial","","40","500","1614","images/stimuli/spore_stims/complex_13_A_b.gif","images/stimuli/spore_stims/complex_02_A_a.gif","self_paced","","3","complex_dissimilar","images/stimuli/spore_stims/complex_02_A_a.gif","","","","",""
"","null","html-keyboard-response","46","163801","0.0-15.0-0.1","SS1618365934552","","","null","","","","","","<p><img src= images/blank.png width =""600"" height = ""600"" style=""position:fixed;top:50%; left:50%; transform: translate(-50%, -50%); border:5px solid black"">","","","","","","","",""
"","154","sequential-stimulus-presentation-old","47","164466","0.0-15.0-1.1","SS1618365934552","trial","","40","500","654","images/stimuli/spore_stims/complex_13_A_b.gif","images/stimuli/spore_stims/complex_02_A_a.gif","self_paced","","3","complex_dissimilar","images/stimuli/spore_stims/complex_13_A_b.gif","","","","",""
"","null","html-keyboard-response","48","165597","0.0-15.0-0.2","SS1618365934552","","","null","","","","","","<p><img src= images/blank.png width =""600"" height = ""600"" style=""position:fixed;top:50%; left:50%; transform: translate(-50%, -50%); border:5px solid black"">","","","","","","","",""
"","46","sequential-stimulus-presentation-old","49","166152","0.0-15.0-1.2","SS1618365934552","trial","","40","500","546","images/stimuli/spore_stims/complex_13_A_b.gif","images/stimuli/spore_stims/complex_02_A_a.gif","self_paced","","3","complex_dissimilar","images/stimuli/spore_stims/complex_02_A_a.gif","","","","",""
"","null","html-keyboard-response","50","167088","0.0-15.0-0.3","SS1618365934552","","","null","","","","","","<p><img src= images/blank.png width =""600"" height = ""600"" style=""position:fixed;top:50%; left:50%; transform: translate(-50%, -50%); border:5px solid black"">","","","","","","","",""
"","341","sequential-stimulus-presentation-old","51","167939","0.0-15.0-1.3","SS1618365934552","trial","","40","500","841","images/stimuli/spore_stims/complex_13_A_b.gif","images/stimuli/spore_stims/complex_02_A_a.gif","self_paced","","3","complex_dissimilar","images/stimuli/spore_stims/complex_02_A_a.gif","","","","",""
"","null","html-keyboard-response","52","169211","0.0-15.0-0.4","SS1618365934552","","","null","","","","","","<p><img src= images/blank.png width =""600"" height = ""600"" style=""position:fixed;top:50%; left:50%; transform: translate(-50%, -50%); border:5px solid black"">","","","","","","","",""
"","429","sequential-stimulus-presentation-old","53","170151","0.0-15.0-1.4","SS1618365934552","trial","","40","500","929","images/stimuli/spore_stims/complex_13_A_b.gif","images/stimuli/spore_stims/complex_02_A_a.gif","self_paced","","3","complex_dissimilar","images/stimuli/spore_stims/complex_02_A_a.gif","","","","",""
"","6384","survey-multi-choice","54","176537","0.0-16.0","SS1618365934552","math_question","","","","","","","","","","","","{""Q0"":""14""}","[0]","14","",""
"","null","html-keyboard-response","55","177571","0.0-17.0-0.0","SS1618365934552","","","null","","","","","","<p><img src= images/blank.png width =""600"" height = ""600"" style=""position:fixed;top:50%; left:50%; transform: translate(-50%, -50%); border:5px solid black"">","","","","","","","",""
"","292","sequential-stimulus-presentation-old","56","178374","0.0-17.0-1.0","SS1618365934552","trial","","40","500","792","images/stimuli/spore_stims/complex_11_A_a.gif","images/stimuli/spore_stims/complex_20_A_b.gif","self_paced","","4","complex_dissimilar","images/stimuli/spore_stims/complex_20_A_b.gif","","","","",""
"","null","html-keyboard-response","57","179212","0.0-17.0-0.1","SS1618365934552","","","null","","","","","","<p><img src= images/blank.png width =""600"" height = ""600"" style=""position:fixed;top:50%; left:50%; transform: translate(-50%, -50%); border:5px solid black"">","","","","","","","",""
"","395","sequential-stimulus-presentation-old","58","180116","0.0-17.0-1.1","SS1618365934552","trial","","40","500","895","images/stimuli/spore_stims/complex_11_A_a.gif","images/stimuli/spore_stims/complex_20_A_b.gif","self_paced","","4","complex_dissimilar","images/stimuli/spore_stims/complex_20_A_b.gif","","","","",""
"","null","html-keyboard-response","59","181276","0.0-17.0-0.2","SS1618365934552","","","null","","","","","","<p><img src= images/blank.png width =""600"" height = ""600"" style=""position:fixed;top:50%; left:50%; transform: translate(-50%, -50%); border:5px solid black"">","","","","","","","",""
"","391","sequential-stimulus-presentation-old","60","182179","0.0-17.0-1.2","SS1618365934552","trial","","40","500","891","images/stimuli/spore_stims/complex_11_A_a.gif","images/stimuli/spore_stims/complex_20_A_b.gif","self_paced","","4","complex_dissimilar","images/stimuli/spore_stims/complex_20_A_b.gif","","","","",""
"","null","html-keyboard-response","61","183355","0.0-17.0-0.3","SS1618365934552","","","null","","","","","","<p><img src= images/blank.png width =""600"" height = ""600"" style=""position:fixed;top:50%; left:50%; transform: translate(-50%, -50%); border:5px solid black"">","","","","","","","",""
"","524","sequential-stimulus-presentation-old","62","184390","0.0-17.0-1.3","SS1618365934552","trial","","40","500","1024","images/stimuli/spore_stims/complex_11_A_a.gif","images/stimuli/spore_stims/complex_20_A_b.gif","self_paced","","4","complex_dissimilar","images/stimuli/spore_stims/complex_20_A_b.gif","","","","",""
"","null","html-keyboard-response","63","185478","0.0-17.0-0.4","SS1618365934552","","","null","","","","","","<p><img src= images/blank.png width =""600"" height = ""600"" style=""position:fixed;top:50%; left:50%; transform: translate(-50%, -50%); border:5px solid black"">","","","","","","","",""
"","413","sequential-stimulus-presentation-old","64","186403","0.0-17.0-1.4","SS1618365934552","trial","","40","500","913","images/stimuli/spore_stims/complex_11_A_a.gif","images/stimuli/spore_stims/complex_20_A_b.gif","self_paced","","4","complex_dissimilar","images/stimuli/spore_stims/complex_20_A_b.gif","","","","",""
"","null","html-keyboard-response","65","187339","0.0-17.0-0.5","SS1618365934552","","","null","","","","","","<p><img src= images/blank.png width =""600"" height = ""600"" style=""position:fixed;top:50%; left:50%; transform: translate(-50%, -50%); border:5px solid black"">","","","","","","","",""
"","301","sequential-stimulus-presentation-old","66","188150","0.0-17.0-1.5","SS1618365934552","trial","","40","500","801","images/stimuli/spore_stims/complex_11_A_a.gif","images/stimuli/spore_stims/complex_20_A_b.gif","self_paced","","4","complex_dissimilar","images/stimuli/spore_stims/complex_11_A_a.gif","","","","",""
"","3273","survey-multi-choice","67","191425","0.0-18.0","SS1618365934552","math_question","","","","","","","","","","","","{""Q0"":""8""}","[0]","8","",""
"","null","html-keyboard-response","68","192398","0.0-19.0-0.0","SS1618365934552","","","null","","","","","","<p><img src= images/blank.png width =""600"" height = ""600"" style=""position:fixed;top:50%; left:50%; transform: translate(-50%, -50%); border:5px solid black"">","","","","","","","",""
"","131","sequential-stimulus-presentation-old","69","193042","0.0-19.0-1.0","SS1618365934552","trial","","40","500","631","images/stimuli/spore_stims/simple_08_A_b.gif","images/stimuli/spore_stims/simple_03_A_a.gif","self_paced","","5","simple_dissimilar","images/stimuli/spore_stims/simple_03_A_a.gif","","","","",""
"","null","html-keyboard-response","70","194228","0.0-19.0-0.1","SS1618365934552","","","null","","","","","","<p><img src= images/blank.png width =""600"" height = ""600"" style=""position:fixed;top:50%; left:50%; transform: translate(-50%, -50%); border:5px solid black"">","","","","","","","",""
"","471","sequential-stimulus-presentation-old","71","195210","0.0-19.0-1.1","SS1618365934552","trial","","40","500","971","images/stimuli/spore_stims/simple_08_A_b.gif","images/stimuli/spore_stims/simple_03_A_a.gif","self_paced","","5","simple_dissimilar","images/stimuli/spore_stims/simple_03_A_a.gif","","","","",""
"","null","html-keyboard-response","72","196249","0.0-19.0-0.2","SS1618365934552","","","null","","","","","","<p><img src= images/blank.png width =""600"" height = ""600"" style=""position:fixed;top:50%; left:50%; transform: translate(-50%, -50%); border:5px solid black"">","","","","","","","",""
"","360","sequential-stimulus-presentation-old","73","197120","0.0-19.0-1.2","SS1618365934552","trial","","40","500","860","images/stimuli/spore_stims/simple_08_A_b.gif","images/stimuli/spore_stims/simple_03_A_a.gif","self_paced","","5","simple_dissimilar","images/stimuli/spore_stims/simple_08_A_b.gif","","","","",""
"","null","html-keyboard-response","74","198097","0.0-19.0-0.3","SS1618365934552","","","null","","","","","","<p><img src= images/blank.png width =""600"" height = ""600"" style=""position:fixed;top:50%; left:50%; transform: translate(-50%, -50%); border:5px solid black"">","","","","","","","",""
"","290","sequential-stimulus-presentation-old","75","198903","0.0-19.0-1.3","SS1618365934552","trial","","40","500","790","images/stimuli/spore_stims/simple_08_A_b.gif","images/stimuli/spore_stims/simple_03_A_a.gif","self_paced","","5","simple_dissimilar","images/stimuli/spore_stims/simple_03_A_a.gif","","","","",""
"","null","html-keyboard-response","76","199918","0.0-19.0-0.4","SS1618365934552","","","null","","","","","","<p><img src= images/blank.png width =""600"" height = ""600"" style=""position:fixed;top:50%; left:50%; transform: translate(-50%, -50%); border:5px solid black"">","","","","","","","",""
"","302","sequential-stimulus-presentation-old","77","200731","0.0-19.0-1.4","SS1618365934552","trial","","40","500","802","images/stimuli/spore_stims/simple_08_A_b.gif","images/stimuli/spore_stims/simple_03_A_a.gif","self_paced","","5","simple_dissimilar","images/stimuli/spore_stims/simple_03_A_a.gif","","","","",""
"","null","html-keyboard-response","78","201978","0.0-19.0-0.5","SS1618365934552","","","null","","","","","","<p><img src= images/blank.png width =""600"" height = ""600"" style=""position:fixed;top:50%; left:50%; transform: translate(-50%, -50%); border:5px solid black"">","","","","","","","",""
"","18","sequential-stimulus-presentation-old","79","202507","0.0-19.0-1.5","SS1618365934552","trial","","40","500","518","images/stimuli/spore_stims/simple_08_A_b.gif","images/stimuli/spore_stims/simple_03_A_a.gif","self_paced","","5","simple_dissimilar","images/stimuli/spore_stims/simple_03_A_a.gif","","","","",""
"","5067","survey-multi-choice","80","207577","0.0-20.0","SS1618365934552","math_question","","","","","","","","","","","","{""Q0"":""17""}","[0]","17","",""
"","null","html-keyboard-response","81","208749","0.0-21.0-0.0","SS1618365934552","","","null","","","","","","<p><img src= images/blank.png width =""600"" height = ""600"" style=""position:fixed;top:50%; left:50%; transform: translate(-50%, -50%); border:5px solid black"">","","","","","","","",""
"","85","sequential-stimulus-presentation-old","82","209345","0.0-21.0-1.0","SS1618365934552","trial","","40","500","585","images/stimuli/spore_stims/simple_11_A_b.gif","images/stimuli/spore_stims/simple_04_A_a.gif","self_paced","","6","simple_dissimilar","images/stimuli/spore_stims/simple_04_A_a.gif","","","","",""
"","null","html-keyboard-response","83","210334","0.0-21.0-0.1","SS1618365934552","","","null","","","","","","<p><img src= images/blank.png width =""600"" height = ""600"" style=""position:fixed;top:50%; left:50%; transform: translate(-50%, -50%); border:5px solid black"">","","","","","","","",""
"","157","sequential-stimulus-presentation-old","84","211004","0.0-21.0-1.1","SS1618365934552","trial","","40","500","657","images/stimuli/spore_stims/simple_11_A_b.gif","images/stimuli/spore_stims/simple_04_A_a.gif","self_paced","","6","simple_dissimilar","images/stimuli/spore_stims/simple_04_A_a.gif","","","","",""
"","null","html-keyboard-response","85","212212","0.0-21.0-0.2","SS1618365934552","","","null","","","","","","<p><img src= images/blank.png width =""600"" height = ""600"" style=""position:fixed;top:50%; left:50%; transform: translate(-50%, -50%); border:5px solid black"">","","","","","","","",""
"","62","sequential-stimulus-presentation-old","86","212784","0.0-21.0-1.2","SS1618365934552","trial","","40","500","562","images/stimuli/spore_stims/simple_11_A_b.gif","images/stimuli/spore_stims/simple_04_A_a.gif","self_paced","","6","simple_dissimilar","images/stimuli/spore_stims/simple_11_A_b.gif","","","","",""
"","null","html-keyboard-response","87","213696","0.0-21.0-0.3","SS1618365934552","","","null","","","","","","<p><img src= images/blank.png width =""600"" height = ""600"" style=""position:fixed;top:50%; left:50%; transform: translate(-50%, -50%); border:5px solid black"">","","","","","","","",""
"","452","sequential-stimulus-presentation-old","88","214659","0.0-21.0-1.3","SS1618365934552","trial","","40","500","952","images/stimuli/spore_stims/simple_11_A_b.gif","images/stimuli/spore_stims/simple_04_A_a.gif","self_paced","","6","simple_dissimilar","images/stimuli/spore_stims/simple_11_A_b.gif","","","","",""
"","2740","survey-multi-choice","89","217401","0.0-22.0","SS1618365934552","math_question","","","","","","","","","","","","{""Q0"":""4""}","[0]","4","",""
"","null","html-keyboard-response","90","218300","0.0-23.0-0.0","SS1618365934552","","","null","","","","","","<p><img src= images/blank.png width =""600"" height = ""600"" style=""position:fixed;top:50%; left:50%; transform: translate(-50%, -50%); border:5px solid black"">","","","","","","","",""
"","403","sequential-stimulus-presentation-old","91","218765","0.0-23.0-1.0","SS1618365934552","trial","","40","500","903","images/stimuli/spore_stims/simple_17_A_a.gif","images/stimuli/spore_stims/simple_09_A_b.gif","forced_short","","7","simple_dissimilar","images/stimuli/spore_stims/simple_09_A_b.gif","","","","",""
"","null","html-keyboard-response","92","219775","0.0-23.0-0.1","SS1618365934552","","","null","","","","","","<p><img src= images/blank.png width =""600"" height = ""600"" style=""position:fixed;top:50%; left:50%; transform: translate(-50%, -50%); border:5px solid black"">","","","","","","","",""
"","474","sequential-stimulus-presentation-old","93","220761","0.0-23.0-1.1","SS1618365934552","trial","","40","500","974","images/stimuli/spore_stims/simple_17_A_a.gif","images/stimuli/spore_stims/simple_09_A_b.gif","forced_short","","7","simple_dissimilar","images/stimuli/spore_stims/simple_09_A_b.gif","","","","",""
"","null","html-keyboard-response","94","221947","0.0-23.0-0.2","SS1618365934552","","","null","","","","","","<p><img src= images/blank.png width =""600"" height = ""600"" style=""position:fixed;top:50%; left:50%; transform: translate(-50%, -50%); border:5px solid black"">","","","","","","","",""
"","186","sequential-stimulus-presentation-old","95","222642","0.0-23.0-1.2","SS1618365934552","trial","","40","500","686","images/stimuli/spore_stims/simple_17_A_a.gif","images/stimuli/spore_stims/simple_09_A_b.gif","forced_short","","7","simple_dissimilar","images/stimuli/spore_stims/simple_09_A_b.gif","","","","",""
"","null","html-keyboard-response","96","223790","0.0-23.0-0.3","SS1618365934552","","","null","","","","","","<p><img src= images/blank.png width =""600"" height = ""600"" style=""position:fixed;top:50%; left:50%; transform: translate(-50%, -50%); border:5px solid black"">","","","","","","","",""
"","156","sequential-stimulus-presentation-old","97","224458","0.0-23.0-1.3","SS1618365934552","trial","","40","500","656","images/stimuli/spore_stims/simple_17_A_a.gif","images/stimuli/spore_stims/simple_09_A_b.gif","forced_short","","7","simple_dissimilar","images/stimuli/spore_stims/simple_09_A_b.gif","","","","",""
"","null","html-keyboard-response","98","225282","0.0-23.0-0.4","SS1618365934552","","","null","","","","","","<p><img src= images/blank.png width =""600"" height = ""600"" style=""position:fixed;top:50%; left:50%; transform: translate(-50%, -50%); border:5px solid black"">","","","","","","","",""
"","1285","sequential-stimulus-presentation-old","99","227078","0.0-23.0-1.4","SS1618365934552","trial","","40","500","1785","images/stimuli/spore_stims/simple_17_A_a.gif","images/stimuli/spore_stims/simple_09_A_b.gif","forced_short","","7","simple_dissimilar","images/stimuli/spore_stims/simple_09_A_b.gif","","","","",""
"","null","html-keyboard-response","100","227986","0.0-23.0-0.5","SS1618365934552","","","null","","","","","","<p><img src= images/blank.png width =""600"" height = ""600"" style=""position:fixed;top:50%; left:50%; transform: translate(-50%, -50%); border:5px solid black"">","","","","","","","",""
"","1042","sequential-stimulus-presentation-old","101","229540","0.0-23.0-1.5","SS1618365934552","trial","","40","500","1542","images/stimuli/spore_stims/simple_17_A_a.gif","images/stimuli/spore_stims/simple_09_A_b.gif","forced_short","","7","simple_dissimilar","images/stimuli/spore_stims/simple_09_A_b.gif","","","","",""
"","2507","survey-multi-choice","102","232049","0.0-24.0","SS1618365934552","math_question","","","","","","","","","","","","{""Q0"":""5""}","[0]","5","",""
"","null","html-keyboard-response","103","233190","0.0-25.0-0.0","SS1618365934552","","","null","","","","","","<p><img src= images/blank.png width =""600"" height = ""600"" style=""position:fixed;top:50%; left:50%; transform: translate(-50%, -50%); border:5px solid black"">","","","","","","","",""
"","576","sequential-stimulus-presentation-old","104","233825","0.0-25.0-1.0","SS1618365934552","trial","","40","500","1076","images/stimuli/spore_stims/complex_10_A_b.gif","images/stimuli/spore_stims/complex_16_A_a.gif","forced_short","","8","complex_dissimilar","images/stimuli/spore_stims/complex_16_A_a.gif","","","","",""
"","null","html-keyboard-response","105","234997","0.0-25.0-0.1","SS1618365934552","","","null","","","","","","<p><img src= images/blank.png width =""600"" height = ""600"" style=""position:fixed;top:50%; left:50%; transform: translate(-50%, -50%); border:5px solid black"">","","","","","","","",""
"","600","sequential-stimulus-presentation-old","106","236109","0.0-25.0-1.1","SS1618365934552","trial","","40","500","1100","images/stimuli/spore_stims/complex_10_A_b.gif","images/stimuli/spore_stims/complex_16_A_a.gif","forced_short","","8","complex_dissimilar","images/stimuli/spore_stims/complex_16_A_a.gif","","","","",""
"","null","html-keyboard-response","107","237308","0.0-25.0-0.2","SS1618365934552","","","null","","","","","","<p><img src= images/blank.png width =""600"" height = ""600"" style=""position:fixed;top:50%; left:50%; transform: translate(-50%, -50%); border:5px solid black"">","","","","","","","",""
"","497","sequential-stimulus-presentation-old","108","238319","0.0-25.0-1.2","SS1618365934552","trial","","40","500","997","images/stimuli/spore_stims/complex_10_A_b.gif","images/stimuli/spore_stims/complex_16_A_a.gif","forced_short","","8","complex_dissimilar","images/stimuli/spore_stims/complex_16_A_a.gif","","","","",""
"","null","html-keyboard-response","109","239143","0.0-25.0-0.3","SS1618365934552","","","null","","","","","","<p><img src= images/blank.png width =""600"" height = ""600"" style=""position:fixed;top:50%; left:50%; transform: translate(-50%, -50%); border:5px solid black"">","","","","","","","",""
"","401","sequential-stimulus-presentation-old","110","240058","0.0-25.0-1.3","SS1618365934552","trial","","40","500","901","images/stimuli/spore_stims/complex_10_A_b.gif","images/stimuli/spore_stims/complex_16_A_a.gif","forced_short","","8","complex_dissimilar","images/stimuli/spore_stims/complex_16_A_a.gif","","","","",""
"","null","html-keyboard-response","111","241068","0.0-25.0-0.4","SS1618365934552","","","null","","","","","","<p><img src= images/blank.png width =""600"" height = ""600"" style=""position:fixed;top:50%; left:50%; transform: translate(-50%, -50%); border:5px solid black"">","","","","","","","",""
"","327","sequential-stimulus-presentation-old","112","241904","0.0-25.0-1.4","SS1618365934552","trial","","40","500","827","images/stimuli/spore_stims/complex_10_A_b.gif","images/stimuli/spore_stims/complex_16_A_a.gif","forced_short","","8","complex_dissimilar","images/stimuli/spore_stims/complex_16_A_a.gif","","","","",""
"","4437","survey-multi-choice","113","246345","0.0-26.0","SS1618365934552","math_question","","","","","","","","","","","","{""Q0"":""13""}","[0]","13","",""
"","null","html-keyboard-response","114","247204","0.0-27.0-0.0","SS1618365934552","","","null","","","","","","<p><img src= images/blank.png width =""600"" height = ""600"" style=""position:fixed;top:50%; left:50%; transform: translate(-50%, -50%); border:5px solid black"">","","","","","","","",""
"","12088","sequential-stimulus-presentation-old","115","264308","0.0-27.0-1.0","SS1618365934552","trial","","40","500","12588","images/stimuli/spore_stims/simple_01_A_b.gif","images/stimuli/spore_stims/simple_07_A_a.gif","forced_long","","9","simple_dissimilar","images/stimuli/spore_stims/simple_07_A_a.gif","","","","",""
"","null","html-keyboard-response","116","265391","0.0-27.0-0.1","SS1618365934552","","","null","","","","","","<p><img src= images/blank.png width =""600"" height = ""600"" style=""position:fixed;top:50%; left:50%; transform: translate(-50%, -50%); border:5px solid black"">","","","","","","","",""
"","312","sequential-stimulus-presentation-old","117","266212","0.0-27.0-1.1","SS1618365934552","trial","","40","500","812","images/stimuli/spore_stims/simple_01_A_b.gif","images/stimuli/spore_stims/simple_07_A_a.gif","forced_long","","9","simple_dissimilar","images/stimuli/spore_stims/simple_07_A_a.gif","","","","",""
"","null","html-keyboard-response","118","267216","0.0-27.0-0.2","SS1618365934552","","","null","","","","","","<p><img src= images/blank.png width =""600"" height = ""600"" style=""position:fixed;top:50%; left:50%; transform: translate(-50%, -50%); border:5px solid black"">","","","","","","","",""
"","408","sequential-stimulus-presentation-old","119","268135","0.0-27.0-1.2","SS1618365934552","trial","","40","500","908","images/stimuli/spore_stims/simple_01_A_b.gif","images/stimuli/spore_stims/simple_07_A_a.gif","forced_long","","9","simple_dissimilar","images/stimuli/spore_stims/simple_01_A_b.gif","","","","",""
"","null","html-keyboard-response","120","269104","0.0-27.0-0.3","SS1618365934552","","","null","","","","","","<p><img src= images/blank.png width =""600"" height = ""600"" style=""position:fixed;top:50%; left:50%; transform: translate(-50%, -50%); border:5px solid black"">","","","","","","","",""
"","319","sequential-stimulus-presentation-old","121","269938","0.0-27.0-1.3","SS1618365934552","trial","","40","500","819","images/stimuli/spore_stims/simple_01_A_b.gif","images/stimuli/spore_stims/simple_07_A_a.gif","forced_long","","9","simple_dissimilar","images/stimuli/spore_stims/simple_07_A_a.gif","","","","",""
"","null","html-keyboard-response","122","271044","0.0-27.0-0.4","SS1618365934552","","","null","","","","","","<p><img src= images/blank.png width =""600"" height = ""600"" style=""position:fixed;top:50%; left:50%; transform: translate(-50%, -50%); border:5px solid black"">","","","","","","","",""
"","275","sequential-stimulus-presentation-old","123","271829","0.0-27.0-1.4","SS1618365934552","trial","","40","500","775","images/stimuli/spore_stims/simple_01_A_b.gif","images/stimuli/spore_stims/simple_07_A_a.gif","forced_long","","9","simple_dissimilar","images/stimuli/spore_stims/simple_07_A_a.gif","","","","",""
"","null","html-keyboard-response","124","272721","0.0-27.0-0.5","SS1618365934552","","","null","","","","","","<p><img src= images/blank.png width =""600"" height = ""600"" style=""position:fixed;top:50%; left:50%; transform: translate(-50%, -50%); border:5px solid black"">","","","","","","","",""
"","329","sequential-stimulus-presentation-old","125","273561","0.0-27.0-1.5","SS1618365934552","trial","","40","500","829","images/stimuli/spore_stims/simple_01_A_b.gif","images/stimuli/spore_stims/simple_07_A_a.gif","forced_long","","9","simple_dissimilar","images/stimuli/spore_stims/simple_01_A_b.gif","","","","",""
"","2836","survey-multi-choice","126","276401","0.0-28.0","SS1618365934552","math_question","","","","","","","","","","","","{""Q0"":""9""}","[0]","9","",""
"","null","html-keyboard-response","127","277656","0.0-29.0-0.0","SS1618365934552","","","null","","","","","","<p><img src= images/blank.png width =""600"" height = ""600"" style=""position:fixed;top:50%; left:50%; transform: translate(-50%, -50%); border:5px solid black"">","","","","","","","",""
"","217","sequential-stimulus-presentation-old","128","282888","0.0-29.0-1.0","SS1618365934552","trial","","40","500","717","images/stimuli/spore_stims/complex_17_A_b.gif","images/stimuli/spore_stims/complex_07_A_a.gif","forced_long","","10","complex_dissimilar","images/stimuli/spore_stims/complex_07_A_a.gif","","","","",""
"","null","html-keyboard-response","129","284142","0.0-29.0-0.1","SS1618365934552","","","null","","","","","","<p><img src= images/blank.png width =""600"" height = ""600"" style=""position:fixed;top:50%; left:50%; transform: translate(-50%, -50%); border:5px solid black"">","","","","","","","",""
"","1668","sequential-stimulus-presentation-old","130","286327","0.0-29.0-1.1","SS1618365934552","trial","","40","500","2168","images/stimuli/spore_stims/complex_17_A_b.gif","images/stimuli/spore_stims/complex_07_A_a.gif","forced_long","","10","complex_dissimilar","images/stimuli/spore_stims/complex_17_A_b.gif","","","","",""
"","null","html-keyboard-response","131","287215","0.0-29.0-0.2","SS1618365934552","","","null","","","","","","<p><img src= images/blank.png width =""600"" height = ""600"" style=""position:fixed;top:50%; left:50%; transform: translate(-50%, -50%); border:5px solid black"">","","","","","","","",""
"","789","sequential-stimulus-presentation-old","132","288522","0.0-29.0-1.2","SS1618365934552","trial","","40","500","1289","images/stimuli/spore_stims/complex_17_A_b.gif","images/stimuli/spore_stims/complex_07_A_a.gif","forced_long","","10","complex_dissimilar","images/stimuli/spore_stims/complex_07_A_a.gif","","","","",""
"","null","html-keyboard-response","133","289543","0.0-29.0-0.3","SS1618365934552","","","null","","","","","","<p><img src= images/blank.png width =""600"" height = ""600"" style=""position:fixed;top:50%; left:50%; transform: translate(-50%, -50%); border:5px solid black"">","","","","","","","",""
"","1711","sequential-stimulus-presentation-old","134","291773","0.0-29.0-1.3","SS1618365934552","trial","","40","500","2211","images/stimuli/spore_stims/complex_17_A_b.gif","images/stimuli/spore_stims/complex_07_A_a.gif","forced_long","","10","complex_dissimilar","images/stimuli/spore_stims/complex_07_A_a.gif","","","","",""
"","2449","survey-multi-choice","135","294226","0.0-30.0","SS1618365934552","math_question","","","","","","","","","","","","{""Q0"":""6""}","[0]","6","",""
"","null","html-keyboard-response","136","295308","0.0-31.0-0.0","SS1618365934552","","","null","","","","","","<p><img src= images/blank.png width =""600"" height = ""600"" style=""position:fixed;top:50%; left:50%; transform: translate(-50%, -50%); border:5px solid black"">","","","","","","","",""
"","5418","sequential-stimulus-presentation-old","137","305743","0.0-31.0-1.0","SS1618365934552","trial","","40","500","5918","images/stimuli/spore_stims/complex_15_A_a.gif","images/stimuli/spore_stims/complex_06_A_b.gif","forced_long","","11","complex_dissimilar","images/stimuli/spore_stims/complex_06_A_b.gif","","","","",""
"","null","html-keyboard-response","138","306876","0.0-31.0-0.1","SS1618365934552","","","null","","","","","","<p><img src= images/blank.png width =""600"" height = ""600"" style=""position:fixed;top:50%; left:50%; transform: translate(-50%, -50%); border:5px solid black"">","","","","","","","",""
"","104","sequential-stimulus-presentation-old","139","307497","0.0-31.0-1.1","SS1618365934552","trial","","40","500","604","images/stimuli/spore_stims/complex_15_A_a.gif","images/stimuli/spore_stims/complex_06_A_b.gif","forced_long","","11","complex_dissimilar","images/stimuli/spore_stims/complex_15_A_a.gif","","","","",""
"","null","html-keyboard-response","140","308516","0.0-31.0-0.2","SS1618365934552","","","null","","","","","","<p><img src= images/blank.png width =""600"" height = ""600"" style=""position:fixed;top:50%; left:50%; transform: translate(-50%, -50%); border:5px solid black"">","","","","","","","",""
"","351","sequential-stimulus-presentation-old","141","309375","0.0-31.0-1.2","SS1618365934552","trial","","40","500","851","images/stimuli/spore_stims/complex_15_A_a.gif","images/stimuli/spore_stims/complex_06_A_b.gif","forced_long","","11","complex_dissimilar","images/stimuli/spore_stims/complex_06_A_b.gif","","","","",""
"","null","html-keyboard-response","142","310349","0.0-31.0-0.3","SS1618365934552","","","null","","","","","","<p><img src= images/blank.png width =""600"" height = ""600"" style=""position:fixed;top:50%; left:50%; transform: translate(-50%, -50%); border:5px solid black"">","","","","","","","",""
"","111","sequential-stimulus-presentation-old","143","310977","0.0-31.0-1.3","SS1618365934552","trial","","40","500","611","images/stimuli/spore_stims/complex_15_A_a.gif","images/stimuli/spore_stims/complex_06_A_b.gif","forced_long","","11","complex_dissimilar","images/stimuli/spore_stims/complex_06_A_b.gif","","","","",""
"","null","html-keyboard-response","144","312168","0.0-31.0-0.4","SS1618365934552","","","null","","","","","","<p><img src= images/blank.png width =""600"" height = ""600"" style=""position:fixed;top:50%; left:50%; transform: translate(-50%, -50%); border:5px solid black"">","","","","","","","",""
"","355","sequential-stimulus-presentation-old","145","313035","0.0-31.0-1.4","SS1618365934552","trial","","40","500","855","images/stimuli/spore_stims/complex_15_A_a.gif","images/stimuli/spore_stims/complex_06_A_b.gif","forced_long","","11","complex_dissimilar","images/stimuli/spore_stims/complex_06_A_b.gif","","","","",""
"[{""page_index"":0,""viewing_time"":4626}]","4626","instructions","146","317664","0.0-32.0","SS1618365934552","instructions","","","","","","","","","","","","","","","",""
"","6460","survey-likert","147","324129","0.0-33.0","SS1618365934552","similarity_question","","","","","","","","","","","","{""Q0"":2}","[0]","","images/stimuli/spore_stims/complex_16_A_a.gif","images/stimuli/spore_stims/complex_10_A_b.gif"
"","3841","survey-likert","148","327977","0.0-34.0","SS1618365934552","similarity_question","","","","","","","","","","","","{""Q0"":5}","[0]","","images/stimuli/spore_stims/simple_09_A_b.gif","images/stimuli/spore_stims/simple_17_A_a.gif"
"","2700","survey-likert","149","330682","0.0-35.0","SS1618365934552","similarity_question","","","","","","","","","","","","{""Q0"":5}","[0]","","images/stimuli/spore_stims/simple_19_A_a.gif","images/stimuli/spore_stims/simple_03_A_b.gif"
"","1766","survey-likert","150","332457","0.0-36.0","SS1618365934552","similarity_question","","","","","","","","","","","","{""Q0"":5}","[0]","","images/stimuli/spore_stims/simple_14_A_b.gif","images/stimuli/spore_stims/simple_06_A_a.gif"
"","13466","survey-likert","151","345929","0.0-37.0","SS1618365934552","similarity_question","","","","","","","","","","","","{""Q0"":2}","[0]","","images/stimuli/spore_stims/complex_15_A_a.gif","images/stimuli/spore_stims/complex_06_A_b.gif"
"","5065","survey-likert","152","351001","0.0-38.0","SS1618365934552","similarity_question","","","","","","","","","","","","{""Q0"":4}","[0]","","images/stimuli/spore_stims/simple_11_A_b.gif","images/stimuli/spore_stims/simple_04_A_a.gif"
"","8298","survey-likert","153","359305","0.0-39.0","SS1618365934552","similarity_question","","","","","","","","","","","","{""Q0"":1}","[0]","","images/stimuli/spore_stims/complex_20_A_b.gif","images/stimuli/spore_stims/complex_11_A_a.gif"
"","2293","survey-likert","154","361603","0.0-40.0","SS1618365934552","similarity_question","","","","","","","","","","","","{""Q0"":1}","[0]","","images/stimuli/spore_stims/complex_13_A_b.gif","images/stimuli/spore_stims/complex_02_A_a.gif"
"","1731","survey-likert","155","363345","0.0-41.0","SS1618365934552","similarity_question","","","","","","","","","","","","{""Q0"":1}","[0]","","images/stimuli/spore_stims/complex_07_A_a.gif","images/stimuli/spore_stims/complex_17_A_b.gif"
"","1737","survey-likert","156","365088","0.0-42.0","SS1618365934552","similarity_question","","","","","","","","","","","","{""Q0"":1}","[0]","","images/stimuli/spore_stims/complex_14_A_b.gif","images/stimuli/spore_stims/complex_17_A_a.gif"
"","4995","survey-likert","157","370089","0.0-43.0","SS1618365934552","similarity_question","","","","","","","","","","","","{""Q0"":6}","[0]","","images/stimuli/spore_stims/simple_03_A_a.gif","images/stimuli/spore_stims/simple_08_A_b.gif"
"","4219","survey-likert","158","374312","0.0-44.0","SS1618365934552","similarity_question","","","","","","","","","","","","{""Q0"":4}","[0]","","images/stimuli/spore_stims/simple_07_A_a.gif","images/stimuli/spore_stims/simple_01_A_b.gif"
"[{""page_index"":0,""viewing_time"":5074}]","5074","instructions","159","379392","0.0-45.0","SS1618365934552","instructions","","","","","","","","","","","","","","","",""
"","3109","survey-likert","160","382505","0.0-46.0","SS1618365934552","","","","","","","","","images/stimuli/spore_stims/simple_08_A_b.gif","","","","{""Q0"":0}","[0]","","",""
"","4802","survey-likert","161","387313","0.0-47.0","SS1618365934552","","","","","","","","","images/stimuli/spore_stims/complex_06_A_b.gif","","","","{""Q0"":4}","[0]","","",""
"","2003","survey-likert","162","389320","0.0-48.0","SS1618365934552","","","","","","","","","images/stimuli/spore_stims/complex_10_A_b.gif","","","","{""Q0"":4}","[0]","","",""
"","2043","survey-likert","163","391369","0.0-49.0","SS1618365934552","","","","","","","","","images/stimuli/spore_stims/simple_01_A_b.gif","","","","{""Q0"":0}","[0]","","",""
"","2194","survey-likert","164","393568","0.0-50.0","SS1618365934552","","","","","","","","","images/stimuli/spore_stims/simple_14_A_b.gif","","","","{""Q0"":0}","[0]","","",""
"","1722","survey-likert","165","395296","0.0-51.0","SS1618365934552","","","","","","","","","images/stimuli/spore_stims/simple_04_A_a.gif","","","","{""Q0"":0}","[0]","","",""
"","4235","survey-likert","166","399537","0.0-52.0","SS1618365934552","","","","","","","","","images/stimuli/spore_stims/complex_11_A_a.gif","","","","{""Q0"":4}","[0]","","",""
"","2514","survey-likert","167","402057","0.0-53.0","SS1618365934552","","","","","","","","","images/stimuli/spore_stims/simple_19_A_a.gif","","","","{""Q0"":1}","[0]","","",""
"","3185","survey-likert","168","405248","0.0-54.0","SS1618365934552","","","","","","","","","images/stimuli/spore_stims/complex_13_A_b.gif","","","","{""Q0"":4}","[0]","","",""
"","1627","survey-likert","169","406880","0.0-55.0","SS1618365934552","","","","","","","","","images/stimuli/spore_stims/complex_14_A_b.gif","","","","{""Q0"":4}","[0]","","",""
"","2522","survey-likert","170","409409","0.0-56.0","SS1618365934552","","","","","","","","","images/stimuli/spore_stims/simple_09_A_b.gif","","","","{""Q0"":0}","[0]","","",""
"","1947","survey-likert","171","411361","0.0-57.0","SS1618365934552","","","","","","","","","images/stimuli/spore_stims/complex_07_A_a.gif","","","","{""Q0"":4}","[0]","","",""
"[{""page_index"":0,""viewing_time"":2258}]","2258","instructions","172","413624","0.0-58.0","SS1618365934552","instructions","","","","","","","","","","","","","","","",""
"","4978","demog-age","173","418720","0.0-59.0","SS1618365934552","","","","","","","","","","","","","{""age"":""19""}","","","",""
"","4038","demog-ethnic-US","174","422770","0.0-60.0","SS1618365934552","","","","","","","","","","","","","{""ethnicity"":[""White""]}","[0]","","",""
"","7201","demog-gender-and-education","175","429977","0.0-61.0","SS1618365934552","","","","","","","","","","","","","{""gender"":""Male"",""education"":""High school diploma""}","[0,1]","","",""
"","11127","survey-text","176","441113","0.0-62.0","SS1618365934552","feedback","","","","","","","","","","","","{""Q0"":""No issues and no lag""}","","","",""
"[{""page_index"":0,""viewing_time"":1518}]","1518","instructions","177","442639","0.0-63.0","SS1618365934552","instructions","","","","","","","","","","","","","","","",""
