"view_history","rt","trial_type","trial_index","time_elapsed","internal_node_id","subject","stimulus_type","trial_stimulus","key_press","minimum_viewing_duration","trial_looking_time","block_deviant","block_background","exposure_type","stimulus","block_number","block_type","stimulus_displayed","responses","question_order","math_correct_answer","stimulus_left","stimulus_right"
"[{""page_index"":0,""viewing_time"":12928.845000002184}]","12929.8950000084","instructions","0","12935","0.0-0.0","SS1618435651451","","","","","","","","","","","","","","","","",""
"[{""page_index"":0,""viewing_time"":6221.1349999997765},{""page_index"":1,""viewing_time"":5793.680000002496}]","12015.140000003157","instructions","1","26963","0.0-1.0","SS1618435651451","instructions","","","","","","","","","","","","","","","",""
"","6475.869999994757","sequential-stimulus-presentation-old","2","33944","0.0-2.0","SS1618435651451","","","40","500","6975.869999994757","null","null","self_paced","","","","","","","","",""
"","16858.37000000174","sequential-stimulus-presentation-old","3","51307","0.0-3.0","SS1618435651451","","","40","500","17358.37000000174","null","null","self_paced","","","","","","","","",""
"[{""page_index"":0,""viewing_time"":117564.27000000258}]","117564.62000000465","instructions","4","168875","0.0-4.0","SS1618435651451","instructions","","","","","","","","","","","","","","","",""
"","431.2649999919813","sequential-stimulus-presentation-old","5","174310","0.0-5.0","SS1618435651451","","","40","500","931.2649999919813","null","null","forced_long","","","","","","","","",""
"","82972.7899999998","sequential-stimulus-presentation-old","6","257337","0.0-6.0","SS1618435651451","","","40","50","83022.7899999998","null","null","forced_long","","","","","","","","",""
"[{""page_index"":0,""viewing_time"":3957.315000006929}]","3957.62499999546","instructions","7","261298","0.0-7.0","SS1618435651451","instructions","","","","","","","","","","","","","","","",""
"[{""page_index"":0,""viewing_time"":66318.40500001272},{""page_index"":1,""viewing_time"":48229.89499999676},{""page_index"":2,""viewing_time"":3641.4399999921443},{""page_index"":3,""viewing_time"":884.3100000085542},{""page_index"":4,""viewing_time"":790.4249999992317}]","119864.80500000471","instructions","8","381164","0.0-8.0","SS1618435651451","instructions","","","","","","","","","","","","","","","",""
"","null","html-keyboard-response","9","382383","0.0-9.0-0.0","SS1618435651451","","","null","","","","","","<p><img src= images/blank.png width =""600"" height = ""600"" style=""position:fixed;top:50%; left:50%; transform: translate(-50%, -50%); border:5px solid black"">","","","","","","","",""
"","1019.8549999913666","sequential-stimulus-presentation-old","10","388412","0.0-9.0-1.0","SS1618435651451","trial","","40","500","1519.8549999913666","images/stimuli/spore_stims/simple_15_A_b.gif","images/stimuli/spore_stims/simple_11_A_a.gif","forced_long","","0","simple_dissimilar","images/stimuli/spore_stims/simple_11_A_a.gif","","","","",""
"","null","html-keyboard-response","11","389472","0.0-9.0-0.1","SS1618435651451","","","null","","","","","","<p><img src= images/blank.png width =""600"" height = ""600"" style=""position:fixed;top:50%; left:50%; transform: translate(-50%, -50%); border:5px solid black"">","","","","","","","",""
"","11709.910000005038","sequential-stimulus-presentation-old","12","401688","0.0-9.0-1.1","SS1618435651451","trial","","40","500","12209.910000005038","images/stimuli/spore_stims/simple_15_A_b.gif","images/stimuli/spore_stims/simple_11_A_a.gif","forced_long","","0","simple_dissimilar","images/stimuli/spore_stims/simple_11_A_a.gif","","","","",""
"","null","html-keyboard-response","13","402717","0.0-9.0-0.2","SS1618435651451","","","null","","","","","","<p><img src= images/blank.png width =""600"" height = ""600"" style=""position:fixed;top:50%; left:50%; transform: translate(-50%, -50%); border:5px solid black"">","","","","","","","",""
"","7746.230000004289","sequential-stimulus-presentation-old","14","410971","0.0-9.0-1.2","SS1618435651451","trial","","40","500","8246.230000004289","images/stimuli/spore_stims/simple_15_A_b.gif","images/stimuli/spore_stims/simple_11_A_a.gif","forced_long","","0","simple_dissimilar","images/stimuli/spore_stims/simple_11_A_a.gif","","","","",""
"","null","html-keyboard-response","15","411878","0.0-9.0-0.3","SS1618435651451","","","null","","","","","","<p><img src= images/blank.png width =""600"" height = ""600"" style=""position:fixed;top:50%; left:50%; transform: translate(-50%, -50%); border:5px solid black"">","","","","","","","",""
"","5036.9749999954365","sequential-stimulus-presentation-old","16","417422","0.0-9.0-1.3","SS1618435651451","trial","","40","500","5536.9749999954365","images/stimuli/spore_stims/simple_15_A_b.gif","images/stimuli/spore_stims/simple_11_A_a.gif","forced_long","","0","simple_dissimilar","images/stimuli/spore_stims/simple_11_A_a.gif","","","","",""
"","null","html-keyboard-response","17","418419","0.0-9.0-0.4","SS1618435651451","","","null","","","","","","<p><img src= images/blank.png width =""600"" height = ""600"" style=""position:fixed;top:50%; left:50%; transform: translate(-50%, -50%); border:5px solid black"">","","","","","","","",""
"","21900.90500000224","sequential-stimulus-presentation-old","18","440827","0.0-9.0-1.4","SS1618435651451","trial","","40","500","22400.90500000224","images/stimuli/spore_stims/simple_15_A_b.gif","images/stimuli/spore_stims/simple_11_A_a.gif","forced_long","","0","simple_dissimilar","images/stimuli/spore_stims/simple_15_A_b.gif","","","","",""
"","2868.1700000015553","survey-multi-choice","19","443708","0.0-10.0","SS1618435651451","math_question","","","","","","","","","","","","{""Q0"":""8""}","[0]","8","",""
"","null","html-keyboard-response","20","444920","0.0-11.0-0.0","SS1618435651451","","","null","","","","","","<p><img src= images/blank.png width =""600"" height = ""600"" style=""position:fixed;top:50%; left:50%; transform: translate(-50%, -50%); border:5px solid black"">","","","","","","","",""
"","33099.614999999176","sequential-stimulus-presentation-old","21","478527","0.0-11.0-1.0","SS1618435651451","trial","","40","500","33599.614999999176","images/stimuli/spore_stims/complex_09_A_a.gif","images/stimuli/spore_stims/complex_06_A_b.gif","self_paced","","1","complex_dissimilar","images/stimuli/spore_stims/complex_06_A_b.gif","","","","",""
"","null","html-keyboard-response","22","479481","0.0-11.0-0.1","SS1618435651451","","","null","","","","","","<p><img src= images/blank.png width =""600"" height = ""600"" style=""position:fixed;top:50%; left:50%; transform: translate(-50%, -50%); border:5px solid black"">","","","","","","","",""
"","4464.9849999987055","sequential-stimulus-presentation-old","23","484454","0.0-11.0-1.1","SS1618435651451","trial","","40","500","4964.9849999987055","images/stimuli/spore_stims/complex_09_A_a.gif","images/stimuli/spore_stims/complex_06_A_b.gif","self_paced","","1","complex_dissimilar","images/stimuli/spore_stims/complex_06_A_b.gif","","","","",""
"","null","html-keyboard-response","24","485497","0.0-11.0-0.2","SS1618435651451","","","null","","","","","","<p><img src= images/blank.png width =""600"" height = ""600"" style=""position:fixed;top:50%; left:50%; transform: translate(-50%, -50%); border:5px solid black"">","","","","","","","",""
"","5407.654999988154","sequential-stimulus-presentation-old","25","491413","0.0-11.0-1.2","SS1618435651451","trial","","40","500","5907.654999988154","images/stimuli/spore_stims/complex_09_A_a.gif","images/stimuli/spore_stims/complex_06_A_b.gif","self_paced","","1","complex_dissimilar","images/stimuli/spore_stims/complex_06_A_b.gif","","","","",""
"","null","html-keyboard-response","26","492648","0.0-11.0-0.3","SS1618435651451","","","null","","","","","","<p><img src= images/blank.png width =""600"" height = ""600"" style=""position:fixed;top:50%; left:50%; transform: translate(-50%, -50%); border:5px solid black"">","","","","","","","",""
"","31336.954999991576","sequential-stimulus-presentation-old","27","524493","0.0-11.0-1.3","SS1618435651451","trial","","40","500","31836.954999991576","images/stimuli/spore_stims/complex_09_A_a.gif","images/stimuli/spore_stims/complex_06_A_b.gif","self_paced","","1","complex_dissimilar","images/stimuli/spore_stims/complex_06_A_b.gif","","","","",""
"","null","html-keyboard-response","28","525382","0.0-11.0-0.4","SS1618435651451","","","null","","","","","","<p><img src= images/blank.png width =""600"" height = ""600"" style=""position:fixed;top:50%; left:50%; transform: translate(-50%, -50%); border:5px solid black"">","","","","","","","",""
"","8201.195000001462","sequential-stimulus-presentation-old","29","534092","0.0-11.0-1.4","SS1618435651451","trial","","40","500","8701.195000001462","images/stimuli/spore_stims/complex_09_A_a.gif","images/stimuli/spore_stims/complex_06_A_b.gif","self_paced","","1","complex_dissimilar","images/stimuli/spore_stims/complex_06_A_b.gif","","","","",""
"","3177.9050000041025","survey-multi-choice","30","537274","0.0-12.0","SS1618435651451","math_question","","","","","","","","","","","","{""Q0"":""7""}","[0]","7","",""
"","null","html-keyboard-response","31","538277","0.0-13.0-0.0","SS1618435651451","","","null","","","","","","<p><img src= images/blank.png width =""600"" height = ""600"" style=""position:fixed;top:50%; left:50%; transform: translate(-50%, -50%); border:5px solid black"">","","","","","","","",""
"","37272.884999998496","sequential-stimulus-presentation-old","32","576060","0.0-13.0-1.0","SS1618435651451","trial","","40","500","37772.884999998496","images/stimuli/spore_stims/complex_01_A_a.gif","images/stimuli/spore_stims/complex_03_A_b.gif","self_paced","","2","complex_dissimilar","images/stimuli/spore_stims/complex_03_A_b.gif","","","","",""
"","null","html-keyboard-response","33","576959","0.0-13.0-0.1","SS1618435651451","","","null","","","","","","<p><img src= images/blank.png width =""600"" height = ""600"" style=""position:fixed;top:50%; left:50%; transform: translate(-50%, -50%); border:5px solid black"">","","","","","","","",""
"","5697.795000000042","sequential-stimulus-presentation-old","34","583165","0.0-13.0-1.1","SS1618435651451","trial","","40","500","6197.795000000042","images/stimuli/spore_stims/complex_01_A_a.gif","images/stimuli/spore_stims/complex_03_A_b.gif","self_paced","","2","complex_dissimilar","images/stimuli/spore_stims/complex_01_A_a.gif","","","","",""
"","null","html-keyboard-response","35","584015","0.0-13.0-0.2","SS1618435651451","","","null","","","","","","<p><img src= images/blank.png width =""600"" height = ""600"" style=""position:fixed;top:50%; left:50%; transform: translate(-50%, -50%); border:5px solid black"">","","","","","","","",""
"","3698.6699999979464","sequential-stimulus-presentation-old","36","588222","0.0-13.0-1.2","SS1618435651451","trial","","40","500","4198.669999997946","images/stimuli/spore_stims/complex_01_A_a.gif","images/stimuli/spore_stims/complex_03_A_b.gif","self_paced","","2","complex_dissimilar","images/stimuli/spore_stims/complex_01_A_a.gif","","","","",""
"","null","html-keyboard-response","37","589241","0.0-13.0-0.3","SS1618435651451","","","null","","","","","","<p><img src= images/blank.png width =""600"" height = ""600"" style=""position:fixed;top:50%; left:50%; transform: translate(-50%, -50%); border:5px solid black"">","","","","","","","",""
"","32167.310000004363","sequential-stimulus-presentation-old","38","621917","0.0-13.0-1.3","SS1618435651451","trial","","40","500","32667.310000004363","images/stimuli/spore_stims/complex_01_A_a.gif","images/stimuli/spore_stims/complex_03_A_b.gif","self_paced","","2","complex_dissimilar","images/stimuli/spore_stims/complex_03_A_b.gif","","","","",""
"","null","html-keyboard-response","39","622802","0.0-13.0-0.4","SS1618435651451","","","null","","","","","","<p><img src= images/blank.png width =""600"" height = ""600"" style=""position:fixed;top:50%; left:50%; transform: translate(-50%, -50%); border:5px solid black"">","","","","","","","",""
"","2312.5849999923958","sequential-stimulus-presentation-old","40","625623","0.0-13.0-1.4","SS1618435651451","trial","","40","500","2812.5849999923958","images/stimuli/spore_stims/complex_01_A_a.gif","images/stimuli/spore_stims/complex_03_A_b.gif","self_paced","","2","complex_dissimilar","images/stimuli/spore_stims/complex_03_A_b.gif","","","","",""
"","45765.9249999997","survey-multi-choice","41","671393","0.0-14.0","SS1618435651451","math_question","","","","","","","","","","","","{""Q0"":""15""}","[0]","15","",""
"","null","html-keyboard-response","42","672689","0.0-15.0-0.0","SS1618435651451","","","null","","","","","","<p><img src= images/blank.png width =""600"" height = ""600"" style=""position:fixed;top:50%; left:50%; transform: translate(-50%, -50%); border:5px solid black"">","","","","","","","",""
"","7374.21500000346","sequential-stimulus-presentation-old","43","680572","0.0-15.0-1.0","SS1618435651451","trial","","40","500","7874.21500000346","images/stimuli/spore_stims/simple_14_A_b.gif","images/stimuli/spore_stims/simple_06_A_a.gif","self_paced","","3","simple_dissimilar","images/stimuli/spore_stims/simple_06_A_a.gif","","","","",""
"","null","html-keyboard-response","44","681541","0.0-15.0-0.1","SS1618435651451","","","null","","","","","","<p><img src= images/blank.png width =""600"" height = ""600"" style=""position:fixed;top:50%; left:50%; transform: translate(-50%, -50%); border:5px solid black"">","","","","","","","",""
"","1456.2600000062957","sequential-stimulus-presentation-old","45","683506","0.0-15.0-1.1","SS1618435651451","trial","","40","500","1956.2600000062957","images/stimuli/spore_stims/simple_14_A_b.gif","images/stimuli/spore_stims/simple_06_A_a.gif","self_paced","","3","simple_dissimilar","images/stimuli/spore_stims/simple_06_A_a.gif","","","","",""
"","null","html-keyboard-response","46","684536","0.0-15.0-0.2","SS1618435651451","","","null","","","","","","<p><img src= images/blank.png width =""600"" height = ""600"" style=""position:fixed;top:50%; left:50%; transform: translate(-50%, -50%); border:5px solid black"">","","","","","","","",""
"","1028.1450000038603","sequential-stimulus-presentation-old","47","686073","0.0-15.0-1.2","SS1618435651451","trial","","40","500","1528.1450000038603","images/stimuli/spore_stims/simple_14_A_b.gif","images/stimuli/spore_stims/simple_06_A_a.gif","self_paced","","3","simple_dissimilar","images/stimuli/spore_stims/simple_06_A_a.gif","","","","",""
"","null","html-keyboard-response","48","687374","0.0-15.0-0.3","SS1618435651451","","","null","","","","","","<p><img src= images/blank.png width =""600"" height = ""600"" style=""position:fixed;top:50%; left:50%; transform: translate(-50%, -50%); border:5px solid black"">","","","","","","","",""
"","53520.35000000615","sequential-stimulus-presentation-old","49","741401","0.0-15.0-1.3","SS1618435651451","trial","","40","500","54020.35000000615","images/stimuli/spore_stims/simple_14_A_b.gif","images/stimuli/spore_stims/simple_06_A_a.gif","self_paced","","3","simple_dissimilar","images/stimuli/spore_stims/simple_14_A_b.gif","","","","",""
"","2129.3249999871477","survey-multi-choice","50","743535","0.0-16.0","SS1618435651451","math_question","","","","","","","","","","","","{""Q0"":""11""}","[0]","11","",""
"","null","html-keyboard-response","51","744585","0.0-17.0-0.0","SS1618435651451","","","null","","","","","","<p><img src= images/blank.png width =""600"" height = ""600"" style=""position:fixed;top:50%; left:50%; transform: translate(-50%, -50%); border:5px solid black"">","","","","","","","",""
"","6909.249999996973","sequential-stimulus-presentation-old","52","751555","0.0-17.0-1.0","SS1618435651451","trial","","40","500","7409.249999996973","images/stimuli/spore_stims/complex_05_A_b.gif","images/stimuli/spore_stims/complex_17_A_a.gif","forced_short","","4","complex_dissimilar","images/stimuli/spore_stims/complex_17_A_a.gif","","","","",""
"","null","html-keyboard-response","53","752520","0.0-17.0-0.1","SS1618435651451","","","null","","","","","","<p><img src= images/blank.png width =""600"" height = ""600"" style=""position:fixed;top:50%; left:50%; transform: translate(-50%, -50%); border:5px solid black"">","","","","","","","",""
"","3412.0549999934155","sequential-stimulus-presentation-old","54","756441","0.0-17.0-1.1","SS1618435651451","trial","","40","500","3912.0549999934155","images/stimuli/spore_stims/complex_05_A_b.gif","images/stimuli/spore_stims/complex_17_A_a.gif","forced_short","","4","complex_dissimilar","images/stimuli/spore_stims/complex_17_A_a.gif","","","","",""
"","null","html-keyboard-response","55","757707","0.0-17.0-0.2","SS1618435651451","","","null","","","","","","<p><img src= images/blank.png width =""600"" height = ""600"" style=""position:fixed;top:50%; left:50%; transform: translate(-50%, -50%); border:5px solid black"">","","","","","","","",""
"","40933.51499999699","sequential-stimulus-presentation-old","56","799151","0.0-17.0-1.2","SS1618435651451","trial","","40","500","41433.51499999699","images/stimuli/spore_stims/complex_05_A_b.gif","images/stimuli/spore_stims/complex_17_A_a.gif","forced_short","","4","complex_dissimilar","images/stimuli/spore_stims/complex_05_A_b.gif","","","","",""
"","null","html-keyboard-response","57","800220","0.0-17.0-0.3","SS1618435651451","","","null","","","","","","<p><img src= images/blank.png width =""600"" height = ""600"" style=""position:fixed;top:50%; left:50%; transform: translate(-50%, -50%); border:5px solid black"">","","","","","","","",""
"","2071.1500000033993","sequential-stimulus-presentation-old","58","802801","0.0-17.0-1.3","SS1618435651451","trial","","40","500","2571.1500000033993","images/stimuli/spore_stims/complex_05_A_b.gif","images/stimuli/spore_stims/complex_17_A_a.gif","forced_short","","4","complex_dissimilar","images/stimuli/spore_stims/complex_17_A_a.gif","","","","",""
"","2485.549999997602","survey-multi-choice","59","805292","0.0-18.0","SS1618435651451","math_question","","","","","","","","","","","","{""Q0"":""12""}","[0]","12","",""
"","null","html-keyboard-response","60","806389","0.0-19.0-0.0","SS1618435651451","","","null","","","","","","<p><img src= images/blank.png width =""600"" height = ""600"" style=""position:fixed;top:50%; left:50%; transform: translate(-50%, -50%); border:5px solid black"">","","","","","","","",""
"","3171.619999993709","sequential-stimulus-presentation-old","61","810069","0.0-19.0-1.0","SS1618435651451","trial","","40","500","3671.619999993709","images/stimuli/spore_stims/simple_08_A_b.gif","images/stimuli/spore_stims/simple_17_A_a.gif","self_paced","","5","simple_dissimilar","images/stimuli/spore_stims/simple_17_A_a.gif","","","","",""
"","null","html-keyboard-response","62","811229","0.0-19.0-0.1","SS1618435651451","","","null","","","","","","<p><img src= images/blank.png width =""600"" height = ""600"" style=""position:fixed;top:50%; left:50%; transform: translate(-50%, -50%); border:5px solid black"">","","","","","","","",""
"","1783.6499999975786","sequential-stimulus-presentation-old","63","813523","0.0-19.0-1.1","SS1618435651451","trial","","40","500","2283.6499999975786","images/stimuli/spore_stims/simple_08_A_b.gif","images/stimuli/spore_stims/simple_17_A_a.gif","self_paced","","5","simple_dissimilar","images/stimuli/spore_stims/simple_17_A_a.gif","","","","",""
"","null","html-keyboard-response","64","814595","0.0-19.0-0.2","SS1618435651451","","","null","","","","","","<p><img src= images/blank.png width =""600"" height = ""600"" style=""position:fixed;top:50%; left:50%; transform: translate(-50%, -50%); border:5px solid black"">","","","","","","","",""
"","8730.819999997038","sequential-stimulus-presentation-old","65","823834","0.0-19.0-1.2","SS1618435651451","trial","","40","500","9230.819999997038","images/stimuli/spore_stims/simple_08_A_b.gif","images/stimuli/spore_stims/simple_17_A_a.gif","self_paced","","5","simple_dissimilar","images/stimuli/spore_stims/simple_17_A_a.gif","","","","",""
"","null","html-keyboard-response","66","824852","0.0-19.0-0.3","SS1618435651451","","","null","","","","","","<p><img src= images/blank.png width =""600"" height = ""600"" style=""position:fixed;top:50%; left:50%; transform: translate(-50%, -50%); border:5px solid black"">","","","","","","","",""
"","8605.910000012955","sequential-stimulus-presentation-old","67","833968","0.0-19.0-1.3","SS1618435651451","trial","","40","500","9105.910000012955","images/stimuli/spore_stims/simple_08_A_b.gif","images/stimuli/spore_stims/simple_17_A_a.gif","self_paced","","5","simple_dissimilar","images/stimuli/spore_stims/simple_08_A_b.gif","","","","",""
"","null","html-keyboard-response","68","835195","0.0-19.0-0.4","SS1618435651451","","","null","","","","","","<p><img src= images/blank.png width =""600"" height = ""600"" style=""position:fixed;top:50%; left:50%; transform: translate(-50%, -50%); border:5px solid black"">","","","","","","","",""
"","1273.6849999928381","sequential-stimulus-presentation-old","69","836985","0.0-19.0-1.4","SS1618435651451","trial","","40","500","1773.6849999928381","images/stimuli/spore_stims/simple_08_A_b.gif","images/stimuli/spore_stims/simple_17_A_a.gif","self_paced","","5","simple_dissimilar","images/stimuli/spore_stims/simple_08_A_b.gif","","","","",""
"","16916.565000006813","survey-multi-choice","70","853908","0.0-20.0","SS1618435651451","math_question","","","","","","","","","","","","{""Q0"":""13""}","[0]","13","",""
"","null","html-keyboard-response","71","854760","0.0-21.0-0.0","SS1618435651451","","","null","","","","","","<p><img src= images/blank.png width =""600"" height = ""600"" style=""position:fixed;top:50%; left:50%; transform: translate(-50%, -50%); border:5px solid black"">","","","","","","","",""
"","5006.340000007185","sequential-stimulus-presentation-old","72","864775","0.0-21.0-1.0","SS1618435651451","trial","","40","500","5506.340000007185","images/stimuli/spore_stims/complex_08_A_a.gif","images/stimuli/spore_stims/complex_17_A_b.gif","forced_long","","6","complex_dissimilar","images/stimuli/spore_stims/complex_17_A_b.gif","","","","",""
"","null","html-keyboard-response","73","865920","0.0-21.0-0.1","SS1618435651451","","","null","","","","","","<p><img src= images/blank.png width =""600"" height = ""600"" style=""position:fixed;top:50%; left:50%; transform: translate(-50%, -50%); border:5px solid black"">","","","","","","","",""
"","42712.09999998973","sequential-stimulus-presentation-old","74","909144","0.0-21.0-1.1","SS1618435651451","trial","","40","500","43212.09999998973","images/stimuli/spore_stims/complex_08_A_a.gif","images/stimuli/spore_stims/complex_17_A_b.gif","forced_long","","6","complex_dissimilar","images/stimuli/spore_stims/complex_17_A_b.gif","","","","",""
"","null","html-keyboard-response","75","910273","0.0-21.0-0.2","SS1618435651451","","","null","","","","","","<p><img src= images/blank.png width =""600"" height = ""600"" style=""position:fixed;top:50%; left:50%; transform: translate(-50%, -50%); border:5px solid black"">","","","","","","","",""
"","2556.7449999944074","sequential-stimulus-presentation-old","76","913339","0.0-21.0-1.2","SS1618435651451","trial","","40","500","3056.7449999944074","images/stimuli/spore_stims/complex_08_A_a.gif","images/stimuli/spore_stims/complex_17_A_b.gif","forced_long","","6","complex_dissimilar","images/stimuli/spore_stims/complex_17_A_b.gif","","","","",""
"","null","html-keyboard-response","77","914503","0.0-21.0-0.3","SS1618435651451","","","null","","","","","","<p><img src= images/blank.png width =""600"" height = ""600"" style=""position:fixed;top:50%; left:50%; transform: translate(-50%, -50%); border:5px solid black"">","","","","","","","",""
"","1009.5449999935227","sequential-stimulus-presentation-old","78","916023","0.0-21.0-1.3","SS1618435651451","trial","","40","500","1509.5449999935227","images/stimuli/spore_stims/complex_08_A_a.gif","images/stimuli/spore_stims/complex_17_A_b.gif","forced_long","","6","complex_dissimilar","images/stimuli/spore_stims/complex_17_A_b.gif","","","","",""
"","2356.515000006766","survey-multi-choice","79","918386","0.0-22.0","SS1618435651451","math_question","","","","","","","","","","","","{""Q0"":""12""}","[0]","12","",""
"","null","html-keyboard-response","80","919333","0.0-23.0-0.0","SS1618435651451","","","null","","","","","","<p><img src= images/blank.png width =""600"" height = ""600"" style=""position:fixed;top:50%; left:50%; transform: translate(-50%, -50%); border:5px solid black"">","","","","","","","",""
"","702.6899999909801","sequential-stimulus-presentation-old","81","920097","0.0-23.0-1.0","SS1618435651451","trial","","40","500","1202.6899999909801","images/stimuli/spore_stims/simple_04_A_a.gif","images/stimuli/spore_stims/simple_07_A_b.gif","forced_short","","7","simple_dissimilar","images/stimuli/spore_stims/simple_07_A_b.gif","","","","",""
"","null","html-keyboard-response","82","921222","0.0-23.0-0.1","SS1618435651451","","","null","","","","","","<p><img src= images/blank.png width =""600"" height = ""600"" style=""position:fixed;top:50%; left:50%; transform: translate(-50%, -50%); border:5px solid black"">","","","","","","","",""
"","1313.1600000051549","sequential-stimulus-presentation-old","83","923043","0.0-23.0-1.1","SS1618435651451","trial","","40","500","1813.1600000051549","images/stimuli/spore_stims/simple_04_A_a.gif","images/stimuli/spore_stims/simple_07_A_b.gif","forced_short","","7","simple_dissimilar","images/stimuli/spore_stims/simple_07_A_b.gif","","","","",""
"","null","html-keyboard-response","84","924217","0.0-23.0-0.2","SS1618435651451","","","null","","","","","","<p><img src= images/blank.png width =""600"" height = ""600"" style=""position:fixed;top:50%; left:50%; transform: translate(-50%, -50%); border:5px solid black"">","","","","","","","",""
"","1752.8349999920465","sequential-stimulus-presentation-old","85","926478","0.0-23.0-1.2","SS1618435651451","trial","","40","500","2252.8349999920465","images/stimuli/spore_stims/simple_04_A_a.gif","images/stimuli/spore_stims/simple_07_A_b.gif","forced_short","","7","simple_dissimilar","images/stimuli/spore_stims/simple_07_A_b.gif","","","","",""
"","null","html-keyboard-response","86","927384","0.0-23.0-0.3","SS1618435651451","","","null","","","","","","<p><img src= images/blank.png width =""600"" height = ""600"" style=""position:fixed;top:50%; left:50%; transform: translate(-50%, -50%); border:5px solid black"">","","","","","","","",""
"","2864.574999999604","sequential-stimulus-presentation-old","87","930759","0.0-23.0-1.3","SS1618435651451","trial","","40","500","3364.574999999604","images/stimuli/spore_stims/simple_04_A_a.gif","images/stimuli/spore_stims/simple_07_A_b.gif","forced_short","","7","simple_dissimilar","images/stimuli/spore_stims/simple_07_A_b.gif","","","","",""
"","null","html-keyboard-response","88","931724","0.0-23.0-0.4","SS1618435651451","","","null","","","","","","<p><img src= images/blank.png width =""600"" height = ""600"" style=""position:fixed;top:50%; left:50%; transform: translate(-50%, -50%); border:5px solid black"">","","","","","","","",""
"","3937.245000008261","sequential-stimulus-presentation-old","89","936171","0.0-23.0-1.4","SS1618435651451","trial","","40","500","4437.245000008261","images/stimuli/spore_stims/simple_04_A_a.gif","images/stimuli/spore_stims/simple_07_A_b.gif","forced_short","","7","simple_dissimilar","images/stimuli/spore_stims/simple_07_A_b.gif","","","","",""
"","3662.5050000002375","survey-multi-choice","90","939841","0.0-24.0","SS1618435651451","math_question","","","","","","","","","","","","{""Q0"":""8""}","[0]","8","",""
"","null","html-keyboard-response","91","941056","0.0-25.0-0.0","SS1618435651451","","","null","","","","","","<p><img src= images/blank.png width =""600"" height = ""600"" style=""position:fixed;top:50%; left:50%; transform: translate(-50%, -50%); border:5px solid black"">","","","","","","","",""
"","7763.870000009774","sequential-stimulus-presentation-old","92","948881","0.0-25.0-1.0","SS1618435651451","trial","","40","500","8263.870000009774","images/stimuli/spore_stims/simple_15_A_a.gif","images/stimuli/spore_stims/simple_12_A_b.gif","forced_short","","8","simple_dissimilar","images/stimuli/spore_stims/simple_12_A_b.gif","","","","",""
"","null","html-keyboard-response","93","949708","0.0-25.0-0.1","SS1618435651451","","","null","","","","","","<p><img src= images/blank.png width =""600"" height = ""600"" style=""position:fixed;top:50%; left:50%; transform: translate(-50%, -50%); border:5px solid black"">","","","","","","","",""
"","1470.1749999949243","sequential-stimulus-presentation-old","94","951689","0.0-25.0-1.1","SS1618435651451","trial","","40","500","1970.1749999949243","images/stimuli/spore_stims/simple_15_A_a.gif","images/stimuli/spore_stims/simple_12_A_b.gif","forced_short","","8","simple_dissimilar","images/stimuli/spore_stims/simple_12_A_b.gif","","","","",""
"","null","html-keyboard-response","95","952500","0.0-25.0-0.2","SS1618435651451","","","null","","","","","","<p><img src= images/blank.png width =""600"" height = ""600"" style=""position:fixed;top:50%; left:50%; transform: translate(-50%, -50%); border:5px solid black"">","","","","","","","",""
"","2562.7499999973224","sequential-stimulus-presentation-old","96","955572","0.0-25.0-1.2","SS1618435651451","trial","","40","500","3062.7499999973224","images/stimuli/spore_stims/simple_15_A_a.gif","images/stimuli/spore_stims/simple_12_A_b.gif","forced_short","","8","simple_dissimilar","images/stimuli/spore_stims/simple_15_A_a.gif","","","","",""
"","null","html-keyboard-response","97","956762","0.0-25.0-0.3","SS1618435651451","","","null","","","","","","<p><img src= images/blank.png width =""600"" height = ""600"" style=""position:fixed;top:50%; left:50%; transform: translate(-50%, -50%); border:5px solid black"">","","","","","","","",""
"","6211.439999999129","sequential-stimulus-presentation-old","98","963485","0.0-25.0-1.3","SS1618435651451","trial","","40","500","6711.439999999129","images/stimuli/spore_stims/simple_15_A_a.gif","images/stimuli/spore_stims/simple_12_A_b.gif","forced_short","","8","simple_dissimilar","images/stimuli/spore_stims/simple_12_A_b.gif","","","","",""
"","null","html-keyboard-response","99","964674","0.0-25.0-0.4","SS1618435651451","","","null","","","","","","<p><img src= images/blank.png width =""600"" height = ""600"" style=""position:fixed;top:50%; left:50%; transform: translate(-50%, -50%); border:5px solid black"">","","","","","","","",""
"","3356.3299999950686","sequential-stimulus-presentation-old","100","968542","0.0-25.0-1.4","SS1618435651451","trial","","40","500","3856.3299999950686","images/stimuli/spore_stims/simple_15_A_a.gif","images/stimuli/spore_stims/simple_12_A_b.gif","forced_short","","8","simple_dissimilar","images/stimuli/spore_stims/simple_12_A_b.gif","","","","",""
"","null","html-keyboard-response","101","969680","0.0-25.0-0.5","SS1618435651451","","","null","","","","","","<p><img src= images/blank.png width =""600"" height = ""600"" style=""position:fixed;top:50%; left:50%; transform: translate(-50%, -50%); border:5px solid black"">","","","","","","","",""
"","4393.635000000359","sequential-stimulus-presentation-old","102","974584","0.0-25.0-1.5","SS1618435651451","trial","","40","500","4893.635000000359","images/stimuli/spore_stims/simple_15_A_a.gif","images/stimuli/spore_stims/simple_12_A_b.gif","forced_short","","8","simple_dissimilar","images/stimuli/spore_stims/simple_12_A_b.gif","","","","",""
"","2841.5099999983795","survey-multi-choice","103","977434","0.0-26.0","SS1618435651451","math_question","","","","","","","","","","","","{""Q0"":""10""}","[0]","10","",""
"","null","html-keyboard-response","104","978714","0.0-27.0-0.0","SS1618435651451","","","null","","","","","","<p><img src= images/blank.png width =""600"" height = ""600"" style=""position:fixed;top:50%; left:50%; transform: translate(-50%, -50%); border:5px solid black"">","","","","","","","",""
"","4822.2550000064075","sequential-stimulus-presentation-old","105","983600","0.0-27.0-1.0","SS1618435651451","trial","","40","500","5322.2550000064075","images/stimuli/spore_stims/complex_14_A_b.gif","images/stimuli/spore_stims/complex_02_A_a.gif","forced_short","","9","complex_dissimilar","images/stimuli/spore_stims/complex_02_A_a.gif","","","","",""
"","null","html-keyboard-response","106","984601","0.0-27.0-0.1","SS1618435651451","","","null","","","","","","<p><img src= images/blank.png width =""600"" height = ""600"" style=""position:fixed;top:50%; left:50%; transform: translate(-50%, -50%); border:5px solid black"">","","","","","","","",""
"","4287.940000009257","sequential-stimulus-presentation-old","107","989399","0.0-27.0-1.1","SS1618435651451","trial","","40","500","4787.940000009257","images/stimuli/spore_stims/complex_14_A_b.gif","images/stimuli/spore_stims/complex_02_A_a.gif","forced_short","","9","complex_dissimilar","images/stimuli/spore_stims/complex_02_A_a.gif","","","","",""
"","null","html-keyboard-response","108","990611","0.0-27.0-0.2","SS1618435651451","","","null","","","","","","<p><img src= images/blank.png width =""600"" height = ""600"" style=""position:fixed;top:50%; left:50%; transform: translate(-50%, -50%); border:5px solid black"">","","","","","","","",""
"","4448.020000010729","sequential-stimulus-presentation-old","109","995570","0.0-27.0-1.2","SS1618435651451","trial","","40","500","4948.020000010729","images/stimuli/spore_stims/complex_14_A_b.gif","images/stimuli/spore_stims/complex_02_A_a.gif","forced_short","","9","complex_dissimilar","images/stimuli/spore_stims/complex_02_A_a.gif","","","","",""
"","null","html-keyboard-response","110","996645","0.0-27.0-0.3","SS1618435651451","","","null","","","","","","<p><img src= images/blank.png width =""600"" height = ""600"" style=""position:fixed;top:50%; left:50%; transform: translate(-50%, -50%); border:5px solid black"">","","","","","","","",""
"","1654.2449999978999","sequential-stimulus-presentation-old","111","998810","0.0-27.0-1.3","SS1618435651451","trial","","40","500","2154.2449999979","images/stimuli/spore_stims/complex_14_A_b.gif","images/stimuli/spore_stims/complex_02_A_a.gif","forced_short","","9","complex_dissimilar","images/stimuli/spore_stims/complex_02_A_a.gif","","","","",""
"","3400.0399999931687","survey-multi-choice","112","1002219","0.0-28.0","SS1618435651451","math_question","","","","","","","","","","","","{""Q0"":""3""}","[0]","3","",""
"","null","html-keyboard-response","113","1003258","0.0-29.0-0.0","SS1618435651451","","","null","","","","","","<p><img src= images/blank.png width =""600"" height = ""600"" style=""position:fixed;top:50%; left:50%; transform: translate(-50%, -50%); border:5px solid black"">","","","","","","","",""
"","1115.9950000001118","sequential-stimulus-presentation-old","114","1009386","0.0-29.0-1.0","SS1618435651451","trial","","40","500","1615.9950000001118","images/stimuli/spore_stims/simple_16_A_b.gif","images/stimuli/spore_stims/simple_12_A_a.gif","forced_long","","10","simple_dissimilar","images/stimuli/spore_stims/simple_12_A_a.gif","","","","",""
"","null","html-keyboard-response","115","1010590","0.0-29.0-0.1","SS1618435651451","","","null","","","","","","<p><img src= images/blank.png width =""600"" height = ""600"" style=""position:fixed;top:50%; left:50%; transform: translate(-50%, -50%); border:5px solid black"">","","","","","","","",""
"","5230.680000007851","sequential-stimulus-presentation-old","116","1016333","0.0-29.0-1.1","SS1618435651451","trial","","40","500","5730.680000007851","images/stimuli/spore_stims/simple_16_A_b.gif","images/stimuli/spore_stims/simple_12_A_a.gif","forced_long","","10","simple_dissimilar","images/stimuli/spore_stims/simple_16_A_b.gif","","","","",""
"","null","html-keyboard-response","117","1017325","0.0-29.0-0.2","SS1618435651451","","","null","","","","","","<p><img src= images/blank.png width =""600"" height = ""600"" style=""position:fixed;top:50%; left:50%; transform: translate(-50%, -50%); border:5px solid black"">","","","","","","","",""
"","2994.8999999905936","sequential-stimulus-presentation-old","118","1020833","0.0-29.0-1.2","SS1618435651451","trial","","40","500","3494.8999999905936","images/stimuli/spore_stims/simple_16_A_b.gif","images/stimuli/spore_stims/simple_12_A_a.gif","forced_long","","10","simple_dissimilar","images/stimuli/spore_stims/simple_16_A_b.gif","","","","",""
"","null","html-keyboard-response","119","1021823","0.0-29.0-0.3","SS1618435651451","","","null","","","","","","<p><img src= images/blank.png width =""600"" height = ""600"" style=""position:fixed;top:50%; left:50%; transform: translate(-50%, -50%); border:5px solid black"">","","","","","","","",""
"","6968.479999995907","sequential-stimulus-presentation-old","120","1029303","0.0-29.0-1.3","SS1618435651451","trial","","40","500","7468.479999995907","images/stimuli/spore_stims/simple_16_A_b.gif","images/stimuli/spore_stims/simple_12_A_a.gif","forced_long","","10","simple_dissimilar","images/stimuli/spore_stims/simple_12_A_a.gif","","","","",""
"","2653.8199999922654","survey-multi-choice","121","1031964","0.0-30.0","SS1618435651451","math_question","","","","","","","","","","","","{""Q0"":""10""}","[0]","10","",""
"","null","html-keyboard-response","122","1033053","0.0-31.0-0.0","SS1618435651451","","","null","","","","","","<p><img src= images/blank.png width =""600"" height = ""600"" style=""position:fixed;top:50%; left:50%; transform: translate(-50%, -50%); border:5px solid black"">","","","","","","","",""
"","501.984999995213","sequential-stimulus-presentation-old","123","1038567","0.0-31.0-1.0","SS1618435651451","trial","","40","500","1001.984999995213","images/stimuli/spore_stims/complex_16_A_b.gif","images/stimuli/spore_stims/complex_12_A_a.gif","forced_long","","11","complex_dissimilar","images/stimuli/spore_stims/complex_12_A_a.gif","","","","",""
"","null","html-keyboard-response","124","1039423","0.0-31.0-0.1","SS1618435651451","","","null","","","","","","<p><img src= images/blank.png width =""600"" height = ""600"" style=""position:fixed;top:50%; left:50%; transform: translate(-50%, -50%); border:5px solid black"">","","","","","","","",""
"","4033.19999999064","sequential-stimulus-presentation-old","125","1043967","0.0-31.0-1.1","SS1618435651451","trial","","40","500","4533.19999999064","images/stimuli/spore_stims/complex_16_A_b.gif","images/stimuli/spore_stims/complex_12_A_a.gif","forced_long","","11","complex_dissimilar","images/stimuli/spore_stims/complex_12_A_a.gif","","","","",""
"","null","html-keyboard-response","126","1045094","0.0-31.0-0.2","SS1618435651451","","","null","","","","","","<p><img src= images/blank.png width =""600"" height = ""600"" style=""position:fixed;top:50%; left:50%; transform: translate(-50%, -50%); border:5px solid black"">","","","","","","","",""
"","3043.5499999874737","sequential-stimulus-presentation-old","127","1048651","0.0-31.0-1.2","SS1618435651451","trial","","40","500","3543.5499999874737","images/stimuli/spore_stims/complex_16_A_b.gif","images/stimuli/spore_stims/complex_12_A_a.gif","forced_long","","11","complex_dissimilar","images/stimuli/spore_stims/complex_16_A_b.gif","","","","",""
"","null","html-keyboard-response","128","1049683","0.0-31.0-0.3","SS1618435651451","","","null","","","","","","<p><img src= images/blank.png width =""600"" height = ""600"" style=""position:fixed;top:50%; left:50%; transform: translate(-50%, -50%); border:5px solid black"">","","","","","","","",""
"","3190.0549999992363","sequential-stimulus-presentation-old","129","1053385","0.0-31.0-1.3","SS1618435651451","trial","","40","500","3690.0549999992363","images/stimuli/spore_stims/complex_16_A_b.gif","images/stimuli/spore_stims/complex_12_A_a.gif","forced_long","","11","complex_dissimilar","images/stimuli/spore_stims/complex_16_A_b.gif","","","","",""
"","null","html-keyboard-response","130","1054556","0.0-31.0-0.4","SS1618435651451","","","null","","","","","","<p><img src= images/blank.png width =""600"" height = ""600"" style=""position:fixed;top:50%; left:50%; transform: translate(-50%, -50%); border:5px solid black"">","","","","","","","",""
"","1939.4100000062026","sequential-stimulus-presentation-old","131","1057007","0.0-31.0-1.4","SS1618435651451","trial","","40","500","2439.4100000062026","images/stimuli/spore_stims/complex_16_A_b.gif","images/stimuli/spore_stims/complex_12_A_a.gif","forced_long","","11","complex_dissimilar","images/stimuli/spore_stims/complex_12_A_a.gif","","","","",""
"[{""page_index"":0,""viewing_time"":2311.224999997532}]","2311.5499999984168","instructions","132","1059327","0.0-32.0","SS1618435651451","instructions","","","","","","","","","","","","","","","",""
"","6997.7099999962375","survey-likert","133","1066329","0.0-33.0","SS1618435651451","similarity_question","","","","","","","","","","","","{""Q0"":1}","[0]","","images/stimuli/spore_stims/simple_06_A_a.gif","images/stimuli/spore_stims/simple_14_A_b.gif"
"","5850.2850000076","survey-likert","134","1072185","0.0-34.0","SS1618435651451","similarity_question","","","","","","","","","","","","{""Q0"":4}","[0]","","images/stimuli/spore_stims/simple_16_A_b.gif","images/stimuli/spore_stims/simple_12_A_a.gif"
"","7841.014999998035","survey-likert","135","1080030","0.0-35.0","SS1618435651451","similarity_question","","","","","","","","","","","","{""Q0"":1}","[0]","","images/stimuli/spore_stims/simple_07_A_b.gif","images/stimuli/spore_stims/simple_04_A_a.gif"
"","11513.249999988824","survey-likert","136","1091549","0.0-36.0","SS1618435651451","similarity_question","","","","","","","","","","","","{""Q0"":4}","[0]","","images/stimuli/spore_stims/complex_01_A_a.gif","images/stimuli/spore_stims/complex_03_A_b.gif"
"","6292.155000002822","survey-likert","137","1097845","0.0-37.0","SS1618435651451","similarity_question","","","","","","","","","","","","{""Q0"":5}","[0]","","images/stimuli/spore_stims/complex_14_A_b.gif","images/stimuli/spore_stims/complex_02_A_a.gif"
"","8194.77500001085","survey-likert","138","1106045","0.0-38.0","SS1618435651451","similarity_question","","","","","","","","","","","","{""Q0"":2}","[0]","","images/stimuli/spore_stims/complex_17_A_b.gif","images/stimuli/spore_stims/complex_08_A_a.gif"
"","5067.790000000969","survey-likert","139","1111118","0.0-39.0","SS1618435651451","similarity_question","","","","","","","","","","","","{""Q0"":1}","[0]","","images/stimuli/spore_stims/complex_05_A_b.gif","images/stimuli/spore_stims/complex_17_A_a.gif"
"","6134.750000011874","survey-likert","140","1117258","0.0-40.0","SS1618435651451","similarity_question","","","","","","","","","","","","{""Q0"":1}","[0]","","images/stimuli/spore_stims/complex_16_A_b.gif","images/stimuli/spore_stims/complex_12_A_a.gif"
"","8093.829999998212","survey-likert","141","1125356","0.0-41.0","SS1618435651451","similarity_question","","","","","","","","","","","","{""Q0"":4}","[0]","","images/stimuli/spore_stims/complex_06_A_b.gif","images/stimuli/spore_stims/complex_09_A_a.gif"
"","7530.594999989262","survey-likert","142","1132892","0.0-42.0","SS1618435651451","similarity_question","","","","","","","","","","","","{""Q0"":5}","[0]","","images/stimuli/spore_stims/simple_15_A_b.gif","images/stimuli/spore_stims/simple_11_A_a.gif"
"","6304.115000006277","survey-likert","143","1139200","0.0-43.0","SS1618435651451","similarity_question","","","","","","","","","","","","{""Q0"":4}","[0]","","images/stimuli/spore_stims/simple_12_A_b.gif","images/stimuli/spore_stims/simple_15_A_a.gif"
"","7802.049999998417","survey-likert","144","1147007","0.0-44.0","SS1618435651451","similarity_question","","","","","","","","","","","","{""Q0"":3}","[0]","","images/stimuli/spore_stims/simple_17_A_a.gif","images/stimuli/spore_stims/simple_08_A_b.gif"
"[{""page_index"":0,""viewing_time"":4884.145000003511}]","4884.505000008969","instructions","145","1151895","0.0-45.0","SS1618435651451","instructions","","","","","","","","","","","","","","","",""
"","5354.9500000081025","survey-likert","146","1157254","0.0-46.0","SS1618435651451","","","","","","","","","images/stimuli/spore_stims/simple_06_A_a.gif","","","","{""Q0"":1}","[0]","","",""
"","5578.150000001071","survey-likert","147","1162837","0.0-47.0","SS1618435651451","","","","","","","","","images/stimuli/spore_stims/simple_04_A_a.gif","","","","{""Q0"":1}","[0]","","",""
"","5152.70000000624","survey-likert","148","1167994","0.0-48.0","SS1618435651451","","","","","","","","","images/stimuli/spore_stims/simple_11_A_a.gif","","","","{""Q0"":1}","[0]","","",""
"","5528.870000008959","survey-likert","149","1173529","0.0-49.0","SS1618435651451","","","","","","","","","images/stimuli/spore_stims/complex_12_A_a.gif","","","","{""Q0"":5}","[0]","","",""
"","5309.720000004629","survey-likert","150","1178843","0.0-50.0","SS1618435651451","","","","","","","","","images/stimuli/spore_stims/simple_12_A_a.gif","","","","{""Q0"":0}","[0]","","",""
"","2444.4050000018906","survey-likert","151","1181292","0.0-51.0","SS1618435651451","","","","","","","","","images/stimuli/spore_stims/simple_08_A_b.gif","","","","{""Q0"":0}","[0]","","",""
"","2829.704999996582","survey-likert","152","1184127","0.0-52.0","SS1618435651451","","","","","","","","","images/stimuli/spore_stims/complex_05_A_b.gif","","","","{""Q0"":5}","[0]","","",""
"","3042.7800000035204","survey-likert","153","1187174","0.0-53.0","SS1618435651451","","","","","","","","","images/stimuli/spore_stims/complex_14_A_b.gif","","","","{""Q0"":5}","[0]","","",""
"","3971.590000001248","survey-likert","154","1191151","0.0-54.0","SS1618435651451","","","","","","","","","images/stimuli/spore_stims/simple_12_A_b.gif","","","","{""Q0"":0}","[0]","","",""
"","5234.049999999115","survey-likert","155","1196391","0.0-55.0","SS1618435651451","","","","","","","","","images/stimuli/spore_stims/complex_09_A_a.gif","","","","{""Q0"":5}","[0]","","",""
"","3877.275000006426","survey-likert","156","1200273","0.0-56.0","SS1618435651451","","","","","","","","","images/stimuli/spore_stims/complex_01_A_a.gif","","","","{""Q0"":5}","[0]","","",""
"","3654.4250000005122","survey-likert","157","1203932","0.0-57.0","SS1618435651451","","","","","","","","","images/stimuli/spore_stims/complex_17_A_b.gif","","","","{""Q0"":4}","[0]","","",""
"[{""page_index"":0,""viewing_time"":1400.8349999929778}]","1401.1849999949336","instructions","158","1205338","0.0-58.0","SS1618435651451","instructions","","","","","","","","","","","","","","","",""
"","1669.6550000051502","demog-age","159","1207016","0.0-59.0","SS1618435651451","","","","","","","","","","","","","{""age"":""24""}","","","",""
"","2800.6200000089593","demog-ethnic-US","160","1209826","0.0-60.0","SS1618435651451","","","","","","","","","","","","","{""ethnicity"":[""White""]}","[0]","","",""
"","3981.8700000033714","demog-gender-and-education","161","1213813","0.0-61.0","SS1618435651451","","","","","","","","","","","","","{""gender"":""Male"",""education"":""High school diploma""}","[0,1]","","",""
"","4869.135000000708","survey-text","162","1218689","0.0-62.0","SS1618435651451","feedback","","","","","","","","","","","","{""Q0"":""no""}","","","",""
"[{""page_index"":0,""viewing_time"":1199.0649999934249}]","1199.3799999910407","instructions","163","1219893","0.0-63.0","SS1618435651451","instructions","","","","","","","","","","","","","","","",""
