"view_history","rt","trial_type","trial_index","time_elapsed","internal_node_id","subject","stimulus_type","trial_stimulus","key_press","minimum_viewing_duration","trial_looking_time","block_deviant","block_background","exposure_type","stimulus","block_number","block_type","stimulus_displayed","responses","question_order","math_correct_answer","stimulus_left","stimulus_right"
"[{""page_index"":0,""viewing_time"":69678.58500010334}]","69679.95000001974","instructions","0","69682","0.0-0.0","SS1618365876011","","","","","","","","","","","","","","","","",""
"[{""page_index"":0,""viewing_time"":16036.13999998197},{""page_index"":1,""viewing_time"":5018.394999904558}]","21055.015000049025","instructions","1","92740","0.0-1.0","SS1618365876011","instructions","","","","","","","","","","","","","","","",""
"","6499.509999994189","sequential-stimulus-presentation-old","2","99744","0.0-2.0","SS1618365876011","","","40","500","6999.509999994189","null","null","self_paced","","","","","","","","",""
"","8612.53000004217","sequential-stimulus-presentation-old","3","108866","0.0-3.0","SS1618365876011","","","40","500","9112.53000004217","null","null","self_paced","","","","","","","","",""
"[{""page_index"":0,""viewing_time"":23879.82499995269}]","23880.3149999585","instructions","4","132749","0.0-4.0","SS1618365876011","instructions","","","","","","","","","","","","","","","",""
"","7774.230000097305","sequential-stimulus-presentation-old","5","145535","0.0-5.0","SS1618365876011","","","40","500","8274.230000097305","null","null","forced_long","","","","","","","","",""
"","5164.0999999362975","sequential-stimulus-presentation-old","6","150753","0.0-6.0","SS1618365876011","","","40","50","5214.0999999362975","null","null","forced_long","","","","","","","","",""
"[{""page_index"":0,""viewing_time"":4147.890000138432}]","4148.329999996349","instructions","7","154902","0.0-7.0","SS1618365876011","instructions","","","","","","","","","","","","","","","",""
"[{""page_index"":0,""viewing_time"":12684.36500011012},{""page_index"":1,""viewing_time"":10032.214999897406},{""page_index"":2,""viewing_time"":5739.225000143051},{""page_index"":3,""viewing_time"":1537.419999949634},{""page_index"":4,""viewing_time"":1766.9649999588728}]","31760.675000026822","instructions","8","186664","0.0-8.0","SS1618365876011","instructions","","","","","","","","","","","","","","","",""
"","null","html-keyboard-response","9","187621","0.0-9.0-0.0","SS1618365876011","","","null","","","","","","<p><img src= images/blank.png width =""600"" height = ""600"" style=""position:fixed;top:50%; left:50%; transform: translate(-50%, -50%); border:5px solid black"">","","","","","","","",""
"","1546.6249999590218","sequential-stimulus-presentation-old","10","194184","0.0-9.0-1.0","SS1618365876011","trial","","40","500","2046.6249999590218","images/stimuli/spore_stims/complex_13_A_b.gif","images/stimuli/spore_stims/complex_07_A_a.gif","forced_long","","0","complex_dissimilar","images/stimuli/spore_stims/complex_07_A_a.gif","","","","",""
"","null","html-keyboard-response","11","195443","0.0-9.0-0.1","SS1618365876011","","","null","","","","","","<p><img src= images/blank.png width =""600"" height = ""600"" style=""position:fixed;top:50%; left:50%; transform: translate(-50%, -50%); border:5px solid black"">","","","","","","","",""
"","4600.305000087246","sequential-stimulus-presentation-old","12","200554","0.0-9.0-1.1","SS1618365876011","trial","","40","500","5100.305000087246","images/stimuli/spore_stims/complex_13_A_b.gif","images/stimuli/spore_stims/complex_07_A_a.gif","forced_long","","0","complex_dissimilar","images/stimuli/spore_stims/complex_13_A_b.gif","","","","",""
"","null","html-keyboard-response","13","201802","0.0-9.0-0.2","SS1618365876011","","","null","","","","","","<p><img src= images/blank.png width =""600"" height = ""600"" style=""position:fixed;top:50%; left:50%; transform: translate(-50%, -50%); border:5px solid black"">","","","","","","","",""
"","18331.159999826923","sequential-stimulus-presentation-old","14","220644","0.0-9.0-1.2","SS1618365876011","trial","","40","500","18831.159999826923","images/stimuli/spore_stims/complex_13_A_b.gif","images/stimuli/spore_stims/complex_07_A_a.gif","forced_long","","0","complex_dissimilar","images/stimuli/spore_stims/complex_07_A_a.gif","","","","",""
"","null","html-keyboard-response","15","221930","0.0-9.0-0.3","SS1618365876011","","","null","","","","","","<p><img src= images/blank.png width =""600"" height = ""600"" style=""position:fixed;top:50%; left:50%; transform: translate(-50%, -50%); border:5px solid black"">","","","","","","","",""
"","7513.479999965057","sequential-stimulus-presentation-old","16","229958","0.0-9.0-1.3","SS1618365876011","trial","","40","500","8013.479999965057","images/stimuli/spore_stims/complex_13_A_b.gif","images/stimuli/spore_stims/complex_07_A_a.gif","forced_long","","0","complex_dissimilar","images/stimuli/spore_stims/complex_07_A_a.gif","","","","",""
"","5551.819999935105","survey-multi-choice","17","235603","0.0-10.0","SS1618365876011","math_question","","","","","","","","","","","","{""Q0"":""11""}","[0]","11","",""
"","null","html-keyboard-response","18","236824","0.0-11.0-0.0","SS1618365876011","","","null","","","","","","<p><img src= images/blank.png width =""600"" height = ""600"" style=""position:fixed;top:50%; left:50%; transform: translate(-50%, -50%); border:5px solid black"">","","","","","","","",""
"","6320.27000002563","sequential-stimulus-presentation-old","19","243651","0.0-11.0-1.0","SS1618365876011","trial","","40","500","6820.27000002563","images/stimuli/spore_stims/complex_14_A_b.gif","images/stimuli/spore_stims/complex_12_A_a.gif","self_paced","","1","complex_dissimilar","images/stimuli/spore_stims/complex_12_A_a.gif","","","","",""
"","null","html-keyboard-response","20","244754","0.0-11.0-0.1","SS1618365876011","","","null","","","","","","<p><img src= images/blank.png width =""600"" height = ""600"" style=""position:fixed;top:50%; left:50%; transform: translate(-50%, -50%); border:5px solid black"">","","","","","","","",""
"","5025.965000037104","sequential-stimulus-presentation-old","21","250289","0.0-11.0-1.1","SS1618365876011","trial","","40","500","5525.965000037104","images/stimuli/spore_stims/complex_14_A_b.gif","images/stimuli/spore_stims/complex_12_A_a.gif","self_paced","","1","complex_dissimilar","images/stimuli/spore_stims/complex_12_A_a.gif","","","","",""
"","null","html-keyboard-response","22","251569","0.0-11.0-0.2","SS1618365876011","","","null","","","","","","<p><img src= images/blank.png width =""600"" height = ""600"" style=""position:fixed;top:50%; left:50%; transform: translate(-50%, -50%); border:5px solid black"">","","","","","","","",""
"","3424.665000056848","sequential-stimulus-presentation-old","23","255502","0.0-11.0-1.2","SS1618365876011","trial","","40","500","3924.665000056848","images/stimuli/spore_stims/complex_14_A_b.gif","images/stimuli/spore_stims/complex_12_A_a.gif","self_paced","","1","complex_dissimilar","images/stimuli/spore_stims/complex_12_A_a.gif","","","","",""
"","null","html-keyboard-response","24","256510","0.0-11.0-0.3","SS1618365876011","","","null","","","","","","<p><img src= images/blank.png width =""600"" height = ""600"" style=""position:fixed;top:50%; left:50%; transform: translate(-50%, -50%); border:5px solid black"">","","","","","","","",""
"","4819.219999946654","sequential-stimulus-presentation-old","25","261833","0.0-11.0-1.3","SS1618365876011","trial","","40","500","5319.219999946654","images/stimuli/spore_stims/complex_14_A_b.gif","images/stimuli/spore_stims/complex_12_A_a.gif","self_paced","","1","complex_dissimilar","images/stimuli/spore_stims/complex_12_A_a.gif","","","","",""
"","null","html-keyboard-response","26","262765","0.0-11.0-0.4","SS1618365876011","","","null","","","","","","<p><img src= images/blank.png width =""600"" height = ""600"" style=""position:fixed;top:50%; left:50%; transform: translate(-50%, -50%); border:5px solid black"">","","","","","","","",""
"","15434.364999877289","sequential-stimulus-presentation-old","27","278710","0.0-11.0-1.4","SS1618365876011","trial","","40","500","15934.364999877289","images/stimuli/spore_stims/complex_14_A_b.gif","images/stimuli/spore_stims/complex_12_A_a.gif","self_paced","","1","complex_dissimilar","images/stimuli/spore_stims/complex_14_A_b.gif","","","","",""
"","3909.3100000172853","survey-multi-choice","28","282622","0.0-12.0","SS1618365876011","math_question","","","","","","","","","","","","{""Q0"":""7""}","[0]","7","",""
"","null","html-keyboard-response","29","283638","0.0-13.0-0.0","SS1618365876011","","","null","","","","","","<p><img src= images/blank.png width =""600"" height = ""600"" style=""position:fixed;top:50%; left:50%; transform: translate(-50%, -50%); border:5px solid black"">","","","","","","","",""
"","4757.920000003651","sequential-stimulus-presentation-old","30","288458","0.0-13.0-1.0","SS1618365876011","trial","","40","500","5257.920000003651","images/stimuli/spore_stims/simple_13_A_a.gif","images/stimuli/spore_stims/simple_01_A_b.gif","forced_short","","2","simple_dissimilar","images/stimuli/spore_stims/simple_01_A_b.gif","","","","",""
"","null","html-keyboard-response","31","289671","0.0-13.0-0.1","SS1618365876011","","","null","","","","","","<p><img src= images/blank.png width =""600"" height = ""600"" style=""position:fixed;top:50%; left:50%; transform: translate(-50%, -50%); border:5px solid black"">","","","","","","","",""
"","3302.9100000858307","sequential-stimulus-presentation-old","32","293477","0.0-13.0-1.1","SS1618365876011","trial","","40","500","3802.9100000858307","images/stimuli/spore_stims/simple_13_A_a.gif","images/stimuli/spore_stims/simple_01_A_b.gif","forced_short","","2","simple_dissimilar","images/stimuli/spore_stims/simple_01_A_b.gif","","","","",""
"","null","html-keyboard-response","33","294670","0.0-13.0-0.2","SS1618365876011","","","null","","","","","","<p><img src= images/blank.png width =""600"" height = ""600"" style=""position:fixed;top:50%; left:50%; transform: translate(-50%, -50%); border:5px solid black"">","","","","","","","",""
"","3026.9299999345094","sequential-stimulus-presentation-old","34","298208","0.0-13.0-1.2","SS1618365876011","trial","","40","500","3526.9299999345094","images/stimuli/spore_stims/simple_13_A_a.gif","images/stimuli/spore_stims/simple_01_A_b.gif","forced_short","","2","simple_dissimilar","images/stimuli/spore_stims/simple_01_A_b.gif","","","","",""
"","null","html-keyboard-response","35","299086","0.0-13.0-0.3","SS1618365876011","","","null","","","","","","<p><img src= images/blank.png width =""600"" height = ""600"" style=""position:fixed;top:50%; left:50%; transform: translate(-50%, -50%); border:5px solid black"">","","","","","","","",""
"","1741.8599999509752","sequential-stimulus-presentation-old","36","301343","0.0-13.0-1.3","SS1618365876011","trial","","40","500","2241.859999950975","images/stimuli/spore_stims/simple_13_A_a.gif","images/stimuli/spore_stims/simple_01_A_b.gif","forced_short","","2","simple_dissimilar","images/stimuli/spore_stims/simple_01_A_b.gif","","","","",""
"","null","html-keyboard-response","37","302385","0.0-13.0-0.4","SS1618365876011","","","null","","","","","","<p><img src= images/blank.png width =""600"" height = ""600"" style=""position:fixed;top:50%; left:50%; transform: translate(-50%, -50%); border:5px solid black"">","","","","","","","",""
"","2462.52500009723","sequential-stimulus-presentation-old","38","305365","0.0-13.0-1.4","SS1618365876011","trial","","40","500","2962.52500009723","images/stimuli/spore_stims/simple_13_A_a.gif","images/stimuli/spore_stims/simple_01_A_b.gif","forced_short","","2","simple_dissimilar","images/stimuli/spore_stims/simple_01_A_b.gif","","","","",""
"","3330.6149998679757","survey-multi-choice","39","308699","0.0-14.0","SS1618365876011","math_question","","","","","","","","","","","","{""Q0"":""12""}","[0]","12","",""
"","null","html-keyboard-response","40","309862","0.0-15.0-0.0","SS1618365876011","","","null","","","","","","<p><img src= images/blank.png width =""600"" height = ""600"" style=""position:fixed;top:50%; left:50%; transform: translate(-50%, -50%); border:5px solid black"">","","","","","","","",""
"","2333.229999989271","sequential-stimulus-presentation-old","41","312250","0.0-15.0-1.0","SS1618365876011","trial","","40","500","2833.229999989271","images/stimuli/spore_stims/simple_04_A_b.gif","images/stimuli/spore_stims/simple_16_A_a.gif","forced_short","","3","simple_dissimilar","images/stimuli/spore_stims/simple_16_A_a.gif","","","","",""
"","null","html-keyboard-response","42","313517","0.0-15.0-0.1","SS1618365876011","","","null","","","","","","<p><img src= images/blank.png width =""600"" height = ""600"" style=""position:fixed;top:50%; left:50%; transform: translate(-50%, -50%); border:5px solid black"">","","","","","","","",""
"","3319.595000008121","sequential-stimulus-presentation-old","43","317350","0.0-15.0-1.1","SS1618365876011","trial","","40","500","3819.595000008121","images/stimuli/spore_stims/simple_04_A_b.gif","images/stimuli/spore_stims/simple_16_A_a.gif","forced_short","","3","simple_dissimilar","images/stimuli/spore_stims/simple_16_A_a.gif","","","","",""
"","null","html-keyboard-response","44","318166","0.0-15.0-0.2","SS1618365876011","","","null","","","","","","<p><img src= images/blank.png width =""600"" height = ""600"" style=""position:fixed;top:50%; left:50%; transform: translate(-50%, -50%); border:5px solid black"">","","","","","","","",""
"","3245.0800000224262","sequential-stimulus-presentation-old","45","321919","0.0-15.0-1.2","SS1618365876011","trial","","40","500","3745.0800000224262","images/stimuli/spore_stims/simple_04_A_b.gif","images/stimuli/spore_stims/simple_16_A_a.gif","forced_short","","3","simple_dissimilar","images/stimuli/spore_stims/simple_16_A_a.gif","","","","",""
"","null","html-keyboard-response","46","322832","0.0-15.0-0.3","SS1618365876011","","","null","","","","","","<p><img src= images/blank.png width =""600"" height = ""600"" style=""position:fixed;top:50%; left:50%; transform: translate(-50%, -50%); border:5px solid black"">","","","","","","","",""
"","4108.40000002645","sequential-stimulus-presentation-old","47","327449","0.0-15.0-1.3","SS1618365876011","trial","","40","500","4608.40000002645","images/stimuli/spore_stims/simple_04_A_b.gif","images/stimuli/spore_stims/simple_16_A_a.gif","forced_short","","3","simple_dissimilar","images/stimuli/spore_stims/simple_04_A_b.gif","","","","",""
"","null","html-keyboard-response","48","328564","0.0-15.0-0.4","SS1618365876011","","","null","","","","","","<p><img src= images/blank.png width =""600"" height = ""600"" style=""position:fixed;top:50%; left:50%; transform: translate(-50%, -50%); border:5px solid black"">","","","","","","","",""
"","3334.054999984801","sequential-stimulus-presentation-old","49","332404","0.0-15.0-1.4","SS1618365876011","trial","","40","500","3834.054999984801","images/stimuli/spore_stims/simple_04_A_b.gif","images/stimuli/spore_stims/simple_16_A_a.gif","forced_short","","3","simple_dissimilar","images/stimuli/spore_stims/simple_04_A_b.gif","","","","",""
"","2901.1049999389797","survey-multi-choice","50","335308","0.0-16.0","SS1618365876011","math_question","","","","","","","","","","","","{""Q0"":""6""}","[0]","6","",""
"","null","html-keyboard-response","51","336543","0.0-17.0-0.0","SS1618365876011","","","null","","","","","","<p><img src= images/blank.png width =""600"" height = ""600"" style=""position:fixed;top:50%; left:50%; transform: translate(-50%, -50%); border:5px solid black"">","","","","","","","",""
"","3985.564999980852","sequential-stimulus-presentation-old","52","345543","0.0-17.0-1.0","SS1618365876011","trial","","40","500","4485.564999980852","images/stimuli/spore_stims/simple_10_A_a.gif","images/stimuli/spore_stims/simple_15_A_b.gif","forced_long","","4","simple_dissimilar","images/stimuli/spore_stims/simple_15_A_b.gif","","","","",""
"","null","html-keyboard-response","53","346758","0.0-17.0-0.1","SS1618365876011","","","null","","","","","","<p><img src= images/blank.png width =""600"" height = ""600"" style=""position:fixed;top:50%; left:50%; transform: translate(-50%, -50%); border:5px solid black"">","","","","","","","",""
"","4305.970000103116","sequential-stimulus-presentation-old","54","351668","0.0-17.0-1.1","SS1618365876011","trial","","40","500","4805.970000103116","images/stimuli/spore_stims/simple_10_A_a.gif","images/stimuli/spore_stims/simple_15_A_b.gif","forced_long","","4","simple_dissimilar","images/stimuli/spore_stims/simple_15_A_b.gif","","","","",""
"","null","html-keyboard-response","55","352553","0.0-17.0-0.2","SS1618365876011","","","null","","","","","","<p><img src= images/blank.png width =""600"" height = ""600"" style=""position:fixed;top:50%; left:50%; transform: translate(-50%, -50%); border:5px solid black"">","","","","","","","",""
"","2830.324999988079","sequential-stimulus-presentation-old","56","355890","0.0-17.0-1.2","SS1618365876011","trial","","40","500","3330.324999988079","images/stimuli/spore_stims/simple_10_A_a.gif","images/stimuli/spore_stims/simple_15_A_b.gif","forced_long","","4","simple_dissimilar","images/stimuli/spore_stims/simple_15_A_b.gif","","","","",""
"","null","html-keyboard-response","57","357177","0.0-17.0-0.3","SS1618365876011","","","null","","","","","","<p><img src= images/blank.png width =""600"" height = ""600"" style=""position:fixed;top:50%; left:50%; transform: translate(-50%, -50%); border:5px solid black"">","","","","","","","",""
"","3582.9400001093745","sequential-stimulus-presentation-old","58","361267","0.0-17.0-1.3","SS1618365876011","trial","","40","500","4082.9400001093745","images/stimuli/spore_stims/simple_10_A_a.gif","images/stimuli/spore_stims/simple_15_A_b.gif","forced_long","","4","simple_dissimilar","images/stimuli/spore_stims/simple_15_A_b.gif","","","","",""
"","null","html-keyboard-response","59","362120","0.0-17.0-0.4","SS1618365876011","","","null","","","","","","<p><img src= images/blank.png width =""600"" height = ""600"" style=""position:fixed;top:50%; left:50%; transform: translate(-50%, -50%); border:5px solid black"">","","","","","","","",""
"","3659.914999967441","sequential-stimulus-presentation-old","60","366286","0.0-17.0-1.4","SS1618365876011","trial","","40","500","4159.914999967441","images/stimuli/spore_stims/simple_10_A_a.gif","images/stimuli/spore_stims/simple_15_A_b.gif","forced_long","","4","simple_dissimilar","images/stimuli/spore_stims/simple_15_A_b.gif","","","","",""
"","3607.5999999884516","survey-multi-choice","61","369897","0.0-18.0","SS1618365876011","math_question","","","","","","","","","","","","{""Q0"":""15""}","[0]","15","",""
"","null","html-keyboard-response","62","370991","0.0-19.0-0.0","SS1618365876011","","","null","","","","","","<p><img src= images/blank.png width =""600"" height = ""600"" style=""position:fixed;top:50%; left:50%; transform: translate(-50%, -50%); border:5px solid black"">","","","","","","","",""
"","3758.5449998732656","sequential-stimulus-presentation-old","63","375266","0.0-19.0-1.0","SS1618365876011","trial","","40","500","4258.544999873266","images/stimuli/spore_stims/complex_01_A_b.gif","images/stimuli/spore_stims/complex_08_A_a.gif","self_paced","","5","complex_dissimilar","images/stimuli/spore_stims/complex_08_A_a.gif","","","","",""
"","null","html-keyboard-response","64","376490","0.0-19.0-0.1","SS1618365876011","","","null","","","","","","<p><img src= images/blank.png width =""600"" height = ""600"" style=""position:fixed;top:50%; left:50%; transform: translate(-50%, -50%); border:5px solid black"">","","","","","","","",""
"","1288.9100001193583","sequential-stimulus-presentation-old","65","378292","0.0-19.0-1.1","SS1618365876011","trial","","40","500","1788.9100001193583","images/stimuli/spore_stims/complex_01_A_b.gif","images/stimuli/spore_stims/complex_08_A_a.gif","self_paced","","5","complex_dissimilar","images/stimuli/spore_stims/complex_08_A_a.gif","","","","",""
"","null","html-keyboard-response","66","379588","0.0-19.0-0.2","SS1618365876011","","","null","","","","","","<p><img src= images/blank.png width =""600"" height = ""600"" style=""position:fixed;top:50%; left:50%; transform: translate(-50%, -50%); border:5px solid black"">","","","","","","","",""
"","1880.9450000990182","sequential-stimulus-presentation-old","67","381980","0.0-19.0-1.2","SS1618365876011","trial","","40","500","2380.945000099018","images/stimuli/spore_stims/complex_01_A_b.gif","images/stimuli/spore_stims/complex_08_A_a.gif","self_paced","","5","complex_dissimilar","images/stimuli/spore_stims/complex_08_A_a.gif","","","","",""
"","null","html-keyboard-response","68","382856","0.0-19.0-0.3","SS1618365876011","","","null","","","","","","<p><img src= images/blank.png width =""600"" height = ""600"" style=""position:fixed;top:50%; left:50%; transform: translate(-50%, -50%); border:5px solid black"">","","","","","","","",""
"","3098.759999964386","sequential-stimulus-presentation-old","69","386465","0.0-19.0-1.3","SS1618365876011","trial","","40","500","3598.759999964386","images/stimuli/spore_stims/complex_01_A_b.gif","images/stimuli/spore_stims/complex_08_A_a.gif","self_paced","","5","complex_dissimilar","images/stimuli/spore_stims/complex_01_A_b.gif","","","","",""
"","null","html-keyboard-response","70","387335","0.0-19.0-0.4","SS1618365876011","","","null","","","","","","<p><img src= images/blank.png width =""600"" height = ""600"" style=""position:fixed;top:50%; left:50%; transform: translate(-50%, -50%); border:5px solid black"">","","","","","","","",""
"","452.4149999488145","sequential-stimulus-presentation-old","71","388292","0.0-19.0-1.4","SS1618365876011","trial","","40","500","952.4149999488145","images/stimuli/spore_stims/complex_01_A_b.gif","images/stimuli/spore_stims/complex_08_A_a.gif","self_paced","","5","complex_dissimilar","images/stimuli/spore_stims/complex_08_A_a.gif","","","","",""
"","6278.300000121817","survey-multi-choice","72","394574","0.0-20.0","SS1618365876011","math_question","","","","","","","","","","","","{""Q0"":""14""}","[0]","14","",""
"","null","html-keyboard-response","73","395796","0.0-21.0-0.0","SS1618365876011","","","null","","","","","","<p><img src= images/blank.png width =""600"" height = ""600"" style=""position:fixed;top:50%; left:50%; transform: translate(-50%, -50%); border:5px solid black"">","","","","","","","",""
"","11183.535000076517","sequential-stimulus-presentation-old","74","411988","0.0-21.0-1.0","SS1618365876011","trial","","40","500","11683.535000076517","images/stimuli/spore_stims/complex_16_A_b.gif","images/stimuli/spore_stims/complex_04_A_a.gif","forced_long","","6","complex_dissimilar","images/stimuli/spore_stims/complex_04_A_a.gif","","","","",""
"","null","html-keyboard-response","75","412985","0.0-21.0-0.1","SS1618365876011","","","null","","","","","","<p><img src= images/blank.png width =""600"" height = ""600"" style=""position:fixed;top:50%; left:50%; transform: translate(-50%, -50%); border:5px solid black"">","","","","","","","",""
"","3582.135000033304","sequential-stimulus-presentation-old","76","417083","0.0-21.0-1.1","SS1618365876011","trial","","40","500","4082.135000033304","images/stimuli/spore_stims/complex_16_A_b.gif","images/stimuli/spore_stims/complex_04_A_a.gif","forced_long","","6","complex_dissimilar","images/stimuli/spore_stims/complex_04_A_a.gif","","","","",""
"","null","html-keyboard-response","77","418265","0.0-21.0-0.2","SS1618365876011","","","null","","","","","","<p><img src= images/blank.png width =""600"" height = ""600"" style=""position:fixed;top:50%; left:50%; transform: translate(-50%, -50%); border:5px solid black"">","","","","","","","",""
"","3993.484999984503","sequential-stimulus-presentation-old","78","422770","0.0-21.0-1.2","SS1618365876011","trial","","40","500","4493.484999984503","images/stimuli/spore_stims/complex_16_A_b.gif","images/stimuli/spore_stims/complex_04_A_a.gif","forced_long","","6","complex_dissimilar","images/stimuli/spore_stims/complex_04_A_a.gif","","","","",""
"","null","html-keyboard-response","79","423716","0.0-21.0-0.3","SS1618365876011","","","null","","","","","","<p><img src= images/blank.png width =""600"" height = ""600"" style=""position:fixed;top:50%; left:50%; transform: translate(-50%, -50%); border:5px solid black"">","","","","","","","",""
"","3064.520000014454","sequential-stimulus-presentation-old","80","427298","0.0-21.0-1.3","SS1618365876011","trial","","40","500","3564.520000014454","images/stimuli/spore_stims/complex_16_A_b.gif","images/stimuli/spore_stims/complex_04_A_a.gif","forced_long","","6","complex_dissimilar","images/stimuli/spore_stims/complex_04_A_a.gif","","","","",""
"","null","html-keyboard-response","81","428171","0.0-21.0-0.4","SS1618365876011","","","null","","","","","","<p><img src= images/blank.png width =""600"" height = ""600"" style=""position:fixed;top:50%; left:50%; transform: translate(-50%, -50%); border:5px solid black"">","","","","","","","",""
"","4275.11000004597","sequential-stimulus-presentation-old","82","432956","0.0-21.0-1.4","SS1618365876011","trial","","40","500","4775.11000004597","images/stimuli/spore_stims/complex_16_A_b.gif","images/stimuli/spore_stims/complex_04_A_a.gif","forced_long","","6","complex_dissimilar","images/stimuli/spore_stims/complex_04_A_a.gif","","","","",""
"","null","html-keyboard-response","83","434031","0.0-21.0-0.5","SS1618365876011","","","null","","","","","","<p><img src= images/blank.png width =""600"" height = ""600"" style=""position:fixed;top:50%; left:50%; transform: translate(-50%, -50%); border:5px solid black"">","","","","","","","",""
"","2688.8449999969453","sequential-stimulus-presentation-old","84","437225","0.0-21.0-1.5","SS1618365876011","trial","","40","500","3188.8449999969453","images/stimuli/spore_stims/complex_16_A_b.gif","images/stimuli/spore_stims/complex_04_A_a.gif","forced_long","","6","complex_dissimilar","images/stimuli/spore_stims/complex_04_A_a.gif","","","","",""
"","4896.464999997988","survey-multi-choice","85","442125","0.0-22.0","SS1618365876011","math_question","","","","","","","","","","","","{""Q0"":""13""}","[0]","13","",""
"","null","html-keyboard-response","86","443063","0.0-23.0-0.0","SS1618365876011","","","null","","","","","","<p><img src= images/blank.png width =""600"" height = ""600"" style=""position:fixed;top:50%; left:50%; transform: translate(-50%, -50%); border:5px solid black"">","","","","","","","",""
"","1989.8649998940527","sequential-stimulus-presentation-old","87","445570","0.0-23.0-1.0","SS1618365876011","trial","","40","500","2489.8649998940527","images/stimuli/spore_stims/simple_08_A_a.gif","images/stimuli/spore_stims/simple_18_A_b.gif","self_paced","","7","simple_dissimilar","images/stimuli/spore_stims/simple_18_A_b.gif","","","","",""
"","null","html-keyboard-response","88","446463","0.0-23.0-0.1","SS1618365876011","","","null","","","","","","<p><img src= images/blank.png width =""600"" height = ""600"" style=""position:fixed;top:50%; left:50%; transform: translate(-50%, -50%); border:5px solid black"">","","","","","","","",""
"","1758.475000038743","sequential-stimulus-presentation-old","89","448738","0.0-23.0-1.1","SS1618365876011","trial","","40","500","2258.475000038743","images/stimuli/spore_stims/simple_08_A_a.gif","images/stimuli/spore_stims/simple_18_A_b.gif","self_paced","","7","simple_dissimilar","images/stimuli/spore_stims/simple_18_A_b.gif","","","","",""
"","null","html-keyboard-response","90","449874","0.0-23.0-0.2","SS1618365876011","","","null","","","","","","<p><img src= images/blank.png width =""600"" height = ""600"" style=""position:fixed;top:50%; left:50%; transform: translate(-50%, -50%); border:5px solid black"">","","","","","","","",""
"","1895.225000102073","sequential-stimulus-presentation-old","91","452276","0.0-23.0-1.2","SS1618365876011","trial","","40","500","2395.225000102073","images/stimuli/spore_stims/simple_08_A_a.gif","images/stimuli/spore_stims/simple_18_A_b.gif","self_paced","","7","simple_dissimilar","images/stimuli/spore_stims/simple_18_A_b.gif","","","","",""
"","null","html-keyboard-response","92","453560","0.0-23.0-0.3","SS1618365876011","","","null","","","","","","<p><img src= images/blank.png width =""600"" height = ""600"" style=""position:fixed;top:50%; left:50%; transform: translate(-50%, -50%); border:5px solid black"">","","","","","","","",""
"","2862.999999895692","sequential-stimulus-presentation-old","93","456933","0.0-23.0-1.3","SS1618365876011","trial","","40","500","3362.999999895692","images/stimuli/spore_stims/simple_08_A_a.gif","images/stimuli/spore_stims/simple_18_A_b.gif","self_paced","","7","simple_dissimilar","images/stimuli/spore_stims/simple_08_A_a.gif","","","","",""
"","null","html-keyboard-response","94","458053","0.0-23.0-0.4","SS1618365876011","","","null","","","","","","<p><img src= images/blank.png width =""600"" height = ""600"" style=""position:fixed;top:50%; left:50%; transform: translate(-50%, -50%); border:5px solid black"">","","","","","","","",""
"","3592.170000076294","sequential-stimulus-presentation-old","95","462153","0.0-23.0-1.4","SS1618365876011","trial","","40","500","4092.170000076294","images/stimuli/spore_stims/simple_08_A_a.gif","images/stimuli/spore_stims/simple_18_A_b.gif","self_paced","","7","simple_dissimilar","images/stimuli/spore_stims/simple_18_A_b.gif","","","","",""
"","null","html-keyboard-response","96","463138","0.0-23.0-0.5","SS1618365876011","","","null","","","","","","<p><img src= images/blank.png width =""600"" height = ""600"" style=""position:fixed;top:50%; left:50%; transform: translate(-50%, -50%); border:5px solid black"">","","","","","","","",""
"","1927.5850001722574","sequential-stimulus-presentation-old","97","465571","0.0-23.0-1.5","SS1618365876011","trial","","40","500","2427.5850001722574","images/stimuli/spore_stims/simple_08_A_a.gif","images/stimuli/spore_stims/simple_18_A_b.gif","self_paced","","7","simple_dissimilar","images/stimuli/spore_stims/simple_08_A_a.gif","","","","",""
"","3643.6749999411404","survey-multi-choice","98","469218","0.0-24.0","SS1618365876011","math_question","","","","","","","","","","","","{""Q0"":""9""}","[0]","9","",""
"","null","html-keyboard-response","99","470300","0.0-25.0-0.0","SS1618365876011","","","null","","","","","","<p><img src= images/blank.png width =""600"" height = ""600"" style=""position:fixed;top:50%; left:50%; transform: translate(-50%, -50%); border:5px solid black"">","","","","","","","",""
"","1172.8450001683086","sequential-stimulus-presentation-old","100","476478","0.0-25.0-1.0","SS1618365876011","trial","","40","500","1672.8450001683086","images/stimuli/spore_stims/simple_17_A_b.gif","images/stimuli/spore_stims/simple_09_A_a.gif","forced_long","","8","simple_dissimilar","images/stimuli/spore_stims/simple_09_A_a.gif","","","","",""
"","null","html-keyboard-response","101","477340","0.0-25.0-0.1","SS1618365876011","","","null","","","","","","<p><img src= images/blank.png width =""600"" height = ""600"" style=""position:fixed;top:50%; left:50%; transform: translate(-50%, -50%); border:5px solid black"">","","","","","","","",""
"","4563.340000109747","sequential-stimulus-presentation-old","102","482417","0.0-25.0-1.1","SS1618365876011","trial","","40","500","5063.340000109747","images/stimuli/spore_stims/simple_17_A_b.gif","images/stimuli/spore_stims/simple_09_A_a.gif","forced_long","","8","simple_dissimilar","images/stimuli/spore_stims/simple_17_A_b.gif","","","","",""
"","null","html-keyboard-response","103","483623","0.0-25.0-0.2","SS1618365876011","","","null","","","","","","<p><img src= images/blank.png width =""600"" height = ""600"" style=""position:fixed;top:50%; left:50%; transform: translate(-50%, -50%); border:5px solid black"">","","","","","","","",""
"","4136.0800000838935","sequential-stimulus-presentation-old","104","488276","0.0-25.0-1.2","SS1618365876011","trial","","40","500","4636.0800000838935","images/stimuli/spore_stims/simple_17_A_b.gif","images/stimuli/spore_stims/simple_09_A_a.gif","forced_long","","8","simple_dissimilar","images/stimuli/spore_stims/simple_09_A_a.gif","","","","",""
"","null","html-keyboard-response","105","489488","0.0-25.0-0.3","SS1618365876011","","","null","","","","","","<p><img src= images/blank.png width =""600"" height = ""600"" style=""position:fixed;top:50%; left:50%; transform: translate(-50%, -50%); border:5px solid black"">","","","","","","","",""
"","2855.4100000765175","sequential-stimulus-presentation-old","106","492856","0.0-25.0-1.3","SS1618365876011","trial","","40","500","3355.4100000765175","images/stimuli/spore_stims/simple_17_A_b.gif","images/stimuli/spore_stims/simple_09_A_a.gif","forced_long","","8","simple_dissimilar","images/stimuli/spore_stims/simple_09_A_a.gif","","","","",""
"","null","html-keyboard-response","107","494021","0.0-25.0-0.4","SS1618365876011","","","null","","","","","","<p><img src= images/blank.png width =""600"" height = ""600"" style=""position:fixed;top:50%; left:50%; transform: translate(-50%, -50%); border:5px solid black"">","","","","","","","",""
"","3926.8050000537187","sequential-stimulus-presentation-old","108","498454","0.0-25.0-1.4","SS1618365876011","trial","","40","500","4426.805000053719","images/stimuli/spore_stims/simple_17_A_b.gif","images/stimuli/spore_stims/simple_09_A_a.gif","forced_long","","8","simple_dissimilar","images/stimuli/spore_stims/simple_09_A_a.gif","","","","",""
"","3224.1899999789894","survey-multi-choice","109","501684","0.0-26.0","SS1618365876011","math_question","","","","","","","","","","","","{""Q0"":""3""}","[0]","3","",""
"","null","html-keyboard-response","110","502703","0.0-27.0-0.0","SS1618365876011","","","null","","","","","","<p><img src= images/blank.png width =""600"" height = ""600"" style=""position:fixed;top:50%; left:50%; transform: translate(-50%, -50%); border:5px solid black"">","","","","","","","",""
"","1561.5899998228997","sequential-stimulus-presentation-old","111","504330","0.0-27.0-1.0","SS1618365876011","trial","","40","500","2061.5899998228997","images/stimuli/spore_stims/complex_11_A_b.gif","images/stimuli/spore_stims/complex_01_A_a.gif","forced_short","","9","complex_dissimilar","images/stimuli/spore_stims/complex_01_A_a.gif","","","","",""
"","null","html-keyboard-response","112","505336","0.0-27.0-0.1","SS1618365876011","","","null","","","","","","<p><img src= images/blank.png width =""600"" height = ""600"" style=""position:fixed;top:50%; left:50%; transform: translate(-50%, -50%); border:5px solid black"">","","","","","","","",""
"","3188.6999998241663","sequential-stimulus-presentation-old","113","509043","0.0-27.0-1.1","SS1618365876011","trial","","40","500","3688.6999998241663","images/stimuli/spore_stims/complex_11_A_b.gif","images/stimuli/spore_stims/complex_01_A_a.gif","forced_short","","9","complex_dissimilar","images/stimuli/spore_stims/complex_01_A_a.gif","","","","",""
"","null","html-keyboard-response","114","510335","0.0-27.0-0.2","SS1618365876011","","","null","","","","","","<p><img src= images/blank.png width =""600"" height = ""600"" style=""position:fixed;top:50%; left:50%; transform: translate(-50%, -50%); border:5px solid black"">","","","","","","","",""
"","1453.504999866709","sequential-stimulus-presentation-old","115","512304","0.0-27.0-1.2","SS1618365876011","trial","","40","500","1953.504999866709","images/stimuli/spore_stims/complex_11_A_b.gif","images/stimuli/spore_stims/complex_01_A_a.gif","forced_short","","9","complex_dissimilar","images/stimuli/spore_stims/complex_01_A_a.gif","","","","",""
"","null","html-keyboard-response","116","513184","0.0-27.0-0.3","SS1618365876011","","","null","","","","","","<p><img src= images/blank.png width =""600"" height = ""600"" style=""position:fixed;top:50%; left:50%; transform: translate(-50%, -50%); border:5px solid black"">","","","","","","","",""
"","2705.55999991484","sequential-stimulus-presentation-old","117","516398","0.0-27.0-1.3","SS1618365876011","trial","","40","500","3205.55999991484","images/stimuli/spore_stims/complex_11_A_b.gif","images/stimuli/spore_stims/complex_01_A_a.gif","forced_short","","9","complex_dissimilar","images/stimuli/spore_stims/complex_01_A_a.gif","","","","",""
"","null","html-keyboard-response","118","517582","0.0-27.0-0.4","SS1618365876011","","","null","","","","","","<p><img src= images/blank.png width =""600"" height = ""600"" style=""position:fixed;top:50%; left:50%; transform: translate(-50%, -50%); border:5px solid black"">","","","","","","","",""
"","5015.339999925345","sequential-stimulus-presentation-old","119","523111","0.0-27.0-1.4","SS1618365876011","trial","","40","500","5515.339999925345","images/stimuli/spore_stims/complex_11_A_b.gif","images/stimuli/spore_stims/complex_01_A_a.gif","forced_short","","9","complex_dissimilar","images/stimuli/spore_stims/complex_11_A_b.gif","","","","",""
"","null","html-keyboard-response","120","524216","0.0-27.0-0.5","SS1618365876011","","","null","","","","","","<p><img src= images/blank.png width =""600"" height = ""600"" style=""position:fixed;top:50%; left:50%; transform: translate(-50%, -50%); border:5px solid black"">","","","","","","","",""
"","1876.600000075996","sequential-stimulus-presentation-old","121","526600","0.0-27.0-1.5","SS1618365876011","trial","","40","500","2376.600000075996","images/stimuli/spore_stims/complex_11_A_b.gif","images/stimuli/spore_stims/complex_01_A_a.gif","forced_short","","9","complex_dissimilar","images/stimuli/spore_stims/complex_01_A_a.gif","","","","",""
"","6468.3550000190735","survey-multi-choice","122","533072","0.0-28.0","SS1618365876011","math_question","","","","","","","","","","","","{""Q0"":""11""}","[0]","11","",""
"","null","html-keyboard-response","123","533948","0.0-29.0-0.0","SS1618365876011","","","null","","","","","","<p><img src= images/blank.png width =""600"" height = ""600"" style=""position:fixed;top:50%; left:50%; transform: translate(-50%, -50%); border:5px solid black"">","","","","","","","",""
"","3228.480000048876","sequential-stimulus-presentation-old","124","537232","0.0-29.0-1.0","SS1618365876011","trial","","40","500","3728.480000048876","images/stimuli/spore_stims/complex_20_A_b.gif","images/stimuli/spore_stims/complex_02_A_a.gif","forced_short","","10","complex_dissimilar","images/stimuli/spore_stims/complex_02_A_a.gif","","","","",""
"","null","html-keyboard-response","125","538324","0.0-29.0-0.1","SS1618365876011","","","null","","","","","","<p><img src= images/blank.png width =""600"" height = ""600"" style=""position:fixed;top:50%; left:50%; transform: translate(-50%, -50%); border:5px solid black"">","","","","","","","",""
"","2614.1200000420213","sequential-stimulus-presentation-old","126","541446","0.0-29.0-1.1","SS1618365876011","trial","","40","500","3114.1200000420213","images/stimuli/spore_stims/complex_20_A_b.gif","images/stimuli/spore_stims/complex_02_A_a.gif","forced_short","","10","complex_dissimilar","images/stimuli/spore_stims/complex_02_A_a.gif","","","","",""
"","null","html-keyboard-response","127","542413","0.0-29.0-0.2","SS1618365876011","","","null","","","","","","<p><img src= images/blank.png width =""600"" height = ""600"" style=""position:fixed;top:50%; left:50%; transform: translate(-50%, -50%); border:5px solid black"">","","","","","","","",""
"","3448.335000080988","sequential-stimulus-presentation-old","128","546378","0.0-29.0-1.2","SS1618365876011","trial","","40","500","3948.335000080988","images/stimuli/spore_stims/complex_20_A_b.gif","images/stimuli/spore_stims/complex_02_A_a.gif","forced_short","","10","complex_dissimilar","images/stimuli/spore_stims/complex_02_A_a.gif","","","","",""
"","null","html-keyboard-response","129","547631","0.0-29.0-0.3","SS1618365876011","","","null","","","","","","<p><img src= images/blank.png width =""600"" height = ""600"" style=""position:fixed;top:50%; left:50%; transform: translate(-50%, -50%); border:5px solid black"">","","","","","","","",""
"","1656.3049999531358","sequential-stimulus-presentation-old","130","549803","0.0-29.0-1.3","SS1618365876011","trial","","40","500","2156.304999953136","images/stimuli/spore_stims/complex_20_A_b.gif","images/stimuli/spore_stims/complex_02_A_a.gif","forced_short","","10","complex_dissimilar","images/stimuli/spore_stims/complex_02_A_a.gif","","","","",""
"","3338.950000004843","survey-multi-choice","131","553146","0.0-30.0","SS1618365876011","math_question","","","","","","","","","","","","{""Q0"":""10""}","[0]","10","",""
"","null","html-keyboard-response","132","554245","0.0-31.0-0.0","SS1618365876011","","","null","","","","","","<p><img src= images/blank.png width =""600"" height = ""600"" style=""position:fixed;top:50%; left:50%; transform: translate(-50%, -50%); border:5px solid black"">","","","","","","","",""
"","1524.900000076741","sequential-stimulus-presentation-old","133","556287","0.0-31.0-1.0","SS1618365876011","trial","","40","500","2024.900000076741","images/stimuli/spore_stims/simple_16_A_b.gif","images/stimuli/spore_stims/simple_14_A_a.gif","self_paced","","11","simple_dissimilar","images/stimuli/spore_stims/simple_14_A_a.gif","","","","",""
"","null","html-keyboard-response","134","557220","0.0-31.0-0.1","SS1618365876011","","","null","","","","","","<p><img src= images/blank.png width =""600"" height = ""600"" style=""position:fixed;top:50%; left:50%; transform: translate(-50%, -50%); border:5px solid black"">","","","","","","","",""
"","1326.4699999708682","sequential-stimulus-presentation-old","135","559055","0.0-31.0-1.1","SS1618365876011","trial","","40","500","1826.4699999708682","images/stimuli/spore_stims/simple_16_A_b.gif","images/stimuli/spore_stims/simple_14_A_a.gif","self_paced","","11","simple_dissimilar","images/stimuli/spore_stims/simple_14_A_a.gif","","","","",""
"","null","html-keyboard-response","136","560094","0.0-31.0-0.2","SS1618365876011","","","null","","","","","","<p><img src= images/blank.png width =""600"" height = ""600"" style=""position:fixed;top:50%; left:50%; transform: translate(-50%, -50%); border:5px solid black"">","","","","","","","",""
"","1937.2499999590218","sequential-stimulus-presentation-old","137","562549","0.0-31.0-1.2","SS1618365876011","trial","","40","500","2437.249999959022","images/stimuli/spore_stims/simple_16_A_b.gif","images/stimuli/spore_stims/simple_14_A_a.gif","self_paced","","11","simple_dissimilar","images/stimuli/spore_stims/simple_14_A_a.gif","","","","",""
"","null","html-keyboard-response","138","563460","0.0-31.0-0.3","SS1618365876011","","","null","","","","","","<p><img src= images/blank.png width =""600"" height = ""600"" style=""position:fixed;top:50%; left:50%; transform: translate(-50%, -50%); border:5px solid black"">","","","","","","","",""
"","2383.8499998673797","sequential-stimulus-presentation-old","139","566350","0.0-31.0-1.3","SS1618365876011","trial","","40","500","2883.8499998673797","images/stimuli/spore_stims/simple_16_A_b.gif","images/stimuli/spore_stims/simple_14_A_a.gif","self_paced","","11","simple_dissimilar","images/stimuli/spore_stims/simple_16_A_b.gif","","","","",""
"","null","html-keyboard-response","140","567542","0.0-31.0-0.4","SS1618365876011","","","null","","","","","","<p><img src= images/blank.png width =""600"" height = ""600"" style=""position:fixed;top:50%; left:50%; transform: translate(-50%, -50%); border:5px solid black"">","","","","","","","",""
"","2595.7649999763817","sequential-stimulus-presentation-old","141","570651","0.0-31.0-1.4","SS1618365876011","trial","","40","500","3095.7649999763817","images/stimuli/spore_stims/simple_16_A_b.gif","images/stimuli/spore_stims/simple_14_A_a.gif","self_paced","","11","simple_dissimilar","images/stimuli/spore_stims/simple_14_A_a.gif","","","","",""
"[{""page_index"":0,""viewing_time"":4811.479999916628}]","4812.679999973625","instructions","142","575467","0.0-32.0","SS1618365876011","instructions","","","","","","","","","","","","","","","",""
"","11900.834999978542","survey-likert","143","587373","0.0-33.0","SS1618365876011","similarity_question","","","","","","","","","","","","{""Q0"":1}","[0]","","images/stimuli/spore_stims/complex_16_A_b.gif","images/stimuli/spore_stims/complex_04_A_a.gif"
"","6984.165000030771","survey-likert","144","594364","0.0-34.0","SS1618365876011","similarity_question","","","","","","","","","","","","{""Q0"":2}","[0]","","images/stimuli/spore_stims/complex_07_A_a.gif","images/stimuli/spore_stims/complex_13_A_b.gif"
"","5553.719999967143","survey-likert","145","599924","0.0-35.0","SS1618365876011","similarity_question","","","","","","","","","","","","{""Q0"":0}","[0]","","images/stimuli/spore_stims/complex_20_A_b.gif","images/stimuli/spore_stims/complex_02_A_a.gif"
"","7163.750000065193","survey-likert","146","607095","0.0-36.0","SS1618365876011","similarity_question","","","","","","","","","","","","{""Q0"":5}","[0]","","images/stimuli/spore_stims/simple_13_A_a.gif","images/stimuli/spore_stims/simple_01_A_b.gif"
"","4058.0500001087785","survey-likert","147","611159","0.0-37.0","SS1618365876011","similarity_question","","","","","","","","","","","","{""Q0"":0}","[0]","","images/stimuli/spore_stims/complex_11_A_b.gif","images/stimuli/spore_stims/complex_01_A_a.gif"
"","5106.965000042692","survey-likert","148","616272","0.0-38.0","SS1618365876011","similarity_question","","","","","","","","","","","","{""Q0"":4}","[0]","","images/stimuli/spore_stims/simple_17_A_b.gif","images/stimuli/spore_stims/simple_09_A_a.gif"
"","3163.3149997796863","survey-likert","149","619441","0.0-39.0","SS1618365876011","similarity_question","","","","","","","","","","","","{""Q0"":4}","[0]","","images/stimuli/spore_stims/simple_18_A_b.gif","images/stimuli/spore_stims/simple_08_A_a.gif"
"","5829.304999904707","survey-likert","150","625276","0.0-40.0","SS1618365876011","similarity_question","","","","","","","","","","","","{""Q0"":1}","[0]","","images/stimuli/spore_stims/complex_08_A_a.gif","images/stimuli/spore_stims/complex_01_A_b.gif"
"","4442.499999888241","survey-likert","151","629726","0.0-41.0","SS1618365876011","similarity_question","","","","","","","","","","","","{""Q0"":5}","[0]","","images/stimuli/spore_stims/simple_16_A_b.gif","images/stimuli/spore_stims/simple_14_A_a.gif"
"","5838.080000132322","survey-likert","152","635572","0.0-42.0","SS1618365876011","similarity_question","","","","","","","","","","","","{""Q0"":2}","[0]","","images/stimuli/spore_stims/simple_16_A_a.gif","images/stimuli/spore_stims/simple_04_A_b.gif"
"","3531.0049999970943","survey-likert","153","639110","0.0-43.0","SS1618365876011","similarity_question","","","","","","","","","","","","{""Q0"":4}","[0]","","images/stimuli/spore_stims/simple_10_A_a.gif","images/stimuli/spore_stims/simple_15_A_b.gif"
"","4754.745000042021","survey-likert","154","643871","0.0-44.0","SS1618365876011","similarity_question","","","","","","","","","","","","{""Q0"":0}","[0]","","images/stimuli/spore_stims/complex_14_A_b.gif","images/stimuli/spore_stims/complex_12_A_a.gif"
"[{""page_index"":0,""viewing_time"":4705.19999996759}]","4705.684999935329","instructions","155","648581","0.0-45.0","SS1618365876011","instructions","","","","","","","","","","","","","","","",""
"","4362.994999857619","survey-likert","156","652950","0.0-46.0","SS1618365876011","","","","","","","","","images/stimuli/spore_stims/simple_04_A_b.gif","","","","{""Q0"":0}","[0]","","",""
"","2460.9850000124425","survey-likert","157","655417","0.0-47.0","SS1618365876011","","","","","","","","","images/stimuli/spore_stims/simple_10_A_a.gif","","","","{""Q0"":0}","[0]","","",""
"","3775.66000004299","survey-likert","158","659199","0.0-48.0","SS1618365876011","","","","","","","","","images/stimuli/spore_stims/complex_12_A_a.gif","","","","{""Q0"":4}","[0]","","",""
"","3341.7849999386817","survey-likert","159","662548","0.0-49.0","SS1618365876011","","","","","","","","","images/stimuli/spore_stims/simple_18_A_b.gif","","","","{""Q0"":0}","[0]","","",""
"","3214.054999873042","survey-likert","160","665768","0.0-50.0","SS1618365876011","","","","","","","","","images/stimuli/spore_stims/complex_20_A_b.gif","","","","{""Q0"":4}","[0]","","",""
"","6201.205000048503","survey-likert","161","671975","0.0-51.0","SS1618365876011","","","","","","","","","images/stimuli/spore_stims/complex_07_A_a.gif","","","","{""Q0"":4}","[0]","","",""
"","4164.509999798611","survey-likert","162","676145","0.0-52.0","SS1618365876011","","","","","","","","","images/stimuli/spore_stims/simple_16_A_b.gif","","","","{""Q0"":0}","[0]","","",""
"","3693.5900000389665","survey-likert","163","679845","0.0-53.0","SS1618365876011","","","","","","","","","images/stimuli/spore_stims/simple_13_A_a.gif","","","","{""Q0"":0}","[0]","","",""
"","2684.529999969527","survey-likert","164","682535","0.0-54.0","SS1618365876011","","","","","","","","","images/stimuli/spore_stims/simple_09_A_a.gif","","","","{""Q0"":0}","[0]","","",""
"","2869.080000091344","survey-likert","165","685411","0.0-55.0","SS1618365876011","","","","","","","","","images/stimuli/spore_stims/complex_16_A_b.gif","","","","{""Q0"":4}","[0]","","",""
"","7582.9749999102205","survey-likert","166","693001","0.0-56.0","SS1618365876011","","","","","","","","","images/stimuli/spore_stims/complex_01_A_b.gif","","","","{""Q0"":3}","[0]","","",""
"","2925.4699999000877","survey-likert","167","695934","0.0-57.0","SS1618365876011","","","","","","","","","images/stimuli/spore_stims/complex_01_A_a.gif","","","","{""Q0"":3}","[0]","","",""
"[{""page_index"":0,""viewing_time"":1684.4450000207871}]","1684.8599999211729","instructions","168","697623","0.0-58.0","SS1618365876011","instructions","","","","","","","","","","","","","","","",""
"","3348.4100000932813","demog-age","169","700979","0.0-59.0","SS1618365876011","","","","","","","","","","","","","{""age"":""46""}","","","",""
"","3467.865000013262","demog-ethnic-US","170","704456","0.0-60.0","SS1618365876011","","","","","","","","","","","","","{""ethnicity"":[""Hispanic or Latino""]}","[0]","","",""
"","6162.370000034571","demog-gender-and-education","171","710625","0.0-61.0","SS1618365876011","","","","","","","","","","","","","{""gender"":""Female"",""education"":""High school diploma""}","[0,1]","","",""
"","4882.005000021309","survey-text","172","715515","0.0-62.0","SS1618365876011","feedback","","","","","","","","","","","","{""Q0"":""no""}","","","",""
"[{""page_index"":0,""viewing_time"":5225.404999917373}]","5225.829999893904","instructions","173","720746","0.0-63.0","SS1618365876011","instructions","","","","","","","","","","","","","","","",""
