"view_history","rt","trial_type","trial_index","time_elapsed","internal_node_id","subject","stimulus_type","trial_stimulus","key_press","minimum_viewing_duration","trial_looking_time","block_deviant","block_background","exposure_type","stimulus","block_number","block_type","stimulus_displayed","responses","question_order","math_correct_answer","stimulus_left","stimulus_right"
"[{""page_index"":0,""viewing_time"":9072.479999973439}]","9073.150000011083","instructions","0","9075","0.0-0.0","SS1618435644614","","","","","","","","","","","","","","","","",""
"[{""page_index"":0,""viewing_time"":11682.559999986552},{""page_index"":1,""viewing_time"":5829.945000004955}]","17512.745000014547","instructions","1","28602","0.0-1.0","SS1618435644614","instructions","","","","","","","","","","","","","","","",""
"","8552.525000006426","sequential-stimulus-presentation-old","2","37659","0.0-2.0","SS1618435644614","","","40","500","9052.525000006426","null","null","self_paced","","","","","","","","",""
"","2648.1500000227243","sequential-stimulus-presentation-old","3","40810","0.0-3.0","SS1618435644614","","","40","500","3148.1500000227243","null","null","self_paced","","","","","","","","",""
"[{""page_index"":0,""viewing_time"":14634.399999980815}]","14634.66999999946","instructions","4","55446","0.0-4.0","SS1618435644614","instructions","","","","","","","","","","","","","","","",""
"","13713.525000028312","sequential-stimulus-presentation-old","5","74170","0.0-5.0","SS1618435644614","","","40","500","14213.525000028312","null","null","forced_long","","","","","","","","",""
"","8950.499999977183","sequential-stimulus-presentation-old","6","83178","0.0-6.0","SS1618435644614","","","40","50","9000.499999977183","null","null","forced_long","","","","","","","","",""
"[{""page_index"":0,""viewing_time"":7234.745000023395}]","7235.039999999572","instructions","7","90415","0.0-7.0","SS1618435644614","instructions","","","","","","","","","","","","","","","",""
"[{""page_index"":0,""viewing_time"":4740.225000015926},{""page_index"":1,""viewing_time"":13007.894999987911},{""page_index"":2,""viewing_time"":3387.9650000017136},{""page_index"":3,""viewing_time"":1225.994999986142},{""page_index"":4,""viewing_time"":1000.0700000091456}]","23362.40500002168","instructions","8","113778","0.0-8.0","SS1618435644614","instructions","","","","","","","","","","","","","","","",""
"","null","html-keyboard-response","9","114765","0.0-9.0-0.0","SS1618435644614","","","null","","","","","","<p><img src= images/blank.png width =""600"" height = ""600"" style=""position:fixed;top:50%; left:50%; transform: translate(-50%, -50%); border:5px solid black"">","","","","","","","",""
"","5174.289999995381","sequential-stimulus-presentation-old","10","124946","0.0-9.0-1.0","SS1618435644614","trial","","40","500","5674.289999995381","images/stimuli/spore_stims/simple_13_A_b.gif","images/stimuli/spore_stims/simple_11_A_a.gif","forced_long","","0","simple_dissimilar","images/stimuli/spore_stims/simple_11_A_a.gif","","","","",""
"","null","html-keyboard-response","11","126047","0.0-9.0-0.1","SS1618435644614","","","null","","","","","","<p><img src= images/blank.png width =""600"" height = ""600"" style=""position:fixed;top:50%; left:50%; transform: translate(-50%, -50%); border:5px solid black"">","","","","","","","",""
"","18201.579999993555","sequential-stimulus-presentation-old","12","144755","0.0-9.0-1.1","SS1618435644614","trial","","40","500","18701.579999993555","images/stimuli/spore_stims/simple_13_A_b.gif","images/stimuli/spore_stims/simple_11_A_a.gif","forced_long","","0","simple_dissimilar","images/stimuli/spore_stims/simple_13_A_b.gif","","","","",""
"","null","html-keyboard-response","13","145740","0.0-9.0-0.2","SS1618435644614","","","null","","","","","","<p><img src= images/blank.png width =""600"" height = ""600"" style=""position:fixed;top:50%; left:50%; transform: translate(-50%, -50%); border:5px solid black"">","","","","","","","",""
"","12374.700000043958","sequential-stimulus-presentation-old","14","158619","0.0-9.0-1.2","SS1618435644614","trial","","40","500","12874.700000043958","images/stimuli/spore_stims/simple_13_A_b.gif","images/stimuli/spore_stims/simple_11_A_a.gif","forced_long","","0","simple_dissimilar","images/stimuli/spore_stims/simple_13_A_b.gif","","","","",""
"","null","html-keyboard-response","15","159881","0.0-9.0-0.3","SS1618435644614","","","null","","","","","","<p><img src= images/blank.png width =""600"" height = ""600"" style=""position:fixed;top:50%; left:50%; transform: translate(-50%, -50%); border:5px solid black"">","","","","","","","",""
"","13016.370000026654","sequential-stimulus-presentation-old","16","173403","0.0-9.0-1.3","SS1618435644614","trial","","40","500","13516.370000026654","images/stimuli/spore_stims/simple_13_A_b.gif","images/stimuli/spore_stims/simple_11_A_a.gif","forced_long","","0","simple_dissimilar","images/stimuli/spore_stims/simple_11_A_a.gif","","","","",""
"","5127.929999958724","survey-multi-choice","17","178536","0.0-10.0","SS1618435644614","math_question","","","","","","","","","","","","{""Q0"":""15""}","[0]","15","",""
"","null","html-keyboard-response","18","179760","0.0-11.0-0.0","SS1618435644614","","","null","","","","","","<p><img src= images/blank.png width =""600"" height = ""600"" style=""position:fixed;top:50%; left:50%; transform: translate(-50%, -50%); border:5px solid black"">","","","","","","","",""
"","12573.574999987613","sequential-stimulus-presentation-old","19","192843","0.0-11.0-1.0","SS1618435644614","trial","","40","500","13073.574999987613","images/stimuli/spore_stims/complex_17_A_a.gif","images/stimuli/spore_stims/complex_02_A_b.gif","self_paced","","1","complex_dissimilar","images/stimuli/spore_stims/complex_02_A_b.gif","","","","",""
"","null","html-keyboard-response","20","193801","0.0-11.0-0.1","SS1618435644614","","","null","","","","","","<p><img src= images/blank.png width =""600"" height = ""600"" style=""position:fixed;top:50%; left:50%; transform: translate(-50%, -50%); border:5px solid black"">","","","","","","","",""
"","9950.965000025462","sequential-stimulus-presentation-old","21","204266","0.0-11.0-1.1","SS1618435644614","trial","","40","500","10450.965000025462","images/stimuli/spore_stims/complex_17_A_a.gif","images/stimuli/spore_stims/complex_02_A_b.gif","self_paced","","1","complex_dissimilar","images/stimuli/spore_stims/complex_17_A_a.gif","","","","",""
"","null","html-keyboard-response","22","205496","0.0-11.0-0.2","SS1618435644614","","","null","","","","","","<p><img src= images/blank.png width =""600"" height = ""600"" style=""position:fixed;top:50%; left:50%; transform: translate(-50%, -50%); border:5px solid black"">","","","","","","","",""
"","15927.705000038259","sequential-stimulus-presentation-old","23","221938","0.0-11.0-1.2","SS1618435644614","trial","","40","500","16427.70500003826","images/stimuli/spore_stims/complex_17_A_a.gif","images/stimuli/spore_stims/complex_02_A_b.gif","self_paced","","1","complex_dissimilar","images/stimuli/spore_stims/complex_02_A_b.gif","","","","",""
"","null","html-keyboard-response","24","223187","0.0-11.0-0.3","SS1618435644614","","","null","","","","","","<p><img src= images/blank.png width =""600"" height = ""600"" style=""position:fixed;top:50%; left:50%; transform: translate(-50%, -50%); border:5px solid black"">","","","","","","","",""
"","15657.984999998007","sequential-stimulus-presentation-old","25","239355","0.0-11.0-1.3","SS1618435644614","trial","","40","500","16157.984999998007","images/stimuli/spore_stims/complex_17_A_a.gif","images/stimuli/spore_stims/complex_02_A_b.gif","self_paced","","1","complex_dissimilar","images/stimuli/spore_stims/complex_02_A_b.gif","","","","",""
"","null","html-keyboard-response","26","240472","0.0-11.0-0.4","SS1618435644614","","","null","","","","","","<p><img src= images/blank.png width =""600"" height = ""600"" style=""position:fixed;top:50%; left:50%; transform: translate(-50%, -50%); border:5px solid black"">","","","","","","","",""
"","13812.014999974053","sequential-stimulus-presentation-old","27","254795","0.0-11.0-1.4","SS1618435644614","trial","","40","500","14312.014999974053","images/stimuli/spore_stims/complex_17_A_a.gif","images/stimuli/spore_stims/complex_02_A_b.gif","self_paced","","1","complex_dissimilar","images/stimuli/spore_stims/complex_02_A_b.gif","","","","",""
"","null","html-keyboard-response","28","255710","0.0-11.0-0.5","SS1618435644614","","","null","","","","","","<p><img src= images/blank.png width =""600"" height = ""600"" style=""position:fixed;top:50%; left:50%; transform: translate(-50%, -50%); border:5px solid black"">","","","","","","","",""
"","13795.169999997597","sequential-stimulus-presentation-old","29","270010","0.0-11.0-1.5","SS1618435644614","trial","","40","500","14295.169999997597","images/stimuli/spore_stims/complex_17_A_a.gif","images/stimuli/spore_stims/complex_02_A_b.gif","self_paced","","1","complex_dissimilar","images/stimuli/spore_stims/complex_17_A_a.gif","","","","",""
"","3343.8399999868125","survey-multi-choice","30","273358","0.0-12.0","SS1618435644614","math_question","","","","","","","","","","","","{""Q0"":""6""}","[0]","6","",""
"","null","html-keyboard-response","31","274614","0.0-13.0-0.0","SS1618435644614","","","null","","","","","","<p><img src= images/blank.png width =""600"" height = ""600"" style=""position:fixed;top:50%; left:50%; transform: translate(-50%, -50%); border:5px solid black"">","","","","","","","",""
"","2340.8499999786727","sequential-stimulus-presentation-old","32","277018","0.0-13.0-1.0","SS1618435644614","trial","","40","500","2840.8499999786727","images/stimuli/spore_stims/simple_01_A_b.gif","images/stimuli/spore_stims/simple_13_A_a.gif","forced_short","","2","simple_dissimilar","images/stimuli/spore_stims/simple_13_A_a.gif","","","","",""
"","null","html-keyboard-response","33","277845","0.0-13.0-0.1","SS1618435644614","","","null","","","","","","<p><img src= images/blank.png width =""600"" height = ""600"" style=""position:fixed;top:50%; left:50%; transform: translate(-50%, -50%); border:5px solid black"">","","","","","","","",""
"","5810.049999970943","sequential-stimulus-presentation-old","34","284162","0.0-13.0-1.1","SS1618435644614","trial","","40","500","6310.049999970943","images/stimuli/spore_stims/simple_01_A_b.gif","images/stimuli/spore_stims/simple_13_A_a.gif","forced_short","","2","simple_dissimilar","images/stimuli/spore_stims/simple_13_A_a.gif","","","","",""
"","null","html-keyboard-response","35","285418","0.0-13.0-0.2","SS1618435644614","","","null","","","","","","<p><img src= images/blank.png width =""600"" height = ""600"" style=""position:fixed;top:50%; left:50%; transform: translate(-50%, -50%); border:5px solid black"">","","","","","","","",""
"","6493.980000028387","sequential-stimulus-presentation-old","36","292418","0.0-13.0-1.2","SS1618435644614","trial","","40","500","6993.980000028387","images/stimuli/spore_stims/simple_01_A_b.gif","images/stimuli/spore_stims/simple_13_A_a.gif","forced_short","","2","simple_dissimilar","images/stimuli/spore_stims/simple_13_A_a.gif","","","","",""
"","null","html-keyboard-response","37","293364","0.0-13.0-0.3","SS1618435644614","","","null","","","","","","<p><img src= images/blank.png width =""600"" height = ""600"" style=""position:fixed;top:50%; left:50%; transform: translate(-50%, -50%); border:5px solid black"">","","","","","","","",""
"","1099.7549999738112","sequential-stimulus-presentation-old","38","294971","0.0-13.0-1.3","SS1618435644614","trial","","40","500","1599.7549999738112","images/stimuli/spore_stims/simple_01_A_b.gif","images/stimuli/spore_stims/simple_13_A_a.gif","forced_short","","2","simple_dissimilar","images/stimuli/spore_stims/simple_01_A_b.gif","","","","",""
"","2942.6150000072084","survey-multi-choice","39","297917","0.0-14.0","SS1618435644614","math_question","","","","","","","","","","","","{""Q0"":""16""}","[0]","16","",""
"","null","html-keyboard-response","40","298914","0.0-15.0-0.0","SS1618435644614","","","null","","","","","","<p><img src= images/blank.png width =""600"" height = ""600"" style=""position:fixed;top:50%; left:50%; transform: translate(-50%, -50%); border:5px solid black"">","","","","","","","",""
"","2420.685000019148","sequential-stimulus-presentation-old","41","301842","0.0-15.0-1.0","SS1618435644614","trial","","40","500","2920.685000019148","images/stimuli/spore_stims/simple_09_A_a.gif","images/stimuli/spore_stims/simple_12_A_b.gif","self_paced","","3","simple_dissimilar","images/stimuli/spore_stims/simple_12_A_b.gif","","","","",""
"","null","html-keyboard-response","42","302924","0.0-15.0-0.1","SS1618435644614","","","null","","","","","","<p><img src= images/blank.png width =""600"" height = ""600"" style=""position:fixed;top:50%; left:50%; transform: translate(-50%, -50%); border:5px solid black"">","","","","","","","",""
"","1580.5149999796413","sequential-stimulus-presentation-old","43","305010","0.0-15.0-1.1","SS1618435644614","trial","","40","500","2080.5149999796413","images/stimuli/spore_stims/simple_09_A_a.gif","images/stimuli/spore_stims/simple_12_A_b.gif","self_paced","","3","simple_dissimilar","images/stimuli/spore_stims/simple_12_A_b.gif","","","","",""
"","null","html-keyboard-response","44","306004","0.0-15.0-0.2","SS1618435644614","","","null","","","","","","<p><img src= images/blank.png width =""600"" height = ""600"" style=""position:fixed;top:50%; left:50%; transform: translate(-50%, -50%); border:5px solid black"">","","","","","","","",""
"","3595.260000030976","sequential-stimulus-presentation-old","45","310106","0.0-15.0-1.2","SS1618435644614","trial","","40","500","4095.260000030976","images/stimuli/spore_stims/simple_09_A_a.gif","images/stimuli/spore_stims/simple_12_A_b.gif","self_paced","","3","simple_dissimilar","images/stimuli/spore_stims/simple_12_A_b.gif","","","","",""
"","null","html-keyboard-response","46","311116","0.0-15.0-0.3","SS1618435644614","","","null","","","","","","<p><img src= images/blank.png width =""600"" height = ""600"" style=""position:fixed;top:50%; left:50%; transform: translate(-50%, -50%); border:5px solid black"">","","","","","","","",""
"","3478.3600000082515","sequential-stimulus-presentation-old","47","315106","0.0-15.0-1.3","SS1618435644614","trial","","40","500","3978.3600000082515","images/stimuli/spore_stims/simple_09_A_a.gif","images/stimuli/spore_stims/simple_12_A_b.gif","self_paced","","3","simple_dissimilar","images/stimuli/spore_stims/simple_12_A_b.gif","","","","",""
"","3056.7250000312924","survey-multi-choice","48","318166","0.0-16.0","SS1618435644614","math_question","","","","","","","","","","","","{""Q0"":""7""}","[0]","7","",""
"","null","html-keyboard-response","49","319019","0.0-17.0-0.0","SS1618435644614","","","null","","","","","","<p><img src= images/blank.png width =""600"" height = ""600"" style=""position:fixed;top:50%; left:50%; transform: translate(-50%, -50%); border:5px solid black"">","","","","","","","",""
"","353.53999998187646","sequential-stimulus-presentation-old","50","324378","0.0-17.0-1.0","SS1618435644614","trial","","40","500","853.5399999818765","images/stimuli/spore_stims/complex_07_A_a.gif","images/stimuli/spore_stims/complex_09_A_b.gif","forced_long","","4","complex_dissimilar","images/stimuli/spore_stims/complex_09_A_b.gif","","","","",""
"","null","html-keyboard-response","51","325498","0.0-17.0-0.1","SS1618435644614","","","null","","","","","","<p><img src= images/blank.png width =""600"" height = ""600"" style=""position:fixed;top:50%; left:50%; transform: translate(-50%, -50%); border:5px solid black"">","","","","","","","",""
"","6822.299999999814","sequential-stimulus-presentation-old","52","332826","0.0-17.0-1.1","SS1618435644614","trial","","40","500","7322.299999999814","images/stimuli/spore_stims/complex_07_A_a.gif","images/stimuli/spore_stims/complex_09_A_b.gif","forced_long","","4","complex_dissimilar","images/stimuli/spore_stims/complex_09_A_b.gif","","","","",""
"","null","html-keyboard-response","53","334003","0.0-17.0-0.2","SS1618435644614","","","null","","","","","","<p><img src= images/blank.png width =""600"" height = ""600"" style=""position:fixed;top:50%; left:50%; transform: translate(-50%, -50%); border:5px solid black"">","","","","","","","",""
"","6668.424999981653","sequential-stimulus-presentation-old","54","341178","0.0-17.0-1.2","SS1618435644614","trial","","40","500","7168.424999981653","images/stimuli/spore_stims/complex_07_A_a.gif","images/stimuli/spore_stims/complex_09_A_b.gif","forced_long","","4","complex_dissimilar","images/stimuli/spore_stims/complex_07_A_a.gif","","","","",""
"","null","html-keyboard-response","55","342413","0.0-17.0-0.3","SS1618435644614","","","null","","","","","","<p><img src= images/blank.png width =""600"" height = ""600"" style=""position:fixed;top:50%; left:50%; transform: translate(-50%, -50%); border:5px solid black"">","","","","","","","",""
"","12738.094999978784","sequential-stimulus-presentation-old","56","355658","0.0-17.0-1.3","SS1618435644614","trial","","40","500","13238.094999978784","images/stimuli/spore_stims/complex_07_A_a.gif","images/stimuli/spore_stims/complex_09_A_b.gif","forced_long","","4","complex_dissimilar","images/stimuli/spore_stims/complex_09_A_b.gif","","","","",""
"","null","html-keyboard-response","57","356676","0.0-17.0-0.4","SS1618435644614","","","null","","","","","","<p><img src= images/blank.png width =""600"" height = ""600"" style=""position:fixed;top:50%; left:50%; transform: translate(-50%, -50%); border:5px solid black"">","","","","","","","",""
"","4366.119999962393","sequential-stimulus-presentation-old","58","361554","0.0-17.0-1.4","SS1618435644614","trial","","40","500","4866.119999962393","images/stimuli/spore_stims/complex_07_A_a.gif","images/stimuli/spore_stims/complex_09_A_b.gif","forced_long","","4","complex_dissimilar","images/stimuli/spore_stims/complex_09_A_b.gif","","","","",""
"","null","html-keyboard-response","59","362716","0.0-17.0-0.5","SS1618435644614","","","null","","","","","","<p><img src= images/blank.png width =""600"" height = ""600"" style=""position:fixed;top:50%; left:50%; transform: translate(-50%, -50%); border:5px solid black"">","","","","","","","",""
"","10923.034999985248","sequential-stimulus-presentation-old","60","374146","0.0-17.0-1.5","SS1618435644614","trial","","40","500","11423.034999985248","images/stimuli/spore_stims/complex_07_A_a.gif","images/stimuli/spore_stims/complex_09_A_b.gif","forced_long","","4","complex_dissimilar","images/stimuli/spore_stims/complex_09_A_b.gif","","","","",""
"","2819.290000014007","survey-multi-choice","61","376970","0.0-18.0","SS1618435644614","math_question","","","","","","","","","","","","{""Q0"":""10""}","[0]","10","",""
"","null","html-keyboard-response","62","378039","0.0-19.0-0.0","SS1618435644614","","","null","","","","","","<p><img src= images/blank.png width =""600"" height = ""600"" style=""position:fixed;top:50%; left:50%; transform: translate(-50%, -50%); border:5px solid black"">","","","","","","","",""
"","527.8699999907985","sequential-stimulus-presentation-old","63","383578","0.0-19.0-1.0","SS1618435644614","trial","","40","500","1027.8699999907985","images/stimuli/spore_stims/simple_19_A_b.gif","images/stimuli/spore_stims/simple_01_A_a.gif","forced_long","","5","simple_dissimilar","images/stimuli/spore_stims/simple_01_A_a.gif","","","","",""
"","null","html-keyboard-response","64","384665","0.0-19.0-0.1","SS1618435644614","","","null","","","","","","<p><img src= images/blank.png width =""600"" height = ""600"" style=""position:fixed;top:50%; left:50%; transform: translate(-50%, -50%); border:5px solid black"">","","","","","","","",""
"","3455.4700000444427","sequential-stimulus-presentation-old","65","388634","0.0-19.0-1.1","SS1618435644614","trial","","40","500","3955.4700000444427","images/stimuli/spore_stims/simple_19_A_b.gif","images/stimuli/spore_stims/simple_01_A_a.gif","forced_long","","5","simple_dissimilar","images/stimuli/spore_stims/simple_01_A_a.gif","","","","",""
"","null","html-keyboard-response","66","389902","0.0-19.0-0.2","SS1618435644614","","","null","","","","","","<p><img src= images/blank.png width =""600"" height = ""600"" style=""position:fixed;top:50%; left:50%; transform: translate(-50%, -50%); border:5px solid black"">","","","","","","","",""
"","5839.600000006612","sequential-stimulus-presentation-old","67","396258","0.0-19.0-1.2","SS1618435644614","trial","","40","500","6339.600000006612","images/stimuli/spore_stims/simple_19_A_b.gif","images/stimuli/spore_stims/simple_01_A_a.gif","forced_long","","5","simple_dissimilar","images/stimuli/spore_stims/simple_01_A_a.gif","","","","",""
"","null","html-keyboard-response","68","397161","0.0-19.0-0.3","SS1618435644614","","","null","","","","","","<p><img src= images/blank.png width =""600"" height = ""600"" style=""position:fixed;top:50%; left:50%; transform: translate(-50%, -50%); border:5px solid black"">","","","","","","","",""
"","2305.9299999731593","sequential-stimulus-presentation-old","69","399978","0.0-19.0-1.3","SS1618435644614","trial","","40","500","2805.9299999731593","images/stimuli/spore_stims/simple_19_A_b.gif","images/stimuli/spore_stims/simple_01_A_a.gif","forced_long","","5","simple_dissimilar","images/stimuli/spore_stims/simple_01_A_a.gif","","","","",""
"","null","html-keyboard-response","70","401175","0.0-19.0-0.4","SS1618435644614","","","null","","","","","","<p><img src= images/blank.png width =""600"" height = ""600"" style=""position:fixed;top:50%; left:50%; transform: translate(-50%, -50%); border:5px solid black"">","","","","","","","",""
"","488.31499996595085","sequential-stimulus-presentation-old","71","402178","0.0-19.0-1.4","SS1618435644614","trial","","40","500","988.3149999659508","images/stimuli/spore_stims/simple_19_A_b.gif","images/stimuli/spore_stims/simple_01_A_a.gif","forced_long","","5","simple_dissimilar","images/stimuli/spore_stims/simple_01_A_a.gif","","","","",""
"","null","html-keyboard-response","72","403372","0.0-19.0-0.5","SS1618435644614","","","null","","","","","","<p><img src= images/blank.png width =""600"" height = ""600"" style=""position:fixed;top:50%; left:50%; transform: translate(-50%, -50%); border:5px solid black"">","","","","","","","",""
"","217.29499998036772","sequential-stimulus-presentation-old","73","404097","0.0-19.0-1.5","SS1618435644614","trial","","40","500","717.2949999803677","images/stimuli/spore_stims/simple_19_A_b.gif","images/stimuli/spore_stims/simple_01_A_a.gif","forced_long","","5","simple_dissimilar","images/stimuli/spore_stims/simple_01_A_a.gif","","","","",""
"","2858.399999968242","survey-multi-choice","74","406959","0.0-20.0","SS1618435644614","math_question","","","","","","","","","","","","{""Q0"":""9""}","[0]","9","",""
"","null","html-keyboard-response","75","407826","0.0-21.0-0.0","SS1618435644614","","","null","","","","","","<p><img src= images/blank.png width =""600"" height = ""600"" style=""position:fixed;top:50%; left:50%; transform: translate(-50%, -50%); border:5px solid black"">","","","","","","","",""
"","5156.360000022687","sequential-stimulus-presentation-old","76","413489","0.0-21.0-1.0","SS1618435644614","trial","","40","500","5656.360000022687","images/stimuli/spore_stims/simple_08_A_a.gif","images/stimuli/spore_stims/simple_07_A_b.gif","self_paced","","6","simple_dissimilar","images/stimuli/spore_stims/simple_07_A_b.gif","","","","",""
"","null","html-keyboard-response","77","414313","0.0-21.0-0.1","SS1618435644614","","","null","","","","","","<p><img src= images/blank.png width =""600"" height = ""600"" style=""position:fixed;top:50%; left:50%; transform: translate(-50%, -50%); border:5px solid black"">","","","","","","","",""
"","3211.4549999823794","sequential-stimulus-presentation-old","78","418049","0.0-21.0-1.1","SS1618435644614","trial","","40","500","3711.4549999823794","images/stimuli/spore_stims/simple_08_A_a.gif","images/stimuli/spore_stims/simple_07_A_b.gif","self_paced","","6","simple_dissimilar","images/stimuli/spore_stims/simple_08_A_a.gif","","","","",""
"","null","html-keyboard-response","79","418907","0.0-21.0-0.2","SS1618435644614","","","null","","","","","","<p><img src= images/blank.png width =""600"" height = ""600"" style=""position:fixed;top:50%; left:50%; transform: translate(-50%, -50%); border:5px solid black"">","","","","","","","",""
"","2124.869999999646","sequential-stimulus-presentation-old","80","421545","0.0-21.0-1.2","SS1618435644614","trial","","40","500","2624.869999999646","images/stimuli/spore_stims/simple_08_A_a.gif","images/stimuli/spore_stims/simple_07_A_b.gif","self_paced","","6","simple_dissimilar","images/stimuli/spore_stims/simple_07_A_b.gif","","","","",""
"","null","html-keyboard-response","81","422702","0.0-21.0-0.3","SS1618435644614","","","null","","","","","","<p><img src= images/blank.png width =""600"" height = ""600"" style=""position:fixed;top:50%; left:50%; transform: translate(-50%, -50%); border:5px solid black"">","","","","","","","",""
"","1413.6000000289641","sequential-stimulus-presentation-old","82","424626","0.0-21.0-1.3","SS1618435644614","trial","","40","500","1913.6000000289641","images/stimuli/spore_stims/simple_08_A_a.gif","images/stimuli/spore_stims/simple_07_A_b.gif","self_paced","","6","simple_dissimilar","images/stimuli/spore_stims/simple_07_A_b.gif","","","","",""
"","2847.025000024587","survey-multi-choice","83","427484","0.0-22.0","SS1618435644614","math_question","","","","","","","","","","","","{""Q0"":""5""}","[0]","5","",""
"","null","html-keyboard-response","84","428627","0.0-23.0-0.0","SS1618435644614","","","null","","","","","","<p><img src= images/blank.png width =""600"" height = ""600"" style=""position:fixed;top:50%; left:50%; transform: translate(-50%, -50%); border:5px solid black"">","","","","","","","",""
"","1500.3400000277907","sequential-stimulus-presentation-old","85","430202","0.0-23.0-1.0","SS1618435644614","trial","","40","500","2000.3400000277907","images/stimuli/spore_stims/complex_08_A_b.gif","images/stimuli/spore_stims/complex_15_A_a.gif","forced_short","","7","complex_dissimilar","images/stimuli/spore_stims/complex_15_A_a.gif","","","","",""
"","null","html-keyboard-response","86","431031","0.0-23.0-0.1","SS1618435644614","","","null","","","","","","<p><img src= images/blank.png width =""600"" height = ""600"" style=""position:fixed;top:50%; left:50%; transform: translate(-50%, -50%); border:5px solid black"">","","","","","","","",""
"","1819.1149999620393","sequential-stimulus-presentation-old","87","433361","0.0-23.0-1.1","SS1618435644614","trial","","40","500","2319.1149999620393","images/stimuli/spore_stims/complex_08_A_b.gif","images/stimuli/spore_stims/complex_15_A_a.gif","forced_short","","7","complex_dissimilar","images/stimuli/spore_stims/complex_08_A_b.gif","","","","",""
"","null","html-keyboard-response","88","434247","0.0-23.0-0.2","SS1618435644614","","","null","","","","","","<p><img src= images/blank.png width =""600"" height = ""600"" style=""position:fixed;top:50%; left:50%; transform: translate(-50%, -50%); border:5px solid black"">","","","","","","","",""
"","2394.834999984596","sequential-stimulus-presentation-old","89","437170","0.0-23.0-1.2","SS1618435644614","trial","","40","500","2894.834999984596","images/stimuli/spore_stims/complex_08_A_b.gif","images/stimuli/spore_stims/complex_15_A_a.gif","forced_short","","7","complex_dissimilar","images/stimuli/spore_stims/complex_15_A_a.gif","","","","",""
"","null","html-keyboard-response","90","438419","0.0-23.0-0.3","SS1618435644614","","","null","","","","","","<p><img src= images/blank.png width =""600"" height = ""600"" style=""position:fixed;top:50%; left:50%; transform: translate(-50%, -50%); border:5px solid black"">","","","","","","","",""
"","3819.740000006277","sequential-stimulus-presentation-old","91","442753","0.0-23.0-1.3","SS1618435644614","trial","","40","500","4319.740000006277","images/stimuli/spore_stims/complex_08_A_b.gif","images/stimuli/spore_stims/complex_15_A_a.gif","forced_short","","7","complex_dissimilar","images/stimuli/spore_stims/complex_15_A_a.gif","","","","",""
"","null","html-keyboard-response","92","443682","0.0-23.0-0.4","SS1618435644614","","","null","","","","","","<p><img src= images/blank.png width =""600"" height = ""600"" style=""position:fixed;top:50%; left:50%; transform: translate(-50%, -50%); border:5px solid black"">","","","","","","","",""
"","2134.325000050012","sequential-stimulus-presentation-old","93","446329","0.0-23.0-1.4","SS1618435644614","trial","","40","500","2634.325000050012","images/stimuli/spore_stims/complex_08_A_b.gif","images/stimuli/spore_stims/complex_15_A_a.gif","forced_short","","7","complex_dissimilar","images/stimuli/spore_stims/complex_15_A_a.gif","","","","",""
"","3327.355000015814","survey-multi-choice","94","449661","0.0-24.0","SS1618435644614","math_question","","","","","","","","","","","","{""Q0"":""17""}","[0]","17","",""
"","null","html-keyboard-response","95","450757","0.0-25.0-0.0","SS1618435644614","","","null","","","","","","<p><img src= images/blank.png width =""600"" height = ""600"" style=""position:fixed;top:50%; left:50%; transform: translate(-50%, -50%); border:5px solid black"">","","","","","","","",""
"","1197.414999944158","sequential-stimulus-presentation-old","96","452017","0.0-25.0-1.0","SS1618435644614","trial","","40","500","1697.414999944158","images/stimuli/spore_stims/complex_06_A_b.gif","images/stimuli/spore_stims/complex_14_A_a.gif","forced_short","","8","complex_dissimilar","images/stimuli/spore_stims/complex_14_A_a.gif","","","","",""
"","null","html-keyboard-response","97","452867","0.0-25.0-0.1","SS1618435644614","","","null","","","","","","<p><img src= images/blank.png width =""600"" height = ""600"" style=""position:fixed;top:50%; left:50%; transform: translate(-50%, -50%); border:5px solid black"">","","","","","","","",""
"","1423.6800000071526","sequential-stimulus-presentation-old","98","454801","0.0-25.0-1.1","SS1618435644614","trial","","40","500","1923.6800000071526","images/stimuli/spore_stims/complex_06_A_b.gif","images/stimuli/spore_stims/complex_14_A_a.gif","forced_short","","8","complex_dissimilar","images/stimuli/spore_stims/complex_14_A_a.gif","","","","",""
"","null","html-keyboard-response","99","455909","0.0-25.0-0.2","SS1618435644614","","","null","","","","","","<p><img src= images/blank.png width =""600"" height = ""600"" style=""position:fixed;top:50%; left:50%; transform: translate(-50%, -50%); border:5px solid black"">","","","","","","","",""
"","2633.8749999995343","sequential-stimulus-presentation-old","100","459057","0.0-25.0-1.2","SS1618435644614","trial","","40","500","3133.8749999995343","images/stimuli/spore_stims/complex_06_A_b.gif","images/stimuli/spore_stims/complex_14_A_a.gif","forced_short","","8","complex_dissimilar","images/stimuli/spore_stims/complex_14_A_a.gif","","","","",""
"","null","html-keyboard-response","101","460087","0.0-25.0-0.3","SS1618435644614","","","null","","","","","","<p><img src= images/blank.png width =""600"" height = ""600"" style=""position:fixed;top:50%; left:50%; transform: translate(-50%, -50%); border:5px solid black"">","","","","","","","",""
"","1264.3699999898672","sequential-stimulus-presentation-old","102","461865","0.0-25.0-1.3","SS1618435644614","trial","","40","500","1764.3699999898672","images/stimuli/spore_stims/complex_06_A_b.gif","images/stimuli/spore_stims/complex_14_A_a.gif","forced_short","","8","complex_dissimilar","images/stimuli/spore_stims/complex_14_A_a.gif","","","","",""
"","null","html-keyboard-response","103","463083","0.0-25.0-0.4","SS1618435644614","","","null","","","","","","<p><img src= images/blank.png width =""600"" height = ""600"" style=""position:fixed;top:50%; left:50%; transform: translate(-50%, -50%); border:5px solid black"">","","","","","","","",""
"","2020.2900000149384","sequential-stimulus-presentation-old","104","465611","0.0-25.0-1.4","SS1618435644614","trial","","40","500","2520.2900000149384","images/stimuli/spore_stims/complex_06_A_b.gif","images/stimuli/spore_stims/complex_14_A_a.gif","forced_short","","8","complex_dissimilar","images/stimuli/spore_stims/complex_14_A_a.gif","","","","",""
"","2623.2099999906495","survey-multi-choice","105","468248","0.0-26.0","SS1618435644614","math_question","","","","","","","","","","","","{""Q0"":""6""}","[0]","6","",""
"","null","html-keyboard-response","106","469306","0.0-27.0-0.0","SS1618435644614","","","null","","","","","","<p><img src= images/blank.png width =""600"" height = ""600"" style=""position:fixed;top:50%; left:50%; transform: translate(-50%, -50%); border:5px solid black"">","","","","","","","",""
"","1049.4399999734014","sequential-stimulus-presentation-old","107","470866","0.0-27.0-1.0","SS1618435644614","trial","","40","500","1549.4399999734014","images/stimuli/spore_stims/complex_16_A_b.gif","images/stimuli/spore_stims/complex_09_A_a.gif","self_paced","","9","complex_dissimilar","images/stimuli/spore_stims/complex_09_A_a.gif","","","","",""
"","null","html-keyboard-response","108","472169","0.0-27.0-0.1","SS1618435644614","","","null","","","","","","<p><img src= images/blank.png width =""600"" height = ""600"" style=""position:fixed;top:50%; left:50%; transform: translate(-50%, -50%); border:5px solid black"">","","","","","","","",""
"","336.5600000252016","sequential-stimulus-presentation-old","109","473017","0.0-27.0-1.1","SS1618435644614","trial","","40","500","836.5600000252016","images/stimuli/spore_stims/complex_16_A_b.gif","images/stimuli/spore_stims/complex_09_A_a.gif","self_paced","","9","complex_dissimilar","images/stimuli/spore_stims/complex_09_A_a.gif","","","","",""
"","null","html-keyboard-response","110","474152","0.0-27.0-0.2","SS1618435644614","","","null","","","","","","<p><img src= images/blank.png width =""600"" height = ""600"" style=""position:fixed;top:50%; left:50%; transform: translate(-50%, -50%); border:5px solid black"">","","","","","","","",""
"","2799.4399999734014","sequential-stimulus-presentation-old","111","477465","0.0-27.0-1.2","SS1618435644614","trial","","40","500","3299.4399999734014","images/stimuli/spore_stims/complex_16_A_b.gif","images/stimuli/spore_stims/complex_09_A_a.gif","self_paced","","9","complex_dissimilar","images/stimuli/spore_stims/complex_16_A_b.gif","","","","",""
"","null","html-keyboard-response","112","478553","0.0-27.0-0.3","SS1618435644614","","","null","","","","","","<p><img src= images/blank.png width =""600"" height = ""600"" style=""position:fixed;top:50%; left:50%; transform: translate(-50%, -50%); border:5px solid black"">","","","","","","","",""
"","638.150000013411","sequential-stimulus-presentation-old","113","479705","0.0-27.0-1.3","SS1618435644614","trial","","40","500","1138.150000013411","images/stimuli/spore_stims/complex_16_A_b.gif","images/stimuli/spore_stims/complex_09_A_a.gif","self_paced","","9","complex_dissimilar","images/stimuli/spore_stims/complex_09_A_a.gif","","","","",""
"","null","html-keyboard-response","114","480591","0.0-27.0-0.4","SS1618435644614","","","null","","","","","","<p><img src= images/blank.png width =""600"" height = ""600"" style=""position:fixed;top:50%; left:50%; transform: translate(-50%, -50%); border:5px solid black"">","","","","","","","",""
"","865.0600000401028","sequential-stimulus-presentation-old","115","481970","0.0-27.0-1.4","SS1618435644614","trial","","40","500","1365.0600000401028","images/stimuli/spore_stims/complex_16_A_b.gif","images/stimuli/spore_stims/complex_09_A_a.gif","self_paced","","9","complex_dissimilar","images/stimuli/spore_stims/complex_09_A_a.gif","","","","",""
"","null","html-keyboard-response","116","482914","0.0-27.0-0.5","SS1618435644614","","","null","","","","","","<p><img src= images/blank.png width =""600"" height = ""600"" style=""position:fixed;top:50%; left:50%; transform: translate(-50%, -50%); border:5px solid black"">","","","","","","","",""
"","1038.3950000395998","sequential-stimulus-presentation-old","117","484465","0.0-27.0-1.5","SS1618435644614","trial","","40","500","1538.3950000395998","images/stimuli/spore_stims/complex_16_A_b.gif","images/stimuli/spore_stims/complex_09_A_a.gif","self_paced","","9","complex_dissimilar","images/stimuli/spore_stims/complex_09_A_a.gif","","","","",""
"","3137.9050000105053","survey-multi-choice","118","487610","0.0-28.0","SS1618435644614","math_question","","","","","","","","","","","","{""Q0"":""9""}","[0]","9","",""
"","null","html-keyboard-response","119","488474","0.0-29.0-0.0","SS1618435644614","","","null","","","","","","<p><img src= images/blank.png width =""600"" height = ""600"" style=""position:fixed;top:50%; left:50%; transform: translate(-50%, -50%); border:5px solid black"">","","","","","","","",""
"","6251.359999994747","sequential-stimulus-presentation-old","120","499738","0.0-29.0-1.0","SS1618435644614","trial","","40","500","6751.359999994747","images/stimuli/spore_stims/complex_08_A_a.gif","images/stimuli/spore_stims/complex_18_A_b.gif","forced_long","","10","complex_dissimilar","images/stimuli/spore_stims/complex_18_A_b.gif","","","","",""
"","null","html-keyboard-response","121","500622","0.0-29.0-0.1","SS1618435644614","","","null","","","","","","<p><img src= images/blank.png width =""600"" height = ""600"" style=""position:fixed;top:50%; left:50%; transform: translate(-50%, -50%); border:5px solid black"">","","","","","","","",""
"","764.8150000022724","sequential-stimulus-presentation-old","122","501898","0.0-29.0-1.1","SS1618435644614","trial","","40","500","1264.8150000022724","images/stimuli/spore_stims/complex_08_A_a.gif","images/stimuli/spore_stims/complex_18_A_b.gif","forced_long","","10","complex_dissimilar","images/stimuli/spore_stims/complex_08_A_a.gif","","","","",""
"","null","html-keyboard-response","123","503203","0.0-29.0-0.2","SS1618435644614","","","null","","","","","","<p><img src= images/blank.png width =""600"" height = ""600"" style=""position:fixed;top:50%; left:50%; transform: translate(-50%, -50%); border:5px solid black"">","","","","","","","",""
"","1857.4050000170246","sequential-stimulus-presentation-old","124","505569","0.0-29.0-1.2","SS1618435644614","trial","","40","500","2357.4050000170246","images/stimuli/spore_stims/complex_08_A_a.gif","images/stimuli/spore_stims/complex_18_A_b.gif","forced_long","","10","complex_dissimilar","images/stimuli/spore_stims/complex_18_A_b.gif","","","","",""
"","null","html-keyboard-response","125","506530","0.0-29.0-0.3","SS1618435644614","","","null","","","","","","<p><img src= images/blank.png width =""600"" height = ""600"" style=""position:fixed;top:50%; left:50%; transform: translate(-50%, -50%); border:5px solid black"">","","","","","","","",""
"","561.2649999675341","sequential-stimulus-presentation-old","126","507601","0.0-29.0-1.3","SS1618435644614","trial","","40","500","1061.264999967534","images/stimuli/spore_stims/complex_08_A_a.gif","images/stimuli/spore_stims/complex_18_A_b.gif","forced_long","","10","complex_dissimilar","images/stimuli/spore_stims/complex_18_A_b.gif","","","","",""
"","null","html-keyboard-response","127","508902","0.0-29.0-0.4","SS1618435644614","","","null","","","","","","<p><img src= images/blank.png width =""600"" height = ""600"" style=""position:fixed;top:50%; left:50%; transform: translate(-50%, -50%); border:5px solid black"">","","","","","","","",""
"","398.879999993369","sequential-stimulus-presentation-old","128","509826","0.0-29.0-1.4","SS1618435644614","trial","","40","500","898.879999993369","images/stimuli/spore_stims/complex_08_A_a.gif","images/stimuli/spore_stims/complex_18_A_b.gif","forced_long","","10","complex_dissimilar","images/stimuli/spore_stims/complex_18_A_b.gif","","","","",""
"","null","html-keyboard-response","129","510898","0.0-29.0-0.5","SS1618435644614","","","null","","","","","","<p><img src= images/blank.png width =""600"" height = ""600"" style=""position:fixed;top:50%; left:50%; transform: translate(-50%, -50%); border:5px solid black"">","","","","","","","",""
"","1298.5800000024028","sequential-stimulus-presentation-old","130","512721","0.0-29.0-1.5","SS1618435644614","trial","","40","500","1798.5800000024028","images/stimuli/spore_stims/complex_08_A_a.gif","images/stimuli/spore_stims/complex_18_A_b.gif","forced_long","","10","complex_dissimilar","images/stimuli/spore_stims/complex_08_A_a.gif","","","","",""
"","3541.4100000052713","survey-multi-choice","131","516270","0.0-30.0","SS1618435644614","math_question","","","","","","","","","","","","{""Q0"":""6""}","[0]","6","",""
"","null","html-keyboard-response","132","517514","0.0-31.0-0.0","SS1618435644614","","","null","","","","","","<p><img src= images/blank.png width =""600"" height = ""600"" style=""position:fixed;top:50%; left:50%; transform: translate(-50%, -50%); border:5px solid black"">","","","","","","","",""
"","1477.8999999980442","sequential-stimulus-presentation-old","133","519057","0.0-31.0-1.0","SS1618435644614","trial","","40","500","1977.8999999980442","images/stimuli/spore_stims/simple_03_A_a.gif","images/stimuli/spore_stims/simple_15_A_b.gif","forced_short","","11","simple_dissimilar","images/stimuli/spore_stims/simple_15_A_b.gif","","","","",""
"","null","html-keyboard-response","134","520301","0.0-31.0-0.1","SS1618435644614","","","null","","","","","","<p><img src= images/blank.png width =""600"" height = ""600"" style=""position:fixed;top:50%; left:50%; transform: translate(-50%, -50%); border:5px solid black"">","","","","","","","",""
"","1165.5250000185333","sequential-stimulus-presentation-old","135","521978","0.0-31.0-1.1","SS1618435644614","trial","","40","500","1665.5250000185333","images/stimuli/spore_stims/simple_03_A_a.gif","images/stimuli/spore_stims/simple_15_A_b.gif","forced_short","","11","simple_dissimilar","images/stimuli/spore_stims/simple_15_A_b.gif","","","","",""
"","null","html-keyboard-response","136","523005","0.0-31.0-0.2","SS1618435644614","","","null","","","","","","<p><img src= images/blank.png width =""600"" height = ""600"" style=""position:fixed;top:50%; left:50%; transform: translate(-50%, -50%); border:5px solid black"">","","","","","","","",""
"","1475.7550000213087","sequential-stimulus-presentation-old","137","524993","0.0-31.0-1.2","SS1618435644614","trial","","40","500","1975.7550000213087","images/stimuli/spore_stims/simple_03_A_a.gif","images/stimuli/spore_stims/simple_15_A_b.gif","forced_short","","11","simple_dissimilar","images/stimuli/spore_stims/simple_03_A_a.gif","","","","",""
"","null","html-keyboard-response","138","526282","0.0-31.0-0.3","SS1618435644614","","","null","","","","","","<p><img src= images/blank.png width =""600"" height = ""600"" style=""position:fixed;top:50%; left:50%; transform: translate(-50%, -50%); border:5px solid black"">","","","","","","","",""
"","937.210000003688","sequential-stimulus-presentation-old","139","527729","0.0-31.0-1.3","SS1618435644614","trial","","40","500","1437.210000003688","images/stimuli/spore_stims/simple_03_A_a.gif","images/stimuli/spore_stims/simple_15_A_b.gif","forced_short","","11","simple_dissimilar","images/stimuli/spore_stims/simple_15_A_b.gif","","","","",""
"[{""page_index"":0,""viewing_time"":4683.329999970738}]","4683.604999969248","instructions","140","532419","0.0-32.0","SS1618435644614","instructions","","","","","","","","","","","","","","","",""
"","7553.914999996778","survey-likert","141","539982","0.0-33.0","SS1618435644614","similarity_question","","","","","","","","","","","","{""Q0"":1}","[0]","","images/stimuli/spore_stims/complex_17_A_a.gif","images/stimuli/spore_stims/complex_02_A_b.gif"
"","4776.435000007041","survey-likert","142","544772","0.0-34.0","SS1618435644614","similarity_question","","","","","","","","","","","","{""Q0"":0}","[0]","","images/stimuli/spore_stims/simple_07_A_b.gif","images/stimuli/spore_stims/simple_08_A_a.gif"
"","3961.650000012014","survey-likert","143","548748","0.0-35.0","SS1618435644614","similarity_question","","","","","","","","","","","","{""Q0"":4}","[0]","","images/stimuli/spore_stims/complex_09_A_a.gif","images/stimuli/spore_stims/complex_16_A_b.gif"
"","4600.644999998622","survey-likert","144","553362","0.0-36.0","SS1618435644614","similarity_question","","","","","","","","","","","","{""Q0"":4}","[0]","","images/stimuli/spore_stims/simple_13_A_b.gif","images/stimuli/spore_stims/simple_11_A_a.gif"
"","3458.405000041239","survey-likert","145","556838","0.0-37.0","SS1618435644614","similarity_question","","","","","","","","","","","","{""Q0"":3}","[0]","","images/stimuli/spore_stims/simple_09_A_a.gif","images/stimuli/spore_stims/simple_12_A_b.gif"
"","2836.264999990817","survey-likert","146","559688","0.0-38.0","SS1618435644614","similarity_question","","","","","","","","","","","","{""Q0"":2}","[0]","","images/stimuli/spore_stims/complex_06_A_b.gif","images/stimuli/spore_stims/complex_14_A_a.gif"
"","3200.0849999603815","survey-likert","147","562910","0.0-39.0","SS1618435644614","similarity_question","","","","","","","","","","","","{""Q0"":3}","[0]","","images/stimuli/spore_stims/simple_01_A_a.gif","images/stimuli/spore_stims/simple_19_A_b.gif"
"","3153.954999987036","survey-likert","148","566078","0.0-40.0","SS1618435644614","similarity_question","","","","","","","","","","","","{""Q0"":4}","[0]","","images/stimuli/spore_stims/simple_03_A_a.gif","images/stimuli/spore_stims/simple_15_A_b.gif"
"","5806.34499998996","survey-likert","149","571898","0.0-41.0","SS1618435644614","similarity_question","","","","","","","","","","","","{""Q0"":4}","[0]","","images/stimuli/spore_stims/complex_08_A_a.gif","images/stimuli/spore_stims/complex_18_A_b.gif"
"","9608.804999967106","survey-likert","150","581522","0.0-42.0","SS1618435644614","similarity_question","","","","","","","","","","","","{""Q0"":1}","[0]","","images/stimuli/spore_stims/complex_08_A_b.gif","images/stimuli/spore_stims/complex_15_A_a.gif"
"","2981.000000028871","survey-likert","151","584518","0.0-43.0","SS1618435644614","similarity_question","","","","","","","","","","","","{""Q0"":0}","[0]","","images/stimuli/spore_stims/simple_01_A_b.gif","images/stimuli/spore_stims/simple_13_A_a.gif"
"","4705.755000002682","survey-likert","152","589238","0.0-44.0","SS1618435644614","similarity_question","","","","","","","","","","","","{""Q0"":2}","[0]","","images/stimuli/spore_stims/complex_09_A_b.gif","images/stimuli/spore_stims/complex_07_A_a.gif"
"[{""page_index"":0,""viewing_time"":2910.9949999838136}]","2911.2350000068545","instructions","153","592163","0.0-45.0","SS1618435644614","instructions","","","","","","","","","","","","","","","",""
"","4198.544999992009","survey-likert","154","596372","0.0-46.0","SS1618435644614","","","","","","","","","images/stimuli/spore_stims/simple_08_A_a.gif","","","","{""Q0"":1}","[0]","","",""
"","2637.1950000175275","survey-likert","155","599024","0.0-47.0","SS1618435644614","","","","","","","","","images/stimuli/spore_stims/complex_06_A_b.gif","","","","{""Q0"":5}","[0]","","",""
"","2425.824999983888","survey-likert","156","601464","0.0-48.0","SS1618435644614","","","","","","","","","images/stimuli/spore_stims/simple_01_A_a.gif","","","","{""Q0"":1}","[0]","","",""
"","4308.039999974426","survey-likert","157","605788","0.0-49.0","SS1618435644614","","","","","","","","","images/stimuli/spore_stims/complex_17_A_a.gif","","","","{""Q0"":5}","[0]","","",""
"","2265.89999999851","survey-likert","158","608067","0.0-50.0","SS1618435644614","","","","","","","","","images/stimuli/spore_stims/complex_15_A_a.gif","","","","{""Q0"":4}","[0]","","",""
"","2262.6000000163913","survey-likert","159","610346","0.0-51.0","SS1618435644614","","","","","","","","","images/stimuli/spore_stims/simple_13_A_a.gif","","","","{""Q0"":2}","[0]","","",""
"","4753.089999954682","survey-likert","160","615114","0.0-52.0","SS1618435644614","","","","","","","","","images/stimuli/spore_stims/complex_09_A_b.gif","","","","{""Q0"":5}","[0]","","",""
"","3418.469999975059","survey-likert","161","618548","0.0-53.0","SS1618435644614","","","","","","","","","images/stimuli/spore_stims/simple_12_A_b.gif","","","","{""Q0"":1}","[0]","","",""
"","2839.650000038091","survey-likert","162","621408","0.0-54.0","SS1618435644614","","","","","","","","","images/stimuli/spore_stims/simple_13_A_b.gif","","","","{""Q0"":0}","[0]","","",""
"","3819.5749999722466","survey-likert","163","625242","0.0-55.0","SS1618435644614","","","","","","","","","images/stimuli/spore_stims/complex_16_A_b.gif","","","","{""Q0"":6}","[0]","","",""
"","2242.9599999450147","survey-likert","164","627500","0.0-56.0","SS1618435644614","","","","","","","","","images/stimuli/spore_stims/complex_08_A_a.gif","","","","{""Q0"":4}","[0]","","",""
"","3199.140000040643","survey-likert","165","630714","0.0-57.0","SS1618435644614","","","","","","","","","images/stimuli/spore_stims/simple_03_A_a.gif","","","","{""Q0"":2}","[0]","","",""
"[{""page_index"":0,""viewing_time"":1603.7500000093132}]","1603.9650000166148","instructions","166","632331","0.0-58.0","SS1618435644614","instructions","","","","","","","","","","","","","","","",""
"","3146.03999996325","demog-age","167","635510","0.0-59.0","SS1618435644614","","","","","","","","","","","","","{""age"":""22""}","","","",""
"","3795.994999993127","demog-ethnic-US","168","639325","0.0-60.0","SS1618435644614","","","","","","","","","","","","","{""ethnicity"":[""White""]}","[0]","","",""
"","5359.735000005458","demog-gender-and-education","169","644700","0.0-61.0","SS1618435644614","","","","","","","","","","","","","{""gender"":""Male"",""education"":""High school diploma""}","[0,1]","","",""
"","8168.919999967329","survey-text","170","652892","0.0-62.0","SS1618435644614","feedback","","","","","","","","","","","","{""Q0"":""No""}","","","",""
"[{""page_index"":0,""viewing_time"":1915.465000027325}]","1915.7450000056997","instructions","171","654817","0.0-63.0","SS1618435644614","instructions","","","","","","","","","","","","","","","",""
