"view_history","rt","trial_type","trial_index","time_elapsed","internal_node_id","subject","stimulus_type","trial_stimulus","key_press","minimum_viewing_duration","trial_looking_time","block_deviant","block_background","exposure_type","stimulus","block_number","block_type","stimulus_displayed","responses","question_order","math_correct_answer","stimulus_left","stimulus_right"
"[{""page_index"":0,""viewing_time"":10679.999999993015}]","10679.999999993015","instructions","0","10680","0.0-0.0","SS1618365696645","","","","","","","","","","","","","","","","",""
"[{""page_index"":0,""viewing_time"":21577.00000004843},{""page_index"":1,""viewing_time"":12527.999999991152}]","34105.00000003958","instructions","1","46805","0.0-1.0","SS1618365696645","instructions","","","","","","","","","","","","","","","",""
"","8976.000000024214","sequential-stimulus-presentation-old","2","56284","0.0-2.0","SS1618365696645","","","40","500","9476.000000024214","null","null","self_paced","","","","","","","","",""
"","20451.99999999022","sequential-stimulus-presentation-old","3","77243","0.0-3.0","SS1618365696645","","","40","500","20951.99999999022","null","null","self_paced","","","","","","","","",""
"[{""page_index"":0,""viewing_time"":59684.99999999767}]","59684.99999999767","instructions","4","136928","0.0-4.0","SS1618365696645","instructions","","","","","","","","","","","","","","","",""
"","4324.999999953434","sequential-stimulus-presentation-old","5","146270","0.0-5.0","SS1618365696645","","","40","500","4824.999999953434","null","null","forced_long","","","","","","","","",""
"","5506.999999983236","sequential-stimulus-presentation-old","6","151843","0.0-6.0","SS1618365696645","","","40","50","5556.999999983236","null","null","forced_long","","","","","","","","",""
"[{""page_index"":0,""viewing_time"":5250}]","5250.99999998929","instructions","7","157095","0.0-7.0","SS1618365696645","instructions","","","","","","","","","","","","","","","",""
"[{""page_index"":0,""viewing_time"":10282.00000000652},{""page_index"":1,""viewing_time"":14188.000000023749},{""page_index"":2,""viewing_time"":6514.00000002468},{""page_index"":3,""viewing_time"":2457.9999999841675},{""page_index"":4,""viewing_time"":1972.9999999981374}]","35415.00000003725","instructions","8","192512","0.0-8.0","SS1618365696645","instructions","","","","","","","","","","","","","","","",""
"","null","html-keyboard-response","9","193432","0.0-9.0-0.0","SS1618365696645","","","null","","","","","","<p><img src= images/blank.png width =""600"" height = ""600"" style=""position:fixed;top:50%; left:50%; transform: translate(-50%, -50%); border:5px solid black"">","","","","","","","",""
"","2451.0000000009313","sequential-stimulus-presentation-old","10","195941","0.0-9.0-1.0","SS1618365696645","trial","","40","500","2951.0000000009313","images/stimuli/spore_stims/simple_16_A_a.gif","images/stimuli/spore_stims/simple_05_A_b.gif","forced_short","","0","simple_dissimilar","images/stimuli/spore_stims/simple_05_A_b.gif","","","","",""
"","null","html-keyboard-response","11","197031","0.0-9.0-0.1","SS1618365696645","","","null","","","","","","<p><img src= images/blank.png width =""600"" height = ""600"" style=""position:fixed;top:50%; left:50%; transform: translate(-50%, -50%); border:5px solid black"">","","","","","","","",""
"","9574.000000022352","sequential-stimulus-presentation-old","12","207116","0.0-9.0-1.1","SS1618365696645","trial","","40","500","10074.000000022352","images/stimuli/spore_stims/simple_16_A_a.gif","images/stimuli/spore_stims/simple_05_A_b.gif","forced_short","","0","simple_dissimilar","images/stimuli/spore_stims/simple_05_A_b.gif","","","","",""
"","null","html-keyboard-response","13","208021","0.0-9.0-0.2","SS1618365696645","","","null","","","","","","<p><img src= images/blank.png width =""600"" height = ""600"" style=""position:fixed;top:50%; left:50%; transform: translate(-50%, -50%); border:5px solid black"">","","","","","","","",""
"","9890.00000001397","sequential-stimulus-presentation-old","14","218420","0.0-9.0-1.2","SS1618365696645","trial","","40","500","10390.00000001397","images/stimuli/spore_stims/simple_16_A_a.gif","images/stimuli/spore_stims/simple_05_A_b.gif","forced_short","","0","simple_dissimilar","images/stimuli/spore_stims/simple_05_A_b.gif","","","","",""
"","null","html-keyboard-response","15","219455","0.0-9.0-0.3","SS1618365696645","","","null","","","","","","<p><img src= images/blank.png width =""600"" height = ""600"" style=""position:fixed;top:50%; left:50%; transform: translate(-50%, -50%); border:5px solid black"">","","","","","","","",""
"","5442.999999970198","sequential-stimulus-presentation-old","16","225411","0.0-9.0-1.3","SS1618365696645","trial","","40","500","5942.999999970198","images/stimuli/spore_stims/simple_16_A_a.gif","images/stimuli/spore_stims/simple_05_A_b.gif","forced_short","","0","simple_dissimilar","images/stimuli/spore_stims/simple_05_A_b.gif","","","","",""
"","6325.0000000116415","survey-multi-choice","17","231741","0.0-10.0","SS1618365696645","math_question","","","","","","","","","","","","{""Q0"":""5""}","[0]","5","",""
"","null","html-keyboard-response","18","232598","0.0-11.0-0.0","SS1618365696645","","","null","","","","","","<p><img src= images/blank.png width =""600"" height = ""600"" style=""position:fixed;top:50%; left:50%; transform: translate(-50%, -50%); border:5px solid black"">","","","","","","","",""
"","3875.99999998929","sequential-stimulus-presentation-old","19","236986","0.0-11.0-1.0","SS1618365696645","trial","","40","500","4375.99999998929","images/stimuli/spore_stims/simple_03_A_a.gif","images/stimuli/spore_stims/simple_07_A_b.gif","self_paced","","1","simple_dissimilar","images/stimuli/spore_stims/simple_07_A_b.gif","","","","",""
"","null","html-keyboard-response","20","238128","0.0-11.0-0.1","SS1618365696645","","","null","","","","","","<p><img src= images/blank.png width =""600"" height = ""600"" style=""position:fixed;top:50%; left:50%; transform: translate(-50%, -50%); border:5px solid black"">","","","","","","","",""
"","6603.000000002794","sequential-stimulus-presentation-old","21","245243","0.0-11.0-1.1","SS1618365696645","trial","","40","500","7103.000000002794","images/stimuli/spore_stims/simple_03_A_a.gif","images/stimuli/spore_stims/simple_07_A_b.gif","self_paced","","1","simple_dissimilar","images/stimuli/spore_stims/simple_03_A_a.gif","","","","",""
"","null","html-keyboard-response","22","246165","0.0-11.0-0.2","SS1618365696645","","","null","","","","","","<p><img src= images/blank.png width =""600"" height = ""600"" style=""position:fixed;top:50%; left:50%; transform: translate(-50%, -50%); border:5px solid black"">","","","","","","","",""
"","9891.99999999255","sequential-stimulus-presentation-old","23","256570","0.0-11.0-1.2","SS1618365696645","trial","","40","500","10391.99999999255","images/stimuli/spore_stims/simple_03_A_a.gif","images/stimuli/spore_stims/simple_07_A_b.gif","self_paced","","1","simple_dissimilar","images/stimuli/spore_stims/simple_07_A_b.gif","","","","",""
"","null","html-keyboard-response","24","257514","0.0-11.0-0.3","SS1618365696645","","","null","","","","","","<p><img src= images/blank.png width =""600"" height = ""600"" style=""position:fixed;top:50%; left:50%; transform: translate(-50%, -50%); border:5px solid black"">","","","","","","","",""
"","5275.000000023283","sequential-stimulus-presentation-old","25","263315","0.0-11.0-1.3","SS1618365696645","trial","","40","500","5775.000000023283","images/stimuli/spore_stims/simple_03_A_a.gif","images/stimuli/spore_stims/simple_07_A_b.gif","self_paced","","1","simple_dissimilar","images/stimuli/spore_stims/simple_07_A_b.gif","","","","",""
"","null","html-keyboard-response","26","264409","0.0-11.0-0.4","SS1618365696645","","","null","","","","","","<p><img src= images/blank.png width =""600"" height = ""600"" style=""position:fixed;top:50%; left:50%; transform: translate(-50%, -50%); border:5px solid black"">","","","","","","","",""
"","5376.000000047497","sequential-stimulus-presentation-old","27","270292","0.0-11.0-1.4","SS1618365696645","trial","","40","500","5876.000000047497","images/stimuli/spore_stims/simple_03_A_a.gif","images/stimuli/spore_stims/simple_07_A_b.gif","self_paced","","1","simple_dissimilar","images/stimuli/spore_stims/simple_07_A_b.gif","","","","",""
"","null","html-keyboard-response","28","271317","0.0-11.0-0.5","SS1618365696645","","","null","","","","","","<p><img src= images/blank.png width =""600"" height = ""600"" style=""position:fixed;top:50%; left:50%; transform: translate(-50%, -50%); border:5px solid black"">","","","","","","","",""
"","7285.999999963678","sequential-stimulus-presentation-old","29","279122","0.0-11.0-1.5","SS1618365696645","trial","","40","500","7785.999999963678","images/stimuli/spore_stims/simple_03_A_a.gif","images/stimuli/spore_stims/simple_07_A_b.gif","self_paced","","1","simple_dissimilar","images/stimuli/spore_stims/simple_07_A_b.gif","","","","",""
"","4135.999999998603","survey-multi-choice","30","283261","0.0-12.0","SS1618365696645","math_question","","","","","","","","","","","","{""Q0"":""3""}","[0]","3","",""
"","null","html-keyboard-response","31","284191","0.0-13.0-0.0","SS1618365696645","","","null","","","","","","<p><img src= images/blank.png width =""600"" height = ""600"" style=""position:fixed;top:50%; left:50%; transform: translate(-50%, -50%); border:5px solid black"">","","","","","","","",""
"","1907.999999995809","sequential-stimulus-presentation-old","32","286151","0.0-13.0-1.0","SS1618365696645","trial","","40","500","2407.999999995809","images/stimuli/spore_stims/complex_05_A_a.gif","images/stimuli/spore_stims/complex_18_A_b.gif","forced_short","","2","complex_dissimilar","images/stimuli/spore_stims/complex_18_A_b.gif","","","","",""
"","null","html-keyboard-response","33","287318","0.0-13.0-0.1","SS1618365696645","","","null","","","","","","<p><img src= images/blank.png width =""600"" height = ""600"" style=""position:fixed;top:50%; left:50%; transform: translate(-50%, -50%); border:5px solid black"">","","","","","","","",""
"","5365.000000048894","sequential-stimulus-presentation-old","34","293194","0.0-13.0-1.1","SS1618365696645","trial","","40","500","5865.000000048894","images/stimuli/spore_stims/complex_05_A_a.gif","images/stimuli/spore_stims/complex_18_A_b.gif","forced_short","","2","complex_dissimilar","images/stimuli/spore_stims/complex_18_A_b.gif","","","","",""
"","null","html-keyboard-response","35","294018","0.0-13.0-0.2","SS1618365696645","","","null","","","","","","<p><img src= images/blank.png width =""600"" height = ""600"" style=""position:fixed;top:50%; left:50%; transform: translate(-50%, -50%); border:5px solid black"">","","","","","","","",""
"","6864.000000001397","sequential-stimulus-presentation-old","36","301394","0.0-13.0-1.2","SS1618365696645","trial","","40","500","7364.000000001397","images/stimuli/spore_stims/complex_05_A_a.gif","images/stimuli/spore_stims/complex_18_A_b.gif","forced_short","","2","complex_dissimilar","images/stimuli/spore_stims/complex_18_A_b.gif","","","","",""
"","null","html-keyboard-response","37","302577","0.0-13.0-0.3","SS1618365696645","","","null","","","","","","<p><img src= images/blank.png width =""600"" height = ""600"" style=""position:fixed;top:50%; left:50%; transform: translate(-50%, -50%); border:5px solid black"">","","","","","","","",""
"","2858.0000000074506","sequential-stimulus-presentation-old","38","305954","0.0-13.0-1.3","SS1618365696645","trial","","40","500","3358.0000000074506","images/stimuli/spore_stims/complex_05_A_a.gif","images/stimuli/spore_stims/complex_18_A_b.gif","forced_short","","2","complex_dissimilar","images/stimuli/spore_stims/complex_18_A_b.gif","","","","",""
"","null","html-keyboard-response","39","306814","0.0-13.0-0.4","SS1618365696645","","","null","","","","","","<p><img src= images/blank.png width =""600"" height = ""600"" style=""position:fixed;top:50%; left:50%; transform: translate(-50%, -50%); border:5px solid black"">","","","","","","","",""
"","2851.0000000242144","sequential-stimulus-presentation-old","40","310190","0.0-13.0-1.4","SS1618365696645","trial","","40","500","3351.0000000242144","images/stimuli/spore_stims/complex_05_A_a.gif","images/stimuli/spore_stims/complex_18_A_b.gif","forced_short","","2","complex_dissimilar","images/stimuli/spore_stims/complex_18_A_b.gif","","","","",""
"","null","html-keyboard-response","41","311257","0.0-13.0-0.5","SS1618365696645","","","null","","","","","","<p><img src= images/blank.png width =""600"" height = ""600"" style=""position:fixed;top:50%; left:50%; transform: translate(-50%, -50%); border:5px solid black"">","","","","","","","",""
"","5147.000000055414","sequential-stimulus-presentation-old","42","316906","0.0-13.0-1.5","SS1618365696645","trial","","40","500","5647.000000055414","images/stimuli/spore_stims/complex_05_A_a.gif","images/stimuli/spore_stims/complex_18_A_b.gif","forced_short","","2","complex_dissimilar","images/stimuli/spore_stims/complex_18_A_b.gif","","","","",""
"","7120.999999984633","survey-multi-choice","43","324029","0.0-14.0","SS1618365696645","math_question","","","","","","","","","","","","{""Q0"":""11""}","[0]","11","",""
"","null","html-keyboard-response","44","324849","0.0-15.0-0.0","SS1618365696645","","","null","","","","","","<p><img src= images/blank.png width =""600"" height = ""600"" style=""position:fixed;top:50%; left:50%; transform: translate(-50%, -50%); border:5px solid black"">","","","","","","","",""
"","987.0000000228174","sequential-stimulus-presentation-old","45","330843","0.0-15.0-1.0","SS1618365696645","trial","","40","500","1487.0000000228174","images/stimuli/spore_stims/simple_19_A_a.gif","images/stimuli/spore_stims/simple_09_A_b.gif","forced_long","","3","simple_dissimilar","images/stimuli/spore_stims/simple_09_A_b.gif","","","","",""
"","null","html-keyboard-response","46","331839","0.0-15.0-0.1","SS1618365696645","","","null","","","","","","<p><img src= images/blank.png width =""600"" height = ""600"" style=""position:fixed;top:50%; left:50%; transform: translate(-50%, -50%); border:5px solid black"">","","","","","","","",""
"","6181.999999971595","sequential-stimulus-presentation-old","47","338529","0.0-15.0-1.1","SS1618365696645","trial","","40","500","6681.999999971595","images/stimuli/spore_stims/simple_19_A_a.gif","images/stimuli/spore_stims/simple_09_A_b.gif","forced_long","","3","simple_dissimilar","images/stimuli/spore_stims/simple_09_A_b.gif","","","","",""
"","null","html-keyboard-response","48","339399","0.0-15.0-0.2","SS1618365696645","","","null","","","","","","<p><img src= images/blank.png width =""600"" height = ""600"" style=""position:fixed;top:50%; left:50%; transform: translate(-50%, -50%); border:5px solid black"">","","","","","","","",""
"","2319.000000017695","sequential-stimulus-presentation-old","49","342239","0.0-15.0-1.2","SS1618365696645","trial","","40","500","2819.000000017695","images/stimuli/spore_stims/simple_19_A_a.gif","images/stimuli/spore_stims/simple_09_A_b.gif","forced_long","","3","simple_dissimilar","images/stimuli/spore_stims/simple_09_A_b.gif","","","","",""
"","null","html-keyboard-response","50","343225","0.0-15.0-0.3","SS1618365696645","","","null","","","","","","<p><img src= images/blank.png width =""600"" height = ""600"" style=""position:fixed;top:50%; left:50%; transform: translate(-50%, -50%); border:5px solid black"">","","","","","","","",""
"","3215.0000000256114","sequential-stimulus-presentation-old","51","346946","0.0-15.0-1.3","SS1618365696645","trial","","40","500","3715.0000000256114","images/stimuli/spore_stims/simple_19_A_a.gif","images/stimuli/spore_stims/simple_09_A_b.gif","forced_long","","3","simple_dissimilar","images/stimuli/spore_stims/simple_09_A_b.gif","","","","",""
"","null","html-keyboard-response","52","347890","0.0-15.0-0.4","SS1618365696645","","","null","","","","","","<p><img src= images/blank.png width =""600"" height = ""600"" style=""position:fixed;top:50%; left:50%; transform: translate(-50%, -50%); border:5px solid black"">","","","","","","","",""
"","3434.000000008382","sequential-stimulus-presentation-old","53","351870","0.0-15.0-1.4","SS1618365696645","trial","","40","500","3934.000000008382","images/stimuli/spore_stims/simple_19_A_a.gif","images/stimuli/spore_stims/simple_09_A_b.gif","forced_long","","3","simple_dissimilar","images/stimuli/spore_stims/simple_09_A_b.gif","","","","",""
"","null","html-keyboard-response","54","353148","0.0-15.0-0.5","SS1618365696645","","","null","","","","","","<p><img src= images/blank.png width =""600"" height = ""600"" style=""position:fixed;top:50%; left:50%; transform: translate(-50%, -50%); border:5px solid black"">","","","","","","","",""
"","1609.9999999860302","sequential-stimulus-presentation-old","55","355280","0.0-15.0-1.5","SS1618365696645","trial","","40","500","2109.99999998603","images/stimuli/spore_stims/simple_19_A_a.gif","images/stimuli/spore_stims/simple_09_A_b.gif","forced_long","","3","simple_dissimilar","images/stimuli/spore_stims/simple_09_A_b.gif","","","","",""
"","4798.000000009779","survey-multi-choice","56","360082","0.0-16.0","SS1618365696645","math_question","","","","","","","","","","","","{""Q0"":""10""}","[0]","10","",""
"","null","html-keyboard-response","57","361410","0.0-17.0-0.0","SS1618365696645","","","null","","","","","","<p><img src= images/blank.png width =""600"" height = ""600"" style=""position:fixed;top:50%; left:50%; transform: translate(-50%, -50%); border:5px solid black"">","","","","","","","",""
"","6140.00000001397","sequential-stimulus-presentation-old","58","368051","0.0-17.0-1.0","SS1618365696645","trial","","40","500","6640.00000001397","images/stimuli/spore_stims/complex_16_A_a.gif","images/stimuli/spore_stims/complex_14_A_b.gif","self_paced","","4","complex_dissimilar","images/stimuli/spore_stims/complex_14_A_b.gif","","","","",""
"","null","html-keyboard-response","59","369339","0.0-17.0-0.1","SS1618365696645","","","null","","","","","","<p><img src= images/blank.png width =""600"" height = ""600"" style=""position:fixed;top:50%; left:50%; transform: translate(-50%, -50%); border:5px solid black"">","","","","","","","",""
"","1125","sequential-stimulus-presentation-old","60","370970","0.0-17.0-1.1","SS1618365696645","trial","","40","500","1625","images/stimuli/spore_stims/complex_16_A_a.gif","images/stimuli/spore_stims/complex_14_A_b.gif","self_paced","","4","complex_dissimilar","images/stimuli/spore_stims/complex_14_A_b.gif","","","","",""
"","null","html-keyboard-response","61","372139","0.0-17.0-0.2","SS1618365696645","","","null","","","","","","<p><img src= images/blank.png width =""600"" height = ""600"" style=""position:fixed;top:50%; left:50%; transform: translate(-50%, -50%); border:5px solid black"">","","","","","","","",""
"","4402.999999991152","sequential-stimulus-presentation-old","62","377051","0.0-17.0-1.2","SS1618365696645","trial","","40","500","4902.999999991152","images/stimuli/spore_stims/complex_16_A_a.gif","images/stimuli/spore_stims/complex_14_A_b.gif","self_paced","","4","complex_dissimilar","images/stimuli/spore_stims/complex_14_A_b.gif","","","","",""
"","null","html-keyboard-response","63","377910","0.0-17.0-0.3","SS1618365696645","","","null","","","","","","<p><img src= images/blank.png width =""600"" height = ""600"" style=""position:fixed;top:50%; left:50%; transform: translate(-50%, -50%); border:5px solid black"">","","","","","","","",""
"","6054.999999993015","sequential-stimulus-presentation-old","64","384475","0.0-17.0-1.3","SS1618365696645","trial","","40","500","6554.999999993015","images/stimuli/spore_stims/complex_16_A_a.gif","images/stimuli/spore_stims/complex_14_A_b.gif","self_paced","","4","complex_dissimilar","images/stimuli/spore_stims/complex_14_A_b.gif","","","","",""
"","null","html-keyboard-response","65","385690","0.0-17.0-0.4","SS1618365696645","","","null","","","","","","<p><img src= images/blank.png width =""600"" height = ""600"" style=""position:fixed;top:50%; left:50%; transform: translate(-50%, -50%); border:5px solid black"">","","","","","","","",""
"","3855.000000039581","sequential-stimulus-presentation-old","66","390054","0.0-17.0-1.4","SS1618365696645","trial","","40","500","4355.000000039581","images/stimuli/spore_stims/complex_16_A_a.gif","images/stimuli/spore_stims/complex_14_A_b.gif","self_paced","","4","complex_dissimilar","images/stimuli/spore_stims/complex_14_A_b.gif","","","","",""
"","null","html-keyboard-response","67","391189","0.0-17.0-0.5","SS1618365696645","","","null","","","","","","<p><img src= images/blank.png width =""600"" height = ""600"" style=""position:fixed;top:50%; left:50%; transform: translate(-50%, -50%); border:5px solid black"">","","","","","","","",""
"","793.0000000051223","sequential-stimulus-presentation-old","68","392491","0.0-17.0-1.5","SS1618365696645","trial","","40","500","1293.0000000051223","images/stimuli/spore_stims/complex_16_A_a.gif","images/stimuli/spore_stims/complex_14_A_b.gif","self_paced","","4","complex_dissimilar","images/stimuli/spore_stims/complex_14_A_b.gif","","","","",""
"","4923.999999999069","survey-multi-choice","69","397419","0.0-18.0","SS1618365696645","math_question","","","","","","","","","","","","{""Q0"":""9""}","[0]","9","",""
"","null","html-keyboard-response","70","398647","0.0-19.0-0.0","SS1618365696645","","","null","","","","","","<p><img src= images/blank.png width =""600"" height = ""600"" style=""position:fixed;top:50%; left:50%; transform: translate(-50%, -50%); border:5px solid black"">","","","","","","","",""
"","1130.0000000046566","sequential-stimulus-presentation-old","71","399840","0.0-19.0-1.0","SS1618365696645","trial","","40","500","1630.0000000046566","images/stimuli/spore_stims/simple_08_A_b.gif","images/stimuli/spore_stims/simple_18_A_a.gif","forced_short","","5","simple_dissimilar","images/stimuli/spore_stims/simple_18_A_a.gif","","","","",""
"","null","html-keyboard-response","72","400941","0.0-19.0-0.1","SS1618365696645","","","null","","","","","","<p><img src= images/blank.png width =""600"" height = ""600"" style=""position:fixed;top:50%; left:50%; transform: translate(-50%, -50%); border:5px solid black"">","","","","","","","",""
"","6374.00000001071","sequential-stimulus-presentation-old","73","407821","0.0-19.0-1.1","SS1618365696645","trial","","40","500","6874.00000001071","images/stimuli/spore_stims/simple_08_A_b.gif","images/stimuli/spore_stims/simple_18_A_a.gif","forced_short","","5","simple_dissimilar","images/stimuli/spore_stims/simple_18_A_a.gif","","","","",""
"","null","html-keyboard-response","74","409071","0.0-19.0-0.2","SS1618365696645","","","null","","","","","","<p><img src= images/blank.png width =""600"" height = ""600"" style=""position:fixed;top:50%; left:50%; transform: translate(-50%, -50%); border:5px solid black"">","","","","","","","",""
"","2772.999999986496","sequential-stimulus-presentation-old","75","412355","0.0-19.0-1.2","SS1618365696645","trial","","40","500","3272.999999986496","images/stimuli/spore_stims/simple_08_A_b.gif","images/stimuli/spore_stims/simple_18_A_a.gif","forced_short","","5","simple_dissimilar","images/stimuli/spore_stims/simple_18_A_a.gif","","","","",""
"","null","html-keyboard-response","76","413220","0.0-19.0-0.3","SS1618365696645","","","null","","","","","","<p><img src= images/blank.png width =""600"" height = ""600"" style=""position:fixed;top:50%; left:50%; transform: translate(-50%, -50%); border:5px solid black"">","","","","","","","",""
"","2574.0000000223517","sequential-stimulus-presentation-old","77","416312","0.0-19.0-1.3","SS1618365696645","trial","","40","500","3074.0000000223517","images/stimuli/spore_stims/simple_08_A_b.gif","images/stimuli/spore_stims/simple_18_A_a.gif","forced_short","","5","simple_dissimilar","images/stimuli/spore_stims/simple_18_A_a.gif","","","","",""
"","null","html-keyboard-response","78","417180","0.0-19.0-0.4","SS1618365696645","","","null","","","","","","<p><img src= images/blank.png width =""600"" height = ""600"" style=""position:fixed;top:50%; left:50%; transform: translate(-50%, -50%); border:5px solid black"">","","","","","","","",""
"","4435.9999999869615","sequential-stimulus-presentation-old","79","422115","0.0-19.0-1.4","SS1618365696645","trial","","40","500","4935.9999999869615","images/stimuli/spore_stims/simple_08_A_b.gif","images/stimuli/spore_stims/simple_18_A_a.gif","forced_short","","5","simple_dissimilar","images/stimuli/spore_stims/simple_18_A_a.gif","","","","",""
"","9658.999999985099","survey-multi-choice","80","431779","0.0-20.0","SS1618365696645","math_question","","","","","","","","","","","","{""Q0"":""16""}","[0]","16","",""
"","null","html-keyboard-response","81","432864","0.0-21.0-0.0","SS1618365696645","","","null","","","","","","<p><img src= images/blank.png width =""600"" height = ""600"" style=""position:fixed;top:50%; left:50%; transform: translate(-50%, -50%); border:5px solid black"">","","","","","","","",""
"","1629.0000000153668","sequential-stimulus-presentation-old","82","434551","0.0-21.0-1.0","SS1618365696645","trial","","40","500","2129.000000015367","images/stimuli/spore_stims/complex_15_A_a.gif","images/stimuli/spore_stims/complex_02_A_b.gif","forced_short","","6","complex_dissimilar","images/stimuli/spore_stims/complex_02_A_b.gif","","","","",""
"","null","html-keyboard-response","83","435399","0.0-21.0-0.1","SS1618365696645","","","null","","","","","","<p><img src= images/blank.png width =""600"" height = ""600"" style=""position:fixed;top:50%; left:50%; transform: translate(-50%, -50%); border:5px solid black"">","","","","","","","",""
"","8314.000000013039","sequential-stimulus-presentation-old","84","444222","0.0-21.0-1.1","SS1618365696645","trial","","40","500","8814.000000013039","images/stimuli/spore_stims/complex_15_A_a.gif","images/stimuli/spore_stims/complex_02_A_b.gif","forced_short","","6","complex_dissimilar","images/stimuli/spore_stims/complex_15_A_a.gif","","","","",""
"","null","html-keyboard-response","85","445288","0.0-21.0-0.2","SS1618365696645","","","null","","","","","","<p><img src= images/blank.png width =""600"" height = ""600"" style=""position:fixed;top:50%; left:50%; transform: translate(-50%, -50%); border:5px solid black"">","","","","","","","",""
"","7869.000000006054","sequential-stimulus-presentation-old","86","453667","0.0-21.0-1.2","SS1618365696645","trial","","40","500","8369.000000006054","images/stimuli/spore_stims/complex_15_A_a.gif","images/stimuli/spore_stims/complex_02_A_b.gif","forced_short","","6","complex_dissimilar","images/stimuli/spore_stims/complex_02_A_b.gif","","","","",""
"","null","html-keyboard-response","87","454808","0.0-21.0-0.3","SS1618365696645","","","null","","","","","","<p><img src= images/blank.png width =""600"" height = ""600"" style=""position:fixed;top:50%; left:50%; transform: translate(-50%, -50%); border:5px solid black"">","","","","","","","",""
"","2186.9999999762513","sequential-stimulus-presentation-old","88","457506","0.0-21.0-1.3","SS1618365696645","trial","","40","500","2686.9999999762513","images/stimuli/spore_stims/complex_15_A_a.gif","images/stimuli/spore_stims/complex_02_A_b.gif","forced_short","","6","complex_dissimilar","images/stimuli/spore_stims/complex_15_A_a.gif","","","","",""
"","null","html-keyboard-response","89","458509","0.0-21.0-0.4","SS1618365696645","","","null","","","","","","<p><img src= images/blank.png width =""600"" height = ""600"" style=""position:fixed;top:50%; left:50%; transform: translate(-50%, -50%); border:5px solid black"">","","","","","","","",""
"","2145.0000000186265","sequential-stimulus-presentation-old","90","461159","0.0-21.0-1.4","SS1618365696645","trial","","40","500","2645.0000000186265","images/stimuli/spore_stims/complex_15_A_a.gif","images/stimuli/spore_stims/complex_02_A_b.gif","forced_short","","6","complex_dissimilar","images/stimuli/spore_stims/complex_02_A_b.gif","","","","",""
"","null","html-keyboard-response","91","462429","0.0-21.0-0.5","SS1618365696645","","","null","","","","","","<p><img src= images/blank.png width =""600"" height = ""600"" style=""position:fixed;top:50%; left:50%; transform: translate(-50%, -50%); border:5px solid black"">","","","","","","","",""
"","1233.0000000074506","sequential-stimulus-presentation-old","92","464175","0.0-21.0-1.5","SS1618365696645","trial","","40","500","1733.0000000074506","images/stimuli/spore_stims/complex_15_A_a.gif","images/stimuli/spore_stims/complex_02_A_b.gif","forced_short","","6","complex_dissimilar","images/stimuli/spore_stims/complex_02_A_b.gif","","","","",""
"","4976.000000024214","survey-multi-choice","93","469159","0.0-22.0","SS1618365696645","math_question","","","","","","","","","","","","{""Q0"":""5""}","[0]","5","",""
"","null","html-keyboard-response","94","470046","0.0-23.0-0.0","SS1618365696645","","","null","","","","","","<p><img src= images/blank.png width =""600"" height = ""600"" style=""position:fixed;top:50%; left:50%; transform: translate(-50%, -50%); border:5px solid black"">","","","","","","","",""
"","13160.999999963678","sequential-stimulus-presentation-old","95","483731","0.0-23.0-1.0","SS1618365696645","trial","","40","500","13660.999999963678","images/stimuli/spore_stims/complex_04_A_a.gif","images/stimuli/spore_stims/complex_10_A_b.gif","self_paced","","7","complex_dissimilar","images/stimuli/spore_stims/complex_10_A_b.gif","","","","",""
"","null","html-keyboard-response","96","484849","0.0-23.0-0.1","SS1618365696645","","","null","","","","","","<p><img src= images/blank.png width =""600"" height = ""600"" style=""position:fixed;top:50%; left:50%; transform: translate(-50%, -50%); border:5px solid black"">","","","","","","","",""
"","3339.9999999674037","sequential-stimulus-presentation-old","97","488719","0.0-23.0-1.1","SS1618365696645","trial","","40","500","3839.9999999674037","images/stimuli/spore_stims/complex_04_A_a.gif","images/stimuli/spore_stims/complex_10_A_b.gif","self_paced","","7","complex_dissimilar","images/stimuli/spore_stims/complex_10_A_b.gif","","","","",""
"","null","html-keyboard-response","98","489730","0.0-23.0-0.2","SS1618365696645","","","null","","","","","","<p><img src= images/blank.png width =""600"" height = ""600"" style=""position:fixed;top:50%; left:50%; transform: translate(-50%, -50%); border:5px solid black"">","","","","","","","",""
"","1664.9999999790452","sequential-stimulus-presentation-old","99","491916","0.0-23.0-1.2","SS1618365696645","trial","","40","500","2164.9999999790452","images/stimuli/spore_stims/complex_04_A_a.gif","images/stimuli/spore_stims/complex_10_A_b.gif","self_paced","","7","complex_dissimilar","images/stimuli/spore_stims/complex_10_A_b.gif","","","","",""
"","null","html-keyboard-response","100","492885","0.0-23.0-0.3","SS1618365696645","","","null","","","","","","<p><img src= images/blank.png width =""600"" height = ""600"" style=""position:fixed;top:50%; left:50%; transform: translate(-50%, -50%); border:5px solid black"">","","","","","","","",""
"","970.000000030268","sequential-stimulus-presentation-old","101","494369","0.0-23.0-1.3","SS1618365696645","trial","","40","500","1470.000000030268","images/stimuli/spore_stims/complex_04_A_a.gif","images/stimuli/spore_stims/complex_10_A_b.gif","self_paced","","7","complex_dissimilar","images/stimuli/spore_stims/complex_10_A_b.gif","","","","",""
"","3800.9999999776483","survey-multi-choice","102","498170","0.0-24.0","SS1618365696645","math_question","","","","","","","","","","","","{""Q0"":""3""}","[0]","3","",""
"","null","html-keyboard-response","103","499027","0.0-25.0-0.0","SS1618365696645","","","null","","","","","","<p><img src= images/blank.png width =""600"" height = ""600"" style=""position:fixed;top:50%; left:50%; transform: translate(-50%, -50%); border:5px solid black"">","","","","","","","",""
"","1259.0000000200234","sequential-stimulus-presentation-old","104","505311","0.0-25.0-1.0","SS1618365696645","trial","","40","500","1759.0000000200234","images/stimuli/spore_stims/complex_03_A_a.gif","images/stimuli/spore_stims/complex_04_A_b.gif","forced_long","","8","complex_dissimilar","images/stimuli/spore_stims/complex_04_A_b.gif","","","","",""
"","null","html-keyboard-response","105","506229","0.0-25.0-0.1","SS1618365696645","","","null","","","","","","<p><img src= images/blank.png width =""600"" height = ""600"" style=""position:fixed;top:50%; left:50%; transform: translate(-50%, -50%); border:5px solid black"">","","","","","","","",""
"","6075.0000000116415","sequential-stimulus-presentation-old","106","512820","0.0-25.0-1.1","SS1618365696645","trial","","40","500","6575.0000000116415","images/stimuli/spore_stims/complex_03_A_a.gif","images/stimuli/spore_stims/complex_04_A_b.gif","forced_long","","8","complex_dissimilar","images/stimuli/spore_stims/complex_03_A_a.gif","","","","",""
"","null","html-keyboard-response","107","513909","0.0-25.0-0.2","SS1618365696645","","","null","","","","","","<p><img src= images/blank.png width =""600"" height = ""600"" style=""position:fixed;top:50%; left:50%; transform: translate(-50%, -50%); border:5px solid black"">","","","","","","","",""
"","1368.0000000167638","sequential-stimulus-presentation-old","108","515795","0.0-25.0-1.2","SS1618365696645","trial","","40","500","1868.0000000167638","images/stimuli/spore_stims/complex_03_A_a.gif","images/stimuli/spore_stims/complex_04_A_b.gif","forced_long","","8","complex_dissimilar","images/stimuli/spore_stims/complex_04_A_b.gif","","","","",""
"","null","html-keyboard-response","109","516729","0.0-25.0-0.3","SS1618365696645","","","null","","","","","","<p><img src= images/blank.png width =""600"" height = ""600"" style=""position:fixed;top:50%; left:50%; transform: translate(-50%, -50%); border:5px solid black"">","","","","","","","",""
"","1053.0000000144355","sequential-stimulus-presentation-old","110","518283","0.0-25.0-1.3","SS1618365696645","trial","","40","500","1553.0000000144355","images/stimuli/spore_stims/complex_03_A_a.gif","images/stimuli/spore_stims/complex_04_A_b.gif","forced_long","","8","complex_dissimilar","images/stimuli/spore_stims/complex_04_A_b.gif","","","","",""
"","8843.99999998277","survey-multi-choice","111","527131","0.0-26.0","SS1618365696645","math_question","","","","","","","","","","","","{""Q0"":""14""}","[0]","14","",""
"","null","html-keyboard-response","112","528009","0.0-27.0-0.0","SS1618365696645","","","null","","","","","","<p><img src= images/blank.png width =""600"" height = ""600"" style=""position:fixed;top:50%; left:50%; transform: translate(-50%, -50%); border:5px solid black"">","","","","","","","",""
"","700.0000000116415","sequential-stimulus-presentation-old","113","533740","0.0-27.0-1.0","SS1618365696645","trial","","40","500","1200.0000000116415","images/stimuli/spore_stims/simple_13_A_a.gif","images/stimuli/spore_stims/simple_19_A_b.gif","forced_long","","9","simple_dissimilar","images/stimuli/spore_stims/simple_19_A_b.gif","","","","",""
"","null","html-keyboard-response","114","534828","0.0-27.0-0.1","SS1618365696645","","","null","","","","","","<p><img src= images/blank.png width =""600"" height = ""600"" style=""position:fixed;top:50%; left:50%; transform: translate(-50%, -50%); border:5px solid black"">","","","","","","","",""
"","1239.000000001397","sequential-stimulus-presentation-old","115","536586","0.0-27.0-1.1","SS1618365696645","trial","","40","500","1739.000000001397","images/stimuli/spore_stims/simple_13_A_a.gif","images/stimuli/spore_stims/simple_19_A_b.gif","forced_long","","9","simple_dissimilar","images/stimuli/spore_stims/simple_19_A_b.gif","","","","",""
"","null","html-keyboard-response","116","537746","0.0-27.0-0.2","SS1618365696645","","","null","","","","","","<p><img src= images/blank.png width =""600"" height = ""600"" style=""position:fixed;top:50%; left:50%; transform: translate(-50%, -50%); border:5px solid black"">","","","","","","","",""
"","2987.0000000228174","sequential-stimulus-presentation-old","117","541251","0.0-27.0-1.2","SS1618365696645","trial","","40","500","3487.0000000228174","images/stimuli/spore_stims/simple_13_A_a.gif","images/stimuli/spore_stims/simple_19_A_b.gif","forced_long","","9","simple_dissimilar","images/stimuli/spore_stims/simple_13_A_a.gif","","","","",""
"","null","html-keyboard-response","118","542090","0.0-27.0-0.3","SS1618365696645","","","null","","","","","","<p><img src= images/blank.png width =""600"" height = ""600"" style=""position:fixed;top:50%; left:50%; transform: translate(-50%, -50%); border:5px solid black"">","","","","","","","",""
"","1033.9999999850988","sequential-stimulus-presentation-old","119","543643","0.0-27.0-1.3","SS1618365696645","trial","","40","500","1533.9999999850988","images/stimuli/spore_stims/simple_13_A_a.gif","images/stimuli/spore_stims/simple_19_A_b.gif","forced_long","","9","simple_dissimilar","images/stimuli/spore_stims/simple_19_A_b.gif","","","","",""
"","null","html-keyboard-response","120","544690","0.0-27.0-0.4","SS1618365696645","","","null","","","","","","<p><img src= images/blank.png width =""600"" height = ""600"" style=""position:fixed;top:50%; left:50%; transform: translate(-50%, -50%); border:5px solid black"">","","","","","","","",""
"","277.99999999115244","sequential-stimulus-presentation-old","121","545498","0.0-27.0-1.4","SS1618365696645","trial","","40","500","777.9999999911524","images/stimuli/spore_stims/simple_13_A_a.gif","images/stimuli/spore_stims/simple_19_A_b.gif","forced_long","","9","simple_dissimilar","images/stimuli/spore_stims/simple_19_A_b.gif","","","","",""
"","null","html-keyboard-response","122","546609","0.0-27.0-0.5","SS1618365696645","","","null","","","","","","<p><img src= images/blank.png width =""600"" height = ""600"" style=""position:fixed;top:50%; left:50%; transform: translate(-50%, -50%); border:5px solid black"">","","","","","","","",""
"","259.00000002002344","sequential-stimulus-presentation-old","123","547370","0.0-27.0-1.5","SS1618365696645","trial","","40","500","759.0000000200234","images/stimuli/spore_stims/simple_13_A_a.gif","images/stimuli/spore_stims/simple_19_A_b.gif","forced_long","","9","simple_dissimilar","images/stimuli/spore_stims/simple_19_A_b.gif","","","","",""
"","3437.000000034459","survey-multi-choice","124","550810","0.0-28.0","SS1618365696645","math_question","","","","","","","","","","","","{""Q0"":""8""}","[0]","8","",""
"","null","html-keyboard-response","125","552009","0.0-29.0-0.0","SS1618365696645","","","null","","","","","","<p><img src= images/blank.png width =""600"" height = ""600"" style=""position:fixed;top:50%; left:50%; transform: translate(-50%, -50%); border:5px solid black"">","","","","","","","",""
"","11010.000000009313","sequential-stimulus-presentation-old","126","563530","0.0-29.0-1.0","SS1618365696645","trial","","40","500","11510.000000009313","images/stimuli/spore_stims/simple_05_A_a.gif","images/stimuli/spore_stims/simple_15_A_b.gif","self_paced","","10","simple_dissimilar","images/stimuli/spore_stims/simple_15_A_b.gif","","","","",""
"","null","html-keyboard-response","127","564794","0.0-29.0-0.1","SS1618365696645","","","null","","","","","","<p><img src= images/blank.png width =""600"" height = ""600"" style=""position:fixed;top:50%; left:50%; transform: translate(-50%, -50%); border:5px solid black"">","","","","","","","",""
"","527.0000000018626","sequential-stimulus-presentation-old","128","565834","0.0-29.0-1.1","SS1618365696645","trial","","40","500","1027.0000000018626","images/stimuli/spore_stims/simple_05_A_a.gif","images/stimuli/spore_stims/simple_15_A_b.gif","self_paced","","10","simple_dissimilar","images/stimuli/spore_stims/simple_15_A_b.gif","","","","",""
"","null","html-keyboard-response","129","566668","0.0-29.0-0.2","SS1618365696645","","","null","","","","","","<p><img src= images/blank.png width =""600"" height = ""600"" style=""position:fixed;top:50%; left:50%; transform: translate(-50%, -50%); border:5px solid black"">","","","","","","","",""
"","1190.0000000023283","sequential-stimulus-presentation-old","130","568370","0.0-29.0-1.2","SS1618365696645","trial","","40","500","1690.0000000023283","images/stimuli/spore_stims/simple_05_A_a.gif","images/stimuli/spore_stims/simple_15_A_b.gif","self_paced","","10","simple_dissimilar","images/stimuli/spore_stims/simple_15_A_b.gif","","","","",""
"","null","html-keyboard-response","131","569579","0.0-29.0-0.3","SS1618365696645","","","null","","","","","","<p><img src= images/blank.png width =""600"" height = ""600"" style=""position:fixed;top:50%; left:50%; transform: translate(-50%, -50%); border:5px solid black"">","","","","","","","",""
"","6379.000000015367","sequential-stimulus-presentation-old","132","576474","0.0-29.0-1.3","SS1618365696645","trial","","40","500","6879.000000015367","images/stimuli/spore_stims/simple_05_A_a.gif","images/stimuli/spore_stims/simple_15_A_b.gif","self_paced","","10","simple_dissimilar","images/stimuli/spore_stims/simple_05_A_a.gif","","","","",""
"","null","html-keyboard-response","133","577527","0.0-29.0-0.4","SS1618365696645","","","null","","","","","","<p><img src= images/blank.png width =""600"" height = ""600"" style=""position:fixed;top:50%; left:50%; transform: translate(-50%, -50%); border:5px solid black"">","","","","","","","",""
"","2440.999999991618","sequential-stimulus-presentation-old","134","580490","0.0-29.0-1.4","SS1618365696645","trial","","40","500","2940.999999991618","images/stimuli/spore_stims/simple_05_A_a.gif","images/stimuli/spore_stims/simple_15_A_b.gif","self_paced","","10","simple_dissimilar","images/stimuli/spore_stims/simple_05_A_a.gif","","","","",""
"","12086.000000010245","survey-multi-choice","135","592581","0.0-30.0","SS1618365696645","math_question","","","","","","","","","","","","{""Q0"":""14""}","[0]","14","",""
"","null","html-keyboard-response","136","593819","0.0-31.0-0.0","SS1618365696645","","","null","","","","","","<p><img src= images/blank.png width =""600"" height = ""600"" style=""position:fixed;top:50%; left:50%; transform: translate(-50%, -50%); border:5px solid black"">","","","","","","","",""
"","689.9999999441206","sequential-stimulus-presentation-old","137","599520","0.0-31.0-1.0","SS1618365696645","trial","","40","500","1189.9999999441206","images/stimuli/spore_stims/complex_09_A_a.gif","images/stimuli/spore_stims/complex_11_A_b.gif","forced_long","","11","complex_dissimilar","images/stimuli/spore_stims/complex_11_A_b.gif","","","","",""
"","null","html-keyboard-response","138","600378","0.0-31.0-0.1","SS1618365696645","","","null","","","","","","<p><img src= images/blank.png width =""600"" height = ""600"" style=""position:fixed;top:50%; left:50%; transform: translate(-50%, -50%); border:5px solid black"">","","","","","","","",""
"","6062.999999965541","sequential-stimulus-presentation-old","139","606960","0.0-31.0-1.1","SS1618365696645","trial","","40","500","6562.999999965541","images/stimuli/spore_stims/complex_09_A_a.gif","images/stimuli/spore_stims/complex_11_A_b.gif","forced_long","","11","complex_dissimilar","images/stimuli/spore_stims/complex_09_A_a.gif","","","","",""
"","null","html-keyboard-response","140","607879","0.0-31.0-0.2","SS1618365696645","","","null","","","","","","<p><img src= images/blank.png width =""600"" height = ""600"" style=""position:fixed;top:50%; left:50%; transform: translate(-50%, -50%); border:5px solid black"">","","","","","","","",""
"","3295.0000000419095","sequential-stimulus-presentation-old","141","611690","0.0-31.0-1.2","SS1618365696645","trial","","40","500","3795.0000000419095","images/stimuli/spore_stims/complex_09_A_a.gif","images/stimuli/spore_stims/complex_11_A_b.gif","forced_long","","11","complex_dissimilar","images/stimuli/spore_stims/complex_11_A_b.gif","","","","",""
"","null","html-keyboard-response","142","612778","0.0-31.0-0.3","SS1618365696645","","","null","","","","","","<p><img src= images/blank.png width =""600"" height = ""600"" style=""position:fixed;top:50%; left:50%; transform: translate(-50%, -50%); border:5px solid black"">","","","","","","","",""
"","294.0000000526197","sequential-stimulus-presentation-old","143","613591","0.0-31.0-1.3","SS1618365696645","trial","","40","500","794.0000000526197","images/stimuli/spore_stims/complex_09_A_a.gif","images/stimuli/spore_stims/complex_11_A_b.gif","forced_long","","11","complex_dissimilar","images/stimuli/spore_stims/complex_11_A_b.gif","","","","",""
"","null","html-keyboard-response","144","614568","0.0-31.0-0.4","SS1618365696645","","","null","","","","","","<p><img src= images/blank.png width =""600"" height = ""600"" style=""position:fixed;top:50%; left:50%; transform: translate(-50%, -50%); border:5px solid black"">","","","","","","","",""
"","321.9999999855645","sequential-stimulus-presentation-old","145","615400","0.0-31.0-1.4","SS1618365696645","trial","","40","500","821.9999999855645","images/stimuli/spore_stims/complex_09_A_a.gif","images/stimuli/spore_stims/complex_11_A_b.gif","forced_long","","11","complex_dissimilar","images/stimuli/spore_stims/complex_09_A_a.gif","","","","",""
"[{""page_index"":0,""viewing_time"":4560.9999999869615}]","4560.9999999869615","instructions","146","619970","0.0-32.0","SS1618365696645","instructions","","","","","","","","","","","","","","","",""
"","12168.000000005122","survey-likert","147","632140","0.0-33.0","SS1618365696645","similarity_question","","","","","","","","","","","","{""Q0"":4}","[0]","","images/stimuli/spore_stims/simple_03_A_a.gif","images/stimuli/spore_stims/simple_07_A_b.gif"
"","7061.999999976251","survey-likert","148","639220","0.0-34.0","SS1618365696645","similarity_question","","","","","","","","","","","","{""Q0"":0}","[0]","","images/stimuli/spore_stims/simple_08_A_b.gif","images/stimuli/spore_stims/simple_18_A_a.gif"
"","8055.999999982305","survey-likert","149","647290","0.0-35.0","SS1618365696645","similarity_question","","","","","","","","","","","","{""Q0"":4}","[0]","","images/stimuli/spore_stims/simple_15_A_b.gif","images/stimuli/spore_stims/simple_05_A_a.gif"
"","8073.000000033062","survey-likert","150","655375","0.0-36.0","SS1618365696645","similarity_question","","","","","","","","","","","","{""Q0"":1}","[0]","","images/stimuli/spore_stims/complex_16_A_a.gif","images/stimuli/spore_stims/complex_14_A_b.gif"
"","8540.000000037253","survey-likert","151","663929","0.0-37.0","SS1618365696645","similarity_question","","","","","","","","","","","","{""Q0"":1}","[0]","","images/stimuli/spore_stims/complex_15_A_a.gif","images/stimuli/spore_stims/complex_02_A_b.gif"
"","5088.999999978114","survey-likert","152","669032","0.0-38.0","SS1618365696645","similarity_question","","","","","","","","","","","","{""Q0"":2}","[0]","","images/stimuli/spore_stims/simple_09_A_b.gif","images/stimuli/spore_stims/simple_19_A_a.gif"
"","6270.000000018626","survey-likert","153","675310","0.0-39.0","SS1618365696645","similarity_question","","","","","","","","","","","","{""Q0"":1}","[0]","","images/stimuli/spore_stims/complex_18_A_b.gif","images/stimuli/spore_stims/complex_05_A_a.gif"
"","6005.999999993946","survey-likert","154","681335","0.0-40.0","SS1618365696645","similarity_question","","","","","","","","","","","","{""Q0"":2}","[0]","","images/stimuli/spore_stims/simple_13_A_a.gif","images/stimuli/spore_stims/simple_19_A_b.gif"
"","6641.00000000326","survey-likert","155","687989","0.0-41.0","SS1618365696645","similarity_question","","","","","","","","","","","","{""Q0"":2}","[0]","","images/stimuli/spore_stims/simple_16_A_a.gif","images/stimuli/spore_stims/simple_05_A_b.gif"
"","13680.999999982305","survey-likert","156","701682","0.0-42.0","SS1618365696645","similarity_question","","","","","","","","","","","","{""Q0"":2}","[0]","","images/stimuli/spore_stims/complex_03_A_a.gif","images/stimuli/spore_stims/complex_04_A_b.gif"
"","7976.9999999552965","survey-likert","157","709672","0.0-43.0","SS1618365696645","similarity_question","","","","","","","","","","","","{""Q0"":0}","[0]","","images/stimuli/spore_stims/complex_09_A_a.gif","images/stimuli/spore_stims/complex_11_A_b.gif"
"","11821.999999985565","survey-likert","158","721508","0.0-44.0","SS1618365696645","similarity_question","","","","","","","","","","","","{""Q0"":5}","[0]","","images/stimuli/spore_stims/complex_10_A_b.gif","images/stimuli/spore_stims/complex_04_A_a.gif"
"[{""page_index"":0,""viewing_time"":5720.000000030268}]","5720.000000030268","instructions","159","727241","0.0-45.0","SS1618365696645","instructions","","","","","","","","","","","","","","","",""
"","8163.000000000466","survey-likert","160","735411","0.0-46.0","SS1618365696645","","","","","","","","","images/stimuli/spore_stims/simple_19_A_a.gif","","","","{""Q0"":1}","[0]","","",""
"","3063.0000000237487","survey-likert","161","738484","0.0-47.0","SS1618365696645","","","","","","","","","images/stimuli/spore_stims/simple_03_A_a.gif","","","","{""Q0"":1}","[0]","","",""
"","11234.99999998603","survey-likert","162","749732","0.0-48.0","SS1618365696645","","","","","","","","","images/stimuli/spore_stims/complex_05_A_a.gif","","","","{""Q0"":4}","[0]","","",""
"","4359.99999998603","survey-likert","163","754102","0.0-49.0","SS1618365696645","","","","","","","","","images/stimuli/spore_stims/complex_09_A_a.gif","","","","{""Q0"":5}","[0]","","",""
"","7267.999999981839","survey-likert","164","761383","0.0-50.0","SS1618365696645","","","","","","","","","images/stimuli/spore_stims/complex_04_A_a.gif","","","","{""Q0"":4}","[0]","","",""
"","5146.000000007916","survey-likert","165","766542","0.0-51.0","SS1618365696645","","","","","","","","","images/stimuli/spore_stims/simple_15_A_b.gif","","","","{""Q0"":1}","[0]","","",""
"","7794.999999983702","survey-likert","166","774351","0.0-52.0","SS1618365696645","","","","","","","","","images/stimuli/spore_stims/complex_04_A_b.gif","","","","{""Q0"":4}","[0]","","",""
"","4087.999999988824","survey-likert","167","778459","0.0-53.0","SS1618365696645","","","","","","","","","images/stimuli/spore_stims/simple_16_A_a.gif","","","","{""Q0"":1}","[0]","","",""
"","6398.0000000447035","survey-likert","168","784870","0.0-54.0","SS1618365696645","","","","","","","","","images/stimuli/spore_stims/complex_16_A_a.gif","","","","{""Q0"":6}","[0]","","",""
"","6532.000000006519","survey-likert","169","791414","0.0-55.0","SS1618365696645","","","","","","","","","images/stimuli/spore_stims/complex_02_A_b.gif","","","","{""Q0"":6}","[0]","","",""
"","12176.999999966938","survey-likert","170","803601","0.0-56.0","SS1618365696645","","","","","","","","","images/stimuli/spore_stims/simple_08_A_b.gif","","","","{""Q0"":0}","[0]","","",""
"","2581.000000005588","survey-likert","171","806205","0.0-57.0","SS1618365696645","","","","","","","","","images/stimuli/spore_stims/simple_13_A_a.gif","","","","{""Q0"":0}","[0]","","",""
"[{""page_index"":0,""viewing_time"":2614.999999990687}]","2614.999999990687","instructions","172","808832","0.0-58.0","SS1618365696645","instructions","","","","","","","","","","","","","","","",""
"","5461.000000010245","demog-age","173","814304","0.0-59.0","SS1618365696645","","","","","","","","","","","","","{""age"":""21""}","","","",""
"","6478.999999992084","demog-ethnic-US","174","820797","0.0-60.0","SS1618365696645","","","","","","","","","","","","","{""ethnicity"":[""White""]}","[0]","","",""
"","9543.999999994412","demog-gender-and-education","175","830355","0.0-61.0","SS1618365696645","","","","","","","","","","","","","{""gender"":""Male"",""education"":""High school diploma""}","[0,1]","","",""
"","21956.999999994878","survey-text","176","852329","0.0-62.0","SS1618365696645","feedback","","","","","","","","","","","","{""Q0"":""It was smooth.""}","","","",""
"[{""page_index"":0,""viewing_time"":3456.9999999948777}]","3456.9999999948777","instructions","177","855790","0.0-63.0","SS1618365696645","instructions","","","","","","","","","","","","","","","",""
