"view_history","rt","trial_type","trial_index","time_elapsed","internal_node_id","subject","stimulus_type","trial_stimulus","key_press","minimum_viewing_duration","trial_looking_time","block_deviant","block_background","exposure_type","stimulus","block_number","block_type","stimulus_displayed","responses","question_order","math_correct_answer","stimulus_left","stimulus_right"
"[{""page_index"":0,""viewing_time"":22749.255000031553}]","22750.05999999121","instructions","0","22751","0.0-0.0","SS1618365359169","","","","","","","","","","","","","","","","",""
"[{""page_index"":0,""viewing_time"":19485.194999957457},{""page_index"":1,""viewing_time"":12592.414999962784}]","32077.894999994896","instructions","1","56830","0.0-1.0","SS1618365359169","instructions","","","","","","","","","","","","","","","",""
"","17242.48000001535","sequential-stimulus-presentation-old","2","74577","0.0-2.0","SS1618365359169","","","40","500","17742.48000001535","null","null","self_paced","","","","","","","","",""
"","14795.674999943003","sequential-stimulus-presentation-old","3","89876","0.0-3.0","SS1618365359169","","","40","500","15295.674999943003","null","null","self_paced","","","","","","","","",""
"[{""page_index"":0,""viewing_time"":20097.34999993816}]","20097.75499999523","instructions","4","109974","0.0-4.0","SS1618365359169","instructions","","","","","","","","","","","","","","","",""
"","4127.945000072941","sequential-stimulus-presentation-old","5","119105","0.0-5.0","SS1618365359169","","","40","500","4627.945000072941","null","null","forced_long","","","","","","","","",""
"","9380.910000065342","sequential-stimulus-presentation-old","6","128538","0.0-6.0","SS1618365359169","","","40","50","9430.910000065342","null","null","forced_long","","","","","","","","",""
"[{""page_index"":0,""viewing_time"":7026.660000090487}]","7026.955000008456","instructions","7","135566","0.0-7.0","SS1618365359169","instructions","","","","","","","","","","","","","","","",""
"[{""page_index"":0,""viewing_time"":9246.780000044964},{""page_index"":1,""viewing_time"":31415.824999916367},{""page_index"":2,""viewing_time"":9512.130000046454},{""page_index"":3,""viewing_time"":3176.1549999937415},{""page_index"":4,""viewing_time"":1847.7399999974295}]","55198.89500003774","instructions","8","190766","0.0-8.0","SS1618365359169","instructions","","","","","","","","","","","","","","","",""
"","null","html-keyboard-response","9","191691","0.0-9.0-0.0","SS1618365359169","","","null","","","","","","<p><img src= images/blank.png width =""600"" height = ""600"" style=""position:fixed;top:50%; left:50%; transform: translate(-50%, -50%); border:5px solid black"">","","","","","","","",""
"","2422.7249999530613","sequential-stimulus-presentation-old","10","199116","0.0-9.0-1.0","SS1618365359169","trial","","40","500","2922.7249999530613","images/stimuli/spore_stims/simple_08_A_b.gif","images/stimuli/spore_stims/simple_10_A_a.gif","forced_long","","0","simple_dissimilar","images/stimuli/spore_stims/simple_10_A_a.gif","","","","",""
"","null","html-keyboard-response","11","200117","0.0-9.0-0.1","SS1618365359169","","","null","","","","","","<p><img src= images/blank.png width =""600"" height = ""600"" style=""position:fixed;top:50%; left:50%; transform: translate(-50%, -50%); border:5px solid black"">","","","","","","","",""
"","27295.93499994371","sequential-stimulus-presentation-old","12","227916","0.0-9.0-1.1","SS1618365359169","trial","","40","500","27795.93499994371","images/stimuli/spore_stims/simple_08_A_b.gif","images/stimuli/spore_stims/simple_10_A_a.gif","forced_long","","0","simple_dissimilar","images/stimuli/spore_stims/simple_08_A_b.gif","","","","",""
"","null","html-keyboard-response","13","229175","0.0-9.0-0.2","SS1618365359169","","","null","","","","","","<p><img src= images/blank.png width =""600"" height = ""600"" style=""position:fixed;top:50%; left:50%; transform: translate(-50%, -50%); border:5px solid black"">","","","","","","","",""
"","11942.610000027344","sequential-stimulus-presentation-old","14","241620","0.0-9.0-1.2","SS1618365359169","trial","","40","500","12442.610000027344","images/stimuli/spore_stims/simple_08_A_b.gif","images/stimuli/spore_stims/simple_10_A_a.gif","forced_long","","0","simple_dissimilar","images/stimuli/spore_stims/simple_08_A_b.gif","","","","",""
"","null","html-keyboard-response","15","242732","0.0-9.0-0.3","SS1618365359169","","","null","","","","","","<p><img src= images/blank.png width =""600"" height = ""600"" style=""position:fixed;top:50%; left:50%; transform: translate(-50%, -50%); border:5px solid black"">","","","","","","","",""
"","9843.60000002198","sequential-stimulus-presentation-old","16","253080","0.0-9.0-1.3","SS1618365359169","trial","","40","500","10343.60000002198","images/stimuli/spore_stims/simple_08_A_b.gif","images/stimuli/spore_stims/simple_10_A_a.gif","forced_long","","0","simple_dissimilar","images/stimuli/spore_stims/simple_10_A_a.gif","","","","",""
"","null","html-keyboard-response","17","254349","0.0-9.0-0.4","SS1618365359169","","","null","","","","","","<p><img src= images/blank.png width =""600"" height = ""600"" style=""position:fixed;top:50%; left:50%; transform: translate(-50%, -50%); border:5px solid black"">","","","","","","","",""
"","7700.689999968745","sequential-stimulus-presentation-old","18","262553","0.0-9.0-1.4","SS1618365359169","trial","","40","500","8200.689999968745","images/stimuli/spore_stims/simple_08_A_b.gif","images/stimuli/spore_stims/simple_10_A_a.gif","forced_long","","0","simple_dissimilar","images/stimuli/spore_stims/simple_10_A_a.gif","","","","",""
"","null","html-keyboard-response","19","263660","0.0-9.0-0.5","SS1618365359169","","","null","","","","","","<p><img src= images/blank.png width =""600"" height = ""600"" style=""position:fixed;top:50%; left:50%; transform: translate(-50%, -50%); border:5px solid black"">","","","","","","","",""
"","6846.710000070743","sequential-stimulus-presentation-old","20","271013","0.0-9.0-1.5","SS1618365359169","trial","","40","500","7346.710000070743","images/stimuli/spore_stims/simple_08_A_b.gif","images/stimuli/spore_stims/simple_10_A_a.gif","forced_long","","0","simple_dissimilar","images/stimuli/spore_stims/simple_10_A_a.gif","","","","",""
"","20061.214999994263","survey-multi-choice","21","291079","0.0-10.0","SS1618365359169","math_question","","","","","","","","","","","","{""Q0"":""16""}","[0]","16","",""
"","null","html-keyboard-response","22","292380","0.0-11.0-0.0","SS1618365359169","","","null","","","","","","<p><img src= images/blank.png width =""600"" height = ""600"" style=""position:fixed;top:50%; left:50%; transform: translate(-50%, -50%); border:5px solid black"">","","","","","","","",""
"","7416.639999952167","sequential-stimulus-presentation-old","23","299851","0.0-11.0-1.0","SS1618365359169","trial","","40","500","7916.639999952167","images/stimuli/spore_stims/simple_03_A_a.gif","images/stimuli/spore_stims/simple_10_A_b.gif","forced_short","","1","simple_dissimilar","images/stimuli/spore_stims/simple_10_A_b.gif","","","","",""
"","null","html-keyboard-response","24","300743","0.0-11.0-0.1","SS1618365359169","","","null","","","","","","<p><img src= images/blank.png width =""600"" height = ""600"" style=""position:fixed;top:50%; left:50%; transform: translate(-50%, -50%); border:5px solid black"">","","","","","","","",""
"","6750.264999922365","sequential-stimulus-presentation-old","25","307999","0.0-11.0-1.1","SS1618365359169","trial","","40","500","7250.264999922365","images/stimuli/spore_stims/simple_03_A_a.gif","images/stimuli/spore_stims/simple_10_A_b.gif","forced_short","","1","simple_dissimilar","images/stimuli/spore_stims/simple_03_A_a.gif","","","","",""
"","null","html-keyboard-response","26","309090","0.0-11.0-0.2","SS1618365359169","","","null","","","","","","<p><img src= images/blank.png width =""600"" height = ""600"" style=""position:fixed;top:50%; left:50%; transform: translate(-50%, -50%); border:5px solid black"">","","","","","","","",""
"","6550.535000045784","sequential-stimulus-presentation-old","27","316145","0.0-11.0-1.2","SS1618365359169","trial","","40","500","7050.535000045784","images/stimuli/spore_stims/simple_03_A_a.gif","images/stimuli/spore_stims/simple_10_A_b.gif","forced_short","","1","simple_dissimilar","images/stimuli/spore_stims/simple_03_A_a.gif","","","","",""
"","null","html-keyboard-response","28","317182","0.0-11.0-0.3","SS1618365359169","","","null","","","","","","<p><img src= images/blank.png width =""600"" height = ""600"" style=""position:fixed;top:50%; left:50%; transform: translate(-50%, -50%); border:5px solid black"">","","","","","","","",""
"","7758.905000053346","sequential-stimulus-presentation-old","29","325446","0.0-11.0-1.3","SS1618365359169","trial","","40","500","8258.905000053346","images/stimuli/spore_stims/simple_03_A_a.gif","images/stimuli/spore_stims/simple_10_A_b.gif","forced_short","","1","simple_dissimilar","images/stimuli/spore_stims/simple_10_A_b.gif","","","","",""
"","10062.550000031479","survey-multi-choice","30","335510","0.0-12.0","SS1618365359169","math_question","","","","","","","","","","","","{""Q0"":""12""}","[0]","12","",""
"","null","html-keyboard-response","31","336618","0.0-13.0-0.0","SS1618365359169","","","null","","","","","","<p><img src= images/blank.png width =""600"" height = ""600"" style=""position:fixed;top:50%; left:50%; transform: translate(-50%, -50%); border:5px solid black"">","","","","","","","",""
"","7930.919999955222","sequential-stimulus-presentation-old","32","345054","0.0-13.0-1.0","SS1618365359169","trial","","40","500","8430.919999955222","images/stimuli/spore_stims/simple_13_A_b.gif","images/stimuli/spore_stims/simple_17_A_a.gif","self_paced","","2","simple_dissimilar","images/stimuli/spore_stims/simple_17_A_a.gif","","","","",""
"","null","html-keyboard-response","33","346171","0.0-13.0-0.1","SS1618365359169","","","null","","","","","","<p><img src= images/blank.png width =""600"" height = ""600"" style=""position:fixed;top:50%; left:50%; transform: translate(-50%, -50%); border:5px solid black"">","","","","","","","",""
"","5823.695000028238","sequential-stimulus-presentation-old","34","352500","0.0-13.0-1.1","SS1618365359169","trial","","40","500","6323.695000028238","images/stimuli/spore_stims/simple_13_A_b.gif","images/stimuli/spore_stims/simple_17_A_a.gif","self_paced","","2","simple_dissimilar","images/stimuli/spore_stims/simple_13_A_b.gif","","","","",""
"","null","html-keyboard-response","35","353591","0.0-13.0-0.2","SS1618365359169","","","null","","","","","","<p><img src= images/blank.png width =""600"" height = ""600"" style=""position:fixed;top:50%; left:50%; transform: translate(-50%, -50%); border:5px solid black"">","","","","","","","",""
"","7644.514999934472","sequential-stimulus-presentation-old","36","361739","0.0-13.0-1.2","SS1618365359169","trial","","40","500","8144.514999934472","images/stimuli/spore_stims/simple_13_A_b.gif","images/stimuli/spore_stims/simple_17_A_a.gif","self_paced","","2","simple_dissimilar","images/stimuli/spore_stims/simple_17_A_a.gif","","","","",""
"","null","html-keyboard-response","37","362857","0.0-13.0-0.3","SS1618365359169","","","null","","","","","","<p><img src= images/blank.png width =""600"" height = ""600"" style=""position:fixed;top:50%; left:50%; transform: translate(-50%, -50%); border:5px solid black"">","","","","","","","",""
"","6915.144999977201","sequential-stimulus-presentation-old","38","370277","0.0-13.0-1.3","SS1618365359169","trial","","40","500","7415.144999977201","images/stimuli/spore_stims/simple_13_A_b.gif","images/stimuli/spore_stims/simple_17_A_a.gif","self_paced","","2","simple_dissimilar","images/stimuli/spore_stims/simple_13_A_b.gif","","","","",""
"","null","html-keyboard-response","39","371550","0.0-13.0-0.4","SS1618365359169","","","null","","","","","","<p><img src= images/blank.png width =""600"" height = ""600"" style=""position:fixed;top:50%; left:50%; transform: translate(-50%, -50%); border:5px solid black"">","","","","","","","",""
"","4576.154999900609","sequential-stimulus-presentation-old","40","376632","0.0-13.0-1.4","SS1618365359169","trial","","40","500","5076.154999900609","images/stimuli/spore_stims/simple_13_A_b.gif","images/stimuli/spore_stims/simple_17_A_a.gif","self_paced","","2","simple_dissimilar","images/stimuli/spore_stims/simple_17_A_a.gif","","","","",""
"","null","html-keyboard-response","41","377483","0.0-13.0-0.5","SS1618365359169","","","null","","","","","","<p><img src= images/blank.png width =""600"" height = ""600"" style=""position:fixed;top:50%; left:50%; transform: translate(-50%, -50%); border:5px solid black"">","","","","","","","",""
"","7142.645000014454","sequential-stimulus-presentation-old","42","385130","0.0-13.0-1.5","SS1618365359169","trial","","40","500","7642.645000014454","images/stimuli/spore_stims/simple_13_A_b.gif","images/stimuli/spore_stims/simple_17_A_a.gif","self_paced","","2","simple_dissimilar","images/stimuli/spore_stims/simple_17_A_a.gif","","","","",""
"","10168.47500007134","survey-multi-choice","43","395302","0.0-14.0","SS1618365359169","math_question","","","","","","","","","","","","{""Q0"":""18""}","[0]","18","",""
"","null","html-keyboard-response","44","396149","0.0-15.0-0.0","SS1618365359169","","","null","","","","","","<p><img src= images/blank.png width =""600"" height = ""600"" style=""position:fixed;top:50%; left:50%; transform: translate(-50%, -50%); border:5px solid black"">","","","","","","","",""
"","8342.304999940097","sequential-stimulus-presentation-old","45","404545","0.0-15.0-1.0","SS1618365359169","trial","","40","500","8842.304999940097","images/stimuli/spore_stims/complex_11_A_b.gif","images/stimuli/spore_stims/complex_18_A_a.gif","forced_short","","3","complex_dissimilar","images/stimuli/spore_stims/complex_18_A_a.gif","","","","",""
"","null","html-keyboard-response","46","405520","0.0-15.0-0.1","SS1618365359169","","","null","","","","","","<p><img src= images/blank.png width =""600"" height = ""600"" style=""position:fixed;top:50%; left:50%; transform: translate(-50%, -50%); border:5px solid black"">","","","","","","","",""
"","7758.470000000671","sequential-stimulus-presentation-old","47","413783","0.0-15.0-1.1","SS1618365359169","trial","","40","500","8258.47000000067","images/stimuli/spore_stims/complex_11_A_b.gif","images/stimuli/spore_stims/complex_18_A_a.gif","forced_short","","3","complex_dissimilar","images/stimuli/spore_stims/complex_18_A_a.gif","","","","",""
"","null","html-keyboard-response","48","414701","0.0-15.0-0.2","SS1618365359169","","","null","","","","","","<p><img src= images/blank.png width =""600"" height = ""600"" style=""position:fixed;top:50%; left:50%; transform: translate(-50%, -50%); border:5px solid black"">","","","","","","","",""
"","4268.810000037774","sequential-stimulus-presentation-old","49","419474","0.0-15.0-1.2","SS1618365359169","trial","","40","500","4768.810000037774","images/stimuli/spore_stims/complex_11_A_b.gif","images/stimuli/spore_stims/complex_18_A_a.gif","forced_short","","3","complex_dissimilar","images/stimuli/spore_stims/complex_18_A_a.gif","","","","",""
"","null","html-keyboard-response","50","420322","0.0-15.0-0.3","SS1618365359169","","","null","","","","","","<p><img src= images/blank.png width =""600"" height = ""600"" style=""position:fixed;top:50%; left:50%; transform: translate(-50%, -50%); border:5px solid black"">","","","","","","","",""
"","3327.125000068918","sequential-stimulus-presentation-old","51","424153","0.0-15.0-1.3","SS1618365359169","trial","","40","500","3827.125000068918","images/stimuli/spore_stims/complex_11_A_b.gif","images/stimuli/spore_stims/complex_18_A_a.gif","forced_short","","3","complex_dissimilar","images/stimuli/spore_stims/complex_18_A_a.gif","","","","",""
"","null","html-keyboard-response","52","425259","0.0-15.0-0.4","SS1618365359169","","","null","","","","","","<p><img src= images/blank.png width =""600"" height = ""600"" style=""position:fixed;top:50%; left:50%; transform: translate(-50%, -50%); border:5px solid black"">","","","","","","","",""
"","2718.0350000271574","sequential-stimulus-presentation-old","53","428481","0.0-15.0-1.4","SS1618365359169","trial","","40","500","3218.0350000271574","images/stimuli/spore_stims/complex_11_A_b.gif","images/stimuli/spore_stims/complex_18_A_a.gif","forced_short","","3","complex_dissimilar","images/stimuli/spore_stims/complex_18_A_a.gif","","","","",""
"","5361.550000030547","survey-multi-choice","54","433846","0.0-16.0","SS1618365359169","math_question","","","","","","","","","","","","{""Q0"":""11""}","[0]","11","",""
"","null","html-keyboard-response","55","434931","0.0-17.0-0.0","SS1618365359169","","","null","","","","","","<p><img src= images/blank.png width =""600"" height = ""600"" style=""position:fixed;top:50%; left:50%; transform: translate(-50%, -50%); border:5px solid black"">","","","","","","","",""
"","8541.24499997124","sequential-stimulus-presentation-old","56","443528","0.0-17.0-1.0","SS1618365359169","trial","","40","500","9041.24499997124","images/stimuli/spore_stims/simple_14_A_b.gif","images/stimuli/spore_stims/simple_18_A_a.gif","forced_short","","4","simple_dissimilar","images/stimuli/spore_stims/simple_18_A_a.gif","","","","",""
"","null","html-keyboard-response","57","444388","0.0-17.0-0.1","SS1618365359169","","","null","","","","","","<p><img src= images/blank.png width =""600"" height = ""600"" style=""position:fixed;top:50%; left:50%; transform: translate(-50%, -50%); border:5px solid black"">","","","","","","","",""
"","3236.6899999324232","sequential-stimulus-presentation-old","58","448128","0.0-17.0-1.1","SS1618365359169","trial","","40","500","3736.6899999324232","images/stimuli/spore_stims/simple_14_A_b.gif","images/stimuli/spore_stims/simple_18_A_a.gif","forced_short","","4","simple_dissimilar","images/stimuli/spore_stims/simple_18_A_a.gif","","","","",""
"","null","html-keyboard-response","59","449163","0.0-17.0-0.2","SS1618365359169","","","null","","","","","","<p><img src= images/blank.png width =""600"" height = ""600"" style=""position:fixed;top:50%; left:50%; transform: translate(-50%, -50%); border:5px solid black"">","","","","","","","",""
"","2399.325000005774","sequential-stimulus-presentation-old","60","452067","0.0-17.0-1.2","SS1618365359169","trial","","40","500","2899.325000005774","images/stimuli/spore_stims/simple_14_A_b.gif","images/stimuli/spore_stims/simple_18_A_a.gif","forced_short","","4","simple_dissimilar","images/stimuli/spore_stims/simple_18_A_a.gif","","","","",""
"","null","html-keyboard-response","61","453334","0.0-17.0-0.3","SS1618365359169","","","null","","","","","","<p><img src= images/blank.png width =""600"" height = ""600"" style=""position:fixed;top:50%; left:50%; transform: translate(-50%, -50%); border:5px solid black"">","","","","","","","",""
"","2870.2749999938533","sequential-stimulus-presentation-old","62","456707","0.0-17.0-1.3","SS1618365359169","trial","","40","500","3370.2749999938533","images/stimuli/spore_stims/simple_14_A_b.gif","images/stimuli/spore_stims/simple_18_A_a.gif","forced_short","","4","simple_dissimilar","images/stimuli/spore_stims/simple_18_A_a.gif","","","","",""
"","17672.57499997504","survey-multi-choice","63","474383","0.0-18.0","SS1618365359169","math_question","","","","","","","","","","","","{""Q0"":""13""}","[0]","13","",""
"","null","html-keyboard-response","64","475191","0.0-19.0-0.0","SS1618365359169","","","null","","","","","","<p><img src= images/blank.png width =""600"" height = ""600"" style=""position:fixed;top:50%; left:50%; transform: translate(-50%, -50%); border:5px solid black"">","","","","","","","",""
"","1300.4349999828264","sequential-stimulus-presentation-old","65","481498","0.0-19.0-1.0","SS1618365359169","trial","","40","500","1800.4349999828264","images/stimuli/spore_stims/complex_14_A_a.gif","images/stimuli/spore_stims/complex_18_A_b.gif","forced_long","","5","complex_dissimilar","images/stimuli/spore_stims/complex_18_A_b.gif","","","","",""
"","null","html-keyboard-response","66","482372","0.0-19.0-0.1","SS1618365359169","","","null","","","","","","<p><img src= images/blank.png width =""600"" height = ""600"" style=""position:fixed;top:50%; left:50%; transform: translate(-50%, -50%); border:5px solid black"">","","","","","","","",""
"","8679.284999961965","sequential-stimulus-presentation-old","67","491555","0.0-19.0-1.1","SS1618365359169","trial","","40","500","9179.284999961965","images/stimuli/spore_stims/complex_14_A_a.gif","images/stimuli/spore_stims/complex_18_A_b.gif","forced_long","","5","complex_dissimilar","images/stimuli/spore_stims/complex_18_A_b.gif","","","","",""
"","null","html-keyboard-response","68","492378","0.0-19.0-0.2","SS1618365359169","","","null","","","","","","<p><img src= images/blank.png width =""600"" height = ""600"" style=""position:fixed;top:50%; left:50%; transform: translate(-50%, -50%); border:5px solid black"">","","","","","","","",""
"","6002.585000009276","sequential-stimulus-presentation-old","69","498885","0.0-19.0-1.2","SS1618365359169","trial","","40","500","6502.585000009276","images/stimuli/spore_stims/complex_14_A_a.gif","images/stimuli/spore_stims/complex_18_A_b.gif","forced_long","","5","complex_dissimilar","images/stimuli/spore_stims/complex_18_A_b.gif","","","","",""
"","null","html-keyboard-response","70","500046","0.0-19.0-0.3","SS1618365359169","","","null","","","","","","<p><img src= images/blank.png width =""600"" height = ""600"" style=""position:fixed;top:50%; left:50%; transform: translate(-50%, -50%); border:5px solid black"">","","","","","","","",""
"","25813.81500000134","sequential-stimulus-presentation-old","71","526364","0.0-19.0-1.3","SS1618365359169","trial","","40","500","26313.81500000134","images/stimuli/spore_stims/complex_14_A_a.gif","images/stimuli/spore_stims/complex_18_A_b.gif","forced_long","","5","complex_dissimilar","images/stimuli/spore_stims/complex_18_A_b.gif","","","","",""
"","null","html-keyboard-response","72","527538","0.0-19.0-0.4","SS1618365359169","","","null","","","","","","<p><img src= images/blank.png width =""600"" height = ""600"" style=""position:fixed;top:50%; left:50%; transform: translate(-50%, -50%); border:5px solid black"">","","","","","","","",""
"","23188.364999950863","sequential-stimulus-presentation-old","73","551232","0.0-19.0-1.4","SS1618365359169","trial","","40","500","23688.364999950863","images/stimuli/spore_stims/complex_14_A_a.gif","images/stimuli/spore_stims/complex_18_A_b.gif","forced_long","","5","complex_dissimilar","images/stimuli/spore_stims/complex_18_A_b.gif","","","","",""
"","8379.575000028126","survey-multi-choice","74","559614","0.0-20.0","SS1618365359169","math_question","","","","","","","","","","","","{""Q0"":""11""}","[0]","11","",""
"","null","html-keyboard-response","75","560684","0.0-21.0-0.0","SS1618365359169","","","null","","","","","","<p><img src= images/blank.png width =""600"" height = ""600"" style=""position:fixed;top:50%; left:50%; transform: translate(-50%, -50%); border:5px solid black"">","","","","","","","",""
"","3941.9700000435114","sequential-stimulus-presentation-old","76","569632","0.0-21.0-1.0","SS1618365359169","trial","","40","500","4441.970000043511","images/stimuli/spore_stims/complex_13_A_a.gif","images/stimuli/spore_stims/complex_16_A_b.gif","forced_long","","6","complex_dissimilar","images/stimuli/spore_stims/complex_16_A_b.gif","","","","",""
"","null","html-keyboard-response","77","570590","0.0-21.0-0.1","SS1618365359169","","","null","","","","","","<p><img src= images/blank.png width =""600"" height = ""600"" style=""position:fixed;top:50%; left:50%; transform: translate(-50%, -50%); border:5px solid black"">","","","","","","","",""
"","9100.949999992736","sequential-stimulus-presentation-old","78","580196","0.0-21.0-1.1","SS1618365359169","trial","","40","500","9600.949999992736","images/stimuli/spore_stims/complex_13_A_a.gif","images/stimuli/spore_stims/complex_16_A_b.gif","forced_long","","6","complex_dissimilar","images/stimuli/spore_stims/complex_13_A_a.gif","","","","",""
"","null","html-keyboard-response","79","581415","0.0-21.0-0.2","SS1618365359169","","","null","","","","","","<p><img src= images/blank.png width =""600"" height = ""600"" style=""position:fixed;top:50%; left:50%; transform: translate(-50%, -50%); border:5px solid black"">","","","","","","","",""
"","5996.159999980591","sequential-stimulus-presentation-old","80","587917","0.0-21.0-1.2","SS1618365359169","trial","","40","500","6496.159999980591","images/stimuli/spore_stims/complex_13_A_a.gif","images/stimuli/spore_stims/complex_16_A_b.gif","forced_long","","6","complex_dissimilar","images/stimuli/spore_stims/complex_16_A_b.gif","","","","",""
"","null","html-keyboard-response","81","589101","0.0-21.0-0.3","SS1618365359169","","","null","","","","","","<p><img src= images/blank.png width =""600"" height = ""600"" style=""position:fixed;top:50%; left:50%; transform: translate(-50%, -50%); border:5px solid black"">","","","","","","","",""
"","25830.770000000484","sequential-stimulus-presentation-old","82","615436","0.0-21.0-1.3","SS1618365359169","trial","","40","500","26330.770000000484","images/stimuli/spore_stims/complex_13_A_a.gif","images/stimuli/spore_stims/complex_16_A_b.gif","forced_long","","6","complex_dissimilar","images/stimuli/spore_stims/complex_16_A_b.gif","","","","",""
"","10351.190000073984","survey-multi-choice","83","625790","0.0-22.0","SS1618365359169","math_question","","","","","","","","","","","","{""Q0"":""13""}","[0]","13","",""
"","null","html-keyboard-response","84","626995","0.0-23.0-0.0","SS1618365359169","","","null","","","","","","<p><img src= images/blank.png width =""600"" height = ""600"" style=""position:fixed;top:50%; left:50%; transform: translate(-50%, -50%); border:5px solid black"">","","","","","","","",""
"","1094.370000064373","sequential-stimulus-presentation-old","85","633096","0.0-23.0-1.0","SS1618365359169","trial","","40","500","1594.370000064373","images/stimuli/spore_stims/simple_20_A_a.gif","images/stimuli/spore_stims/simple_05_A_b.gif","forced_long","","7","simple_dissimilar","images/stimuli/spore_stims/simple_05_A_b.gif","","","","",""
"","null","html-keyboard-response","86","633930","0.0-23.0-0.1","SS1618365359169","","","null","","","","","","<p><img src= images/blank.png width =""600"" height = ""600"" style=""position:fixed;top:50%; left:50%; transform: translate(-50%, -50%); border:5px solid black"">","","","","","","","",""
"","26609.805000014603","sequential-stimulus-presentation-old","87","661043","0.0-23.0-1.1","SS1618365359169","trial","","40","500","27109.805000014603","images/stimuli/spore_stims/simple_20_A_a.gif","images/stimuli/spore_stims/simple_05_A_b.gif","forced_long","","7","simple_dissimilar","images/stimuli/spore_stims/simple_20_A_a.gif","","","","",""
"","null","html-keyboard-response","88","662066","0.0-23.0-0.2","SS1618365359169","","","null","","","","","","<p><img src= images/blank.png width =""600"" height = ""600"" style=""position:fixed;top:50%; left:50%; transform: translate(-50%, -50%); border:5px solid black"">","","","","","","","",""
"","4748.124999925494","sequential-stimulus-presentation-old","89","667320","0.0-23.0-1.2","SS1618365359169","trial","","40","500","5248.124999925494","images/stimuli/spore_stims/simple_20_A_a.gif","images/stimuli/spore_stims/simple_05_A_b.gif","forced_long","","7","simple_dissimilar","images/stimuli/spore_stims/simple_20_A_a.gif","","","","",""
"","null","html-keyboard-response","90","668417","0.0-23.0-0.3","SS1618365359169","","","null","","","","","","<p><img src= images/blank.png width =""600"" height = ""600"" style=""position:fixed;top:50%; left:50%; transform: translate(-50%, -50%); border:5px solid black"">","","","","","","","",""
"","3548.384999972768","sequential-stimulus-presentation-old","91","672469","0.0-23.0-1.3","SS1618365359169","trial","","40","500","4048.384999972768","images/stimuli/spore_stims/simple_20_A_a.gif","images/stimuli/spore_stims/simple_05_A_b.gif","forced_long","","7","simple_dissimilar","images/stimuli/spore_stims/simple_05_A_b.gif","","","","",""
"","null","html-keyboard-response","92","673672","0.0-23.0-0.4","SS1618365359169","","","null","","","","","","<p><img src= images/blank.png width =""600"" height = ""600"" style=""position:fixed;top:50%; left:50%; transform: translate(-50%, -50%); border:5px solid black"">","","","","","","","",""
"","6870.494999922812","sequential-stimulus-presentation-old","93","681046","0.0-23.0-1.4","SS1618365359169","trial","","40","500","7370.494999922812","images/stimuli/spore_stims/simple_20_A_a.gif","images/stimuli/spore_stims/simple_05_A_b.gif","forced_long","","7","simple_dissimilar","images/stimuli/spore_stims/simple_05_A_b.gif","","","","",""
"","null","html-keyboard-response","94","682263","0.0-23.0-0.5","SS1618365359169","","","null","","","","","","<p><img src= images/blank.png width =""600"" height = ""600"" style=""position:fixed;top:50%; left:50%; transform: translate(-50%, -50%); border:5px solid black"">","","","","","","","",""
"","23929.46499993559","sequential-stimulus-presentation-old","95","706697","0.0-23.0-1.5","SS1618365359169","trial","","40","500","24429.46499993559","images/stimuli/spore_stims/simple_20_A_a.gif","images/stimuli/spore_stims/simple_05_A_b.gif","forced_long","","7","simple_dissimilar","images/stimuli/spore_stims/simple_05_A_b.gif","","","","",""
"","5368.259999901056","survey-multi-choice","96","712069","0.0-24.0","SS1618365359169","math_question","","","","","","","","","","","","{""Q0"":""11""}","[0]","11","",""
"","null","html-keyboard-response","97","713231","0.0-25.0-0.0","SS1618365359169","","","null","","","","","","<p><img src= images/blank.png width =""600"" height = ""600"" style=""position:fixed;top:50%; left:50%; transform: translate(-50%, -50%); border:5px solid black"">","","","","","","","",""
"","10075.22500003688","sequential-stimulus-presentation-old","98","723811","0.0-25.0-1.0","SS1618365359169","trial","","40","500","10575.22500003688","images/stimuli/spore_stims/complex_17_A_a.gif","images/stimuli/spore_stims/complex_20_A_b.gif","self_paced","","8","complex_dissimilar","images/stimuli/spore_stims/complex_20_A_b.gif","","","","",""
"","null","html-keyboard-response","99","724943","0.0-25.0-0.1","SS1618365359169","","","null","","","","","","<p><img src= images/blank.png width =""600"" height = ""600"" style=""position:fixed;top:50%; left:50%; transform: translate(-50%, -50%); border:5px solid black"">","","","","","","","",""
"","2652.029999997467","sequential-stimulus-presentation-old","100","728101","0.0-25.0-1.1","SS1618365359169","trial","","40","500","3152.029999997467","images/stimuli/spore_stims/complex_17_A_a.gif","images/stimuli/spore_stims/complex_20_A_b.gif","self_paced","","8","complex_dissimilar","images/stimuli/spore_stims/complex_17_A_a.gif","","","","",""
"","null","html-keyboard-response","101","728950","0.0-25.0-0.2","SS1618365359169","","","null","","","","","","<p><img src= images/blank.png width =""600"" height = ""600"" style=""position:fixed;top:50%; left:50%; transform: translate(-50%, -50%); border:5px solid black"">","","","","","","","",""
"","1257.7900000615045","sequential-stimulus-presentation-old","102","730714","0.0-25.0-1.2","SS1618365359169","trial","","40","500","1757.7900000615045","images/stimuli/spore_stims/complex_17_A_a.gif","images/stimuli/spore_stims/complex_20_A_b.gif","self_paced","","8","complex_dissimilar","images/stimuli/spore_stims/complex_20_A_b.gif","","","","",""
"","null","html-keyboard-response","103","731645","0.0-25.0-0.3","SS1618365359169","","","null","","","","","","<p><img src= images/blank.png width =""600"" height = ""600"" style=""position:fixed;top:50%; left:50%; transform: translate(-50%, -50%); border:5px solid black"">","","","","","","","",""
"","1841.4450000273064","sequential-stimulus-presentation-old","104","733991","0.0-25.0-1.3","SS1618365359169","trial","","40","500","2341.4450000273064","images/stimuli/spore_stims/complex_17_A_a.gif","images/stimuli/spore_stims/complex_20_A_b.gif","self_paced","","8","complex_dissimilar","images/stimuli/spore_stims/complex_20_A_b.gif","","","","",""
"","null","html-keyboard-response","105","735095","0.0-25.0-0.4","SS1618365359169","","","null","","","","","","<p><img src= images/blank.png width =""600"" height = ""600"" style=""position:fixed;top:50%; left:50%; transform: translate(-50%, -50%); border:5px solid black"">","","","","","","","",""
"","29.27499997895211","sequential-stimulus-presentation-old","106","735630","0.0-25.0-1.4","SS1618365359169","trial","","40","500","529.2749999789521","images/stimuli/spore_stims/complex_17_A_a.gif","images/stimuli/spore_stims/complex_20_A_b.gif","self_paced","","8","complex_dissimilar","images/stimuli/spore_stims/complex_20_A_b.gif","","","","",""
"","3468.7599999597296","survey-multi-choice","107","739101","0.0-26.0","SS1618365359169","math_question","","","","","","","","","","","","{""Q0"":""7""}","[0]","7","",""
"","null","html-keyboard-response","108","739921","0.0-27.0-0.0","SS1618365359169","","","null","","","","","","<p><img src= images/blank.png width =""600"" height = ""600"" style=""position:fixed;top:50%; left:50%; transform: translate(-50%, -50%); border:5px solid black"">","","","","","","","",""
"","1831.6199999535456","sequential-stimulus-presentation-old","109","742259","0.0-27.0-1.0","SS1618365359169","trial","","40","500","2331.6199999535456","images/stimuli/spore_stims/simple_18_A_b.gif","images/stimuli/spore_stims/simple_12_A_a.gif","self_paced","","9","simple_dissimilar","images/stimuli/spore_stims/simple_12_A_a.gif","","","","",""
"","null","html-keyboard-response","110","743474","0.0-27.0-0.1","SS1618365359169","","","null","","","","","","<p><img src= images/blank.png width =""600"" height = ""600"" style=""position:fixed;top:50%; left:50%; transform: translate(-50%, -50%); border:5px solid black"">","","","","","","","",""
"","1559.599999920465","sequential-stimulus-presentation-old","111","745537","0.0-27.0-1.1","SS1618365359169","trial","","40","500","2059.599999920465","images/stimuli/spore_stims/simple_18_A_b.gif","images/stimuli/spore_stims/simple_12_A_a.gif","self_paced","","9","simple_dissimilar","images/stimuli/spore_stims/simple_12_A_a.gif","","","","",""
"","null","html-keyboard-response","112","746505","0.0-27.0-0.2","SS1618365359169","","","null","","","","","","<p><img src= images/blank.png width =""600"" height = ""600"" style=""position:fixed;top:50%; left:50%; transform: translate(-50%, -50%); border:5px solid black"">","","","","","","","",""
"","2658.724999986589","sequential-stimulus-presentation-old","113","749671","0.0-27.0-1.2","SS1618365359169","trial","","40","500","3158.724999986589","images/stimuli/spore_stims/simple_18_A_b.gif","images/stimuli/spore_stims/simple_12_A_a.gif","self_paced","","9","simple_dissimilar","images/stimuli/spore_stims/simple_18_A_b.gif","","","","",""
"","null","html-keyboard-response","114","750950","0.0-27.0-0.3","SS1618365359169","","","null","","","","","","<p><img src= images/blank.png width =""600"" height = ""600"" style=""position:fixed;top:50%; left:50%; transform: translate(-50%, -50%); border:5px solid black"">","","","","","","","",""
"","1373.1350000016391","sequential-stimulus-presentation-old","115","752831","0.0-27.0-1.3","SS1618365359169","trial","","40","500","1873.1350000016391","images/stimuli/spore_stims/simple_18_A_b.gif","images/stimuli/spore_stims/simple_12_A_a.gif","self_paced","","9","simple_dissimilar","images/stimuli/spore_stims/simple_12_A_a.gif","","","","",""
"","11427.254999987781","survey-multi-choice","116","764262","0.0-28.0","SS1618365359169","math_question","","","","","","","","","","","","{""Q0"":""12""}","[0]","12","",""
"","null","html-keyboard-response","117","765423","0.0-29.0-0.0","SS1618365359169","","","null","","","","","","<p><img src= images/blank.png width =""600"" height = ""600"" style=""position:fixed;top:50%; left:50%; transform: translate(-50%, -50%); border:5px solid black"">","","","","","","","",""
"","7195.595000055619","sequential-stimulus-presentation-old","118","772674","0.0-29.0-1.0","SS1618365359169","trial","","40","500","7695.595000055619","images/stimuli/spore_stims/complex_08_A_a.gif","images/stimuli/spore_stims/complex_19_A_b.gif","forced_short","","10","complex_dissimilar","images/stimuli/spore_stims/complex_19_A_b.gif","","","","",""
"","null","html-keyboard-response","119","773837","0.0-29.0-0.1","SS1618365359169","","","null","","","","","","<p><img src= images/blank.png width =""600"" height = ""600"" style=""position:fixed;top:50%; left:50%; transform: translate(-50%, -50%); border:5px solid black"">","","","","","","","",""
"","6168.030000058934","sequential-stimulus-presentation-old","120","780511","0.0-29.0-1.1","SS1618365359169","trial","","40","500","6668.030000058934","images/stimuli/spore_stims/complex_08_A_a.gif","images/stimuli/spore_stims/complex_19_A_b.gif","forced_short","","10","complex_dissimilar","images/stimuli/spore_stims/complex_19_A_b.gif","","","","",""
"","null","html-keyboard-response","121","781696","0.0-29.0-0.2","SS1618365359169","","","null","","","","","","<p><img src= images/blank.png width =""600"" height = ""600"" style=""position:fixed;top:50%; left:50%; transform: translate(-50%, -50%); border:5px solid black"">","","","","","","","",""
"","3340.0100000435486","sequential-stimulus-presentation-old","122","785541","0.0-29.0-1.2","SS1618365359169","trial","","40","500","3840.0100000435486","images/stimuli/spore_stims/complex_08_A_a.gif","images/stimuli/spore_stims/complex_19_A_b.gif","forced_short","","10","complex_dissimilar","images/stimuli/spore_stims/complex_19_A_b.gif","","","","",""
"","null","html-keyboard-response","123","786646","0.0-29.0-0.3","SS1618365359169","","","null","","","","","","<p><img src= images/blank.png width =""600"" height = ""600"" style=""position:fixed;top:50%; left:50%; transform: translate(-50%, -50%); border:5px solid black"">","","","","","","","",""
"","9427.629999932833","sequential-stimulus-presentation-old","124","796578","0.0-29.0-1.3","SS1618365359169","trial","","40","500","9927.629999932833","images/stimuli/spore_stims/complex_08_A_a.gif","images/stimuli/spore_stims/complex_19_A_b.gif","forced_short","","10","complex_dissimilar","images/stimuli/spore_stims/complex_19_A_b.gif","","","","",""
"","14351.389999967068","survey-multi-choice","125","810934","0.0-30.0","SS1618365359169","math_question","","","","","","","","","","","","{""Q0"":""13""}","[0]","13","",""
"","null","html-keyboard-response","126","811903","0.0-31.0-0.0","SS1618365359169","","","null","","","","","","<p><img src= images/blank.png width =""600"" height = ""600"" style=""position:fixed;top:50%; left:50%; transform: translate(-50%, -50%); border:5px solid black"">","","","","","","","",""
"","1088.039999944158","sequential-stimulus-presentation-old","127","813497","0.0-31.0-1.0","SS1618365359169","trial","","40","500","1588.039999944158","images/stimuli/spore_stims/complex_06_A_b.gif","images/stimuli/spore_stims/complex_10_A_a.gif","self_paced","","11","complex_dissimilar","images/stimuli/spore_stims/complex_10_A_a.gif","","","","",""
"","null","html-keyboard-response","128","814728","0.0-31.0-0.1","SS1618365359169","","","null","","","","","","<p><img src= images/blank.png width =""600"" height = ""600"" style=""position:fixed;top:50%; left:50%; transform: translate(-50%, -50%); border:5px solid black"">","","","","","","","",""
"","1110.3250000160187","sequential-stimulus-presentation-old","129","816344","0.0-31.0-1.1","SS1618365359169","trial","","40","500","1610.3250000160187","images/stimuli/spore_stims/complex_06_A_b.gif","images/stimuli/spore_stims/complex_10_A_a.gif","self_paced","","11","complex_dissimilar","images/stimuli/spore_stims/complex_10_A_a.gif","","","","",""
"","null","html-keyboard-response","130","817165","0.0-31.0-0.2","SS1618365359169","","","null","","","","","","<p><img src= images/blank.png width =""600"" height = ""600"" style=""position:fixed;top:50%; left:50%; transform: translate(-50%, -50%); border:5px solid black"">","","","","","","","",""
"","1052.1400000434369","sequential-stimulus-presentation-old","131","818725","0.0-31.0-1.2","SS1618365359169","trial","","40","500","1552.1400000434369","images/stimuli/spore_stims/complex_06_A_b.gif","images/stimuli/spore_stims/complex_10_A_a.gif","self_paced","","11","complex_dissimilar","images/stimuli/spore_stims/complex_10_A_a.gif","","","","",""
"","null","html-keyboard-response","132","819813","0.0-31.0-0.3","SS1618365359169","","","null","","","","","","<p><img src= images/blank.png width =""600"" height = ""600"" style=""position:fixed;top:50%; left:50%; transform: translate(-50%, -50%); border:5px solid black"">","","","","","","","",""
"","475.5599999334663","sequential-stimulus-presentation-old","133","820793","0.0-31.0-1.3","SS1618365359169","trial","","40","500","975.5599999334663","images/stimuli/spore_stims/complex_06_A_b.gif","images/stimuli/spore_stims/complex_10_A_a.gif","self_paced","","11","complex_dissimilar","images/stimuli/spore_stims/complex_10_A_a.gif","","","","",""
"","null","html-keyboard-response","134","821983","0.0-31.0-0.4","SS1618365359169","","","null","","","","","","<p><img src= images/blank.png width =""600"" height = ""600"" style=""position:fixed;top:50%; left:50%; transform: translate(-50%, -50%); border:5px solid black"">","","","","","","","",""
"","2442.2050000866875","sequential-stimulus-presentation-old","135","824928","0.0-31.0-1.4","SS1618365359169","trial","","40","500","2942.2050000866875","images/stimuli/spore_stims/complex_06_A_b.gif","images/stimuli/spore_stims/complex_10_A_a.gif","self_paced","","11","complex_dissimilar","images/stimuli/spore_stims/complex_06_A_b.gif","","","","",""
"[{""page_index"":0,""viewing_time"":12792.914999998175}]","12793.309999979101","instructions","136","837726","0.0-32.0","SS1618365359169","instructions","","","","","","","","","","","","","","","",""
"","15083.870000089519","survey-likert","137","852814","0.0-33.0","SS1618365359169","similarity_question","","","","","","","","","","","","{""Q0"":2}","[0]","","images/stimuli/spore_stims/simple_18_A_a.gif","images/stimuli/spore_stims/simple_14_A_b.gif"
"","3458.4000000031665","survey-likert","138","856278","0.0-34.0","SS1618365359169","similarity_question","","","","","","","","","","","","{""Q0"":5}","[0]","","images/stimuli/spore_stims/simple_10_A_b.gif","images/stimuli/spore_stims/simple_03_A_a.gif"
"","4217.075000051409","survey-likert","139","860502","0.0-35.0","SS1618365359169","similarity_question","","","","","","","","","","","","{""Q0"":3}","[0]","","images/stimuli/spore_stims/complex_19_A_b.gif","images/stimuli/spore_stims/complex_08_A_a.gif"
"","2657.7699999324977","survey-likert","140","863166","0.0-36.0","SS1618365359169","similarity_question","","","","","","","","","","","","{""Q0"":5}","[0]","","images/stimuli/spore_stims/simple_17_A_a.gif","images/stimuli/spore_stims/simple_13_A_b.gif"
"","8178.045000066049","survey-likert","141","871350","0.0-37.0","SS1618365359169","similarity_question","","","","","","","","","","","","{""Q0"":5}","[0]","","images/stimuli/spore_stims/simple_08_A_b.gif","images/stimuli/spore_stims/simple_10_A_a.gif"
"","6834.604999981821","survey-likert","142","878190","0.0-38.0","SS1618365359169","similarity_question","","","","","","","","","","","","{""Q0"":2}","[0]","","images/stimuli/spore_stims/simple_12_A_a.gif","images/stimuli/spore_stims/simple_18_A_b.gif"
"","21897.125000017695","survey-likert","143","900094","0.0-39.0","SS1618365359169","similarity_question","","","","","","","","","","","","{""Q0"":4}","[0]","","images/stimuli/spore_stims/complex_14_A_a.gif","images/stimuli/spore_stims/complex_18_A_b.gif"
"","3625.1749999355525","survey-likert","144","903725","0.0-40.0","SS1618365359169","similarity_question","","","","","","","","","","","","{""Q0"":4}","[0]","","images/stimuli/spore_stims/complex_06_A_b.gif","images/stimuli/spore_stims/complex_10_A_a.gif"
"","3873.989999992773","survey-likert","145","907606","0.0-41.0","SS1618365359169","similarity_question","","","","","","","","","","","","{""Q0"":4}","[0]","","images/stimuli/spore_stims/simple_05_A_b.gif","images/stimuli/spore_stims/simple_20_A_a.gif"
"","5257.5950000900775","survey-likert","146","912870","0.0-42.0","SS1618365359169","similarity_question","","","","","","","","","","","","{""Q0"":2}","[0]","","images/stimuli/spore_stims/complex_18_A_a.gif","images/stimuli/spore_stims/complex_11_A_b.gif"
"","4945.790000027046","survey-likert","147","917821","0.0-43.0","SS1618365359169","similarity_question","","","","","","","","","","","","{""Q0"":4}","[0]","","images/stimuli/spore_stims/complex_13_A_a.gif","images/stimuli/spore_stims/complex_16_A_b.gif"
"","3369.6149999741465","survey-likert","148","921198","0.0-44.0","SS1618365359169","similarity_question","","","","","","","","","","","","{""Q0"":3}","[0]","","images/stimuli/spore_stims/complex_20_A_b.gif","images/stimuli/spore_stims/complex_17_A_a.gif"
"[{""page_index"":0,""viewing_time"":11776.91000001505}]","11777.295000036247","instructions","149","932982","0.0-45.0","SS1618365359169","instructions","","","","","","","","","","","","","","","",""
"","13213.660000008531","survey-likert","150","946199","0.0-46.0","SS1618365359169","","","","","","","","","images/stimuli/spore_stims/simple_12_A_a.gif","","","","{""Q0"":0}","[0]","","",""
"","4833.284999942407","survey-likert","151","951038","0.0-47.0","SS1618365359169","","","","","","","","","images/stimuli/spore_stims/complex_11_A_b.gif","","","","{""Q0"":5}","[0]","","",""
"","2970.3200000803918","survey-likert","152","954014","0.0-48.0","SS1618365359169","","","","","","","","","images/stimuli/spore_stims/simple_05_A_b.gif","","","","{""Q0"":0}","[0]","","",""
"","1865.235000033863","survey-likert","153","955886","0.0-49.0","SS1618365359169","","","","","","","","","images/stimuli/spore_stims/simple_14_A_b.gif","","","","{""Q0"":1}","[0]","","",""
"","3857.8050000360236","survey-likert","154","959750","0.0-50.0","SS1618365359169","","","","","","","","","images/stimuli/spore_stims/complex_17_A_a.gif","","","","{""Q0"":5}","[0]","","",""
"","2737.360000028275","survey-likert","155","962494","0.0-51.0","SS1618365359169","","","","","","","","","images/stimuli/spore_stims/simple_10_A_b.gif","","","","{""Q0"":0}","[0]","","",""
"","2169.2049999255687","survey-likert","156","964670","0.0-52.0","SS1618365359169","","","","","","","","","images/stimuli/spore_stims/simple_17_A_a.gif","","","","{""Q0"":1}","[0]","","",""
"","7073.754999903031","survey-likert","157","971750","0.0-53.0","SS1618365359169","","","","","","","","","images/stimuli/spore_stims/complex_13_A_a.gif","","","","{""Q0"":5}","[0]","","",""
"","5605.4950000252575","survey-likert","158","977366","0.0-54.0","SS1618365359169","","","","","","","","","images/stimuli/spore_stims/complex_10_A_a.gif","","","","{""Q0"":6}","[0]","","",""
"","3073.6249999608845","survey-likert","159","980446","0.0-55.0","SS1618365359169","","","","","","","","","images/stimuli/spore_stims/complex_19_A_b.gif","","","","{""Q0"":5}","[0]","","",""
"","3463.690000004135","survey-likert","160","983918","0.0-56.0","SS1618365359169","","","","","","","","","images/stimuli/spore_stims/complex_14_A_a.gif","","","","{""Q0"":6}","[0]","","",""
"","2425.7099999813363","survey-likert","161","986350","0.0-57.0","SS1618365359169","","","","","","","","","images/stimuli/spore_stims/simple_10_A_a.gif","","","","{""Q0"":0}","[0]","","",""
"[{""page_index"":0,""viewing_time"":4537.2049999423325}]","4537.415000027977","instructions","162","990893","0.0-58.0","SS1618365359169","instructions","","","","","","","","","","","","","","","",""
"","3618.4299999149516","demog-age","163","994518","0.0-59.0","SS1618365359169","","","","","","","","","","","","","{""age"":""30""}","","","",""
"","9672.214999911375","demog-ethnic-US","164","1004199","0.0-60.0","SS1618365359169","","","","","","","","","","","","","{""ethnicity"":[""White""]}","[0]","","",""
"","9704.440000001341","demog-gender-and-education","165","1013910","0.0-61.0","SS1618365359169","","","","","","","","","","","","","{""gender"":""Male"",""education"":""Master's Degree""}","[0,1]","","",""
"","14831.71499997843","survey-text","166","1028750","0.0-62.0","SS1618365359169","feedback","","","","","","","","","","","","{""Q0"":""No""}","","","",""
"[{""page_index"":0,""viewing_time"":4675.979999941774}]","4676.325000007637","instructions","167","1033430","0.0-63.0","SS1618365359169","instructions","","","","","","","","","","","","","","","",""
