"view_history","rt","trial_type","trial_index","time_elapsed","internal_node_id","subject","stimulus_type","trial_stimulus","key_press","minimum_viewing_duration","trial_looking_time","block_deviant","block_background","exposure_type","stimulus","block_number","block_type","stimulus_displayed","responses","question_order","math_correct_answer","stimulus_left","stimulus_right"
"[{""page_index"":0,""viewing_time"":529826}]","529826","instructions","0","529830","0.0-0.0","SS1618366024688","","","","","","","","","","","","","","","","",""
"[{""page_index"":0,""viewing_time"":12998},{""page_index"":1,""viewing_time"":3519}]","16517","instructions","1","548366","0.0-1.0","SS1618366024688","instructions","","","","","","","","","","","","","","","",""
"","5216","sequential-stimulus-presentation-old","2","554091","0.0-2.0","SS1618366024688","","","40","500","5716","null","null","self_paced","","","","","","","","",""
"","5902","sequential-stimulus-presentation-old","3","560506","0.0-3.0","SS1618366024688","","","40","500","6402","null","null","self_paced","","","","","","","","",""
"[{""page_index"":0,""viewing_time"":22958}]","22958","instructions","4","583466","0.0-4.0","SS1618366024688","instructions","","","","","","","","","","","","","","","",""
"","1478","sequential-stimulus-presentation-old","5","589962","0.0-5.0","SS1618366024688","","","40","500","1978","null","null","forced_long","","","","","","","","",""
"","2811","sequential-stimulus-presentation-old","6","592834","0.0-6.0","SS1618366024688","","","40","50","2861","null","null","forced_long","","","","","","","","",""
"[{""page_index"":0,""viewing_time"":2447}]","2448","instructions","7","595282","0.0-7.0","SS1618366024688","instructions","","","","","","","","","","","","","","","",""
"[{""page_index"":0,""viewing_time"":7054},{""page_index"":1,""viewing_time"":20736},{""page_index"":2,""viewing_time"":18072},{""page_index"":3,""viewing_time"":872},{""page_index"":4,""viewing_time"":896}]","47630","instructions","8","642914","0.0-8.0","SS1618366024688","instructions","","","","","","","","","","","","","","","",""
"","null","html-keyboard-response","9","643763","0.0-9.0-0.0","SS1618366024688","","","null","","","","","","<p><img src= images/blank.png width =""600"" height = ""600"" style=""position:fixed;top:50%; left:50%; transform: translate(-50%, -50%); border:5px solid black"">","","","","","","","",""
"","1987","sequential-stimulus-presentation-old","10","645810","0.0-9.0-1.0","SS1618366024688","trial","","40","500","2487","images/stimuli/spore_stims/complex_10_A_a.gif","images/stimuli/spore_stims/complex_14_A_b.gif","forced_short","","0","complex_dissimilar","images/stimuli/spore_stims/complex_14_A_b.gif","","","","",""
"","null","html-keyboard-response","11","646783","0.0-9.0-0.1","SS1618366024688","","","null","","","","","","<p><img src= images/blank.png width =""600"" height = ""600"" style=""position:fixed;top:50%; left:50%; transform: translate(-50%, -50%); border:5px solid black"">","","","","","","","",""
"","13643","sequential-stimulus-presentation-old","12","660946","0.0-9.0-1.1","SS1618366024688","trial","","40","500","14143","images/stimuli/spore_stims/complex_10_A_a.gif","images/stimuli/spore_stims/complex_14_A_b.gif","forced_short","","0","complex_dissimilar","images/stimuli/spore_stims/complex_14_A_b.gif","","","","",""
"","null","html-keyboard-response","13","662184","0.0-9.0-0.2","SS1618366024688","","","null","","","","","","<p><img src= images/blank.png width =""600"" height = ""600"" style=""position:fixed;top:50%; left:50%; transform: translate(-50%, -50%); border:5px solid black"">","","","","","","","",""
"","6402","sequential-stimulus-presentation-old","14","669105","0.0-9.0-1.2","SS1618366024688","trial","","40","500","6902","images/stimuli/spore_stims/complex_10_A_a.gif","images/stimuli/spore_stims/complex_14_A_b.gif","forced_short","","0","complex_dissimilar","images/stimuli/spore_stims/complex_14_A_b.gif","","","","",""
"","null","html-keyboard-response","15","670263","0.0-9.0-0.3","SS1618366024688","","","null","","","","","","<p><img src= images/blank.png width =""600"" height = ""600"" style=""position:fixed;top:50%; left:50%; transform: translate(-50%, -50%); border:5px solid black"">","","","","","","","",""
"","5770","sequential-stimulus-presentation-old","16","676553","0.0-9.0-1.3","SS1618366024688","trial","","40","500","6270","images/stimuli/spore_stims/complex_10_A_a.gif","images/stimuli/spore_stims/complex_14_A_b.gif","forced_short","","0","complex_dissimilar","images/stimuli/spore_stims/complex_14_A_b.gif","","","","",""
"","null","html-keyboard-response","17","677422","0.0-9.0-0.4","SS1618366024688","","","null","","","","","","<p><img src= images/blank.png width =""600"" height = ""600"" style=""position:fixed;top:50%; left:50%; transform: translate(-50%, -50%); border:5px solid black"">","","","","","","","",""
"","9139","sequential-stimulus-presentation-old","18","687082","0.0-9.0-1.4","SS1618366024688","trial","","40","500","9639","images/stimuli/spore_stims/complex_10_A_a.gif","images/stimuli/spore_stims/complex_14_A_b.gif","forced_short","","0","complex_dissimilar","images/stimuli/spore_stims/complex_10_A_a.gif","","","","",""
"","null","html-keyboard-response","19","688262","0.0-9.0-0.5","SS1618366024688","","","null","","","","","","<p><img src= images/blank.png width =""600"" height = ""600"" style=""position:fixed;top:50%; left:50%; transform: translate(-50%, -50%); border:5px solid black"">","","","","","","","",""
"","9739","sequential-stimulus-presentation-old","20","698522","0.0-9.0-1.5","SS1618366024688","trial","","40","500","10239","images/stimuli/spore_stims/complex_10_A_a.gif","images/stimuli/spore_stims/complex_14_A_b.gif","forced_short","","0","complex_dissimilar","images/stimuli/spore_stims/complex_10_A_a.gif","","","","",""
"","2949","survey-multi-choice","21","701474","0.0-10.0","SS1618366024688","math_question","","","","","","","","","","","","{""Q0"":""9""}","[0]","9","",""
"","null","html-keyboard-response","22","702437","0.0-11.0-0.0","SS1618366024688","","","null","","","","","","<p><img src= images/blank.png width =""600"" height = ""600"" style=""position:fixed;top:50%; left:50%; transform: translate(-50%, -50%); border:5px solid black"">","","","","","","","",""
"","6003","sequential-stimulus-presentation-old","23","708946","0.0-11.0-1.0","SS1618366024688","trial","","40","500","6503","images/stimuli/spore_stims/simple_12_A_b.gif","images/stimuli/spore_stims/simple_07_A_a.gif","self_paced","","1","simple_dissimilar","images/stimuli/spore_stims/simple_07_A_a.gif","","","","",""
"","null","html-keyboard-response","24","710213","0.0-11.0-0.1","SS1618366024688","","","null","","","","","","<p><img src= images/blank.png width =""600"" height = ""600"" style=""position:fixed;top:50%; left:50%; transform: translate(-50%, -50%); border:5px solid black"">","","","","","","","",""
"","5709","sequential-stimulus-presentation-old","25","716442","0.0-11.0-1.1","SS1618366024688","trial","","40","500","6209","images/stimuli/spore_stims/simple_12_A_b.gif","images/stimuli/spore_stims/simple_07_A_a.gif","self_paced","","1","simple_dissimilar","images/stimuli/spore_stims/simple_07_A_a.gif","","","","",""
"","null","html-keyboard-response","26","717314","0.0-11.0-0.2","SS1618366024688","","","null","","","","","","<p><img src= images/blank.png width =""600"" height = ""600"" style=""position:fixed;top:50%; left:50%; transform: translate(-50%, -50%); border:5px solid black"">","","","","","","","",""
"","6561","sequential-stimulus-presentation-old","27","724394","0.0-11.0-1.2","SS1618366024688","trial","","40","500","7061","images/stimuli/spore_stims/simple_12_A_b.gif","images/stimuli/spore_stims/simple_07_A_a.gif","self_paced","","1","simple_dissimilar","images/stimuli/spore_stims/simple_12_A_b.gif","","","","",""
"","null","html-keyboard-response","28","725593","0.0-11.0-0.3","SS1618366024688","","","null","","","","","","<p><img src= images/blank.png width =""600"" height = ""600"" style=""position:fixed;top:50%; left:50%; transform: translate(-50%, -50%); border:5px solid black"">","","","","","","","",""
"","4561","sequential-stimulus-presentation-old","29","730674","0.0-11.0-1.3","SS1618366024688","trial","","40","500","5061","images/stimuli/spore_stims/simple_12_A_b.gif","images/stimuli/spore_stims/simple_07_A_a.gif","self_paced","","1","simple_dissimilar","images/stimuli/spore_stims/simple_12_A_b.gif","","","","",""
"","null","html-keyboard-response","30","731514","0.0-11.0-0.4","SS1618366024688","","","null","","","","","","<p><img src= images/blank.png width =""600"" height = ""600"" style=""position:fixed;top:50%; left:50%; transform: translate(-50%, -50%); border:5px solid black"">","","","","","","","",""
"","5648","sequential-stimulus-presentation-old","31","737682","0.0-11.0-1.4","SS1618366024688","trial","","40","500","6148","images/stimuli/spore_stims/simple_12_A_b.gif","images/stimuli/spore_stims/simple_07_A_a.gif","self_paced","","1","simple_dissimilar","images/stimuli/spore_stims/simple_07_A_a.gif","","","","",""
"","2070","survey-multi-choice","32","739753","0.0-12.0","SS1618366024688","math_question","","","","","","","","","","","","{""Q0"":""6""}","[0]","6","",""
"","null","html-keyboard-response","33","740894","0.0-13.0-0.0","SS1618366024688","","","null","","","","","","<p><img src= images/blank.png width =""600"" height = ""600"" style=""position:fixed;top:50%; left:50%; transform: translate(-50%, -50%); border:5px solid black"">","","","","","","","",""
"","11756","sequential-stimulus-presentation-old","34","753170","0.0-13.0-1.0","SS1618366024688","trial","","40","500","12256","images/stimuli/spore_stims/complex_07_A_a.gif","images/stimuli/spore_stims/complex_16_A_b.gif","self_paced","","2","complex_dissimilar","images/stimuli/spore_stims/complex_16_A_b.gif","","","","",""
"","null","html-keyboard-response","35","754083","0.0-13.0-0.1","SS1618366024688","","","null","","","","","","<p><img src= images/blank.png width =""600"" height = ""600"" style=""position:fixed;top:50%; left:50%; transform: translate(-50%, -50%); border:5px solid black"">","","","","","","","",""
"","6335","sequential-stimulus-presentation-old","36","760938","0.0-13.0-1.1","SS1618366024688","trial","","40","500","6835","images/stimuli/spore_stims/complex_07_A_a.gif","images/stimuli/spore_stims/complex_16_A_b.gif","self_paced","","2","complex_dissimilar","images/stimuli/spore_stims/complex_07_A_a.gif","","","","",""
"","null","html-keyboard-response","37","761803","0.0-13.0-0.2","SS1618366024688","","","null","","","","","","<p><img src= images/blank.png width =""600"" height = ""600"" style=""position:fixed;top:50%; left:50%; transform: translate(-50%, -50%); border:5px solid black"">","","","","","","","",""
"","2768","sequential-stimulus-presentation-old","38","765090","0.0-13.0-1.2","SS1618366024688","trial","","40","500","3268","images/stimuli/spore_stims/complex_07_A_a.gif","images/stimuli/spore_stims/complex_16_A_b.gif","self_paced","","2","complex_dissimilar","images/stimuli/spore_stims/complex_16_A_b.gif","","","","",""
"","null","html-keyboard-response","39","766344","0.0-13.0-0.3","SS1618366024688","","","null","","","","","","<p><img src= images/blank.png width =""600"" height = ""600"" style=""position:fixed;top:50%; left:50%; transform: translate(-50%, -50%); border:5px solid black"">","","","","","","","",""
"","4202","sequential-stimulus-presentation-old","40","771066","0.0-13.0-1.3","SS1618366024688","trial","","40","500","4702","images/stimuli/spore_stims/complex_07_A_a.gif","images/stimuli/spore_stims/complex_16_A_b.gif","self_paced","","2","complex_dissimilar","images/stimuli/spore_stims/complex_07_A_a.gif","","","","",""
"","2177","survey-multi-choice","41","773245","0.0-14.0","SS1618366024688","math_question","","","","","","","","","","","","{""Q0"":""5""}","[0]","5","",""
"","null","html-keyboard-response","42","774323","0.0-15.0-0.0","SS1618366024688","","","null","","","","","","<p><img src= images/blank.png width =""600"" height = ""600"" style=""position:fixed;top:50%; left:50%; transform: translate(-50%, -50%); border:5px solid black"">","","","","","","","",""
"","28144","sequential-stimulus-presentation-old","43","807473","0.0-15.0-1.0","SS1618366024688","trial","","40","500","28644","images/stimuli/spore_stims/complex_06_A_a.gif","images/stimuli/spore_stims/complex_15_A_b.gif","forced_long","","3","complex_dissimilar","images/stimuli/spore_stims/complex_15_A_b.gif","","","","",""
"","null","html-keyboard-response","44","808413","0.0-15.0-0.1","SS1618366024688","","","null","","","","","","<p><img src= images/blank.png width =""600"" height = ""600"" style=""position:fixed;top:50%; left:50%; transform: translate(-50%, -50%); border:5px solid black"">","","","","","","","",""
"","41127","sequential-stimulus-presentation-old","45","850050","0.0-15.0-1.1","SS1618366024688","trial","","40","500","41627","images/stimuli/spore_stims/complex_06_A_a.gif","images/stimuli/spore_stims/complex_15_A_b.gif","forced_long","","3","complex_dissimilar","images/stimuli/spore_stims/complex_15_A_b.gif","","","","",""
"","null","html-keyboard-response","46","851004","0.0-15.0-0.2","SS1618366024688","","","null","","","","","","<p><img src= images/blank.png width =""600"" height = ""600"" style=""position:fixed;top:50%; left:50%; transform: translate(-50%, -50%); border:5px solid black"">","","","","","","","",""
"","5886","sequential-stimulus-presentation-old","47","857410","0.0-15.0-1.2","SS1618366024688","trial","","40","500","6386","images/stimuli/spore_stims/complex_06_A_a.gif","images/stimuli/spore_stims/complex_15_A_b.gif","forced_long","","3","complex_dissimilar","images/stimuli/spore_stims/complex_15_A_b.gif","","","","",""
"","null","html-keyboard-response","48","858702","0.0-15.0-0.3","SS1618366024688","","","null","","","","","","<p><img src= images/blank.png width =""600"" height = ""600"" style=""position:fixed;top:50%; left:50%; transform: translate(-50%, -50%); border:5px solid black"">","","","","","","","",""
"","21091","sequential-stimulus-presentation-old","49","880315","0.0-15.0-1.3","SS1618366024688","trial","","40","500","21591","images/stimuli/spore_stims/complex_06_A_a.gif","images/stimuli/spore_stims/complex_15_A_b.gif","forced_long","","3","complex_dissimilar","images/stimuli/spore_stims/complex_15_A_b.gif","","","","",""
"","null","html-keyboard-response","50","881593","0.0-15.0-0.4","SS1618366024688","","","null","","","","","","<p><img src= images/blank.png width =""600"" height = ""600"" style=""position:fixed;top:50%; left:50%; transform: translate(-50%, -50%); border:5px solid black"">","","","","","","","",""
"","4281","sequential-stimulus-presentation-old","51","886394","0.0-15.0-1.4","SS1618366024688","trial","","40","500","4781","images/stimuli/spore_stims/complex_06_A_a.gif","images/stimuli/spore_stims/complex_15_A_b.gif","forced_long","","3","complex_dissimilar","images/stimuli/spore_stims/complex_15_A_b.gif","","","","",""
"","null","html-keyboard-response","52","887690","0.0-15.0-0.5","SS1618366024688","","","null","","","","","","<p><img src= images/blank.png width =""600"" height = ""600"" style=""position:fixed;top:50%; left:50%; transform: translate(-50%, -50%); border:5px solid black"">","","","","","","","",""
"","2118","sequential-stimulus-presentation-old","53","890331","0.0-15.0-1.5","SS1618366024688","trial","","40","500","2618","images/stimuli/spore_stims/complex_06_A_a.gif","images/stimuli/spore_stims/complex_15_A_b.gif","forced_long","","3","complex_dissimilar","images/stimuli/spore_stims/complex_15_A_b.gif","","","","",""
"","2116","survey-multi-choice","54","892450","0.0-16.0","SS1618366024688","math_question","","","","","","","","","","","","{""Q0"":""4""}","[0]","4","",""
"","null","html-keyboard-response","55","893363","0.0-17.0-0.0","SS1618366024688","","","null","","","","","","<p><img src= images/blank.png width =""600"" height = ""600"" style=""position:fixed;top:50%; left:50%; transform: translate(-50%, -50%); border:5px solid black"">","","","","","","","",""
"","1109","sequential-stimulus-presentation-old","56","899482","0.0-17.0-1.0","SS1618366024688","trial","","40","500","1609","images/stimuli/spore_stims/simple_20_A_a.gif","images/stimuli/spore_stims/simple_04_A_b.gif","forced_long","","4","simple_dissimilar","images/stimuli/spore_stims/simple_04_A_b.gif","","","","",""
"","null","html-keyboard-response","57","900633","0.0-17.0-0.1","SS1618366024688","","","null","","","","","","<p><img src= images/blank.png width =""600"" height = ""600"" style=""position:fixed;top:50%; left:50%; transform: translate(-50%, -50%); border:5px solid black"">","","","","","","","",""
"","6435","sequential-stimulus-presentation-old","58","907578","0.0-17.0-1.1","SS1618366024688","trial","","40","500","6935","images/stimuli/spore_stims/simple_20_A_a.gif","images/stimuli/spore_stims/simple_04_A_b.gif","forced_long","","4","simple_dissimilar","images/stimuli/spore_stims/simple_04_A_b.gif","","","","",""
"","null","html-keyboard-response","59","908603","0.0-17.0-0.2","SS1618366024688","","","null","","","","","","<p><img src= images/blank.png width =""600"" height = ""600"" style=""position:fixed;top:50%; left:50%; transform: translate(-50%, -50%); border:5px solid black"">","","","","","","","",""
"","1905","sequential-stimulus-presentation-old","60","911026","0.0-17.0-1.2","SS1618366024688","trial","","40","500","2405","images/stimuli/spore_stims/simple_20_A_a.gif","images/stimuli/spore_stims/simple_04_A_b.gif","forced_long","","4","simple_dissimilar","images/stimuli/spore_stims/simple_04_A_b.gif","","","","",""
"","null","html-keyboard-response","61","912024","0.0-17.0-0.3","SS1618366024688","","","null","","","","","","<p><img src= images/blank.png width =""600"" height = ""600"" style=""position:fixed;top:50%; left:50%; transform: translate(-50%, -50%); border:5px solid black"">","","","","","","","",""
"","1787","sequential-stimulus-presentation-old","62","914330","0.0-17.0-1.3","SS1618366024688","trial","","40","500","2287","images/stimuli/spore_stims/simple_20_A_a.gif","images/stimuli/spore_stims/simple_04_A_b.gif","forced_long","","4","simple_dissimilar","images/stimuli/spore_stims/simple_04_A_b.gif","","","","",""
"","null","html-keyboard-response","63","915483","0.0-17.0-0.4","SS1618366024688","","","null","","","","","","<p><img src= images/blank.png width =""600"" height = ""600"" style=""position:fixed;top:50%; left:50%; transform: translate(-50%, -50%); border:5px solid black"">","","","","","","","",""
"","1696","sequential-stimulus-presentation-old","64","917698","0.0-17.0-1.4","SS1618366024688","trial","","40","500","2196","images/stimuli/spore_stims/simple_20_A_a.gif","images/stimuli/spore_stims/simple_04_A_b.gif","forced_long","","4","simple_dissimilar","images/stimuli/spore_stims/simple_04_A_b.gif","","","","",""
"","null","html-keyboard-response","65","918704","0.0-17.0-0.5","SS1618366024688","","","null","","","","","","<p><img src= images/blank.png width =""600"" height = ""600"" style=""position:fixed;top:50%; left:50%; transform: translate(-50%, -50%); border:5px solid black"">","","","","","","","",""
"","1588","sequential-stimulus-presentation-old","66","920802","0.0-17.0-1.5","SS1618366024688","trial","","40","500","2088","images/stimuli/spore_stims/simple_20_A_a.gif","images/stimuli/spore_stims/simple_04_A_b.gif","forced_long","","4","simple_dissimilar","images/stimuli/spore_stims/simple_04_A_b.gif","","","","",""
"","1925","survey-multi-choice","67","922729","0.0-18.0","SS1618366024688","math_question","","","","","","","","","","","","{""Q0"":""8""}","[0]","8","",""
"","null","html-keyboard-response","68","923890","0.0-19.0-0.0","SS1618366024688","","","null","","","","","","<p><img src= images/blank.png width =""600"" height = ""600"" style=""position:fixed;top:50%; left:50%; transform: translate(-50%, -50%); border:5px solid black"">","","","","","","","",""
"","6785","sequential-stimulus-presentation-old","69","931178","0.0-19.0-1.0","SS1618366024688","trial","","40","500","7285","images/stimuli/spore_stims/simple_10_A_a.gif","images/stimuli/spore_stims/simple_16_A_b.gif","self_paced","","5","simple_dissimilar","images/stimuli/spore_stims/simple_16_A_b.gif","","","","",""
"","null","html-keyboard-response","70","932463","0.0-19.0-0.1","SS1618366024688","","","null","","","","","","<p><img src= images/blank.png width =""600"" height = ""600"" style=""position:fixed;top:50%; left:50%; transform: translate(-50%, -50%); border:5px solid black"">","","","","","","","",""
"","2020","sequential-stimulus-presentation-old","71","935002","0.0-19.0-1.1","SS1618366024688","trial","","40","500","2520","images/stimuli/spore_stims/simple_10_A_a.gif","images/stimuli/spore_stims/simple_16_A_b.gif","self_paced","","5","simple_dissimilar","images/stimuli/spore_stims/simple_16_A_b.gif","","","","",""
"","null","html-keyboard-response","72","936024","0.0-19.0-0.2","SS1618366024688","","","null","","","","","","<p><img src= images/blank.png width =""600"" height = ""600"" style=""position:fixed;top:50%; left:50%; transform: translate(-50%, -50%); border:5px solid black"">","","","","","","","",""
"","2587","sequential-stimulus-presentation-old","73","939130","0.0-19.0-1.2","SS1618366024688","trial","","40","500","3087","images/stimuli/spore_stims/simple_10_A_a.gif","images/stimuli/spore_stims/simple_16_A_b.gif","self_paced","","5","simple_dissimilar","images/stimuli/spore_stims/simple_10_A_a.gif","","","","",""
"","null","html-keyboard-response","74","940283","0.0-19.0-0.3","SS1618366024688","","","null","","","","","","<p><img src= images/blank.png width =""600"" height = ""600"" style=""position:fixed;top:50%; left:50%; transform: translate(-50%, -50%); border:5px solid black"">","","","","","","","",""
"","1519","sequential-stimulus-presentation-old","75","942321","0.0-19.0-1.3","SS1618366024688","trial","","40","500","2019","images/stimuli/spore_stims/simple_10_A_a.gif","images/stimuli/spore_stims/simple_16_A_b.gif","self_paced","","5","simple_dissimilar","images/stimuli/spore_stims/simple_16_A_b.gif","","","","",""
"","1762","survey-multi-choice","76","944086","0.0-20.0","SS1618366024688","math_question","","","","","","","","","","","","{""Q0"":""4""}","[0]","4","",""
"","null","html-keyboard-response","77","945363","0.0-21.0-0.0","SS1618366024688","","","null","","","","","","<p><img src= images/blank.png width =""600"" height = ""600"" style=""position:fixed;top:50%; left:50%; transform: translate(-50%, -50%); border:5px solid black"">","","","","","","","",""
"","434","sequential-stimulus-presentation-old","78","950818","0.0-21.0-1.0","SS1618366024688","trial","","40","500","934","images/stimuli/spore_stims/simple_03_A_b.gif","images/stimuli/spore_stims/simple_05_A_a.gif","forced_long","","6","simple_dissimilar","images/stimuli/spore_stims/simple_05_A_a.gif","","","","",""
"","null","html-keyboard-response","79","951963","0.0-21.0-0.1","SS1618366024688","","","null","","","","","","<p><img src= images/blank.png width =""600"" height = ""600"" style=""position:fixed;top:50%; left:50%; transform: translate(-50%, -50%); border:5px solid black"">","","","","","","","",""
"","18910","sequential-stimulus-presentation-old","80","971394","0.0-21.0-1.1","SS1618366024688","trial","","40","500","19410","images/stimuli/spore_stims/simple_03_A_b.gif","images/stimuli/spore_stims/simple_05_A_a.gif","forced_long","","6","simple_dissimilar","images/stimuli/spore_stims/simple_05_A_a.gif","","","","",""
"","null","html-keyboard-response","81","972633","0.0-21.0-0.2","SS1618366024688","","","null","","","","","","<p><img src= images/blank.png width =""600"" height = ""600"" style=""position:fixed;top:50%; left:50%; transform: translate(-50%, -50%); border:5px solid black"">","","","","","","","",""
"","2145","sequential-stimulus-presentation-old","82","975298","0.0-21.0-1.2","SS1618366024688","trial","","40","500","2645","images/stimuli/spore_stims/simple_03_A_b.gif","images/stimuli/spore_stims/simple_05_A_a.gif","forced_long","","6","simple_dissimilar","images/stimuli/spore_stims/simple_05_A_a.gif","","","","",""
"","null","html-keyboard-response","83","976474","0.0-21.0-0.3","SS1618366024688","","","null","","","","","","<p><img src= images/blank.png width =""600"" height = ""600"" style=""position:fixed;top:50%; left:50%; transform: translate(-50%, -50%); border:5px solid black"">","","","","","","","",""
"","2752","sequential-stimulus-presentation-old","84","979746","0.0-21.0-1.3","SS1618366024688","trial","","40","500","3252","images/stimuli/spore_stims/simple_03_A_b.gif","images/stimuli/spore_stims/simple_05_A_a.gif","forced_long","","6","simple_dissimilar","images/stimuli/spore_stims/simple_03_A_b.gif","","","","",""
"","null","html-keyboard-response","85","980574","0.0-21.0-0.4","SS1618366024688","","","null","","","","","","<p><img src= images/blank.png width =""600"" height = ""600"" style=""position:fixed;top:50%; left:50%; transform: translate(-50%, -50%); border:5px solid black"">","","","","","","","",""
"","1597","sequential-stimulus-presentation-old","86","982690","0.0-21.0-1.4","SS1618366024688","trial","","40","500","2097","images/stimuli/spore_stims/simple_03_A_b.gif","images/stimuli/spore_stims/simple_05_A_a.gif","forced_long","","6","simple_dissimilar","images/stimuli/spore_stims/simple_03_A_b.gif","","","","",""
"","2817","survey-multi-choice","87","985510","0.0-22.0","SS1618366024688","math_question","","","","","","","","","","","","{""Q0"":""11""}","[0]","11","",""
"","null","html-keyboard-response","88","986614","0.0-23.0-0.0","SS1618366024688","","","null","","","","","","<p><img src= images/blank.png width =""600"" height = ""600"" style=""position:fixed;top:50%; left:50%; transform: translate(-50%, -50%); border:5px solid black"">","","","","","","","",""
"","1736","sequential-stimulus-presentation-old","89","988410","0.0-23.0-1.0","SS1618366024688","trial","","40","500","2236","images/stimuli/spore_stims/simple_15_A_b.gif","images/stimuli/spore_stims/simple_09_A_a.gif","forced_short","","7","simple_dissimilar","images/stimuli/spore_stims/simple_09_A_a.gif","","","","",""
"","null","html-keyboard-response","90","989330","0.0-23.0-0.1","SS1618366024688","","","null","","","","","","<p><img src= images/blank.png width =""600"" height = ""600"" style=""position:fixed;top:50%; left:50%; transform: translate(-50%, -50%); border:5px solid black"">","","","","","","","",""
"","12694","sequential-stimulus-presentation-old","91","1002538","0.0-23.0-1.1","SS1618366024688","trial","","40","500","13194","images/stimuli/spore_stims/simple_15_A_b.gif","images/stimuli/spore_stims/simple_09_A_a.gif","forced_short","","7","simple_dissimilar","images/stimuli/spore_stims/simple_09_A_a.gif","","","","",""
"","null","html-keyboard-response","92","1003763","0.0-23.0-0.2","SS1618366024688","","","null","","","","","","<p><img src= images/blank.png width =""600"" height = ""600"" style=""position:fixed;top:50%; left:50%; transform: translate(-50%, -50%); border:5px solid black"">","","","","","","","",""
"","1031","sequential-stimulus-presentation-old","93","1005314","0.0-23.0-1.2","SS1618366024688","trial","","40","500","1531","images/stimuli/spore_stims/simple_15_A_b.gif","images/stimuli/spore_stims/simple_09_A_a.gif","forced_short","","7","simple_dissimilar","images/stimuli/spore_stims/simple_09_A_a.gif","","","","",""
"","null","html-keyboard-response","94","1006264","0.0-23.0-0.3","SS1618366024688","","","null","","","","","","<p><img src= images/blank.png width =""600"" height = ""600"" style=""position:fixed;top:50%; left:50%; transform: translate(-50%, -50%); border:5px solid black"">","","","","","","","",""
"","2581","sequential-stimulus-presentation-old","95","1009362","0.0-23.0-1.3","SS1618366024688","trial","","40","500","3081","images/stimuli/spore_stims/simple_15_A_b.gif","images/stimuli/spore_stims/simple_09_A_a.gif","forced_short","","7","simple_dissimilar","images/stimuli/spore_stims/simple_15_A_b.gif","","","","",""
"","2047","survey-multi-choice","96","1011414","0.0-24.0","SS1618366024688","math_question","","","","","","","","","","","","{""Q0"":""14""}","[0]","14","",""
"","null","html-keyboard-response","97","1012543","0.0-25.0-0.0","SS1618366024688","","","null","","","","","","<p><img src= images/blank.png width =""600"" height = ""600"" style=""position:fixed;top:50%; left:50%; transform: translate(-50%, -50%); border:5px solid black"">","","","","","","","",""
"","5127","sequential-stimulus-presentation-old","98","1017730","0.0-25.0-1.0","SS1618366024688","trial","","40","500","5627","images/stimuli/spore_stims/complex_07_A_b.gif","images/stimuli/spore_stims/complex_02_A_a.gif","forced_short","","8","complex_dissimilar","images/stimuli/spore_stims/complex_02_A_a.gif","","","","",""
"","null","html-keyboard-response","99","1019004","0.0-25.0-0.1","SS1618366024688","","","null","","","","","","<p><img src= images/blank.png width =""600"" height = ""600"" style=""position:fixed;top:50%; left:50%; transform: translate(-50%, -50%); border:5px solid black"">","","","","","","","",""
"","4008","sequential-stimulus-presentation-old","100","1023530","0.0-25.0-1.1","SS1618366024688","trial","","40","500","4508","images/stimuli/spore_stims/complex_07_A_b.gif","images/stimuli/spore_stims/complex_02_A_a.gif","forced_short","","8","complex_dissimilar","images/stimuli/spore_stims/complex_07_A_b.gif","","","","",""
"","null","html-keyboard-response","101","1024583","0.0-25.0-0.2","SS1618366024688","","","null","","","","","","<p><img src= images/blank.png width =""600"" height = ""600"" style=""position:fixed;top:50%; left:50%; transform: translate(-50%, -50%); border:5px solid black"">","","","","","","","",""
"","482","sequential-stimulus-presentation-old","102","1025586","0.0-25.0-1.2","SS1618366024688","trial","","40","500","982","images/stimuli/spore_stims/complex_07_A_b.gif","images/stimuli/spore_stims/complex_02_A_a.gif","forced_short","","8","complex_dissimilar","images/stimuli/spore_stims/complex_07_A_b.gif","","","","",""
"","null","html-keyboard-response","103","1026524","0.0-25.0-0.3","SS1618366024688","","","null","","","","","","<p><img src= images/blank.png width =""600"" height = ""600"" style=""position:fixed;top:50%; left:50%; transform: translate(-50%, -50%); border:5px solid black"">","","","","","","","",""
"","41720","sequential-stimulus-presentation-old","104","1068762","0.0-25.0-1.3","SS1618366024688","trial","","40","500","42220","images/stimuli/spore_stims/complex_07_A_b.gif","images/stimuli/spore_stims/complex_02_A_a.gif","forced_short","","8","complex_dissimilar","images/stimuli/spore_stims/complex_02_A_a.gif","","","","",""
"","2498","survey-multi-choice","105","1071263","0.0-26.0","SS1618366024688","math_question","","","","","","","","","","","","{""Q0"":""5""}","[0]","5","",""
"","null","html-keyboard-response","106","1072328","0.0-27.0-0.0","SS1618366024688","","","null","","","","","","<p><img src= images/blank.png width =""600"" height = ""600"" style=""position:fixed;top:50%; left:50%; transform: translate(-50%, -50%); border:5px solid black"">","","","","","","","",""
"","1195","sequential-stimulus-presentation-old","107","1073586","0.0-27.0-1.0","SS1618366024688","trial","","40","500","1695","images/stimuli/spore_stims/simple_10_A_b.gif","images/stimuli/spore_stims/simple_18_A_a.gif","forced_short","","9","simple_dissimilar","images/stimuli/spore_stims/simple_18_A_a.gif","","","","",""
"","null","html-keyboard-response","108","1074544","0.0-27.0-0.1","SS1618366024688","","","null","","","","","","<p><img src= images/blank.png width =""600"" height = ""600"" style=""position:fixed;top:50%; left:50%; transform: translate(-50%, -50%); border:5px solid black"">","","","","","","","",""
"","1254","sequential-stimulus-presentation-old","109","1076306","0.0-27.0-1.1","SS1618366024688","trial","","40","500","1754","images/stimuli/spore_stims/simple_10_A_b.gif","images/stimuli/spore_stims/simple_18_A_a.gif","forced_short","","9","simple_dissimilar","images/stimuli/spore_stims/simple_18_A_a.gif","","","","",""
"","null","html-keyboard-response","110","1077299","0.0-27.0-0.2","SS1618366024688","","","null","","","","","","<p><img src= images/blank.png width =""600"" height = ""600"" style=""position:fixed;top:50%; left:50%; transform: translate(-50%, -50%); border:5px solid black"">","","","","","","","",""
"","116","sequential-stimulus-presentation-old","111","1077930","0.0-27.0-1.2","SS1618366024688","trial","","40","500","616","images/stimuli/spore_stims/simple_10_A_b.gif","images/stimuli/spore_stims/simple_18_A_a.gif","forced_short","","9","simple_dissimilar","images/stimuli/spore_stims/simple_18_A_a.gif","","","","",""
"","null","html-keyboard-response","112","1079021","0.0-27.0-0.3","SS1618366024688","","","null","","","","","","<p><img src= images/blank.png width =""600"" height = ""600"" style=""position:fixed;top:50%; left:50%; transform: translate(-50%, -50%); border:5px solid black"">","","","","","","","",""
"","875","sequential-stimulus-presentation-old","113","1080418","0.0-27.0-1.3","SS1618366024688","trial","","40","500","1375","images/stimuli/spore_stims/simple_10_A_b.gif","images/stimuli/spore_stims/simple_18_A_a.gif","forced_short","","9","simple_dissimilar","images/stimuli/spore_stims/simple_18_A_a.gif","","","","",""
"","null","html-keyboard-response","114","1081294","0.0-27.0-0.4","SS1618366024688","","","null","","","","","","<p><img src= images/blank.png width =""600"" height = ""600"" style=""position:fixed;top:50%; left:50%; transform: translate(-50%, -50%); border:5px solid black"">","","","","","","","",""
"","2245","sequential-stimulus-presentation-old","115","1084058","0.0-27.0-1.4","SS1618366024688","trial","","40","500","2745","images/stimuli/spore_stims/simple_10_A_b.gif","images/stimuli/spore_stims/simple_18_A_a.gif","forced_short","","9","simple_dissimilar","images/stimuli/spore_stims/simple_18_A_a.gif","","","","",""
"","null","html-keyboard-response","116","1085233","0.0-27.0-0.5","SS1618366024688","","","null","","","","","","<p><img src= images/blank.png width =""600"" height = ""600"" style=""position:fixed;top:50%; left:50%; transform: translate(-50%, -50%); border:5px solid black"">","","","","","","","",""
"","1001","sequential-stimulus-presentation-old","117","1086754","0.0-27.0-1.5","SS1618366024688","trial","","40","500","1501","images/stimuli/spore_stims/simple_10_A_b.gif","images/stimuli/spore_stims/simple_18_A_a.gif","forced_short","","9","simple_dissimilar","images/stimuli/spore_stims/simple_10_A_b.gif","","","","",""
"","3036","survey-multi-choice","118","1089795","0.0-28.0","SS1618366024688","math_question","","","","","","","","","","","","{""Q0"":""15""}","[0]","15","",""
"","null","html-keyboard-response","119","1090684","0.0-29.0-0.0","SS1618366024688","","","null","","","","","","<p><img src= images/blank.png width =""600"" height = ""600"" style=""position:fixed;top:50%; left:50%; transform: translate(-50%, -50%); border:5px solid black"">","","","","","","","",""
"","49782","sequential-stimulus-presentation-old","120","1140970","0.0-29.0-1.0","SS1618366024688","trial","","40","500","50282","images/stimuli/spore_stims/complex_11_A_a.gif","images/stimuli/spore_stims/complex_12_A_b.gif","self_paced","","10","complex_dissimilar","images/stimuli/spore_stims/complex_12_A_b.gif","","","","",""
"","null","html-keyboard-response","121","1141933","0.0-29.0-0.1","SS1618366024688","","","null","","","","","","<p><img src= images/blank.png width =""600"" height = ""600"" style=""position:fixed;top:50%; left:50%; transform: translate(-50%, -50%); border:5px solid black"">","","","","","","","",""
"","5629","sequential-stimulus-presentation-old","122","1148082","0.0-29.0-1.1","SS1618366024688","trial","","40","500","6129","images/stimuli/spore_stims/complex_11_A_a.gif","images/stimuli/spore_stims/complex_12_A_b.gif","self_paced","","10","complex_dissimilar","images/stimuli/spore_stims/complex_12_A_b.gif","","","","",""
"","null","html-keyboard-response","123","1148964","0.0-29.0-0.2","SS1618366024688","","","null","","","","","","<p><img src= images/blank.png width =""600"" height = ""600"" style=""position:fixed;top:50%; left:50%; transform: translate(-50%, -50%); border:5px solid black"">","","","","","","","",""
"","3391","sequential-stimulus-presentation-old","124","1152874","0.0-29.0-1.2","SS1618366024688","trial","","40","500","3891","images/stimuli/spore_stims/complex_11_A_a.gif","images/stimuli/spore_stims/complex_12_A_b.gif","self_paced","","10","complex_dissimilar","images/stimuli/spore_stims/complex_12_A_b.gif","","","","",""
"","null","html-keyboard-response","125","1154084","0.0-29.0-0.3","SS1618366024688","","","null","","","","","","<p><img src= images/blank.png width =""600"" height = ""600"" style=""position:fixed;top:50%; left:50%; transform: translate(-50%, -50%); border:5px solid black"">","","","","","","","",""
"","1191","sequential-stimulus-presentation-old","126","1155795","0.0-29.0-1.3","SS1618366024688","trial","","40","500","1691","images/stimuli/spore_stims/complex_11_A_a.gif","images/stimuli/spore_stims/complex_12_A_b.gif","self_paced","","10","complex_dissimilar","images/stimuli/spore_stims/complex_12_A_b.gif","","","","",""
"","null","html-keyboard-response","127","1156663","0.0-29.0-0.4","SS1618366024688","","","null","","","","","","<p><img src= images/blank.png width =""600"" height = ""600"" style=""position:fixed;top:50%; left:50%; transform: translate(-50%, -50%); border:5px solid black"">","","","","","","","",""
"","835","sequential-stimulus-presentation-old","128","1158018","0.0-29.0-1.4","SS1618366024688","trial","","40","500","1335","images/stimuli/spore_stims/complex_11_A_a.gif","images/stimuli/spore_stims/complex_12_A_b.gif","self_paced","","10","complex_dissimilar","images/stimuli/spore_stims/complex_12_A_b.gif","","","","",""
"","1908","survey-multi-choice","129","1159931","0.0-30.0","SS1618366024688","math_question","","","","","","","","","","","","{""Q0"":""10""}","[0]","10","",""
"","null","html-keyboard-response","130","1161024","0.0-31.0-0.0","SS1618366024688","","","null","","","","","","<p><img src= images/blank.png width =""600"" height = ""600"" style=""position:fixed;top:50%; left:50%; transform: translate(-50%, -50%); border:5px solid black"">","","","","","","","",""
"","5186","sequential-stimulus-presentation-old","131","1171219","0.0-31.0-1.0","SS1618366024688","trial","","40","500","5686","images/stimuli/spore_stims/complex_17_A_a.gif","images/stimuli/spore_stims/complex_06_A_b.gif","forced_long","","11","complex_dissimilar","images/stimuli/spore_stims/complex_06_A_b.gif","","","","",""
"","null","html-keyboard-response","132","1172173","0.0-31.0-0.1","SS1618366024688","","","null","","","","","","<p><img src= images/blank.png width =""600"" height = ""600"" style=""position:fixed;top:50%; left:50%; transform: translate(-50%, -50%); border:5px solid black"">","","","","","","","",""
"","1245","sequential-stimulus-presentation-old","133","1173938","0.0-31.0-1.1","SS1618366024688","trial","","40","500","1745","images/stimuli/spore_stims/complex_17_A_a.gif","images/stimuli/spore_stims/complex_06_A_b.gif","forced_long","","11","complex_dissimilar","images/stimuli/spore_stims/complex_06_A_b.gif","","","","",""
"","null","html-keyboard-response","134","1175114","0.0-31.0-0.2","SS1618366024688","","","null","","","","","","<p><img src= images/blank.png width =""600"" height = ""600"" style=""position:fixed;top:50%; left:50%; transform: translate(-50%, -50%); border:5px solid black"">","","","","","","","",""
"","1057","sequential-stimulus-presentation-old","135","1176690","0.0-31.0-1.2","SS1618366024688","trial","","40","500","1557","images/stimuli/spore_stims/complex_17_A_a.gif","images/stimuli/spore_stims/complex_06_A_b.gif","forced_long","","11","complex_dissimilar","images/stimuli/spore_stims/complex_06_A_b.gif","","","","",""
"","null","html-keyboard-response","136","1177533","0.0-31.0-0.3","SS1618366024688","","","null","","","","","","<p><img src= images/blank.png width =""600"" height = ""600"" style=""position:fixed;top:50%; left:50%; transform: translate(-50%, -50%); border:5px solid black"">","","","","","","","",""
"","212","sequential-stimulus-presentation-old","137","1178266","0.0-31.0-1.3","SS1618366024688","trial","","40","500","712","images/stimuli/spore_stims/complex_17_A_a.gif","images/stimuli/spore_stims/complex_06_A_b.gif","forced_long","","11","complex_dissimilar","images/stimuli/spore_stims/complex_06_A_b.gif","","","","",""
"","null","html-keyboard-response","138","1179514","0.0-31.0-0.4","SS1618366024688","","","null","","","","","","<p><img src= images/blank.png width =""600"" height = ""600"" style=""position:fixed;top:50%; left:50%; transform: translate(-50%, -50%); border:5px solid black"">","","","","","","","",""
"","744","sequential-stimulus-presentation-old","139","1180778","0.0-31.0-1.4","SS1618366024688","trial","","40","500","1244","images/stimuli/spore_stims/complex_17_A_a.gif","images/stimuli/spore_stims/complex_06_A_b.gif","forced_long","","11","complex_dissimilar","images/stimuli/spore_stims/complex_06_A_b.gif","","","","",""
"[{""page_index"":0,""viewing_time"":3884}]","3884","instructions","140","1184667","0.0-32.0","SS1618366024688","instructions","","","","","","","","","","","","","","","",""
"","21955","survey-likert","141","1206627","0.0-33.0","SS1618366024688","similarity_question","","","","","","","","","","","","{""Q0"":4}","[0]","","images/stimuli/spore_stims/simple_04_A_b.gif","images/stimuli/spore_stims/simple_20_A_a.gif"
"","6202","survey-likert","142","1212836","0.0-34.0","SS1618366024688","similarity_question","","","","","","","","","","","","{""Q0"":3}","[0]","","images/stimuli/spore_stims/simple_16_A_b.gif","images/stimuli/spore_stims/simple_10_A_a.gif"
"","5053","survey-likert","143","1217895","0.0-35.0","SS1618366024688","similarity_question","","","","","","","","","","","","{""Q0"":0}","[0]","","images/stimuli/spore_stims/complex_02_A_a.gif","images/stimuli/spore_stims/complex_07_A_b.gif"
"","6731","survey-likert","144","1224633","0.0-36.0","SS1618366024688","similarity_question","","","","","","","","","","","","{""Q0"":0}","[0]","","images/stimuli/spore_stims/complex_10_A_a.gif","images/stimuli/spore_stims/complex_14_A_b.gif"
"","7401","survey-likert","145","1232041","0.0-37.0","SS1618366024688","similarity_question","","","","","","","","","","","","{""Q0"":0}","[0]","","images/stimuli/spore_stims/complex_07_A_a.gif","images/stimuli/spore_stims/complex_16_A_b.gif"
"","6357","survey-likert","146","1238404","0.0-38.0","SS1618366024688","similarity_question","","","","","","","","","","","","{""Q0"":1}","[0]","","images/stimuli/spore_stims/simple_05_A_a.gif","images/stimuli/spore_stims/simple_03_A_b.gif"
"","5564","survey-likert","147","1243975","0.0-39.0","SS1618366024688","similarity_question","","","","","","","","","","","","{""Q0"":0}","[0]","","images/stimuli/spore_stims/complex_06_A_a.gif","images/stimuli/spore_stims/complex_15_A_b.gif"
"","3671","survey-likert","148","1247653","0.0-40.0","SS1618366024688","similarity_question","","","","","","","","","","","","{""Q0"":2}","[0]","","images/stimuli/spore_stims/simple_18_A_a.gif","images/stimuli/spore_stims/simple_10_A_b.gif"
"","10041","survey-likert","149","1257700","0.0-41.0","SS1618366024688","similarity_question","","","","","","","","","","","","{""Q0"":3}","[0]","","images/stimuli/spore_stims/complex_06_A_b.gif","images/stimuli/spore_stims/complex_17_A_a.gif"
"","3412","survey-likert","150","1261119","0.0-42.0","SS1618366024688","similarity_question","","","","","","","","","","","","{""Q0"":5}","[0]","","images/stimuli/spore_stims/simple_09_A_a.gif","images/stimuli/spore_stims/simple_15_A_b.gif"
"","5115","survey-likert","151","1266240","0.0-43.0","SS1618366024688","similarity_question","","","","","","","","","","","","{""Q0"":2}","[0]","","images/stimuli/spore_stims/simple_12_A_b.gif","images/stimuli/spore_stims/simple_07_A_a.gif"
"","4481","survey-likert","152","1270728","0.0-44.0","SS1618366024688","similarity_question","","","","","","","","","","","","{""Q0"":0}","[0]","","images/stimuli/spore_stims/complex_12_A_b.gif","images/stimuli/spore_stims/complex_11_A_a.gif"
"[{""page_index"":0,""viewing_time"":3227}]","3228","instructions","153","1273962","0.0-45.0","SS1618366024688","instructions","","","","","","","","","","","","","","","",""
"","4173","survey-likert","154","1278140","0.0-46.0","SS1618366024688","","","","","","","","","images/stimuli/spore_stims/simple_09_A_a.gif","","","","{""Q0"":1}","[0]","","",""
"","5516","survey-likert","155","1283663","0.0-47.0","SS1618366024688","","","","","","","","","images/stimuli/spore_stims/complex_02_A_a.gif","","","","{""Q0"":3}","[0]","","",""
"","5132","survey-likert","156","1288802","0.0-48.0","SS1618366024688","","","","","","","","","images/stimuli/spore_stims/complex_07_A_a.gif","","","","{""Q0"":4}","[0]","","",""
"","6306","survey-likert","157","1295115","0.0-49.0","SS1618366024688","","","","","","","","","images/stimuli/spore_stims/complex_11_A_a.gif","","","","{""Q0"":4}","[0]","","",""
"","2959","survey-likert","158","1298081","0.0-50.0","SS1618366024688","","","","","","","","","images/stimuli/spore_stims/simple_07_A_a.gif","","","","{""Q0"":0}","[0]","","",""
"","1575","survey-likert","159","1299663","0.0-51.0","SS1618366024688","","","","","","","","","images/stimuli/spore_stims/simple_04_A_b.gif","","","","{""Q0"":1}","[0]","","",""
"","6267","survey-likert","160","1305937","0.0-52.0","SS1618366024688","","","","","","","","","images/stimuli/spore_stims/complex_10_A_a.gif","","","","{""Q0"":5}","[0]","","",""
"","4693","survey-likert","161","1310638","0.0-53.0","SS1618366024688","","","","","","","","","images/stimuli/spore_stims/simple_18_A_a.gif","","","","{""Q0"":2}","[0]","","",""
"","4352","survey-likert","162","1314996","0.0-54.0","SS1618366024688","","","","","","","","","images/stimuli/spore_stims/simple_03_A_b.gif","","","","{""Q0"":1}","[0]","","",""
"","5458","survey-likert","163","1320461","0.0-55.0","SS1618366024688","","","","","","","","","images/stimuli/spore_stims/simple_16_A_b.gif","","","","{""Q0"":1}","[0]","","",""
"","4908","survey-likert","164","1325377","0.0-56.0","SS1618366024688","","","","","","","","","images/stimuli/spore_stims/complex_15_A_b.gif","","","","{""Q0"":5}","[0]","","",""
"","5057","survey-likert","165","1330442","0.0-57.0","SS1618366024688","","","","","","","","","images/stimuli/spore_stims/complex_17_A_a.gif","","","","{""Q0"":6}","[0]","","",""
"[{""page_index"":0,""viewing_time"":1571}]","1571","instructions","166","1332018","0.0-58.0","SS1618366024688","instructions","","","","","","","","","","","","","","","",""
"","2792","demog-age","167","1334819","0.0-59.0","SS1618366024688","","","","","","","","","","","","","{""age"":""21""}","","","",""
"","5175","demog-ethnic-US","168","1340004","0.0-60.0","SS1618366024688","","","","","","","","","","","","","{""ethnicity"":[""White""]}","[0]","","",""
"","7395","demog-gender-and-education","169","1347406","0.0-61.0","SS1618366024688","","","","","","","","","","","","","{""gender"":""Male"",""education"":""High school diploma""}","[0,1]","","",""
"","55454","survey-text","170","1402868","0.0-62.0","SS1618366024688","feedback","","","","","","","","","","","","{""Q0"":""The purple and yellow creature with big eyes, horns and bee-like wings looks amazing.""}","","","",""
"[{""page_index"":0,""viewing_time"":1065}]","1065","instructions","171","1403939","0.0-63.0","SS1618366024688","instructions","","","","","","","","","","","","","","","",""
