"view_history","rt","trial_type","trial_index","time_elapsed","internal_node_id","subject","stimulus_type","trial_stimulus","key_press","minimum_viewing_duration","trial_looking_time","block_deviant","block_background","exposure_type","stimulus","block_number","block_type","stimulus_displayed","responses","question_order","math_correct_answer","stimulus_left","stimulus_right"
"[{""page_index"":0,""viewing_time"":18802.974999998696}]","18804.249999986496","instructions","0","18805","0.0-0.0","SS1618365921326","","","","","","","","","","","","","","","","",""
"[{""page_index"":0,""viewing_time"":11303.669999993872},{""page_index"":1,""viewing_time"":6429.94999999064}]","17733.844999980647","instructions","1","38541","0.0-1.0","SS1618365921326","instructions","","","","","","","","","","","","","","","",""
"","88010.25500000105","sequential-stimulus-presentation-old","2","127054","0.0-2.0","SS1618365921326","","","40","500","88510.25500000105","null","null","self_paced","","","","","","","","",""
"","6092.234999989159","sequential-stimulus-presentation-old","3","133649","0.0-3.0","SS1618365921326","","","40","500","6592.234999989159","null","null","self_paced","","","","","","","","",""
"[{""page_index"":0,""viewing_time"":15987.139999982901}]","15987.374999996973","instructions","4","149637","0.0-4.0","SS1618365921326","instructions","","","","","","","","","","","","","","","",""
"","6634.940000018105","sequential-stimulus-presentation-old","5","161274","0.0-5.0","SS1618365921326","","","40","500","7134.940000018105","null","null","forced_long","","","","","","","","",""
"","49011.12500001909","sequential-stimulus-presentation-old","6","210338","0.0-6.0","SS1618365921326","","","40","50","49061.12500001909","null","null","forced_long","","","","","","","","",""
"[{""page_index"":0,""viewing_time"":2397.324999998091}]","2397.8249999927357","instructions","7","212737","0.0-7.0","SS1618365921326","instructions","","","","","","","","","","","","","","","",""
"[{""page_index"":0,""viewing_time"":7946.374999999534},{""page_index"":1,""viewing_time"":8779.739999998128},{""page_index"":2,""viewing_time"":4076.020000007702},{""page_index"":3,""viewing_time"":1027.8849999886006},{""page_index"":4,""viewing_time"":1299.6250000142027}]","23129.844999988563","instructions","8","235868","0.0-8.0","SS1618365921326","instructions","","","","","","","","","","","","","","","",""
"","null","html-keyboard-response","9","236964","0.0-9.0-0.0","SS1618365921326","","","null","","","","","","<p><img src= images/blank.png width =""600"" height = ""600"" style=""position:fixed;top:50%; left:50%; transform: translate(-50%, -50%); border:5px solid black"">","","","","","","","",""
"","22956.620000011753","sequential-stimulus-presentation-old","10","260424","0.0-9.0-1.0","SS1618365921326","trial","","40","500","23456.620000011753","images/stimuli/spore_stims/simple_18_A_b.gif","images/stimuli/spore_stims/simple_20_A_a.gif","self_paced","","0","simple_dissimilar","images/stimuli/spore_stims/simple_20_A_a.gif","","","","",""
"","null","html-keyboard-response","11","261699","0.0-9.0-0.1","SS1618365921326","","","null","","","","","","<p><img src= images/blank.png width =""600"" height = ""600"" style=""position:fixed;top:50%; left:50%; transform: translate(-50%, -50%); border:5px solid black"">","","","","","","","",""
"","9491.515000001527","sequential-stimulus-presentation-old","12","271693","0.0-9.0-1.1","SS1618365921326","trial","","40","500","9991.515000001527","images/stimuli/spore_stims/simple_18_A_b.gif","images/stimuli/spore_stims/simple_20_A_a.gif","self_paced","","0","simple_dissimilar","images/stimuli/spore_stims/simple_18_A_b.gif","","","","",""
"","null","html-keyboard-response","13","272908","0.0-9.0-0.2","SS1618365921326","","","null","","","","","","<p><img src= images/blank.png width =""600"" height = ""600"" style=""position:fixed;top:50%; left:50%; transform: translate(-50%, -50%); border:5px solid black"">","","","","","","","",""
"","11116.17500000284","sequential-stimulus-presentation-old","14","284527","0.0-9.0-1.2","SS1618365921326","trial","","40","500","11616.17500000284","images/stimuli/spore_stims/simple_18_A_b.gif","images/stimuli/spore_stims/simple_20_A_a.gif","self_paced","","0","simple_dissimilar","images/stimuli/spore_stims/simple_20_A_a.gif","","","","",""
"","null","html-keyboard-response","15","285503","0.0-9.0-0.3","SS1618365921326","","","null","","","","","","<p><img src= images/blank.png width =""600"" height = ""600"" style=""position:fixed;top:50%; left:50%; transform: translate(-50%, -50%); border:5px solid black"">","","","","","","","",""
"","8085.489999997662","sequential-stimulus-presentation-old","16","294092","0.0-9.0-1.3","SS1618365921326","trial","","40","500","8585.489999997662","images/stimuli/spore_stims/simple_18_A_b.gif","images/stimuli/spore_stims/simple_20_A_a.gif","self_paced","","0","simple_dissimilar","images/stimuli/spore_stims/simple_20_A_a.gif","","","","",""
"","5330.705000000307","survey-multi-choice","17","299425","0.0-10.0","SS1618365921326","math_question","","","","","","","","","","","","{""Q0"":""11""}","[0]","11","",""
"","null","html-keyboard-response","18","300265","0.0-11.0-0.0","SS1618365921326","","","null","","","","","","<p><img src= images/blank.png width =""600"" height = ""600"" style=""position:fixed;top:50%; left:50%; transform: translate(-50%, -50%); border:5px solid black"">","","","","","","","",""
"","2834.9600000074133","sequential-stimulus-presentation-old","19","308103","0.0-11.0-1.0","SS1618365921326","trial","","40","500","3334.9600000074133","images/stimuli/spore_stims/simple_03_A_b.gif","images/stimuli/spore_stims/simple_17_A_a.gif","forced_long","","1","simple_dissimilar","images/stimuli/spore_stims/simple_17_A_a.gif","","","","",""
"","null","html-keyboard-response","20","309237","0.0-11.0-0.1","SS1618365921326","","","null","","","","","","<p><img src= images/blank.png width =""600"" height = ""600"" style=""position:fixed;top:50%; left:50%; transform: translate(-50%, -50%); border:5px solid black"">","","","","","","","",""
"","11991.895000013756","sequential-stimulus-presentation-old","21","321732","0.0-11.0-1.1","SS1618365921326","trial","","40","500","12491.895000013756","images/stimuli/spore_stims/simple_03_A_b.gif","images/stimuli/spore_stims/simple_17_A_a.gif","forced_long","","1","simple_dissimilar","images/stimuli/spore_stims/simple_03_A_b.gif","","","","",""
"","null","html-keyboard-response","22","322585","0.0-11.0-0.2","SS1618365921326","","","null","","","","","","<p><img src= images/blank.png width =""600"" height = ""600"" style=""position:fixed;top:50%; left:50%; transform: translate(-50%, -50%); border:5px solid black"">","","","","","","","",""
"","14684.819999994943","sequential-stimulus-presentation-old","23","337775","0.0-11.0-1.2","SS1618365921326","trial","","40","500","15184.819999994943","images/stimuli/spore_stims/simple_03_A_b.gif","images/stimuli/spore_stims/simple_17_A_a.gif","forced_long","","1","simple_dissimilar","images/stimuli/spore_stims/simple_03_A_b.gif","","","","",""
"","null","html-keyboard-response","24","338703","0.0-11.0-0.3","SS1618365921326","","","null","","","","","","<p><img src= images/blank.png width =""600"" height = ""600"" style=""position:fixed;top:50%; left:50%; transform: translate(-50%, -50%); border:5px solid black"">","","","","","","","",""
"","11379.554999992251","sequential-stimulus-presentation-old","25","350586","0.0-11.0-1.3","SS1618365921326","trial","","40","500","11879.554999992251","images/stimuli/spore_stims/simple_03_A_b.gif","images/stimuli/spore_stims/simple_17_A_a.gif","forced_long","","1","simple_dissimilar","images/stimuli/spore_stims/simple_17_A_a.gif","","","","",""
"","null","html-keyboard-response","26","351483","0.0-11.0-0.4","SS1618365921326","","","null","","","","","","<p><img src= images/blank.png width =""600"" height = ""600"" style=""position:fixed;top:50%; left:50%; transform: translate(-50%, -50%); border:5px solid black"">","","","","","","","",""
"","11151.190000004135","sequential-stimulus-presentation-old","27","363138","0.0-11.0-1.4","SS1618365921326","trial","","40","500","11651.190000004135","images/stimuli/spore_stims/simple_03_A_b.gif","images/stimuli/spore_stims/simple_17_A_a.gif","forced_long","","1","simple_dissimilar","images/stimuli/spore_stims/simple_17_A_a.gif","","","","",""
"","3391.250000015134","survey-multi-choice","28","366531","0.0-12.0","SS1618365921326","math_question","","","","","","","","","","","","{""Q0"":""3""}","[0]","3","",""
"","null","html-keyboard-response","29","367694","0.0-13.0-0.0","SS1618365921326","","","null","","","","","","<p><img src= images/blank.png width =""600"" height = ""600"" style=""position:fixed;top:50%; left:50%; transform: translate(-50%, -50%); border:5px solid black"">","","","","","","","",""
"","1222.2750000073574","sequential-stimulus-presentation-old","30","373919","0.0-13.0-1.0","SS1618365921326","trial","","40","500","1722.2750000073574","images/stimuli/spore_stims/complex_04_A_a.gif","images/stimuli/spore_stims/complex_11_A_b.gif","forced_long","","2","complex_dissimilar","images/stimuli/spore_stims/complex_11_A_b.gif","","","","",""
"","null","html-keyboard-response","31","374864","0.0-13.0-0.1","SS1618365921326","","","null","","","","","","<p><img src= images/blank.png width =""600"" height = ""600"" style=""position:fixed;top:50%; left:50%; transform: translate(-50%, -50%); border:5px solid black"">","","","","","","","",""
"","8491.35500000557","sequential-stimulus-presentation-old","32","383858","0.0-13.0-1.1","SS1618365921326","trial","","40","500","8991.35500000557","images/stimuli/spore_stims/complex_04_A_a.gif","images/stimuli/spore_stims/complex_11_A_b.gif","forced_long","","2","complex_dissimilar","images/stimuli/spore_stims/complex_04_A_a.gif","","","","",""
"","null","html-keyboard-response","33","385106","0.0-13.0-0.2","SS1618365921326","","","null","","","","","","<p><img src= images/blank.png width =""600"" height = ""600"" style=""position:fixed;top:50%; left:50%; transform: translate(-50%, -50%); border:5px solid black"">","","","","","","","",""
"","9746.725000004517","sequential-stimulus-presentation-old","34","395356","0.0-13.0-1.2","SS1618365921326","trial","","40","500","10246.725000004517","images/stimuli/spore_stims/complex_04_A_a.gif","images/stimuli/spore_stims/complex_11_A_b.gif","forced_long","","2","complex_dissimilar","images/stimuli/spore_stims/complex_11_A_b.gif","","","","",""
"","null","html-keyboard-response","35","396592","0.0-13.0-0.3","SS1618365921326","","","null","","","","","","<p><img src= images/blank.png width =""600"" height = ""600"" style=""position:fixed;top:50%; left:50%; transform: translate(-50%, -50%); border:5px solid black"">","","","","","","","",""
"","15674.01499999687","sequential-stimulus-presentation-old","36","412770","0.0-13.0-1.3","SS1618365921326","trial","","40","500","16174.01499999687","images/stimuli/spore_stims/complex_04_A_a.gif","images/stimuli/spore_stims/complex_11_A_b.gif","forced_long","","2","complex_dissimilar","images/stimuli/spore_stims/complex_11_A_b.gif","","","","",""
"","null","html-keyboard-response","37","413979","0.0-13.0-0.4","SS1618365921326","","","null","","","","","","<p><img src= images/blank.png width =""600"" height = ""600"" style=""position:fixed;top:50%; left:50%; transform: translate(-50%, -50%); border:5px solid black"">","","","","","","","",""
"","9582.070000004023","sequential-stimulus-presentation-old","38","424063","0.0-13.0-1.4","SS1618365921326","trial","","40","500","10082.070000004023","images/stimuli/spore_stims/complex_04_A_a.gif","images/stimuli/spore_stims/complex_11_A_b.gif","forced_long","","2","complex_dissimilar","images/stimuli/spore_stims/complex_04_A_a.gif","","","","",""
"","2883.895000006305","survey-multi-choice","39","426949","0.0-14.0","SS1618365921326","math_question","","","","","","","","","","","","{""Q0"":""11""}","[0]","11","",""
"","null","html-keyboard-response","40","428077","0.0-15.0-0.0","SS1618365921326","","","null","","","","","","<p><img src= images/blank.png width =""600"" height = ""600"" style=""position:fixed;top:50%; left:50%; transform: translate(-50%, -50%); border:5px solid black"">","","","","","","","",""
"","2029.6050000179093","sequential-stimulus-presentation-old","41","430161","0.0-15.0-1.0","SS1618365921326","trial","","40","500","2529.6050000179093","images/stimuli/spore_stims/complex_13_A_b.gif","images/stimuli/spore_stims/complex_08_A_a.gif","forced_short","","3","complex_dissimilar","images/stimuli/spore_stims/complex_08_A_a.gif","","","","",""
"","null","html-keyboard-response","42","431445","0.0-15.0-0.1","SS1618365921326","","","null","","","","","","<p><img src= images/blank.png width =""600"" height = ""600"" style=""position:fixed;top:50%; left:50%; transform: translate(-50%, -50%); border:5px solid black"">","","","","","","","",""
"","8340.514999988955","sequential-stimulus-presentation-old","43","440288","0.0-15.0-1.1","SS1618365921326","trial","","40","500","8840.514999988955","images/stimuli/spore_stims/complex_13_A_b.gif","images/stimuli/spore_stims/complex_08_A_a.gif","forced_short","","3","complex_dissimilar","images/stimuli/spore_stims/complex_08_A_a.gif","","","","",""
"","null","html-keyboard-response","44","441148","0.0-15.0-0.2","SS1618365921326","","","null","","","","","","<p><img src= images/blank.png width =""600"" height = ""600"" style=""position:fixed;top:50%; left:50%; transform: translate(-50%, -50%); border:5px solid black"">","","","","","","","",""
"","6643.714999983786","sequential-stimulus-presentation-old","45","448295","0.0-15.0-1.2","SS1618365921326","trial","","40","500","7143.714999983786","images/stimuli/spore_stims/complex_13_A_b.gif","images/stimuli/spore_stims/complex_08_A_a.gif","forced_short","","3","complex_dissimilar","images/stimuli/spore_stims/complex_08_A_a.gif","","","","",""
"","null","html-keyboard-response","46","449315","0.0-15.0-0.3","SS1618365921326","","","null","","","","","","<p><img src= images/blank.png width =""600"" height = ""600"" style=""position:fixed;top:50%; left:50%; transform: translate(-50%, -50%); border:5px solid black"">","","","","","","","",""
"","4721.004999999423","sequential-stimulus-presentation-old","47","454541","0.0-15.0-1.3","SS1618365921326","trial","","40","500","5221.004999999423","images/stimuli/spore_stims/complex_13_A_b.gif","images/stimuli/spore_stims/complex_08_A_a.gif","forced_short","","3","complex_dissimilar","images/stimuli/spore_stims/complex_08_A_a.gif","","","","",""
"","null","html-keyboard-response","48","455556","0.0-15.0-0.4","SS1618365921326","","","null","","","","","","<p><img src= images/blank.png width =""600"" height = ""600"" style=""position:fixed;top:50%; left:50%; transform: translate(-50%, -50%); border:5px solid black"">","","","","","","","",""
"","17030.715000000782","sequential-stimulus-presentation-old","49","473090","0.0-15.0-1.4","SS1618365921326","trial","","40","500","17530.715000000782","images/stimuli/spore_stims/complex_13_A_b.gif","images/stimuli/spore_stims/complex_08_A_a.gif","forced_short","","3","complex_dissimilar","images/stimuli/spore_stims/complex_08_A_a.gif","","","","",""
"","4524.804999993648","survey-multi-choice","50","477617","0.0-16.0","SS1618365921326","math_question","","","","","","","","","","","","{""Q0"":""13""}","[0]","13","",""
"","null","html-keyboard-response","51","478747","0.0-17.0-0.0","SS1618365921326","","","null","","","","","","<p><img src= images/blank.png width =""600"" height = ""600"" style=""position:fixed;top:50%; left:50%; transform: translate(-50%, -50%); border:5px solid black"">","","","","","","","",""
"","6565.830000006827","sequential-stimulus-presentation-old","52","485816","0.0-17.0-1.0","SS1618365921326","trial","","40","500","7065.830000006827","images/stimuli/spore_stims/complex_05_A_b.gif","images/stimuli/spore_stims/complex_18_A_a.gif","self_paced","","4","complex_dissimilar","images/stimuli/spore_stims/complex_18_A_a.gif","","","","",""
"","null","html-keyboard-response","53","486955","0.0-17.0-0.1","SS1618365921326","","","null","","","","","","<p><img src= images/blank.png width =""600"" height = ""600"" style=""position:fixed;top:50%; left:50%; transform: translate(-50%, -50%); border:5px solid black"">","","","","","","","",""
"","9066.48999999743","sequential-stimulus-presentation-old","54","496526","0.0-17.0-1.1","SS1618365921326","trial","","40","500","9566.48999999743","images/stimuli/spore_stims/complex_05_A_b.gif","images/stimuli/spore_stims/complex_18_A_a.gif","self_paced","","4","complex_dissimilar","images/stimuli/spore_stims/complex_05_A_b.gif","","","","",""
"","null","html-keyboard-response","55","497704","0.0-17.0-0.2","SS1618365921326","","","null","","","","","","<p><img src= images/blank.png width =""600"" height = ""600"" style=""position:fixed;top:50%; left:50%; transform: translate(-50%, -50%); border:5px solid black"">","","","","","","","",""
"","9242.129999998724","sequential-stimulus-presentation-old","56","507450","0.0-17.0-1.2","SS1618365921326","trial","","40","500","9742.129999998724","images/stimuli/spore_stims/complex_05_A_b.gif","images/stimuli/spore_stims/complex_18_A_a.gif","self_paced","","4","complex_dissimilar","images/stimuli/spore_stims/complex_18_A_a.gif","","","","",""
"","null","html-keyboard-response","57","508361","0.0-17.0-0.3","SS1618365921326","","","null","","","","","","<p><img src= images/blank.png width =""600"" height = ""600"" style=""position:fixed;top:50%; left:50%; transform: translate(-50%, -50%); border:5px solid black"">","","","","","","","",""
"","8751.124999980675","sequential-stimulus-presentation-old","58","517617","0.0-17.0-1.3","SS1618365921326","trial","","40","500","9251.124999980675","images/stimuli/spore_stims/complex_05_A_b.gif","images/stimuli/spore_stims/complex_18_A_a.gif","self_paced","","4","complex_dissimilar","images/stimuli/spore_stims/complex_18_A_a.gif","","","","",""
"","null","html-keyboard-response","59","518708","0.0-17.0-0.4","SS1618365921326","","","null","","","","","","<p><img src= images/blank.png width =""600"" height = ""600"" style=""position:fixed;top:50%; left:50%; transform: translate(-50%, -50%); border:5px solid black"">","","","","","","","",""
"","9220.12499999255","sequential-stimulus-presentation-old","60","528433","0.0-17.0-1.4","SS1618365921326","trial","","40","500","9720.12499999255","images/stimuli/spore_stims/complex_05_A_b.gif","images/stimuli/spore_stims/complex_18_A_a.gif","self_paced","","4","complex_dissimilar","images/stimuli/spore_stims/complex_05_A_b.gif","","","","",""
"","3696.155000012368","survey-multi-choice","61","532130","0.0-18.0","SS1618365921326","math_question","","","","","","","","","","","","{""Q0"":""17""}","[0]","17","",""
"","null","html-keyboard-response","62","533241","0.0-19.0-0.0","SS1618365921326","","","null","","","","","","<p><img src= images/blank.png width =""600"" height = ""600"" style=""position:fixed;top:50%; left:50%; transform: translate(-50%, -50%); border:5px solid black"">","","","","","","","",""
"","1393.2700000004843","sequential-stimulus-presentation-old","63","539638","0.0-19.0-1.0","SS1618365921326","trial","","40","500","1893.2700000004843","images/stimuli/spore_stims/complex_17_A_a.gif","images/stimuli/spore_stims/complex_01_A_b.gif","forced_long","","5","complex_dissimilar","images/stimuli/spore_stims/complex_01_A_b.gif","","","","",""
"","null","html-keyboard-response","64","540725","0.0-19.0-0.1","SS1618365921326","","","null","","","","","","<p><img src= images/blank.png width =""600"" height = ""600"" style=""position:fixed;top:50%; left:50%; transform: translate(-50%, -50%); border:5px solid black"">","","","","","","","",""
"","8557.505000004312","sequential-stimulus-presentation-old","65","549786","0.0-19.0-1.1","SS1618365921326","trial","","40","500","9057.505000004312","images/stimuli/spore_stims/complex_17_A_a.gif","images/stimuli/spore_stims/complex_01_A_b.gif","forced_long","","5","complex_dissimilar","images/stimuli/spore_stims/complex_01_A_b.gif","","","","",""
"","null","html-keyboard-response","66","550899","0.0-19.0-0.2","SS1618365921326","","","null","","","","","","<p><img src= images/blank.png width =""600"" height = ""600"" style=""position:fixed;top:50%; left:50%; transform: translate(-50%, -50%); border:5px solid black"">","","","","","","","",""
"","3463.949999975739","sequential-stimulus-presentation-old","67","554866","0.0-19.0-1.2","SS1618365921326","trial","","40","500","3963.949999975739","images/stimuli/spore_stims/complex_17_A_a.gif","images/stimuli/spore_stims/complex_01_A_b.gif","forced_long","","5","complex_dissimilar","images/stimuli/spore_stims/complex_01_A_b.gif","","","","",""
"","null","html-keyboard-response","68","555830","0.0-19.0-0.3","SS1618365921326","","","null","","","","","","<p><img src= images/blank.png width =""600"" height = ""600"" style=""position:fixed;top:50%; left:50%; transform: translate(-50%, -50%); border:5px solid black"">","","","","","","","",""
"","6788.689999986673","sequential-stimulus-presentation-old","69","563122","0.0-19.0-1.3","SS1618365921326","trial","","40","500","7288.689999986673","images/stimuli/spore_stims/complex_17_A_a.gif","images/stimuli/spore_stims/complex_01_A_b.gif","forced_long","","5","complex_dissimilar","images/stimuli/spore_stims/complex_17_A_a.gif","","","","",""
"","3356.0600000200793","survey-multi-choice","70","566480","0.0-20.0","SS1618365921326","math_question","","","","","","","","","","","","{""Q0"":""10""}","[0]","10","",""
"","null","html-keyboard-response","71","567561","0.0-21.0-0.0","SS1618365921326","","","null","","","","","","<p><img src= images/blank.png width =""600"" height = ""600"" style=""position:fixed;top:50%; left:50%; transform: translate(-50%, -50%); border:5px solid black"">","","","","","","","",""
"","6088.270000007469","sequential-stimulus-presentation-old","72","574155","0.0-21.0-1.0","SS1618365921326","trial","","40","500","6588.270000007469","images/stimuli/spore_stims/simple_16_A_b.gif","images/stimuli/spore_stims/simple_05_A_a.gif","self_paced","","6","simple_dissimilar","images/stimuli/spore_stims/simple_05_A_a.gif","","","","",""
"","null","html-keyboard-response","73","575248","0.0-21.0-0.1","SS1618365921326","","","null","","","","","","<p><img src= images/blank.png width =""600"" height = ""600"" style=""position:fixed;top:50%; left:50%; transform: translate(-50%, -50%); border:5px solid black"">","","","","","","","",""
"","5865.6949999858625","sequential-stimulus-presentation-old","74","581618","0.0-21.0-1.1","SS1618365921326","trial","","40","500","6365.6949999858625","images/stimuli/spore_stims/simple_16_A_b.gif","images/stimuli/spore_stims/simple_05_A_a.gif","self_paced","","6","simple_dissimilar","images/stimuli/spore_stims/simple_05_A_a.gif","","","","",""
"","null","html-keyboard-response","75","582880","0.0-21.0-0.2","SS1618365921326","","","null","","","","","","<p><img src= images/blank.png width =""600"" height = ""600"" style=""position:fixed;top:50%; left:50%; transform: translate(-50%, -50%); border:5px solid black"">","","","","","","","",""
"","9182.880000007572","sequential-stimulus-presentation-old","76","592566","0.0-21.0-1.2","SS1618365921326","trial","","40","500","9682.880000007572","images/stimuli/spore_stims/simple_16_A_b.gif","images/stimuli/spore_stims/simple_05_A_a.gif","self_paced","","6","simple_dissimilar","images/stimuli/spore_stims/simple_05_A_a.gif","","","","",""
"","null","html-keyboard-response","77","593853","0.0-21.0-0.3","SS1618365921326","","","null","","","","","","<p><img src= images/blank.png width =""600"" height = ""600"" style=""position:fixed;top:50%; left:50%; transform: translate(-50%, -50%); border:5px solid black"">","","","","","","","",""
"","7208.0300000088755","sequential-stimulus-presentation-old","78","601567","0.0-21.0-1.3","SS1618365921326","trial","","40","500","7708.0300000088755","images/stimuli/spore_stims/simple_16_A_b.gif","images/stimuli/spore_stims/simple_05_A_a.gif","self_paced","","6","simple_dissimilar","images/stimuli/spore_stims/simple_05_A_a.gif","","","","",""
"","3010.7349999889266","survey-multi-choice","79","604580","0.0-22.0","SS1618365921326","math_question","","","","","","","","","","","","{""Q0"":""8""}","[0]","8","",""
"","null","html-keyboard-response","80","605698","0.0-23.0-0.0","SS1618365921326","","","null","","","","","","<p><img src= images/blank.png width =""600"" height = ""600"" style=""position:fixed;top:50%; left:50%; transform: translate(-50%, -50%); border:5px solid black"">","","","","","","","",""
"","1193.7049999833107","sequential-stimulus-presentation-old","81","606946","0.0-23.0-1.0","SS1618365921326","trial","","40","500","1693.7049999833107","images/stimuli/spore_stims/simple_11_A_a.gif","images/stimuli/spore_stims/simple_15_A_b.gif","forced_short","","7","simple_dissimilar","images/stimuli/spore_stims/simple_15_A_b.gif","","","","",""
"","null","html-keyboard-response","82","607983","0.0-23.0-0.1","SS1618365921326","","","null","","","","","","<p><img src= images/blank.png width =""600"" height = ""600"" style=""position:fixed;top:50%; left:50%; transform: translate(-50%, -50%); border:5px solid black"">","","","","","","","",""
"","8854.324999992969","sequential-stimulus-presentation-old","83","617341","0.0-23.0-1.1","SS1618365921326","trial","","40","500","9354.324999992969","images/stimuli/spore_stims/simple_11_A_a.gif","images/stimuli/spore_stims/simple_15_A_b.gif","forced_short","","7","simple_dissimilar","images/stimuli/spore_stims/simple_15_A_b.gif","","","","",""
"","null","html-keyboard-response","84","618626","0.0-23.0-0.2","SS1618365921326","","","null","","","","","","<p><img src= images/blank.png width =""600"" height = ""600"" style=""position:fixed;top:50%; left:50%; transform: translate(-50%, -50%); border:5px solid black"">","","","","","","","",""
"","5250.634999974864","sequential-stimulus-presentation-old","85","624382","0.0-23.0-1.2","SS1618365921326","trial","","40","500","5750.634999974864","images/stimuli/spore_stims/simple_11_A_a.gif","images/stimuli/spore_stims/simple_15_A_b.gif","forced_short","","7","simple_dissimilar","images/stimuli/spore_stims/simple_15_A_b.gif","","","","",""
"","null","html-keyboard-response","86","625670","0.0-23.0-0.3","SS1618365921326","","","null","","","","","","<p><img src= images/blank.png width =""600"" height = ""600"" style=""position:fixed;top:50%; left:50%; transform: translate(-50%, -50%); border:5px solid black"">","","","","","","","",""
"","5879.284999973606","sequential-stimulus-presentation-old","87","632055","0.0-23.0-1.3","SS1618365921326","trial","","40","500","6379.284999973606","images/stimuli/spore_stims/simple_11_A_a.gif","images/stimuli/spore_stims/simple_15_A_b.gif","forced_short","","7","simple_dissimilar","images/stimuli/spore_stims/simple_15_A_b.gif","","","","",""
"","null","html-keyboard-response","88","633161","0.0-23.0-0.4","SS1618365921326","","","null","","","","","","<p><img src= images/blank.png width =""600"" height = ""600"" style=""position:fixed;top:50%; left:50%; transform: translate(-50%, -50%); border:5px solid black"">","","","","","","","",""
"","5493.520000018179","sequential-stimulus-presentation-old","89","639161","0.0-23.0-1.4","SS1618365921326","trial","","40","500","5993.520000018179","images/stimuli/spore_stims/simple_11_A_a.gif","images/stimuli/spore_stims/simple_15_A_b.gif","forced_short","","7","simple_dissimilar","images/stimuli/spore_stims/simple_15_A_b.gif","","","","",""
"","null","html-keyboard-response","90","640013","0.0-23.0-0.5","SS1618365921326","","","null","","","","","","<p><img src= images/blank.png width =""600"" height = ""600"" style=""position:fixed;top:50%; left:50%; transform: translate(-50%, -50%); border:5px solid black"">","","","","","","","",""
"","9813.42500000028","sequential-stimulus-presentation-old","91","650333","0.0-23.0-1.5","SS1618365921326","trial","","40","500","10313.42500000028","images/stimuli/spore_stims/simple_11_A_a.gif","images/stimuli/spore_stims/simple_15_A_b.gif","forced_short","","7","simple_dissimilar","images/stimuli/spore_stims/simple_11_A_a.gif","","","","",""
"","2628.744999994524","survey-multi-choice","92","652965","0.0-24.0","SS1618365921326","math_question","","","","","","","","","","","","{""Q0"":""10""}","[0]","10","",""
"","null","html-keyboard-response","93","653903","0.0-25.0-0.0","SS1618365921326","","","null","","","","","","<p><img src= images/blank.png width =""600"" height = ""600"" style=""position:fixed;top:50%; left:50%; transform: translate(-50%, -50%); border:5px solid black"">","","","","","","","",""
"","1095.900000014808","sequential-stimulus-presentation-old","94","660004","0.0-25.0-1.0","SS1618365921326","trial","","40","500","1595.900000014808","images/stimuli/spore_stims/simple_12_A_a.gif","images/stimuli/spore_stims/simple_07_A_b.gif","forced_long","","8","simple_dissimilar","images/stimuli/spore_stims/simple_07_A_b.gif","","","","",""
"","null","html-keyboard-response","95","661068","0.0-25.0-0.1","SS1618365921326","","","null","","","","","","<p><img src= images/blank.png width =""600"" height = ""600"" style=""position:fixed;top:50%; left:50%; transform: translate(-50%, -50%); border:5px solid black"">","","","","","","","",""
"","5005.259999976261","sequential-stimulus-presentation-old","96","666577","0.0-25.0-1.1","SS1618365921326","trial","","40","500","5505.259999976261","images/stimuli/spore_stims/simple_12_A_a.gif","images/stimuli/spore_stims/simple_07_A_b.gif","forced_long","","8","simple_dissimilar","images/stimuli/spore_stims/simple_07_A_b.gif","","","","",""
"","null","html-keyboard-response","97","667738","0.0-25.0-0.2","SS1618365921326","","","null","","","","","","<p><img src= images/blank.png width =""600"" height = ""600"" style=""position:fixed;top:50%; left:50%; transform: translate(-50%, -50%); border:5px solid black"">","","","","","","","",""
"","5466.669999994338","sequential-stimulus-presentation-old","98","673709","0.0-25.0-1.2","SS1618365921326","trial","","40","500","5966.669999994338","images/stimuli/spore_stims/simple_12_A_a.gif","images/stimuli/spore_stims/simple_07_A_b.gif","forced_long","","8","simple_dissimilar","images/stimuli/spore_stims/simple_07_A_b.gif","","","","",""
"","null","html-keyboard-response","99","674640","0.0-25.0-0.3","SS1618365921326","","","null","","","","","","<p><img src= images/blank.png width =""600"" height = ""600"" style=""position:fixed;top:50%; left:50%; transform: translate(-50%, -50%); border:5px solid black"">","","","","","","","",""
"","8322.264999995241","sequential-stimulus-presentation-old","100","683465","0.0-25.0-1.3","SS1618365921326","trial","","40","500","8822.264999995241","images/stimuli/spore_stims/simple_12_A_a.gif","images/stimuli/spore_stims/simple_07_A_b.gif","forced_long","","8","simple_dissimilar","images/stimuli/spore_stims/simple_12_A_a.gif","","","","",""
"","null","html-keyboard-response","101","684528","0.0-25.0-0.4","SS1618365921326","","","null","","","","","","<p><img src= images/blank.png width =""600"" height = ""600"" style=""position:fixed;top:50%; left:50%; transform: translate(-50%, -50%); border:5px solid black"">","","","","","","","",""
"","3917.4399999901652","sequential-stimulus-presentation-old","102","688948","0.0-25.0-1.4","SS1618365921326","trial","","40","500","4417.439999990165","images/stimuli/spore_stims/simple_12_A_a.gif","images/stimuli/spore_stims/simple_07_A_b.gif","forced_long","","8","simple_dissimilar","images/stimuli/spore_stims/simple_07_A_b.gif","","","","",""
"","2711.79500001017","survey-multi-choice","103","691662","0.0-26.0","SS1618365921326","math_question","","","","","","","","","","","","{""Q0"":""6""}","[0]","6","",""
"","null","html-keyboard-response","104","692905","0.0-27.0-0.0","SS1618365921326","","","null","","","","","","<p><img src= images/blank.png width =""600"" height = ""600"" style=""position:fixed;top:50%; left:50%; transform: translate(-50%, -50%); border:5px solid black"">","","","","","","","",""
"","985.7100000081118","sequential-stimulus-presentation-old","105","693945","0.0-27.0-1.0","SS1618365921326","trial","","40","500","1485.7100000081118","images/stimuli/spore_stims/simple_02_A_a.gif","images/stimuli/spore_stims/simple_12_A_b.gif","forced_short","","9","simple_dissimilar","images/stimuli/spore_stims/simple_12_A_b.gif","","","","",""
"","null","html-keyboard-response","106","695182","0.0-27.0-0.1","SS1618365921326","","","null","","","","","","<p><img src= images/blank.png width =""600"" height = ""600"" style=""position:fixed;top:50%; left:50%; transform: translate(-50%, -50%); border:5px solid black"">","","","","","","","",""
"","8884.829999995418","sequential-stimulus-presentation-old","107","704569","0.0-27.0-1.1","SS1618365921326","trial","","40","500","9384.829999995418","images/stimuli/spore_stims/simple_02_A_a.gif","images/stimuli/spore_stims/simple_12_A_b.gif","forced_short","","9","simple_dissimilar","images/stimuli/spore_stims/simple_12_A_b.gif","","","","",""
"","null","html-keyboard-response","108","705530","0.0-27.0-0.2","SS1618365921326","","","null","","","","","","<p><img src= images/blank.png width =""600"" height = ""600"" style=""position:fixed;top:50%; left:50%; transform: translate(-50%, -50%); border:5px solid black"">","","","","","","","",""
"","2380.6750000221655","sequential-stimulus-presentation-old","109","708414","0.0-27.0-1.2","SS1618365921326","trial","","40","500","2880.6750000221655","images/stimuli/spore_stims/simple_02_A_a.gif","images/stimuli/spore_stims/simple_12_A_b.gif","forced_short","","9","simple_dissimilar","images/stimuli/spore_stims/simple_12_A_b.gif","","","","",""
"","null","html-keyboard-response","110","709504","0.0-27.0-0.3","SS1618365921326","","","null","","","","","","<p><img src= images/blank.png width =""600"" height = ""600"" style=""position:fixed;top:50%; left:50%; transform: translate(-50%, -50%); border:5px solid black"">","","","","","","","",""
"","4048.3450000174344","sequential-stimulus-presentation-old","111","714056","0.0-27.0-1.3","SS1618365921326","trial","","40","500","4548.345000017434","images/stimuli/spore_stims/simple_02_A_a.gif","images/stimuli/spore_stims/simple_12_A_b.gif","forced_short","","9","simple_dissimilar","images/stimuli/spore_stims/simple_12_A_b.gif","","","","",""
"","null","html-keyboard-response","112","715271","0.0-27.0-0.4","SS1618365921326","","","null","","","","","","<p><img src= images/blank.png width =""600"" height = ""600"" style=""position:fixed;top:50%; left:50%; transform: translate(-50%, -50%); border:5px solid black"">","","","","","","","",""
"","3577.3749999934807","sequential-stimulus-presentation-old","113","719351","0.0-27.0-1.4","SS1618365921326","trial","","40","500","4077.3749999934807","images/stimuli/spore_stims/simple_02_A_a.gif","images/stimuli/spore_stims/simple_12_A_b.gif","forced_short","","9","simple_dissimilar","images/stimuli/spore_stims/simple_12_A_b.gif","","","","",""
"","3349.0449999808334","survey-multi-choice","114","722702","0.0-28.0","SS1618365921326","math_question","","","","","","","","","","","","{""Q0"":""9""}","[0]","9","",""
"","null","html-keyboard-response","115","723696","0.0-29.0-0.0","SS1618365921326","","","null","","","","","","<p><img src= images/blank.png width =""600"" height = ""600"" style=""position:fixed;top:50%; left:50%; transform: translate(-50%, -50%); border:5px solid black"">","","","","","","","",""
"","8094.104999996489","sequential-stimulus-presentation-old","116","732293","0.0-29.0-1.0","SS1618365921326","trial","","40","500","8594.104999996489","images/stimuli/spore_stims/complex_15_A_b.gif","images/stimuli/spore_stims/complex_09_A_a.gif","self_paced","","10","complex_dissimilar","images/stimuli/spore_stims/complex_09_A_a.gif","","","","",""
"","null","html-keyboard-response","117","733132","0.0-29.0-0.1","SS1618365921326","","","null","","","","","","<p><img src= images/blank.png width =""600"" height = ""600"" style=""position:fixed;top:50%; left:50%; transform: translate(-50%, -50%); border:5px solid black"">","","","","","","","",""
"","6179.644999996526","sequential-stimulus-presentation-old","118","739816","0.0-29.0-1.1","SS1618365921326","trial","","40","500","6679.644999996526","images/stimuli/spore_stims/complex_15_A_b.gif","images/stimuli/spore_stims/complex_09_A_a.gif","self_paced","","10","complex_dissimilar","images/stimuli/spore_stims/complex_09_A_a.gif","","","","",""
"","null","html-keyboard-response","119","740853","0.0-29.0-0.2","SS1618365921326","","","null","","","","","","<p><img src= images/blank.png width =""600"" height = ""600"" style=""position:fixed;top:50%; left:50%; transform: translate(-50%, -50%); border:5px solid black"">","","","","","","","",""
"","4157.200000016019","sequential-stimulus-presentation-old","120","745514","0.0-29.0-1.2","SS1618365921326","trial","","40","500","4657.200000016019","images/stimuli/spore_stims/complex_15_A_b.gif","images/stimuli/spore_stims/complex_09_A_a.gif","self_paced","","10","complex_dissimilar","images/stimuli/spore_stims/complex_09_A_a.gif","","","","",""
"","null","html-keyboard-response","121","746515","0.0-29.0-0.3","SS1618365921326","","","null","","","","","","<p><img src= images/blank.png width =""600"" height = ""600"" style=""position:fixed;top:50%; left:50%; transform: translate(-50%, -50%); border:5px solid black"">","","","","","","","",""
"","1141.7950000031851","sequential-stimulus-presentation-old","122","748161","0.0-29.0-1.3","SS1618365921326","trial","","40","500","1641.7950000031851","images/stimuli/spore_stims/complex_15_A_b.gif","images/stimuli/spore_stims/complex_09_A_a.gif","self_paced","","10","complex_dissimilar","images/stimuli/spore_stims/complex_09_A_a.gif","","","","",""
"","null","html-keyboard-response","123","749352","0.0-29.0-0.4","SS1618365921326","","","null","","","","","","<p><img src= images/blank.png width =""600"" height = ""600"" style=""position:fixed;top:50%; left:50%; transform: translate(-50%, -50%); border:5px solid black"">","","","","","","","",""
"","2810.009999986505","sequential-stimulus-presentation-old","124","752665","0.0-29.0-1.4","SS1618365921326","trial","","40","500","3310.009999986505","images/stimuli/spore_stims/complex_15_A_b.gif","images/stimuli/spore_stims/complex_09_A_a.gif","self_paced","","10","complex_dissimilar","images/stimuli/spore_stims/complex_09_A_a.gif","","","","",""
"","null","html-keyboard-response","125","753497","0.0-29.0-0.5","SS1618365921326","","","null","","","","","","<p><img src= images/blank.png width =""600"" height = ""600"" style=""position:fixed;top:50%; left:50%; transform: translate(-50%, -50%); border:5px solid black"">","","","","","","","",""
"","8669.800000003306","sequential-stimulus-presentation-old","126","762671","0.0-29.0-1.5","SS1618365921326","trial","","40","500","9169.800000003306","images/stimuli/spore_stims/complex_15_A_b.gif","images/stimuli/spore_stims/complex_09_A_a.gif","self_paced","","10","complex_dissimilar","images/stimuli/spore_stims/complex_09_A_a.gif","","","","",""
"","3383.1200000131503","survey-multi-choice","127","766056","0.0-30.0","SS1618365921326","math_question","","","","","","","","","","","","{""Q0"":""11""}","[0]","11","",""
"","null","html-keyboard-response","128","767234","0.0-31.0-0.0","SS1618365921326","","","null","","","","","","<p><img src= images/blank.png width =""600"" height = ""600"" style=""position:fixed;top:50%; left:50%; transform: translate(-50%, -50%); border:5px solid black"">","","","","","","","",""
"","895.4299999750219","sequential-stimulus-presentation-old","129","768183","0.0-31.0-1.0","SS1618365921326","trial","","40","500","1395.429999975022","images/stimuli/spore_stims/complex_17_A_b.gif","images/stimuli/spore_stims/complex_02_A_a.gif","forced_short","","11","complex_dissimilar","images/stimuli/spore_stims/complex_02_A_a.gif","","","","",""
"","null","html-keyboard-response","130","769103","0.0-31.0-0.1","SS1618365921326","","","null","","","","","","<p><img src= images/blank.png width =""600"" height = ""600"" style=""position:fixed;top:50%; left:50%; transform: translate(-50%, -50%); border:5px solid black"">","","","","","","","",""
"","5951.150000008056","sequential-stimulus-presentation-old","131","775558","0.0-31.0-1.1","SS1618365921326","trial","","40","500","6451.150000008056","images/stimuli/spore_stims/complex_17_A_b.gif","images/stimuli/spore_stims/complex_02_A_a.gif","forced_short","","11","complex_dissimilar","images/stimuli/spore_stims/complex_17_A_b.gif","","","","",""
"","null","html-keyboard-response","132","776637","0.0-31.0-0.2","SS1618365921326","","","null","","","","","","<p><img src= images/blank.png width =""600"" height = ""600"" style=""position:fixed;top:50%; left:50%; transform: translate(-50%, -50%); border:5px solid black"">","","","","","","","",""
"","6853.52000000421","sequential-stimulus-presentation-old","133","783996","0.0-31.0-1.2","SS1618365921326","trial","","40","500","7353.52000000421","images/stimuli/spore_stims/complex_17_A_b.gif","images/stimuli/spore_stims/complex_02_A_a.gif","forced_short","","11","complex_dissimilar","images/stimuli/spore_stims/complex_02_A_a.gif","","","","",""
"","null","html-keyboard-response","134","785220","0.0-31.0-0.3","SS1618365921326","","","null","","","","","","<p><img src= images/blank.png width =""600"" height = ""600"" style=""position:fixed;top:50%; left:50%; transform: translate(-50%, -50%); border:5px solid black"">","","","","","","","",""
"","5204.159999993863","sequential-stimulus-presentation-old","135","790928","0.0-31.0-1.3","SS1618365921326","trial","","40","500","5704.159999993863","images/stimuli/spore_stims/complex_17_A_b.gif","images/stimuli/spore_stims/complex_02_A_a.gif","forced_short","","11","complex_dissimilar","images/stimuli/spore_stims/complex_02_A_a.gif","","","","",""
"","null","html-keyboard-response","136","792046","0.0-31.0-0.4","SS1618365921326","","","null","","","","","","<p><img src= images/blank.png width =""600"" height = ""600"" style=""position:fixed;top:50%; left:50%; transform: translate(-50%, -50%); border:5px solid black"">","","","","","","","",""
"","3534.5950000046287","sequential-stimulus-presentation-old","137","796083","0.0-31.0-1.4","SS1618365921326","trial","","40","500","4034.5950000046287","images/stimuli/spore_stims/complex_17_A_b.gif","images/stimuli/spore_stims/complex_02_A_a.gif","forced_short","","11","complex_dissimilar","images/stimuli/spore_stims/complex_02_A_a.gif","","","","",""
"[{""page_index"":0,""viewing_time"":5945.194999978412}]","5945.470000006026","instructions","138","802030","0.0-32.0","SS1618365921326","instructions","","","","","","","","","","","","","","","",""
"","17332.19499999541","survey-likert","139","819366","0.0-33.0","SS1618365921326","similarity_question","","","","","","","","","","","","{""Q0"":3}","[0]","","images/stimuli/spore_stims/complex_04_A_a.gif","images/stimuli/spore_stims/complex_11_A_b.gif"
"","7383.079999999609","survey-likert","140","826752","0.0-34.0","SS1618365921326","similarity_question","","","","","","","","","","","","{""Q0"":4}","[0]","","images/stimuli/spore_stims/complex_15_A_b.gif","images/stimuli/spore_stims/complex_09_A_a.gif"
"","5235.110000008717","survey-likert","141","831990","0.0-35.0","SS1618365921326","similarity_question","","","","","","","","","","","","{""Q0"":2}","[0]","","images/stimuli/spore_stims/complex_01_A_b.gif","images/stimuli/spore_stims/complex_17_A_a.gif"
"","10478.535000002012","survey-likert","142","842472","0.0-36.0","SS1618365921326","similarity_question","","","","","","","","","","","","{""Q0"":4}","[0]","","images/stimuli/spore_stims/simple_05_A_a.gif","images/stimuli/spore_stims/simple_16_A_b.gif"
"","8642.575000005309","survey-likert","143","851117","0.0-37.0","SS1618365921326","similarity_question","","","","","","","","","","","","{""Q0"":1}","[0]","","images/stimuli/spore_stims/complex_18_A_a.gif","images/stimuli/spore_stims/complex_05_A_b.gif"
"","5634.489999996731","survey-likert","144","856755","0.0-38.0","SS1618365921326","similarity_question","","","","","","","","","","","","{""Q0"":5}","[0]","","images/stimuli/spore_stims/simple_17_A_a.gif","images/stimuli/spore_stims/simple_03_A_b.gif"
"","10986.555000010412","survey-likert","145","867745","0.0-39.0","SS1618365921326","similarity_question","","","","","","","","","","","","{""Q0"":3}","[0]","","images/stimuli/spore_stims/complex_08_A_a.gif","images/stimuli/spore_stims/complex_13_A_b.gif"
"","6070.695000002161","survey-likert","146","873820","0.0-40.0","SS1618365921326","similarity_question","","","","","","","","","","","","{""Q0"":3}","[0]","","images/stimuli/spore_stims/simple_15_A_b.gif","images/stimuli/spore_stims/simple_11_A_a.gif"
"","5192.834999994375","survey-likert","147","879015","0.0-41.0","SS1618365921326","similarity_question","","","","","","","","","","","","{""Q0"":2}","[0]","","images/stimuli/spore_stims/complex_02_A_a.gif","images/stimuli/spore_stims/complex_17_A_b.gif"
"","8098.595000017667","survey-likert","148","887117","0.0-42.0","SS1618365921326","similarity_question","","","","","","","","","","","","{""Q0"":4}","[0]","","images/stimuli/spore_stims/simple_18_A_b.gif","images/stimuli/spore_stims/simple_20_A_a.gif"
"","5695.180000009714","survey-likert","149","892815","0.0-43.0","SS1618365921326","similarity_question","","","","","","","","","","","","{""Q0"":4}","[0]","","images/stimuli/spore_stims/simple_07_A_b.gif","images/stimuli/spore_stims/simple_12_A_a.gif"
"","5567.874999978812","survey-likert","150","898386","0.0-44.0","SS1618365921326","similarity_question","","","","","","","","","","","","{""Q0"":4}","[0]","","images/stimuli/spore_stims/simple_02_A_a.gif","images/stimuli/spore_stims/simple_12_A_b.gif"
"[{""page_index"":0,""viewing_time"":4476.1549999821}]","4476.345000002766","instructions","151","902865","0.0-45.0","SS1618365921326","instructions","","","","","","","","","","","","","","","",""
"","5724.534999986645","survey-likert","152","908591","0.0-46.0","SS1618365921326","","","","","","","","","images/stimuli/spore_stims/complex_17_A_a.gif","","","","{""Q0"":5}","[0]","","",""
"","2724.6850000228733","survey-likert","153","911319","0.0-47.0","SS1618365921326","","","","","","","","","images/stimuli/spore_stims/simple_11_A_a.gif","","","","{""Q0"":1}","[0]","","",""
"","3375.7000000041444","survey-likert","154","914698","0.0-48.0","SS1618365921326","","","","","","","","","images/stimuli/spore_stims/complex_04_A_a.gif","","","","{""Q0"":6}","[0]","","",""
"","7690.925000002608","survey-likert","155","922391","0.0-49.0","SS1618365921326","","","","","","","","","images/stimuli/spore_stims/simple_12_A_b.gif","","","","{""Q0"":2}","[0]","","",""
"","3429.1599999996834","survey-likert","156","925824","0.0-50.0","SS1618365921326","","","","","","","","","images/stimuli/spore_stims/simple_05_A_a.gif","","","","{""Q0"":0}","[0]","","",""
"","4278.649999992922","survey-likert","157","930105","0.0-51.0","SS1618365921326","","","","","","","","","images/stimuli/spore_stims/complex_09_A_a.gif","","","","{""Q0"":6}","[0]","","",""
"","4085.2599999925587","survey-likert","158","934193","0.0-52.0","SS1618365921326","","","","","","","","","images/stimuli/spore_stims/simple_03_A_b.gif","","","","{""Q0"":3}","[0]","","",""
"","3698.5050000075717","survey-likert","159","937895","0.0-53.0","SS1618365921326","","","","","","","","","images/stimuli/spore_stims/complex_18_A_a.gif","","","","{""Q0"":6}","[0]","","",""
"","4377.854999998817","survey-likert","160","942276","0.0-54.0","SS1618365921326","","","","","","","","","images/stimuli/spore_stims/complex_17_A_b.gif","","","","{""Q0"":5}","[0]","","",""
"","5125.424999976531","survey-likert","161","947405","0.0-55.0","SS1618365921326","","","","","","","","","images/stimuli/spore_stims/complex_08_A_a.gif","","","","{""Q0"":6}","[0]","","",""
"","3995.645000017248","survey-likert","162","951405","0.0-56.0","SS1618365921326","","","","","","","","","images/stimuli/spore_stims/simple_18_A_b.gif","","","","{""Q0"":3}","[0]","","",""
"","2675.569999992149","survey-likert","163","954084","0.0-57.0","SS1618365921326","","","","","","","","","images/stimuli/spore_stims/simple_07_A_b.gif","","","","{""Q0"":2}","[0]","","",""
"[{""page_index"":0,""viewing_time"":2073.1749999977183}]","2073.4299999894574","instructions","164","956160","0.0-58.0","SS1618365921326","instructions","","","","","","","","","","","","","","","",""
"","2452.4899999960326","demog-age","165","958619","0.0-59.0","SS1618365921326","","","","","","","","","","","","","{""age"":""18""}","","","",""
"","4318.174999993062","demog-ethnic-US","166","962943","0.0-60.0","SS1618365921326","","","","","","","","","","","","","{""ethnicity"":[""White""]}","[0]","","",""
"","10901.769999996759","demog-gender-and-education","167","973848","0.0-61.0","SS1618365921326","","","","","","","","","","","","","{""gender"":""Male"",""education"":""High school diploma""}","[0,1]","","",""
"","57681.13000001176","survey-text","168","1031534","0.0-62.0","SS1618365921326","feedback","","","","","","","","","","","","{""Q0"":""The \""simpler\"" creatures had less quality, probably because the animation was zoomed in""}","","","",""
"[{""page_index"":0,""viewing_time"":2433.6699999985285}]","2433.8599999900907","instructions","169","1033971","0.0-63.0","SS1618365921326","instructions","","","","","","","","","","","","","","","",""
