"view_history","rt","trial_type","trial_index","time_elapsed","internal_node_id","subject","stimulus_type","trial_stimulus","key_press","minimum_viewing_duration","trial_looking_time","block_deviant","block_background","exposure_type","stimulus","block_number","block_type","stimulus_displayed","responses","question_order","math_correct_answer","stimulus_left","stimulus_right"
"[{""page_index"":0,""viewing_time"":1595.3849999932572}]","1595.6500000029337","instructions","0","1597","0.0-0.0","SS1618365793922","","","","","","","","","","","","","","","","",""
"[{""page_index"":0,""viewing_time"":1034.0649999998277},{""page_index"":1,""viewing_time"":13410.3749999922}]","14444.604999996955","instructions","1","18044","0.0-1.0","SS1618365793922","instructions","","","","","","","","","","","","","","","",""
"","2878.259999997681","sequential-stimulus-presentation-old","2","21426","0.0-2.0","SS1618365793922","","","40","500","3378.259999997681","null","null","self_paced","","","","","","","","",""
"","408.6200000019744","sequential-stimulus-presentation-old","3","22338","0.0-3.0","SS1618365793922","","","40","500","908.6200000019744","null","null","self_paced","","","","","","","","",""
"[{""page_index"":0,""viewing_time"":1952.9399999883026}]","1953.0999999988126","instructions","4","24293","0.0-4.0","SS1618365793922","instructions","","","","","","","","","","","","","","","",""
"","288.9149999973597","sequential-stimulus-presentation-old","5","29585","0.0-5.0","SS1618365793922","","","40","500","788.9149999973597","null","null","forced_long","","","","","","","","",""
"","5090.439999999944","sequential-stimulus-presentation-old","6","34728","0.0-6.0","SS1618365793922","","","40","50","5140.439999999944","null","null","forced_long","","","","","","","","",""
"[{""page_index"":0,""viewing_time"":1738.4400000009919}]","1738.629999992554","instructions","7","36469","0.0-7.0","SS1618365793922","instructions","","","","","","","","","","","","","","","",""
"[{""page_index"":0,""viewing_time"":666.6200000036042},{""page_index"":1,""viewing_time"":901.6399999964051},{""page_index"":2,""viewing_time"":565.0999999925261},{""page_index"":3,""viewing_time"":1099.079999999958},{""page_index"":4,""viewing_time"":1030.9150000102818}]","4263.514999998733","instructions","8","40733","0.0-8.0","SS1618365793922","instructions","","","","","","","","","","","","","","","",""
"","null","html-keyboard-response","9","41979","0.0-9.0-0.0","SS1618365793922","","","null","","","","","","<p><img src= images/blank.png width =""600"" height = ""600"" style=""position:fixed;top:50%; left:50%; transform: translate(-50%, -50%); border:5px solid black"">","","","","","","","",""
"","335.5649999866728","sequential-stimulus-presentation-old","10","42377","0.0-9.0-1.0","SS1618365793922","trial","","40","500","835.5649999866728","images/stimuli/spore_stims/complex_03_A_b.gif","images/stimuli/spore_stims/complex_05_A_a.gif","forced_short","","0","complex_dissimilar","images/stimuli/spore_stims/complex_05_A_a.gif","","","","",""
"","null","html-keyboard-response","11","43608","0.0-9.0-0.1","SS1618365793922","","","null","","","","","","<p><img src= images/blank.png width =""600"" height = ""600"" style=""position:fixed;top:50%; left:50%; transform: translate(-50%, -50%); border:5px solid black"">","","","","","","","",""
"","845.9549999970477","sequential-stimulus-presentation-old","12","44969","0.0-9.0-1.1","SS1618365793922","trial","","40","500","1345.9549999970477","images/stimuli/spore_stims/complex_03_A_b.gif","images/stimuli/spore_stims/complex_05_A_a.gif","forced_short","","0","complex_dissimilar","images/stimuli/spore_stims/complex_05_A_a.gif","","","","",""
"","null","html-keyboard-response","13","46083","0.0-9.0-0.2","SS1618365793922","","","null","","","","","","<p><img src= images/blank.png width =""600"" height = ""600"" style=""position:fixed;top:50%; left:50%; transform: translate(-50%, -50%); border:5px solid black"">","","","","","","","",""
"","892.005000001518","sequential-stimulus-presentation-old","14","47481","0.0-9.0-1.2","SS1618365793922","trial","","40","500","1392.005000001518","images/stimuli/spore_stims/complex_03_A_b.gif","images/stimuli/spore_stims/complex_05_A_a.gif","forced_short","","0","complex_dissimilar","images/stimuli/spore_stims/complex_05_A_a.gif","","","","",""
"","null","html-keyboard-response","15","48343","0.0-9.0-0.3","SS1618365793922","","","null","","","","","","<p><img src= images/blank.png width =""600"" height = ""600"" style=""position:fixed;top:50%; left:50%; transform: translate(-50%, -50%); border:5px solid black"">","","","","","","","",""
"","1415.4950000083772","sequential-stimulus-presentation-old","16","50261","0.0-9.0-1.3","SS1618365793922","trial","","40","500","1915.4950000083772","images/stimuli/spore_stims/complex_03_A_b.gif","images/stimuli/spore_stims/complex_05_A_a.gif","forced_short","","0","complex_dissimilar","images/stimuli/spore_stims/complex_05_A_a.gif","","","","",""
"","3161.4800000097603","survey-multi-choice","17","53427","0.0-10.0","SS1618365793922","math_question","","","","","","","","","","","","{""Q0"":""8""}","[0]","8","",""
"","null","html-keyboard-response","18","54533","0.0-11.0-0.0","SS1618365793922","","","null","","","","","","<p><img src= images/blank.png width =""600"" height = ""600"" style=""position:fixed;top:50%; left:50%; transform: translate(-50%, -50%); border:5px solid black"">","","","","","","","",""
"","175.81499999505468","sequential-stimulus-presentation-old","19","59720","0.0-11.0-1.0","SS1618365793922","trial","","40","500","675.8149999950547","images/stimuli/spore_stims/simple_07_A_b.gif","images/stimuli/spore_stims/simple_19_A_a.gif","forced_long","","1","simple_dissimilar","images/stimuli/spore_stims/simple_19_A_a.gif","","","","",""
"","null","html-keyboard-response","20","60978","0.0-11.0-0.1","SS1618365793922","","","null","","","","","","<p><img src= images/blank.png width =""600"" height = ""600"" style=""position:fixed;top:50%; left:50%; transform: translate(-50%, -50%); border:5px solid black"">","","","","","","","",""
"","144.70499999879394","sequential-stimulus-presentation-old","21","61625","0.0-11.0-1.1","SS1618365793922","trial","","40","500","644.7049999987939","images/stimuli/spore_stims/simple_07_A_b.gif","images/stimuli/spore_stims/simple_19_A_a.gif","forced_long","","1","simple_dissimilar","images/stimuli/spore_stims/simple_19_A_a.gif","","","","",""
"","null","html-keyboard-response","22","62455","0.0-11.0-0.2","SS1618365793922","","","null","","","","","","<p><img src= images/blank.png width =""600"" height = ""600"" style=""position:fixed;top:50%; left:50%; transform: translate(-50%, -50%); border:5px solid black"">","","","","","","","",""
"","137.6099999906728","sequential-stimulus-presentation-old","23","63099","0.0-11.0-1.2","SS1618365793922","trial","","40","500","637.6099999906728","images/stimuli/spore_stims/simple_07_A_b.gif","images/stimuli/spore_stims/simple_19_A_a.gif","forced_long","","1","simple_dissimilar","images/stimuli/spore_stims/simple_19_A_a.gif","","","","",""
"","null","html-keyboard-response","24","64101","0.0-11.0-0.3","SS1618365793922","","","null","","","","","","<p><img src= images/blank.png width =""600"" height = ""600"" style=""position:fixed;top:50%; left:50%; transform: translate(-50%, -50%); border:5px solid black"">","","","","","","","",""
"","1211.6250000108266","sequential-stimulus-presentation-old","25","65816","0.0-11.0-1.3","SS1618365793922","trial","","40","500","1711.6250000108266","images/stimuli/spore_stims/simple_07_A_b.gif","images/stimuli/spore_stims/simple_19_A_a.gif","forced_long","","1","simple_dissimilar","images/stimuli/spore_stims/simple_19_A_a.gif","","","","",""
"","3429.740000006859","survey-multi-choice","26","69247","0.0-12.0","SS1618365793922","math_question","","","","","","","","","","","","{""Q0"":""6""}","[0]","6","",""
"","null","html-keyboard-response","27","70121","0.0-13.0-0.0","SS1618365793922","","","null","","","","","","<p><img src= images/blank.png width =""600"" height = ""600"" style=""position:fixed;top:50%; left:50%; transform: translate(-50%, -50%); border:5px solid black"">","","","","","","","",""
"","256.45499999518506","sequential-stimulus-presentation-old","28","70441","0.0-13.0-1.0","SS1618365793922","trial","","40","500","756.4549999951851","images/stimuli/spore_stims/simple_05_A_b.gif","images/stimuli/spore_stims/simple_04_A_a.gif","forced_short","","2","simple_dissimilar","images/stimuli/spore_stims/simple_04_A_a.gif","","","","",""
"","null","html-keyboard-response","29","71491","0.0-13.0-0.1","SS1618365793922","","","null","","","","","","<p><img src= images/blank.png width =""600"" height = ""600"" style=""position:fixed;top:50%; left:50%; transform: translate(-50%, -50%); border:5px solid black"">","","","","","","","",""
"","1190.9149999992223","sequential-stimulus-presentation-old","30","73185","0.0-13.0-1.1","SS1618365793922","trial","","40","500","1690.9149999992223","images/stimuli/spore_stims/simple_05_A_b.gif","images/stimuli/spore_stims/simple_04_A_a.gif","forced_short","","2","simple_dissimilar","images/stimuli/spore_stims/simple_04_A_a.gif","","","","",""
"","null","html-keyboard-response","31","74252","0.0-13.0-0.2","SS1618365793922","","","null","","","","","","<p><img src= images/blank.png width =""600"" height = ""600"" style=""position:fixed;top:50%; left:50%; transform: translate(-50%, -50%); border:5px solid black"">","","","","","","","",""
"","2340.0049999909243","sequential-stimulus-presentation-old","32","77097","0.0-13.0-1.2","SS1618365793922","trial","","40","500","2840.0049999909243","images/stimuli/spore_stims/simple_05_A_b.gif","images/stimuli/spore_stims/simple_04_A_a.gif","forced_short","","2","simple_dissimilar","images/stimuli/spore_stims/simple_04_A_a.gif","","","","",""
"","null","html-keyboard-response","33","78379","0.0-13.0-0.3","SS1618365793922","","","null","","","","","","<p><img src= images/blank.png width =""600"" height = ""600"" style=""position:fixed;top:50%; left:50%; transform: translate(-50%, -50%); border:5px solid black"">","","","","","","","",""
"","750.4149999876972","sequential-stimulus-presentation-old","34","79635","0.0-13.0-1.3","SS1618365793922","trial","","40","500","1250.4149999876972","images/stimuli/spore_stims/simple_05_A_b.gif","images/stimuli/spore_stims/simple_04_A_a.gif","forced_short","","2","simple_dissimilar","images/stimuli/spore_stims/simple_05_A_b.gif","","","","",""
"","null","html-keyboard-response","35","80680","0.0-13.0-0.4","SS1618365793922","","","null","","","","","","<p><img src= images/blank.png width =""600"" height = ""600"" style=""position:fixed;top:50%; left:50%; transform: translate(-50%, -50%); border:5px solid black"">","","","","","","","",""
"","96.03999998944346","sequential-stimulus-presentation-old","36","81281","0.0-13.0-1.4","SS1618365793922","trial","","40","500","596.0399999894435","images/stimuli/spore_stims/simple_05_A_b.gif","images/stimuli/spore_stims/simple_04_A_a.gif","forced_short","","2","simple_dissimilar","images/stimuli/spore_stims/simple_05_A_b.gif","","","","",""
"","2447.1249999915017","survey-multi-choice","37","83730","0.0-14.0","SS1618365793922","math_question","","","","","","","","","","","","{""Q0"":""18""}","[0]","18","",""
"","null","html-keyboard-response","38","84979","0.0-15.0-0.0","SS1618365793922","","","null","","","","","","<p><img src= images/blank.png width =""600"" height = ""600"" style=""position:fixed;top:50%; left:50%; transform: translate(-50%, -50%); border:5px solid black"">","","","","","","","",""
"","573.2900000002701","sequential-stimulus-presentation-old","39","86057","0.0-15.0-1.0","SS1618365793922","trial","","40","500","1073.29000000027","images/stimuli/spore_stims/simple_12_A_b.gif","images/stimuli/spore_stims/simple_14_A_a.gif","self_paced","","3","simple_dissimilar","images/stimuli/spore_stims/simple_14_A_a.gif","","","","",""
"","null","html-keyboard-response","40","86936","0.0-15.0-0.1","SS1618365793922","","","null","","","","","","<p><img src= images/blank.png width =""600"" height = ""600"" style=""position:fixed;top:50%; left:50%; transform: translate(-50%, -50%); border:5px solid black"">","","","","","","","",""
"","713.4450000012293","sequential-stimulus-presentation-old","41","88154","0.0-15.0-1.1","SS1618365793922","trial","","40","500","1213.4450000012293","images/stimuli/spore_stims/simple_12_A_b.gif","images/stimuli/spore_stims/simple_14_A_a.gif","self_paced","","3","simple_dissimilar","images/stimuli/spore_stims/simple_14_A_a.gif","","","","",""
"","null","html-keyboard-response","42","89226","0.0-15.0-0.2","SS1618365793922","","","null","","","","","","<p><img src= images/blank.png width =""600"" height = ""600"" style=""position:fixed;top:50%; left:50%; transform: translate(-50%, -50%); border:5px solid black"">","","","","","","","",""
"","778.6399999895366","sequential-stimulus-presentation-old","43","90522","0.0-15.0-1.2","SS1618365793922","trial","","40","500","1278.6399999895366","images/stimuli/spore_stims/simple_12_A_b.gif","images/stimuli/spore_stims/simple_14_A_a.gif","self_paced","","3","simple_dissimilar","images/stimuli/spore_stims/simple_14_A_a.gif","","","","",""
"","null","html-keyboard-response","44","91833","0.0-15.0-0.3","SS1618365793922","","","null","","","","","","<p><img src= images/blank.png width =""600"" height = ""600"" style=""position:fixed;top:50%; left:50%; transform: translate(-50%, -50%); border:5px solid black"">","","","","","","","",""
"","533.5900000063702","sequential-stimulus-presentation-old","45","92875","0.0-15.0-1.3","SS1618365793922","trial","","40","500","1033.5900000063702","images/stimuli/spore_stims/simple_12_A_b.gif","images/stimuli/spore_stims/simple_14_A_a.gif","self_paced","","3","simple_dissimilar","images/stimuli/spore_stims/simple_14_A_a.gif","","","","",""
"","null","html-keyboard-response","46","94037","0.0-15.0-0.4","SS1618365793922","","","null","","","","","","<p><img src= images/blank.png width =""600"" height = ""600"" style=""position:fixed;top:50%; left:50%; transform: translate(-50%, -50%); border:5px solid black"">","","","","","","","",""
"","989.6449999941979","sequential-stimulus-presentation-old","47","95528","0.0-15.0-1.4","SS1618365793922","trial","","40","500","1489.6449999941979","images/stimuli/spore_stims/simple_12_A_b.gif","images/stimuli/spore_stims/simple_14_A_a.gif","self_paced","","3","simple_dissimilar","images/stimuli/spore_stims/simple_14_A_a.gif","","","","",""
"","2851.0999999998603","survey-multi-choice","48","98381","0.0-16.0","SS1618365793922","math_question","","","","","","","","","","","","{""Q0"":""8""}","[0]","8","",""
"","null","html-keyboard-response","49","99446","0.0-17.0-0.0","SS1618365793922","","","null","","","","","","<p><img src= images/blank.png width =""600"" height = ""600"" style=""position:fixed;top:50%; left:50%; transform: translate(-50%, -50%); border:5px solid black"">","","","","","","","",""
"","6622.724999993807","sequential-stimulus-presentation-old","50","111072","0.0-17.0-1.0","SS1618365793922","trial","","40","500","7122.724999993807","images/stimuli/spore_stims/complex_09_A_b.gif","images/stimuli/spore_stims/complex_08_A_a.gif","forced_long","","4","complex_dissimilar","images/stimuli/spore_stims/complex_08_A_a.gif","","","","",""
"","null","html-keyboard-response","51","112358","0.0-17.0-0.1","SS1618365793922","","","null","","","","","","<p><img src= images/blank.png width =""600"" height = ""600"" style=""position:fixed;top:50%; left:50%; transform: translate(-50%, -50%); border:5px solid black"">","","","","","","","",""
"","746.4099999924656","sequential-stimulus-presentation-old","52","113608","0.0-17.0-1.1","SS1618365793922","trial","","40","500","1246.4099999924656","images/stimuli/spore_stims/complex_09_A_b.gif","images/stimuli/spore_stims/complex_08_A_a.gif","forced_long","","4","complex_dissimilar","images/stimuli/spore_stims/complex_09_A_b.gif","","","","",""
"","null","html-keyboard-response","53","114771","0.0-17.0-0.2","SS1618365793922","","","null","","","","","","<p><img src= images/blank.png width =""600"" height = ""600"" style=""position:fixed;top:50%; left:50%; transform: translate(-50%, -50%); border:5px solid black"">","","","","","","","",""
"","295.29500000353437","sequential-stimulus-presentation-old","54","115569","0.0-17.0-1.2","SS1618365793922","trial","","40","500","795.2950000035344","images/stimuli/spore_stims/complex_09_A_b.gif","images/stimuli/spore_stims/complex_08_A_a.gif","forced_long","","4","complex_dissimilar","images/stimuli/spore_stims/complex_08_A_a.gif","","","","",""
"","null","html-keyboard-response","55","116585","0.0-17.0-0.3","SS1618365793922","","","null","","","","","","<p><img src= images/blank.png width =""600"" height = ""600"" style=""position:fixed;top:50%; left:50%; transform: translate(-50%, -50%); border:5px solid black"">","","","","","","","",""
"","108.69500000262633","sequential-stimulus-presentation-old","56","117208","0.0-17.0-1.3","SS1618365793922","trial","","40","500","608.6950000026263","images/stimuli/spore_stims/complex_09_A_b.gif","images/stimuli/spore_stims/complex_08_A_a.gif","forced_long","","4","complex_dissimilar","images/stimuli/spore_stims/complex_08_A_a.gif","","","","",""
"","null","html-keyboard-response","57","118191","0.0-17.0-0.4","SS1618365793922","","","null","","","","","","<p><img src= images/blank.png width =""600"" height = ""600"" style=""position:fixed;top:50%; left:50%; transform: translate(-50%, -50%); border:5px solid black"">","","","","","","","",""
"","274.9500000063563","sequential-stimulus-presentation-old","58","118976","0.0-17.0-1.4","SS1618365793922","trial","","40","500","774.9500000063563","images/stimuli/spore_stims/complex_09_A_b.gif","images/stimuli/spore_stims/complex_08_A_a.gif","forced_long","","4","complex_dissimilar","images/stimuli/spore_stims/complex_08_A_a.gif","","","","",""
"","3745.0650000100723","survey-multi-choice","59","122723","0.0-18.0","SS1618365793922","math_question","","","","","","","","","","","","{""Q0"":""12""}","[0]","12","",""
"","null","html-keyboard-response","60","123540","0.0-19.0-0.0","SS1618365793922","","","null","","","","","","<p><img src= images/blank.png width =""600"" height = ""600"" style=""position:fixed;top:50%; left:50%; transform: translate(-50%, -50%); border:5px solid black"">","","","","","","","",""
"","278.2199999928707","sequential-stimulus-presentation-old","61","128832","0.0-19.0-1.0","SS1618365793922","trial","","40","500","778.2199999928707","images/stimuli/spore_stims/complex_10_A_a.gif","images/stimuli/spore_stims/complex_02_A_b.gif","forced_long","","5","complex_dissimilar","images/stimuli/spore_stims/complex_02_A_b.gif","","","","",""
"","null","html-keyboard-response","62","129652","0.0-19.0-0.1","SS1618365793922","","","null","","","","","","<p><img src= images/blank.png width =""600"" height = ""600"" style=""position:fixed;top:50%; left:50%; transform: translate(-50%, -50%); border:5px solid black"">","","","","","","","",""
"","124.94999999762513","sequential-stimulus-presentation-old","63","130281","0.0-19.0-1.1","SS1618365793922","trial","","40","500","624.9499999976251","images/stimuli/spore_stims/complex_10_A_a.gif","images/stimuli/spore_stims/complex_02_A_b.gif","forced_long","","5","complex_dissimilar","images/stimuli/spore_stims/complex_02_A_b.gif","","","","",""
"","null","html-keyboard-response","64","131570","0.0-19.0-0.2","SS1618365793922","","","null","","","","","","<p><img src= images/blank.png width =""600"" height = ""600"" style=""position:fixed;top:50%; left:50%; transform: translate(-50%, -50%); border:5px solid black"">","","","","","","","",""
"","943.6549999954877","sequential-stimulus-presentation-old","65","133016","0.0-19.0-1.2","SS1618365793922","trial","","40","500","1443.6549999954877","images/stimuli/spore_stims/complex_10_A_a.gif","images/stimuli/spore_stims/complex_02_A_b.gif","forced_long","","5","complex_dissimilar","images/stimuli/spore_stims/complex_10_A_a.gif","","","","",""
"","null","html-keyboard-response","66","133825","0.0-19.0-0.3","SS1618365793922","","","null","","","","","","<p><img src= images/blank.png width =""600"" height = ""600"" style=""position:fixed;top:50%; left:50%; transform: translate(-50%, -50%); border:5px solid black"">","","","","","","","",""
"","1921.26499999722","sequential-stimulus-presentation-old","67","136258","0.0-19.0-1.3","SS1618365793922","trial","","40","500","2421.26499999722","images/stimuli/spore_stims/complex_10_A_a.gif","images/stimuli/spore_stims/complex_02_A_b.gif","forced_long","","5","complex_dissimilar","images/stimuli/spore_stims/complex_02_A_b.gif","","","","",""
"","null","html-keyboard-response","68","137452","0.0-19.0-0.4","SS1618365793922","","","null","","","","","","<p><img src= images/blank.png width =""600"" height = ""600"" style=""position:fixed;top:50%; left:50%; transform: translate(-50%, -50%); border:5px solid black"">","","","","","","","",""
"","661.050000009709","sequential-stimulus-presentation-old","69","138626","0.0-19.0-1.4","SS1618365793922","trial","","40","500","1161.050000009709","images/stimuli/spore_stims/complex_10_A_a.gif","images/stimuli/spore_stims/complex_02_A_b.gif","forced_long","","5","complex_dissimilar","images/stimuli/spore_stims/complex_02_A_b.gif","","","","",""
"","4686.155000003055","survey-multi-choice","70","143314","0.0-20.0","SS1618365793922","math_question","","","","","","","","","","","","{""Q0"":""15""}","[0]","15","",""
"","null","html-keyboard-response","71","144214","0.0-21.0-0.0","SS1618365793922","","","null","","","","","","<p><img src= images/blank.png width =""600"" height = ""600"" style=""position:fixed;top:50%; left:50%; transform: translate(-50%, -50%); border:5px solid black"">","","","","","","","",""
"","7309.989999994286","sequential-stimulus-presentation-old","72","156528","0.0-21.0-1.0","SS1618365793922","trial","","40","500","7809.989999994286","images/stimuli/spore_stims/simple_01_A_b.gif","images/stimuli/spore_stims/simple_07_A_a.gif","forced_long","","6","simple_dissimilar","images/stimuli/spore_stims/simple_07_A_a.gif","","","","",""
"","null","html-keyboard-response","73","157360","0.0-21.0-0.1","SS1618365793922","","","null","","","","","","<p><img src= images/blank.png width =""600"" height = ""600"" style=""position:fixed;top:50%; left:50%; transform: translate(-50%, -50%); border:5px solid black"">","","","","","","","",""
"","132.01000000117347","sequential-stimulus-presentation-old","74","158002","0.0-21.0-1.1","SS1618365793922","trial","","40","500","632.0100000011735","images/stimuli/spore_stims/simple_01_A_b.gif","images/stimuli/spore_stims/simple_07_A_a.gif","forced_long","","6","simple_dissimilar","images/stimuli/spore_stims/simple_07_A_a.gif","","","","",""
"","null","html-keyboard-response","75","158983","0.0-21.0-0.2","SS1618365793922","","","null","","","","","","<p><img src= images/blank.png width =""600"" height = ""600"" style=""position:fixed;top:50%; left:50%; transform: translate(-50%, -50%); border:5px solid black"">","","","","","","","",""
"","585.8850000076927","sequential-stimulus-presentation-old","76","160072","0.0-21.0-1.2","SS1618365793922","trial","","40","500","1085.8850000076927","images/stimuli/spore_stims/simple_01_A_b.gif","images/stimuli/spore_stims/simple_07_A_a.gif","forced_long","","6","simple_dissimilar","images/stimuli/spore_stims/simple_07_A_a.gif","","","","",""
"","null","html-keyboard-response","77","160941","0.0-21.0-0.3","SS1618365793922","","","null","","","","","","<p><img src= images/blank.png width =""600"" height = ""600"" style=""position:fixed;top:50%; left:50%; transform: translate(-50%, -50%); border:5px solid black"">","","","","","","","",""
"","731.2899999960791","sequential-stimulus-presentation-old","78","162176","0.0-21.0-1.3","SS1618365793922","trial","","40","500","1231.2899999960791","images/stimuli/spore_stims/simple_01_A_b.gif","images/stimuli/spore_stims/simple_07_A_a.gif","forced_long","","6","simple_dissimilar","images/stimuli/spore_stims/simple_07_A_a.gif","","","","",""
"","null","html-keyboard-response","79","163271","0.0-21.0-0.4","SS1618365793922","","","null","","","","","","<p><img src= images/blank.png width =""600"" height = ""600"" style=""position:fixed;top:50%; left:50%; transform: translate(-50%, -50%); border:5px solid black"">","","","","","","","",""
"","1173.5049999988405","sequential-stimulus-presentation-old","80","164952","0.0-21.0-1.4","SS1618365793922","trial","","40","500","1673.5049999988405","images/stimuli/spore_stims/simple_01_A_b.gif","images/stimuli/spore_stims/simple_07_A_a.gif","forced_long","","6","simple_dissimilar","images/stimuli/spore_stims/simple_07_A_a.gif","","","","",""
"","2494.3350000103237","survey-multi-choice","81","167452","0.0-22.0","SS1618365793922","math_question","","","","","","","","","","","","{""Q0"":""4""}","[0]","4","",""
"","null","html-keyboard-response","82","168667","0.0-23.0-0.0","SS1618365793922","","","null","","","","","","<p><img src= images/blank.png width =""600"" height = ""600"" style=""position:fixed;top:50%; left:50%; transform: translate(-50%, -50%); border:5px solid black"">","","","","","","","",""
"","647.5749999954132","sequential-stimulus-presentation-old","83","169823","0.0-23.0-1.0","SS1618365793922","trial","","40","500","1147.5749999954132","images/stimuli/spore_stims/complex_13_A_b.gif","images/stimuli/spore_stims/complex_06_A_a.gif","self_paced","","7","complex_dissimilar","images/stimuli/spore_stims/complex_06_A_a.gif","","","","",""
"","null","html-keyboard-response","84","170704","0.0-23.0-0.1","SS1618365793922","","","null","","","","","","<p><img src= images/blank.png width =""600"" height = ""600"" style=""position:fixed;top:50%; left:50%; transform: translate(-50%, -50%); border:5px solid black"">","","","","","","","",""
"","726.7600000050152","sequential-stimulus-presentation-old","85","171941","0.0-23.0-1.1","SS1618365793922","trial","","40","500","1226.7600000050152","images/stimuli/spore_stims/complex_13_A_b.gif","images/stimuli/spore_stims/complex_06_A_a.gif","self_paced","","7","complex_dissimilar","images/stimuli/spore_stims/complex_06_A_a.gif","","","","",""
"","null","html-keyboard-response","86","172807","0.0-23.0-0.2","SS1618365793922","","","null","","","","","","<p><img src= images/blank.png width =""600"" height = ""600"" style=""position:fixed;top:50%; left:50%; transform: translate(-50%, -50%); border:5px solid black"">","","","","","","","",""
"","795.1049999974202","sequential-stimulus-presentation-old","87","174113","0.0-23.0-1.2","SS1618365793922","trial","","40","500","1295.1049999974202","images/stimuli/spore_stims/complex_13_A_b.gif","images/stimuli/spore_stims/complex_06_A_a.gif","self_paced","","7","complex_dissimilar","images/stimuli/spore_stims/complex_06_A_a.gif","","","","",""
"","null","html-keyboard-response","88","175201","0.0-23.0-0.3","SS1618365793922","","","null","","","","","","<p><img src= images/blank.png width =""600"" height = ""600"" style=""position:fixed;top:50%; left:50%; transform: translate(-50%, -50%); border:5px solid black"">","","","","","","","",""
"","939.4549999997253","sequential-stimulus-presentation-old","89","176645","0.0-23.0-1.3","SS1618365793922","trial","","40","500","1439.4549999997253","images/stimuli/spore_stims/complex_13_A_b.gif","images/stimuli/spore_stims/complex_06_A_a.gif","self_paced","","7","complex_dissimilar","images/stimuli/spore_stims/complex_06_A_a.gif","","","","",""
"","null","html-keyboard-response","90","177496","0.0-23.0-0.4","SS1618365793922","","","null","","","","","","<p><img src= images/blank.png width =""600"" height = ""600"" style=""position:fixed;top:50%; left:50%; transform: translate(-50%, -50%); border:5px solid black"">","","","","","","","",""
"","327.755000005709","sequential-stimulus-presentation-old","91","178328","0.0-23.0-1.4","SS1618365793922","trial","","40","500","827.755000005709","images/stimuli/spore_stims/complex_13_A_b.gif","images/stimuli/spore_stims/complex_06_A_a.gif","self_paced","","7","complex_dissimilar","images/stimuli/spore_stims/complex_13_A_b.gif","","","","",""
"","null","html-keyboard-response","92","179453","0.0-23.0-0.5","SS1618365793922","","","null","","","","","","<p><img src= images/blank.png width =""600"" height = ""600"" style=""position:fixed;top:50%; left:50%; transform: translate(-50%, -50%); border:5px solid black"">","","","","","","","",""
"","698.5500000009779","sequential-stimulus-presentation-old","93","180656","0.0-23.0-1.5","SS1618365793922","trial","","40","500","1198.550000000978","images/stimuli/spore_stims/complex_13_A_b.gif","images/stimuli/spore_stims/complex_06_A_a.gif","self_paced","","7","complex_dissimilar","images/stimuli/spore_stims/complex_13_A_b.gif","","","","",""
"","3328.8900000043213","survey-multi-choice","94","183987","0.0-24.0","SS1618365793922","math_question","","","","","","","","","","","","{""Q0"":""13""}","[0]","13","",""
"","null","html-keyboard-response","95","184846","0.0-25.0-0.0","SS1618365793922","","","null","","","","","","<p><img src= images/blank.png width =""600"" height = ""600"" style=""position:fixed;top:50%; left:50%; transform: translate(-50%, -50%); border:5px solid black"">","","","","","","","",""
"","1305.5400000012014","sequential-stimulus-presentation-old","96","186664","0.0-25.0-1.0","SS1618365793922","trial","","40","500","1805.5400000012014","images/stimuli/spore_stims/complex_20_A_a.gif","images/stimuli/spore_stims/complex_12_A_b.gif","self_paced","","8","complex_dissimilar","images/stimuli/spore_stims/complex_12_A_b.gif","","","","",""
"","null","html-keyboard-response","97","187490","0.0-25.0-0.1","SS1618365793922","","","null","","","","","","<p><img src= images/blank.png width =""600"" height = ""600"" style=""position:fixed;top:50%; left:50%; transform: translate(-50%, -50%); border:5px solid black"">","","","","","","","",""
"","577.5199999916367","sequential-stimulus-presentation-old","98","188577","0.0-25.0-1.1","SS1618365793922","trial","","40","500","1077.5199999916367","images/stimuli/spore_stims/complex_20_A_a.gif","images/stimuli/spore_stims/complex_12_A_b.gif","self_paced","","8","complex_dissimilar","images/stimuli/spore_stims/complex_12_A_b.gif","","","","",""
"","null","html-keyboard-response","99","189695","0.0-25.0-0.2","SS1618365793922","","","null","","","","","","<p><img src= images/blank.png width =""600"" height = ""600"" style=""position:fixed;top:50%; left:50%; transform: translate(-50%, -50%); border:5px solid black"">","","","","","","","",""
"","242.97999999544118","sequential-stimulus-presentation-old","100","190448","0.0-25.0-1.2","SS1618365793922","trial","","40","500","742.9799999954412","images/stimuli/spore_stims/complex_20_A_a.gif","images/stimuli/spore_stims/complex_12_A_b.gif","self_paced","","8","complex_dissimilar","images/stimuli/spore_stims/complex_12_A_b.gif","","","","",""
"","null","html-keyboard-response","101","191252","0.0-25.0-0.3","SS1618365793922","","","null","","","","","","<p><img src= images/blank.png width =""600"" height = ""600"" style=""position:fixed;top:50%; left:50%; transform: translate(-50%, -50%); border:5px solid black"">","","","","","","","",""
"","316.3300000014715","sequential-stimulus-presentation-old","102","192073","0.0-25.0-1.3","SS1618365793922","trial","","40","500","816.3300000014715","images/stimuli/spore_stims/complex_20_A_a.gif","images/stimuli/spore_stims/complex_12_A_b.gif","self_paced","","8","complex_dissimilar","images/stimuli/spore_stims/complex_12_A_b.gif","","","","",""
"","3598.634999987553","survey-multi-choice","103","195676","0.0-26.0","SS1618365793922","math_question","","","","","","","","","","","","{""Q0"":""17""}","[0]","17","",""
"","null","html-keyboard-response","104","196682","0.0-27.0-0.0","SS1618365793922","","","null","","","","","","<p><img src= images/blank.png width =""600"" height = ""600"" style=""position:fixed;top:50%; left:50%; transform: translate(-50%, -50%); border:5px solid black"">","","","","","","","",""
"","9454.584999999497","sequential-stimulus-presentation-old","105","206196","0.0-27.0-1.0","SS1618365793922","trial","","40","500","9954.584999999497","images/stimuli/spore_stims/complex_17_A_b.gif","images/stimuli/spore_stims/complex_18_A_a.gif","forced_short","","9","complex_dissimilar","images/stimuli/spore_stims/complex_18_A_a.gif","","","","",""
"","null","html-keyboard-response","106","207381","0.0-27.0-0.1","SS1618365793922","","","null","","","","","","<p><img src= images/blank.png width =""600"" height = ""600"" style=""position:fixed;top:50%; left:50%; transform: translate(-50%, -50%); border:5px solid black"">","","","","","","","",""
"","4771.254999999655","sequential-stimulus-presentation-old","107","212656","0.0-27.0-1.1","SS1618365793922","trial","","40","500","5271.254999999655","images/stimuli/spore_stims/complex_17_A_b.gif","images/stimuli/spore_stims/complex_18_A_a.gif","forced_short","","9","complex_dissimilar","images/stimuli/spore_stims/complex_18_A_a.gif","","","","",""
"","null","html-keyboard-response","108","213597","0.0-27.0-0.2","SS1618365793922","","","null","","","","","","<p><img src= images/blank.png width =""600"" height = ""600"" style=""position:fixed;top:50%; left:50%; transform: translate(-50%, -50%); border:5px solid black"">","","","","","","","",""
"","228.38499999488704","sequential-stimulus-presentation-old","109","214331","0.0-27.0-1.2","SS1618365793922","trial","","40","500","728.384999994887","images/stimuli/spore_stims/complex_17_A_b.gif","images/stimuli/spore_stims/complex_18_A_a.gif","forced_short","","9","complex_dissimilar","images/stimuli/spore_stims/complex_17_A_b.gif","","","","",""
"","null","html-keyboard-response","110","215448","0.0-27.0-0.3","SS1618365793922","","","null","","","","","","<p><img src= images/blank.png width =""600"" height = ""600"" style=""position:fixed;top:50%; left:50%; transform: translate(-50%, -50%); border:5px solid black"">","","","","","","","",""
"","10.190000000875443","sequential-stimulus-presentation-old","111","215961","0.0-27.0-1.3","SS1618365793922","trial","","40","500","510.19000000087544","images/stimuli/spore_stims/complex_17_A_b.gif","images/stimuli/spore_stims/complex_18_A_a.gif","forced_short","","9","complex_dissimilar","images/stimuli/spore_stims/complex_18_A_a.gif","","","","",""
"","2771.215000000666","survey-multi-choice","112","218735","0.0-28.0","SS1618365793922","math_question","","","","","","","","","","","","{""Q0"":""10""}","[0]","10","",""
"","null","html-keyboard-response","113","219559","0.0-29.0-0.0","SS1618365793922","","","null","","","","","","<p><img src= images/blank.png width =""600"" height = ""600"" style=""position:fixed;top:50%; left:50%; transform: translate(-50%, -50%); border:5px solid black"">","","","","","","","",""
"","10922.730000005686","sequential-stimulus-presentation-old","114","230539","0.0-29.0-1.0","SS1618365793922","trial","","40","500","11422.730000005686","images/stimuli/spore_stims/simple_17_A_b.gif","images/stimuli/spore_stims/simple_11_A_a.gif","forced_short","","10","simple_dissimilar","images/stimuli/spore_stims/simple_11_A_a.gif","","","","",""
"","null","html-keyboard-response","115","231799","0.0-29.0-0.1","SS1618365793922","","","null","","","","","","<p><img src= images/blank.png width =""600"" height = ""600"" style=""position:fixed;top:50%; left:50%; transform: translate(-50%, -50%); border:5px solid black"">","","","","","","","",""
"","36.794999992707744","sequential-stimulus-presentation-old","116","232344","0.0-29.0-1.1","SS1618365793922","trial","","40","500","536.7949999927077","images/stimuli/spore_stims/simple_17_A_b.gif","images/stimuli/spore_stims/simple_11_A_a.gif","forced_short","","10","simple_dissimilar","images/stimuli/spore_stims/simple_11_A_a.gif","","","","",""
"","null","html-keyboard-response","117","233216","0.0-29.0-0.2","SS1618365793922","","","null","","","","","","<p><img src= images/blank.png width =""600"" height = ""600"" style=""position:fixed;top:50%; left:50%; transform: translate(-50%, -50%); border:5px solid black"">","","","","","","","",""
"","1584.01999999478","sequential-stimulus-presentation-old","118","235304","0.0-29.0-1.2","SS1618365793922","trial","","40","500","2084.01999999478","images/stimuli/spore_stims/simple_17_A_b.gif","images/stimuli/spore_stims/simple_11_A_a.gif","forced_short","","10","simple_dissimilar","images/stimuli/spore_stims/simple_11_A_a.gif","","","","",""
"","null","html-keyboard-response","119","236213","0.0-29.0-0.3","SS1618365793922","","","null","","","","","","<p><img src= images/blank.png width =""600"" height = ""600"" style=""position:fixed;top:50%; left:50%; transform: translate(-50%, -50%); border:5px solid black"">","","","","","","","",""
"","524.5499999873573","sequential-stimulus-presentation-old","120","237240","0.0-29.0-1.3","SS1618365793922","trial","","40","500","1024.5499999873573","images/stimuli/spore_stims/simple_17_A_b.gif","images/stimuli/spore_stims/simple_11_A_a.gif","forced_short","","10","simple_dissimilar","images/stimuli/spore_stims/simple_11_A_a.gif","","","","",""
"","null","html-keyboard-response","121","238541","0.0-29.0-0.4","SS1618365793922","","","null","","","","","","<p><img src= images/blank.png width =""600"" height = ""600"" style=""position:fixed;top:50%; left:50%; transform: translate(-50%, -50%); border:5px solid black"">","","","","","","","",""
"","1799.1150000016205","sequential-stimulus-presentation-old","122","240849","0.0-29.0-1.4","SS1618365793922","trial","","40","500","2299.1150000016205","images/stimuli/spore_stims/simple_17_A_b.gif","images/stimuli/spore_stims/simple_11_A_a.gif","forced_short","","10","simple_dissimilar","images/stimuli/spore_stims/simple_17_A_b.gif","","","","",""
"","null","html-keyboard-response","123","242151","0.0-29.0-0.5","SS1618365793922","","","null","","","","","","<p><img src= images/blank.png width =""600"" height = ""600"" style=""position:fixed;top:50%; left:50%; transform: translate(-50%, -50%); border:5px solid black"">","","","","","","","",""
"","499.89999999525025","sequential-stimulus-presentation-old","124","243156","0.0-29.0-1.5","SS1618365793922","trial","","40","500","999.8999999952503","images/stimuli/spore_stims/simple_17_A_b.gif","images/stimuli/spore_stims/simple_11_A_a.gif","forced_short","","10","simple_dissimilar","images/stimuli/spore_stims/simple_11_A_a.gif","","","","",""
"","6479.849999988801","survey-multi-choice","125","249643","0.0-30.0","SS1618365793922","math_question","","","","","","","","","","","","{""Q0"":""10""}","[0]","10","",""
"","null","html-keyboard-response","126","250749","0.0-31.0-0.0","SS1618365793922","","","null","","","","","","<p><img src= images/blank.png width =""600"" height = ""600"" style=""position:fixed;top:50%; left:50%; transform: translate(-50%, -50%); border:5px solid black"">","","","","","","","",""
"","2938.880000001518","sequential-stimulus-presentation-old","127","254193","0.0-31.0-1.0","SS1618365793922","trial","","40","500","3438.880000001518","images/stimuli/spore_stims/simple_03_A_a.gif","images/stimuli/spore_stims/simple_04_A_b.gif","self_paced","","11","simple_dissimilar","images/stimuli/spore_stims/simple_04_A_b.gif","","","","",""
"","null","html-keyboard-response","128","255250","0.0-31.0-0.1","SS1618365793922","","","null","","","","","","<p><img src= images/blank.png width =""600"" height = ""600"" style=""position:fixed;top:50%; left:50%; transform: translate(-50%, -50%); border:5px solid black"">","","","","","","","",""
"","767.5700000108918","sequential-stimulus-presentation-old","129","256529","0.0-31.0-1.1","SS1618365793922","trial","","40","500","1267.5700000108918","images/stimuli/spore_stims/simple_03_A_a.gif","images/stimuli/spore_stims/simple_04_A_b.gif","self_paced","","11","simple_dissimilar","images/stimuli/spore_stims/simple_03_A_a.gif","","","","",""
"","null","html-keyboard-response","130","257394","0.0-31.0-0.2","SS1618365793922","","","null","","","","","","<p><img src= images/blank.png width =""600"" height = ""600"" style=""position:fixed;top:50%; left:50%; transform: translate(-50%, -50%); border:5px solid black"">","","","","","","","",""
"","1948.0850000109058","sequential-stimulus-presentation-old","131","259851","0.0-31.0-1.2","SS1618365793922","trial","","40","500","2448.085000010906","images/stimuli/spore_stims/simple_03_A_a.gif","images/stimuli/spore_stims/simple_04_A_b.gif","self_paced","","11","simple_dissimilar","images/stimuli/spore_stims/simple_04_A_b.gif","","","","",""
"","null","html-keyboard-response","132","260775","0.0-31.0-0.3","SS1618365793922","","","null","","","","","","<p><img src= images/blank.png width =""600"" height = ""600"" style=""position:fixed;top:50%; left:50%; transform: translate(-50%, -50%); border:5px solid black"">","","","","","","","",""
"","162.57499999483116","sequential-stimulus-presentation-old","133","261449","0.0-31.0-1.3","SS1618365793922","trial","","40","500","662.5749999948312","images/stimuli/spore_stims/simple_03_A_a.gif","images/stimuli/spore_stims/simple_04_A_b.gif","self_paced","","11","simple_dissimilar","images/stimuli/spore_stims/simple_04_A_b.gif","","","","",""
"","null","html-keyboard-response","134","262329","0.0-31.0-0.4","SS1618365793922","","","null","","","","","","<p><img src= images/blank.png width =""600"" height = ""600"" style=""position:fixed;top:50%; left:50%; transform: translate(-50%, -50%); border:5px solid black"">","","","","","","","",""
"","946.9249999965541","sequential-stimulus-presentation-old","135","263784","0.0-31.0-1.4","SS1618365793922","trial","","40","500","1446.924999996554","images/stimuli/spore_stims/simple_03_A_a.gif","images/stimuli/spore_stims/simple_04_A_b.gif","self_paced","","11","simple_dissimilar","images/stimuli/spore_stims/simple_04_A_b.gif","","","","",""
"[{""page_index"":0,""viewing_time"":14487.630000003264}]","14487.77500000142","instructions","136","278274","0.0-32.0","SS1618365793922","instructions","","","","","","","","","","","","","","","",""
"","6594.564999992144","survey-likert","137","284872","0.0-33.0","SS1618365793922","similarity_question","","","","","","","","","","","","{""Q0"":2}","[0]","","images/stimuli/spore_stims/complex_20_A_a.gif","images/stimuli/spore_stims/complex_12_A_b.gif"
"","3177.9050000041025","survey-likert","138","288053","0.0-34.0","SS1618365793922","similarity_question","","","","","","","","","","","","{""Q0"":5}","[0]","","images/stimuli/spore_stims/simple_19_A_a.gif","images/stimuli/spore_stims/simple_07_A_b.gif"
"","2474.6650000015507","survey-likert","139","290531","0.0-35.0","SS1618365793922","similarity_question","","","","","","","","","","","","{""Q0"":5}","[0]","","images/stimuli/spore_stims/simple_12_A_b.gif","images/stimuli/spore_stims/simple_14_A_a.gif"
"","3974.7150000039255","survey-likert","140","294509","0.0-36.0","SS1618365793922","similarity_question","","","","","","","","","","","","{""Q0"":1}","[0]","","images/stimuli/spore_stims/complex_06_A_a.gif","images/stimuli/spore_stims/complex_13_A_b.gif"
"","1687.4549999920418","survey-likert","141","296199","0.0-37.0","SS1618365793922","similarity_question","","","","","","","","","","","","{""Q0"":1}","[0]","","images/stimuli/spore_stims/complex_03_A_b.gif","images/stimuli/spore_stims/complex_05_A_a.gif"
"","2364.735000010114","survey-likert","142","298567","0.0-38.0","SS1618365793922","similarity_question","","","","","","","","","","","","{""Q0"":1}","[0]","","images/stimuli/spore_stims/complex_02_A_b.gif","images/stimuli/spore_stims/complex_10_A_a.gif"
"","2237.6300000032643","survey-likert","143","300809","0.0-39.0","SS1618365793922","similarity_question","","","","","","","","","","","","{""Q0"":1}","[0]","","images/stimuli/spore_stims/complex_09_A_b.gif","images/stimuli/spore_stims/complex_08_A_a.gif"
"","1664.1899999958696","survey-likert","144","302475","0.0-40.0","SS1618365793922","similarity_question","","","","","","","","","","","","{""Q0"":1}","[0]","","images/stimuli/spore_stims/simple_04_A_a.gif","images/stimuli/spore_stims/simple_05_A_b.gif"
"","1689.2599999991944","survey-likert","145","304167","0.0-41.0","SS1618365793922","similarity_question","","","","","","","","","","","","{""Q0"":1}","[0]","","images/stimuli/spore_stims/simple_17_A_b.gif","images/stimuli/spore_stims/simple_11_A_a.gif"
"","3711.649999997462","survey-likert","146","307881","0.0-42.0","SS1618365793922","similarity_question","","","","","","","","","","","","{""Q0"":1}","[0]","","images/stimuli/spore_stims/simple_04_A_b.gif","images/stimuli/spore_stims/simple_03_A_a.gif"
"","4378.229999987525","survey-likert","147","312263","0.0-43.0","SS1618365793922","similarity_question","","","","","","","","","","","","{""Q0"":4}","[0]","","images/stimuli/spore_stims/simple_01_A_b.gif","images/stimuli/spore_stims/simple_07_A_a.gif"
"","2463.4749999968335","survey-likert","148","314729","0.0-44.0","SS1618365793922","similarity_question","","","","","","","","","","","","{""Q0"":1}","[0]","","images/stimuli/spore_stims/complex_17_A_b.gif","images/stimuli/spore_stims/complex_18_A_a.gif"
"[{""page_index"":0,""viewing_time"":13363.949999999022}]","13364.125000007334","instructions","149","328095","0.0-45.0","SS1618365793922","instructions","","","","","","","","","","","","","","","",""
"","3710.9399999899324","survey-likert","150","331809","0.0-46.0","SS1618365793922","","","","","","","","","images/stimuli/spore_stims/complex_06_A_a.gif","","","","{""Q0"":5}","[0]","","",""
"","3187.615000002552","survey-likert","151","335000","0.0-47.0","SS1618365793922","","","","","","","","","images/stimuli/spore_stims/complex_03_A_b.gif","","","","{""Q0"":4}","[0]","","",""
"","3658.8400000036927","survey-likert","152","338661","0.0-48.0","SS1618365793922","","","","","","","","","images/stimuli/spore_stims/simple_14_A_a.gif","","","","{""Q0"":0}","[0]","","",""
"","2375.625000000582","survey-likert","153","341040","0.0-49.0","SS1618365793922","","","","","","","","","images/stimuli/spore_stims/simple_07_A_b.gif","","","","{""Q0"":0}","[0]","","",""
"","2514.6700000041164","survey-likert","154","343559","0.0-50.0","SS1618365793922","","","","","","","","","images/stimuli/spore_stims/complex_09_A_b.gif","","","","{""Q0"":6}","[0]","","",""
"","2013.6050000000978","survey-likert","155","345575","0.0-51.0","SS1618365793922","","","","","","","","","images/stimuli/spore_stims/simple_05_A_b.gif","","","","{""Q0"":1}","[0]","","",""
"","2047.050000008312","survey-likert","156","347625","0.0-52.0","SS1618365793922","","","","","","","","","images/stimuli/spore_stims/complex_17_A_b.gif","","","","{""Q0"":4}","[0]","","",""
"","3763.6250000068685","survey-likert","157","351392","0.0-53.0","SS1618365793922","","","","","","","","","images/stimuli/spore_stims/simple_11_A_a.gif","","","","{""Q0"":0}","[0]","","",""
"","2066.5700000099605","survey-likert","158","353461","0.0-54.0","SS1618365793922","","","","","","","","","images/stimuli/spore_stims/complex_02_A_b.gif","","","","{""Q0"":5}","[0]","","",""
"","2156.859999988228","survey-likert","159","355621","0.0-55.0","SS1618365793922","","","","","","","","","images/stimuli/spore_stims/simple_01_A_b.gif","","","","{""Q0"":1}","[0]","","",""
"","4826.549999997951","survey-likert","160","360451","0.0-56.0","SS1618365793922","","","","","","","","","images/stimuli/spore_stims/simple_04_A_b.gif","","","","{""Q0"":1}","[0]","","",""
"","2177.2150000033434","survey-likert","161","362631","0.0-57.0","SS1618365793922","","","","","","","","","images/stimuli/spore_stims/complex_20_A_a.gif","","","","{""Q0"":5}","[0]","","",""
"[{""page_index"":0,""viewing_time"":1784.975000002305}]","1785.105000002659","instructions","162","364419","0.0-58.0","SS1618365793922","instructions","","","","","","","","","","","","","","","",""
"","4422.470000004978","demog-age","163","368845","0.0-59.0","SS1618365793922","","","","","","","","","","","","","{""age"":""35""}","","","",""
"","2692.5000000046566","demog-ethnic-US","164","371541","0.0-60.0","SS1618365793922","","","","","","","","","","","","","{""ethnicity"":[""Hispanic or Latino""]}","[0]","","",""
"","12704.125000003842","demog-gender-and-education","165","384249","0.0-61.0","SS1618365793922","","","","","","","","","","","","","{""gender"":""Male"",""education"":""Associate Degree/Technical certification""}","[0,1]","","",""
"","8242.445000010775","survey-text","166","392495","0.0-62.0","SS1618365793922","feedback","","","","","","","","","","","","{""Q0"":""no""}","","","",""
"[{""page_index"":0,""viewing_time"":1664.8450000066077}]","1664.9800000013784","instructions","167","394163","0.0-63.0","SS1618365793922","instructions","","","","","","","","","","","","","","","",""
