"view_history","rt","trial_type","trial_index","time_elapsed","internal_node_id","subject","stimulus_type","trial_stimulus","key_press","minimum_viewing_duration","trial_looking_time","block_deviant","block_background","exposure_type","stimulus","block_number","block_type","stimulus_displayed","responses","question_order","math_correct_answer","stimulus_left","stimulus_right"
"[{""page_index"":0,""viewing_time"":22932.964999927208}]","22933.87999990955","instructions","0","22935","0.0-0.0","SS1618435636608","","","","","","","","","","","","","","","","",""
"[{""page_index"":0,""viewing_time"":15034.244999988005},{""page_index"":1,""viewing_time"":6666.470000054687}]","21701.00500015542","instructions","1","46649","0.0-1.0","SS1618435636608","instructions","","","","","","","","","","","","","","","",""
"","15522.385000018403","sequential-stimulus-presentation-old","2","62674","0.0-2.0","SS1618435636608","","","40","500","16022.385000018403","null","null","self_paced","","","","","","","","",""
"","6741.139999823645","sequential-stimulus-presentation-old","3","69917","0.0-3.0","SS1618435636608","","","40","500","7241.139999823645","null","null","self_paced","","","","","","","","",""
"[{""page_index"":0,""viewing_time"":23417.905000038445}]","23418.18999988027","instructions","4","93337","0.0-4.0","SS1618435636608","instructions","","","","","","","","","","","","","","","",""
"","2681.8800000473857","sequential-stimulus-presentation-old","5","101021","0.0-5.0","SS1618435636608","","","40","500","3181.8800000473857","null","null","forced_long","","","","","","","","",""
"","3885.3999997954816","sequential-stimulus-presentation-old","6","104958","0.0-6.0","SS1618435636608","","","40","50","3935.3999997954816","null","null","forced_long","","","","","","","","",""
"[{""page_index"":0,""viewing_time"":4934.5550001598895}]","4934.825000120327","instructions","7","109894","0.0-7.0","SS1618435636608","instructions","","","","","","","","","","","","","","","",""
"[{""page_index"":0,""viewing_time"":11152.814999921247},{""page_index"":1,""viewing_time"":12280.555000063032},{""page_index"":2,""viewing_time"":7194.535000016913},{""page_index"":3,""viewing_time"":2122.0750000793487},{""page_index"":4,""viewing_time"":1202.3300000000745}]","33952.585000079125","instructions","8","143847","0.0-8.0","SS1618435636608","instructions","","","","","","","","","","","","","","","",""
"","null","html-keyboard-response","9","144779","0.0-9.0-0.0","SS1618435636608","","","null","","","","","","<p><img src= images/blank.png width =""600"" height = ""600"" style=""position:fixed;top:50%; left:50%; transform: translate(-50%, -50%); border:5px solid black"">","","","","","","","",""
"","563.1750000175089","sequential-stimulus-presentation-old","10","150346","0.0-9.0-1.0","SS1618435636608","trial","","40","500","1063.1750000175089","images/stimuli/spore_stims/simple_09_A_b.gif","images/stimuli/spore_stims/simple_08_A_a.gif","forced_long","","0","simple_dissimilar","images/stimuli/spore_stims/simple_08_A_a.gif","","","","",""
"","null","html-keyboard-response","11","151401","0.0-9.0-0.1","SS1618435636608","","","null","","","","","","<p><img src= images/blank.png width =""600"" height = ""600"" style=""position:fixed;top:50%; left:50%; transform: translate(-50%, -50%); border:5px solid black"">","","","","","","","",""
"","15899.990000063553","sequential-stimulus-presentation-old","12","167803","0.0-9.0-1.1","SS1618435636608","trial","","40","500","16399.990000063553","images/stimuli/spore_stims/simple_09_A_b.gif","images/stimuli/spore_stims/simple_08_A_a.gif","forced_long","","0","simple_dissimilar","images/stimuli/spore_stims/simple_08_A_a.gif","","","","",""
"","null","html-keyboard-response","13","168909","0.0-9.0-0.2","SS1618435636608","","","null","","","","","","<p><img src= images/blank.png width =""600"" height = ""600"" style=""position:fixed;top:50%; left:50%; transform: translate(-50%, -50%); border:5px solid black"">","","","","","","","",""
"","5137.400000123307","sequential-stimulus-presentation-old","14","174550","0.0-9.0-1.2","SS1618435636608","trial","","40","500","5637.400000123307","images/stimuli/spore_stims/simple_09_A_b.gif","images/stimuli/spore_stims/simple_08_A_a.gif","forced_long","","0","simple_dissimilar","images/stimuli/spore_stims/simple_08_A_a.gif","","","","",""
"","null","html-keyboard-response","15","175811","0.0-9.0-0.3","SS1618435636608","","","null","","","","","","<p><img src= images/blank.png width =""600"" height = ""600"" style=""position:fixed;top:50%; left:50%; transform: translate(-50%, -50%); border:5px solid black"">","","","","","","","",""
"","3588.6150000151247","sequential-stimulus-presentation-old","16","179902","0.0-9.0-1.3","SS1618435636608","trial","","40","500","4088.6150000151247","images/stimuli/spore_stims/simple_09_A_b.gif","images/stimuli/spore_stims/simple_08_A_a.gif","forced_long","","0","simple_dissimilar","images/stimuli/spore_stims/simple_08_A_a.gif","","","","",""
"","null","html-keyboard-response","17","180819","0.0-9.0-0.4","SS1618435636608","","","null","","","","","","<p><img src= images/blank.png width =""600"" height = ""600"" style=""position:fixed;top:50%; left:50%; transform: translate(-50%, -50%); border:5px solid black"">","","","","","","","",""
"","7982.739999890327","sequential-stimulus-presentation-old","18","189304","0.0-9.0-1.4","SS1618435636608","trial","","40","500","8482.739999890327","images/stimuli/spore_stims/simple_09_A_b.gif","images/stimuli/spore_stims/simple_08_A_a.gif","forced_long","","0","simple_dissimilar","images/stimuli/spore_stims/simple_08_A_a.gif","","","","",""
"","null","html-keyboard-response","19","190510","0.0-9.0-0.5","SS1618435636608","","","null","","","","","","<p><img src= images/blank.png width =""600"" height = ""600"" style=""position:fixed;top:50%; left:50%; transform: translate(-50%, -50%); border:5px solid black"">","","","","","","","",""
"","3881.22499990277","sequential-stimulus-presentation-old","20","194895","0.0-9.0-1.5","SS1618435636608","trial","","40","500","4381.22499990277","images/stimuli/spore_stims/simple_09_A_b.gif","images/stimuli/spore_stims/simple_08_A_a.gif","forced_long","","0","simple_dissimilar","images/stimuli/spore_stims/simple_09_A_b.gif","","","","",""
"","3452.415000181645","survey-multi-choice","21","198350","0.0-10.0","SS1618435636608","math_question","","","","","","","","","","","","{""Q0"":""13""}","[0]","13","",""
"","null","html-keyboard-response","22","199413","0.0-11.0-0.0","SS1618435636608","","","null","","","","","","<p><img src= images/blank.png width =""600"" height = ""600"" style=""position:fixed;top:50%; left:50%; transform: translate(-50%, -50%); border:5px solid black"">","","","","","","","",""
"","3778.2999998889863","sequential-stimulus-presentation-old","23","203694","0.0-11.0-1.0","SS1618435636608","trial","","40","500","4278.299999888986","images/stimuli/spore_stims/simple_03_A_b.gif","images/stimuli/spore_stims/simple_13_A_a.gif","self_paced","","1","simple_dissimilar","images/stimuli/spore_stims/simple_13_A_a.gif","","","","",""
"","null","html-keyboard-response","24","204753","0.0-11.0-0.1","SS1618435636608","","","null","","","","","","<p><img src= images/blank.png width =""600"" height = ""600"" style=""position:fixed;top:50%; left:50%; transform: translate(-50%, -50%); border:5px solid black"">","","","","","","","",""
"","1897.0950001385063","sequential-stimulus-presentation-old","25","207153","0.0-11.0-1.1","SS1618435636608","trial","","40","500","2397.0950001385063","images/stimuli/spore_stims/simple_03_A_b.gif","images/stimuli/spore_stims/simple_13_A_a.gif","self_paced","","1","simple_dissimilar","images/stimuli/spore_stims/simple_03_A_b.gif","","","","",""
"","null","html-keyboard-response","26","208158","0.0-11.0-0.2","SS1618435636608","","","null","","","","","","<p><img src= images/blank.png width =""600"" height = ""600"" style=""position:fixed;top:50%; left:50%; transform: translate(-50%, -50%); border:5px solid black"">","","","","","","","",""
"","3060.1299998816103","sequential-stimulus-presentation-old","27","211721","0.0-11.0-1.2","SS1618435636608","trial","","40","500","3560.1299998816103","images/stimuli/spore_stims/simple_03_A_b.gif","images/stimuli/spore_stims/simple_13_A_a.gif","self_paced","","1","simple_dissimilar","images/stimuli/spore_stims/simple_13_A_a.gif","","","","",""
"","null","html-keyboard-response","28","212887","0.0-11.0-0.3","SS1618435636608","","","null","","","","","","<p><img src= images/blank.png width =""600"" height = ""600"" style=""position:fixed;top:50%; left:50%; transform: translate(-50%, -50%); border:5px solid black"">","","","","","","","",""
"","1961.5750000812113","sequential-stimulus-presentation-old","29","215352","0.0-11.0-1.3","SS1618435636608","trial","","40","500","2461.5750000812113","images/stimuli/spore_stims/simple_03_A_b.gif","images/stimuli/spore_stims/simple_13_A_a.gif","self_paced","","1","simple_dissimilar","images/stimuli/spore_stims/simple_03_A_b.gif","","","","",""
"","null","html-keyboard-response","30","216326","0.0-11.0-0.4","SS1618435636608","","","null","","","","","","<p><img src= images/blank.png width =""600"" height = ""600"" style=""position:fixed;top:50%; left:50%; transform: translate(-50%, -50%); border:5px solid black"">","","","","","","","",""
"","2498.3200000133365","sequential-stimulus-presentation-old","31","219328","0.0-11.0-1.4","SS1618435636608","trial","","40","500","2998.3200000133365","images/stimuli/spore_stims/simple_03_A_b.gif","images/stimuli/spore_stims/simple_13_A_a.gif","self_paced","","1","simple_dissimilar","images/stimuli/spore_stims/simple_13_A_a.gif","","","","",""
"","null","html-keyboard-response","32","220177","0.0-11.0-0.5","SS1618435636608","","","null","","","","","","<p><img src= images/blank.png width =""600"" height = ""600"" style=""position:fixed;top:50%; left:50%; transform: translate(-50%, -50%); border:5px solid black"">","","","","","","","",""
"","3741.2449999246746","sequential-stimulus-presentation-old","33","224421","0.0-11.0-1.5","SS1618435636608","trial","","40","500","4241.244999924675","images/stimuli/spore_stims/simple_03_A_b.gif","images/stimuli/spore_stims/simple_13_A_a.gif","self_paced","","1","simple_dissimilar","images/stimuli/spore_stims/simple_13_A_a.gif","","","","",""
"","2466.010000091046","survey-multi-choice","34","226889","0.0-12.0","SS1618435636608","math_question","","","","","","","","","","","","{""Q0"":""8""}","[0]","8","",""
"","null","html-keyboard-response","35","228026","0.0-13.0-0.0","SS1618435636608","","","null","","","","","","<p><img src= images/blank.png width =""600"" height = ""600"" style=""position:fixed;top:50%; left:50%; transform: translate(-50%, -50%); border:5px solid black"">","","","","","","","",""
"","1321.910000173375","sequential-stimulus-presentation-old","36","229402","0.0-13.0-1.0","SS1618435636608","trial","","40","500","1821.910000173375","images/stimuli/spore_stims/complex_07_A_a.gif","images/stimuli/spore_stims/complex_12_A_b.gif","forced_short","","2","complex_dissimilar","images/stimuli/spore_stims/complex_12_A_b.gif","","","","",""
"","null","html-keyboard-response","37","230693","0.0-13.0-0.1","SS1618435636608","","","null","","","","","","<p><img src= images/blank.png width =""600"" height = ""600"" style=""position:fixed;top:50%; left:50%; transform: translate(-50%, -50%); border:5px solid black"">","","","","","","","",""
"","4101.974999997765","sequential-stimulus-presentation-old","38","235298","0.0-13.0-1.1","SS1618435636608","trial","","40","500","4601.974999997765","images/stimuli/spore_stims/complex_07_A_a.gif","images/stimuli/spore_stims/complex_12_A_b.gif","forced_short","","2","complex_dissimilar","images/stimuli/spore_stims/complex_07_A_a.gif","","","","",""
"","null","html-keyboard-response","39","236182","0.0-13.0-0.2","SS1618435636608","","","null","","","","","","<p><img src= images/blank.png width =""600"" height = ""600"" style=""position:fixed;top:50%; left:50%; transform: translate(-50%, -50%); border:5px solid black"">","","","","","","","",""
"","4465.409999946132","sequential-stimulus-presentation-old","40","241150","0.0-13.0-1.2","SS1618435636608","trial","","40","500","4965.409999946132","images/stimuli/spore_stims/complex_07_A_a.gif","images/stimuli/spore_stims/complex_12_A_b.gif","forced_short","","2","complex_dissimilar","images/stimuli/spore_stims/complex_12_A_b.gif","","","","",""
"","null","html-keyboard-response","41","242078","0.0-13.0-0.3","SS1618435636608","","","null","","","","","","<p><img src= images/blank.png width =""600"" height = ""600"" style=""position:fixed;top:50%; left:50%; transform: translate(-50%, -50%); border:5px solid black"">","","","","","","","",""
"","4671.469999942929","sequential-stimulus-presentation-old","42","247252","0.0-13.0-1.3","SS1618435636608","trial","","40","500","5171.469999942929","images/stimuli/spore_stims/complex_07_A_a.gif","images/stimuli/spore_stims/complex_12_A_b.gif","forced_short","","2","complex_dissimilar","images/stimuli/spore_stims/complex_12_A_b.gif","","","","",""
"","2577.240000013262","survey-multi-choice","43","249832","0.0-14.0","SS1618435636608","math_question","","","","","","","","","","","","{""Q0"":""9""}","[0]","9","",""
"","null","html-keyboard-response","44","250760","0.0-15.0-0.0","SS1618435636608","","","null","","","","","","<p><img src= images/blank.png width =""600"" height = ""600"" style=""position:fixed;top:50%; left:50%; transform: translate(-50%, -50%); border:5px solid black"">","","","","","","","",""
"","3524.83500004746","sequential-stimulus-presentation-old","45","254788","0.0-15.0-1.0","SS1618435636608","trial","","40","500","4024.83500004746","images/stimuli/spore_stims/complex_15_A_b.gif","images/stimuli/spore_stims/complex_08_A_a.gif","self_paced","","3","complex_dissimilar","images/stimuli/spore_stims/complex_08_A_a.gif","","","","",""
"","null","html-keyboard-response","46","255933","0.0-15.0-0.1","SS1618435636608","","","null","","","","","","<p><img src= images/blank.png width =""600"" height = ""600"" style=""position:fixed;top:50%; left:50%; transform: translate(-50%, -50%); border:5px solid black"">","","","","","","","",""
"","4093.9950000029057","sequential-stimulus-presentation-old","47","260531","0.0-15.0-1.1","SS1618435636608","trial","","40","500","4593.995000002906","images/stimuli/spore_stims/complex_15_A_b.gif","images/stimuli/spore_stims/complex_08_A_a.gif","self_paced","","3","complex_dissimilar","images/stimuli/spore_stims/complex_15_A_b.gif","","","","",""
"","null","html-keyboard-response","48","261409","0.0-15.0-0.2","SS1618435636608","","","null","","","","","","<p><img src= images/blank.png width =""600"" height = ""600"" style=""position:fixed;top:50%; left:50%; transform: translate(-50%, -50%); border:5px solid black"">","","","","","","","",""
"","2731.709999963641","sequential-stimulus-presentation-old","49","264643","0.0-15.0-1.2","SS1618435636608","trial","","40","500","3231.709999963641","images/stimuli/spore_stims/complex_15_A_b.gif","images/stimuli/spore_stims/complex_08_A_a.gif","self_paced","","3","complex_dissimilar","images/stimuli/spore_stims/complex_15_A_b.gif","","","","",""
"","null","html-keyboard-response","50","265778","0.0-15.0-0.3","SS1618435636608","","","null","","","","","","<p><img src= images/blank.png width =""600"" height = ""600"" style=""position:fixed;top:50%; left:50%; transform: translate(-50%, -50%); border:5px solid black"">","","","","","","","",""
"","3314.375000074506","sequential-stimulus-presentation-old","51","269596","0.0-15.0-1.3","SS1618435636608","trial","","40","500","3814.375000074506","images/stimuli/spore_stims/complex_15_A_b.gif","images/stimuli/spore_stims/complex_08_A_a.gif","self_paced","","3","complex_dissimilar","images/stimuli/spore_stims/complex_08_A_a.gif","","","","",""
"","2708.949999883771","survey-multi-choice","52","272307","0.0-16.0","SS1618435636608","math_question","","","","","","","","","","","","{""Q0"":""2""}","[0]","2","",""
"","null","html-keyboard-response","53","273588","0.0-17.0-0.0","SS1618435636608","","","null","","","","","","<p><img src= images/blank.png width =""600"" height = ""600"" style=""position:fixed;top:50%; left:50%; transform: translate(-50%, -50%); border:5px solid black"">","","","","","","","",""
"","2004.1249999776483","sequential-stimulus-presentation-old","54","276096","0.0-17.0-1.0","SS1618435636608","trial","","40","500","2504.1249999776483","images/stimuli/spore_stims/complex_12_A_a.gif","images/stimuli/spore_stims/complex_08_A_b.gif","self_paced","","4","complex_dissimilar","images/stimuli/spore_stims/complex_08_A_b.gif","","","","",""
"","null","html-keyboard-response","55","276935","0.0-17.0-0.1","SS1618435636608","","","null","","","","","","<p><img src= images/blank.png width =""600"" height = ""600"" style=""position:fixed;top:50%; left:50%; transform: translate(-50%, -50%); border:5px solid black"">","","","","","","","",""
"","2762.959999963641","sequential-stimulus-presentation-old","56","280201","0.0-17.0-1.1","SS1618435636608","trial","","40","500","3262.959999963641","images/stimuli/spore_stims/complex_12_A_a.gif","images/stimuli/spore_stims/complex_08_A_b.gif","self_paced","","4","complex_dissimilar","images/stimuli/spore_stims/complex_08_A_b.gif","","","","",""
"","null","html-keyboard-response","57","281447","0.0-17.0-0.2","SS1618435636608","","","null","","","","","","<p><img src= images/blank.png width =""600"" height = ""600"" style=""position:fixed;top:50%; left:50%; transform: translate(-50%, -50%); border:5px solid black"">","","","","","","","",""
"","2290.7349998131394","sequential-stimulus-presentation-old","58","284241","0.0-17.0-1.2","SS1618435636608","trial","","40","500","2790.7349998131394","images/stimuli/spore_stims/complex_12_A_a.gif","images/stimuli/spore_stims/complex_08_A_b.gif","self_paced","","4","complex_dissimilar","images/stimuli/spore_stims/complex_08_A_b.gif","","","","",""
"","null","html-keyboard-response","59","285073","0.0-17.0-0.3","SS1618435636608","","","null","","","","","","<p><img src= images/blank.png width =""600"" height = ""600"" style=""position:fixed;top:50%; left:50%; transform: translate(-50%, -50%); border:5px solid black"">","","","","","","","",""
"","990.0849999394268","sequential-stimulus-presentation-old","60","286566","0.0-17.0-1.3","SS1618435636608","trial","","40","500","1490.0849999394268","images/stimuli/spore_stims/complex_12_A_a.gif","images/stimuli/spore_stims/complex_08_A_b.gif","self_paced","","4","complex_dissimilar","images/stimuli/spore_stims/complex_08_A_b.gif","","","","",""
"","null","html-keyboard-response","61","287383","0.0-17.0-0.4","SS1618435636608","","","null","","","","","","<p><img src= images/blank.png width =""600"" height = ""600"" style=""position:fixed;top:50%; left:50%; transform: translate(-50%, -50%); border:5px solid black"">","","","","","","","",""
"","2160.4950001928955","sequential-stimulus-presentation-old","62","290046","0.0-17.0-1.4","SS1618435636608","trial","","40","500","2660.4950001928955","images/stimuli/spore_stims/complex_12_A_a.gif","images/stimuli/spore_stims/complex_08_A_b.gif","self_paced","","4","complex_dissimilar","images/stimuli/spore_stims/complex_12_A_a.gif","","","","",""
"","null","html-keyboard-response","63","291317","0.0-17.0-0.5","SS1618435636608","","","null","","","","","","<p><img src= images/blank.png width =""600"" height = ""600"" style=""position:fixed;top:50%; left:50%; transform: translate(-50%, -50%); border:5px solid black"">","","","","","","","",""
"","1806.1000001616776","sequential-stimulus-presentation-old","64","293627","0.0-17.0-1.5","SS1618435636608","trial","","40","500","2306.1000001616776","images/stimuli/spore_stims/complex_12_A_a.gif","images/stimuli/spore_stims/complex_08_A_b.gif","self_paced","","4","complex_dissimilar","images/stimuli/spore_stims/complex_12_A_a.gif","","","","",""
"","2706.8250000011176","survey-multi-choice","65","296336","0.0-18.0","SS1618435636608","math_question","","","","","","","","","","","","{""Q0"":""16""}","[0]","16","",""
"","null","html-keyboard-response","66","297374","0.0-19.0-0.0","SS1618435636608","","","null","","","","","","<p><img src= images/blank.png width =""600"" height = ""600"" style=""position:fixed;top:50%; left:50%; transform: translate(-50%, -50%); border:5px solid black"">","","","","","","","",""
"","2218.7749999575317","sequential-stimulus-presentation-old","67","300096","0.0-19.0-1.0","SS1618435636608","trial","","40","500","2718.7749999575317","images/stimuli/spore_stims/simple_18_A_b.gif","images/stimuli/spore_stims/simple_03_A_a.gif","self_paced","","5","simple_dissimilar","images/stimuli/spore_stims/simple_03_A_a.gif","","","","",""
"","null","html-keyboard-response","68","301235","0.0-19.0-0.1","SS1618435636608","","","null","","","","","","<p><img src= images/blank.png width =""600"" height = ""600"" style=""position:fixed;top:50%; left:50%; transform: translate(-50%, -50%); border:5px solid black"">","","","","","","","",""
"","5212.400000076741","sequential-stimulus-presentation-old","69","306953","0.0-19.0-1.1","SS1618435636608","trial","","40","500","5712.400000076741","images/stimuli/spore_stims/simple_18_A_b.gif","images/stimuli/spore_stims/simple_03_A_a.gif","self_paced","","5","simple_dissimilar","images/stimuli/spore_stims/simple_03_A_a.gif","","","","",""
"","null","html-keyboard-response","70","308247","0.0-19.0-0.2","SS1618435636608","","","null","","","","","","<p><img src= images/blank.png width =""600"" height = ""600"" style=""position:fixed;top:50%; left:50%; transform: translate(-50%, -50%); border:5px solid black"">","","","","","","","",""
"","3119.6449999697506","sequential-stimulus-presentation-old","71","311871","0.0-19.0-1.2","SS1618435636608","trial","","40","500","3619.6449999697506","images/stimuli/spore_stims/simple_18_A_b.gif","images/stimuli/spore_stims/simple_03_A_a.gif","self_paced","","5","simple_dissimilar","images/stimuli/spore_stims/simple_03_A_a.gif","","","","",""
"","null","html-keyboard-response","72","312877","0.0-19.0-0.3","SS1618435636608","","","null","","","","","","<p><img src= images/blank.png width =""600"" height = ""600"" style=""position:fixed;top:50%; left:50%; transform: translate(-50%, -50%); border:5px solid black"">","","","","","","","",""
"","3841.194999869913","sequential-stimulus-presentation-old","73","317222","0.0-19.0-1.3","SS1618435636608","trial","","40","500","4341.194999869913","images/stimuli/spore_stims/simple_18_A_b.gif","images/stimuli/spore_stims/simple_03_A_a.gif","self_paced","","5","simple_dissimilar","images/stimuli/spore_stims/simple_03_A_a.gif","","","","",""
"","null","html-keyboard-response","74","318195","0.0-19.0-0.4","SS1618435636608","","","null","","","","","","<p><img src= images/blank.png width =""600"" height = ""600"" style=""position:fixed;top:50%; left:50%; transform: translate(-50%, -50%); border:5px solid black"">","","","","","","","",""
"","3400.0750000122935","sequential-stimulus-presentation-old","75","322099","0.0-19.0-1.4","SS1618435636608","trial","","40","500","3900.0750000122935","images/stimuli/spore_stims/simple_18_A_b.gif","images/stimuli/spore_stims/simple_03_A_a.gif","self_paced","","5","simple_dissimilar","images/stimuli/spore_stims/simple_03_A_a.gif","","","","",""
"","null","html-keyboard-response","76","323071","0.0-19.0-0.5","SS1618435636608","","","null","","","","","","<p><img src= images/blank.png width =""600"" height = ""600"" style=""position:fixed;top:50%; left:50%; transform: translate(-50%, -50%); border:5px solid black"">","","","","","","","",""
"","4042.620000196621","sequential-stimulus-presentation-old","77","327616","0.0-19.0-1.5","SS1618435636608","trial","","40","500","4542.620000196621","images/stimuli/spore_stims/simple_18_A_b.gif","images/stimuli/spore_stims/simple_03_A_a.gif","self_paced","","5","simple_dissimilar","images/stimuli/spore_stims/simple_18_A_b.gif","","","","",""
"","3643.415000056848","survey-multi-choice","78","331262","0.0-20.0","SS1618435636608","math_question","","","","","","","","","","","","{""Q0"":""13""}","[0]","13","",""
"","null","html-keyboard-response","79","332520","0.0-21.0-0.0","SS1618435636608","","","null","","","","","","<p><img src= images/blank.png width =""600"" height = ""600"" style=""position:fixed;top:50%; left:50%; transform: translate(-50%, -50%); border:5px solid black"">","","","","","","","",""
"","767.9449999704957","sequential-stimulus-presentation-old","80","333341","0.0-21.0-1.0","SS1618435636608","trial","","40","500","1267.9449999704957","images/stimuli/spore_stims/complex_16_A_b.gif","images/stimuli/spore_stims/complex_09_A_a.gif","forced_short","","6","complex_dissimilar","images/stimuli/spore_stims/complex_09_A_a.gif","","","","",""
"","null","html-keyboard-response","81","334427","0.0-21.0-0.1","SS1618435636608","","","null","","","","","","<p><img src= images/blank.png width =""600"" height = ""600"" style=""position:fixed;top:50%; left:50%; transform: translate(-50%, -50%); border:5px solid black"">","","","","","","","",""
"","2309.5899999607354","sequential-stimulus-presentation-old","82","337244","0.0-21.0-1.1","SS1618435636608","trial","","40","500","2809.5899999607354","images/stimuli/spore_stims/complex_16_A_b.gif","images/stimuli/spore_stims/complex_09_A_a.gif","forced_short","","6","complex_dissimilar","images/stimuli/spore_stims/complex_09_A_a.gif","","","","",""
"","null","html-keyboard-response","83","338503","0.0-21.0-0.2","SS1618435636608","","","null","","","","","","<p><img src= images/blank.png width =""600"" height = ""600"" style=""position:fixed;top:50%; left:50%; transform: translate(-50%, -50%); border:5px solid black"">","","","","","","","",""
"","3073.300000047311","sequential-stimulus-presentation-old","84","342081","0.0-21.0-1.2","SS1618435636608","trial","","40","500","3573.300000047311","images/stimuli/spore_stims/complex_16_A_b.gif","images/stimuli/spore_stims/complex_09_A_a.gif","forced_short","","6","complex_dissimilar","images/stimuli/spore_stims/complex_09_A_a.gif","","","","",""
"","null","html-keyboard-response","85","343193","0.0-21.0-0.3","SS1618435636608","","","null","","","","","","<p><img src= images/blank.png width =""600"" height = ""600"" style=""position:fixed;top:50%; left:50%; transform: translate(-50%, -50%); border:5px solid black"">","","","","","","","",""
"","3285.3300001006573","sequential-stimulus-presentation-old","86","346983","0.0-21.0-1.3","SS1618435636608","trial","","40","500","3785.3300001006573","images/stimuli/spore_stims/complex_16_A_b.gif","images/stimuli/spore_stims/complex_09_A_a.gif","forced_short","","6","complex_dissimilar","images/stimuli/spore_stims/complex_09_A_a.gif","","","","",""
"","null","html-keyboard-response","87","347866","0.0-21.0-0.4","SS1618435636608","","","null","","","","","","<p><img src= images/blank.png width =""600"" height = ""600"" style=""position:fixed;top:50%; left:50%; transform: translate(-50%, -50%); border:5px solid black"">","","","","","","","",""
"","3497.285000048578","sequential-stimulus-presentation-old","88","351867","0.0-21.0-1.4","SS1618435636608","trial","","40","500","3997.285000048578","images/stimuli/spore_stims/complex_16_A_b.gif","images/stimuli/spore_stims/complex_09_A_a.gif","forced_short","","6","complex_dissimilar","images/stimuli/spore_stims/complex_09_A_a.gif","","","","",""
"","null","html-keyboard-response","89","353164","0.0-21.0-0.5","SS1618435636608","","","null","","","","","","<p><img src= images/blank.png width =""600"" height = ""600"" style=""position:fixed;top:50%; left:50%; transform: translate(-50%, -50%); border:5px solid black"">","","","","","","","",""
"","4066.090000094846","sequential-stimulus-presentation-old","90","357733","0.0-21.0-1.5","SS1618435636608","trial","","40","500","4566.090000094846","images/stimuli/spore_stims/complex_16_A_b.gif","images/stimuli/spore_stims/complex_09_A_a.gif","forced_short","","6","complex_dissimilar","images/stimuli/spore_stims/complex_16_A_b.gif","","","","",""
"","2638.1699999328703","survey-multi-choice","91","360374","0.0-22.0","SS1618435636608","math_question","","","","","","","","","","","","{""Q0"":""10""}","[0]","10","",""
"","null","html-keyboard-response","92","361446","0.0-23.0-0.0","SS1618435636608","","","null","","","","","","<p><img src= images/blank.png width =""600"" height = ""600"" style=""position:fixed;top:50%; left:50%; transform: translate(-50%, -50%); border:5px solid black"">","","","","","","","",""
"","595.3100000042468","sequential-stimulus-presentation-old","93","362095","0.0-23.0-1.0","SS1618435636608","trial","","40","500","1095.3100000042468","images/stimuli/spore_stims/simple_07_A_a.gif","images/stimuli/spore_stims/simple_05_A_b.gif","forced_short","","7","simple_dissimilar","images/stimuli/spore_stims/simple_05_A_b.gif","","","","",""
"","null","html-keyboard-response","94","363162","0.0-23.0-0.1","SS1618435636608","","","null","","","","","","<p><img src= images/blank.png width =""600"" height = ""600"" style=""position:fixed;top:50%; left:50%; transform: translate(-50%, -50%); border:5px solid black"">","","","","","","","",""
"","1513.2999999914318","sequential-stimulus-presentation-old","95","365178","0.0-23.0-1.1","SS1618435636608","trial","","40","500","2013.2999999914318","images/stimuli/spore_stims/simple_07_A_a.gif","images/stimuli/spore_stims/simple_05_A_b.gif","forced_short","","7","simple_dissimilar","images/stimuli/spore_stims/simple_07_A_a.gif","","","","",""
"","null","html-keyboard-response","96","366364","0.0-23.0-0.2","SS1618435636608","","","null","","","","","","<p><img src= images/blank.png width =""600"" height = ""600"" style=""position:fixed;top:50%; left:50%; transform: translate(-50%, -50%); border:5px solid black"">","","","","","","","",""
"","1409.6250000875443","sequential-stimulus-presentation-old","97","368277","0.0-23.0-1.2","SS1618435636608","trial","","40","500","1909.6250000875443","images/stimuli/spore_stims/simple_07_A_a.gif","images/stimuli/spore_stims/simple_05_A_b.gif","forced_short","","7","simple_dissimilar","images/stimuli/spore_stims/simple_07_A_a.gif","","","","",""
"","null","html-keyboard-response","98","369133","0.0-23.0-0.3","SS1618435636608","","","null","","","","","","<p><img src= images/blank.png width =""600"" height = ""600"" style=""position:fixed;top:50%; left:50%; transform: translate(-50%, -50%); border:5px solid black"">","","","","","","","",""
"","1806.624999968335","sequential-stimulus-presentation-old","99","371443","0.0-23.0-1.3","SS1618435636608","trial","","40","500","2306.624999968335","images/stimuli/spore_stims/simple_07_A_a.gif","images/stimuli/spore_stims/simple_05_A_b.gif","forced_short","","7","simple_dissimilar","images/stimuli/spore_stims/simple_05_A_b.gif","","","","",""
"","2563.6199999134988","survey-multi-choice","100","374009","0.0-24.0","SS1618435636608","math_question","","","","","","","","","","","","{""Q0"":""9""}","[0]","9","",""
"","null","html-keyboard-response","101","375004","0.0-25.0-0.0","SS1618435636608","","","null","","","","","","<p><img src= images/blank.png width =""600"" height = ""600"" style=""position:fixed;top:50%; left:50%; transform: translate(-50%, -50%); border:5px solid black"">","","","","","","","",""
"","10.925000067800283","sequential-stimulus-presentation-old","102","380019","0.0-25.0-1.0","SS1618435636608","trial","","40","500","510.9250000678003","images/stimuli/spore_stims/complex_05_A_a.gif","images/stimuli/spore_stims/complex_07_A_b.gif","forced_long","","8","complex_dissimilar","images/stimuli/spore_stims/complex_07_A_b.gif","","","","",""
"","null","html-keyboard-response","103","381196","0.0-25.0-0.1","SS1618435636608","","","null","","","","","","<p><img src= images/blank.png width =""600"" height = ""600"" style=""position:fixed;top:50%; left:50%; transform: translate(-50%, -50%); border:5px solid black"">","","","","","","","",""
"","3812.8649999853224","sequential-stimulus-presentation-old","104","385511","0.0-25.0-1.1","SS1618435636608","trial","","40","500","4312.864999985322","images/stimuli/spore_stims/complex_05_A_a.gif","images/stimuli/spore_stims/complex_07_A_b.gif","forced_long","","8","complex_dissimilar","images/stimuli/spore_stims/complex_05_A_a.gif","","","","",""
"","null","html-keyboard-response","105","386633","0.0-25.0-0.2","SS1618435636608","","","null","","","","","","<p><img src= images/blank.png width =""600"" height = ""600"" style=""position:fixed;top:50%; left:50%; transform: translate(-50%, -50%); border:5px solid black"">","","","","","","","",""
"","4995.499999960884","sequential-stimulus-presentation-old","106","392133","0.0-25.0-1.2","SS1618435636608","trial","","40","500","5495.499999960884","images/stimuli/spore_stims/complex_05_A_a.gif","images/stimuli/spore_stims/complex_07_A_b.gif","forced_long","","8","complex_dissimilar","images/stimuli/spore_stims/complex_07_A_b.gif","","","","",""
"","null","html-keyboard-response","107","393052","0.0-25.0-0.3","SS1618435636608","","","null","","","","","","<p><img src= images/blank.png width =""600"" height = ""600"" style=""position:fixed;top:50%; left:50%; transform: translate(-50%, -50%); border:5px solid black"">","","","","","","","",""
"","2406.1150001361966","sequential-stimulus-presentation-old","108","395963","0.0-25.0-1.3","SS1618435636608","trial","","40","500","2906.1150001361966","images/stimuli/spore_stims/complex_05_A_a.gif","images/stimuli/spore_stims/complex_07_A_b.gif","forced_long","","8","complex_dissimilar","images/stimuli/spore_stims/complex_05_A_a.gif","","","","",""
"","null","html-keyboard-response","109","397104","0.0-25.0-0.4","SS1618435636608","","","null","","","","","","<p><img src= images/blank.png width =""600"" height = ""600"" style=""position:fixed;top:50%; left:50%; transform: translate(-50%, -50%); border:5px solid black"">","","","","","","","",""
"","2125.4900000058115","sequential-stimulus-presentation-old","110","399733","0.0-25.0-1.4","SS1618435636608","trial","","40","500","2625.4900000058115","images/stimuli/spore_stims/complex_05_A_a.gif","images/stimuli/spore_stims/complex_07_A_b.gif","forced_long","","8","complex_dissimilar","images/stimuli/spore_stims/complex_07_A_b.gif","","","","",""
"","2701.05000003241","survey-multi-choice","111","402437","0.0-26.0","SS1618435636608","math_question","","","","","","","","","","","","{""Q0"":""9""}","[0]","9","",""
"","null","html-keyboard-response","112","403444","0.0-27.0-0.0","SS1618435636608","","","null","","","","","","<p><img src= images/blank.png width =""600"" height = ""600"" style=""position:fixed;top:50%; left:50%; transform: translate(-50%, -50%); border:5px solid black"">","","","","","","","",""
"","4064.960000105202","sequential-stimulus-presentation-old","113","412513","0.0-27.0-1.0","SS1618435636608","trial","","40","500","4564.960000105202","images/stimuli/spore_stims/complex_11_A_a.gif","images/stimuli/spore_stims/complex_09_A_b.gif","forced_long","","9","complex_dissimilar","images/stimuli/spore_stims/complex_09_A_b.gif","","","","",""
"","null","html-keyboard-response","114","413540","0.0-27.0-0.1","SS1618435636608","","","null","","","","","","<p><img src= images/blank.png width =""600"" height = ""600"" style=""position:fixed;top:50%; left:50%; transform: translate(-50%, -50%); border:5px solid black"">","","","","","","","",""
"","1488.6249999981374","sequential-stimulus-presentation-old","115","415533","0.0-27.0-1.1","SS1618435636608","trial","","40","500","1988.6249999981374","images/stimuli/spore_stims/complex_11_A_a.gif","images/stimuli/spore_stims/complex_09_A_b.gif","forced_long","","9","complex_dissimilar","images/stimuli/spore_stims/complex_09_A_b.gif","","","","",""
"","null","html-keyboard-response","116","416338","0.0-27.0-0.2","SS1618435636608","","","null","","","","","","<p><img src= images/blank.png width =""600"" height = ""600"" style=""position:fixed;top:50%; left:50%; transform: translate(-50%, -50%); border:5px solid black"">","","","","","","","",""
"","100.49000009894371","sequential-stimulus-presentation-old","117","416942","0.0-27.0-1.2","SS1618435636608","trial","","40","500","600.4900000989437","images/stimuli/spore_stims/complex_11_A_a.gif","images/stimuli/spore_stims/complex_09_A_b.gif","forced_long","","9","complex_dissimilar","images/stimuli/spore_stims/complex_09_A_b.gif","","","","",""
"","null","html-keyboard-response","118","418184","0.0-27.0-0.3","SS1618435636608","","","null","","","","","","<p><img src= images/blank.png width =""600"" height = ""600"" style=""position:fixed;top:50%; left:50%; transform: translate(-50%, -50%); border:5px solid black"">","","","","","","","",""
"","1640.974999871105","sequential-stimulus-presentation-old","119","420329","0.0-27.0-1.3","SS1618435636608","trial","","40","500","2140.974999871105","images/stimuli/spore_stims/complex_11_A_a.gif","images/stimuli/spore_stims/complex_09_A_b.gif","forced_long","","9","complex_dissimilar","images/stimuli/spore_stims/complex_09_A_b.gif","","","","",""
"","null","html-keyboard-response","120","421278","0.0-27.0-0.4","SS1618435636608","","","null","","","","","","<p><img src= images/blank.png width =""600"" height = ""600"" style=""position:fixed;top:50%; left:50%; transform: translate(-50%, -50%); border:5px solid black"">","","","","","","","",""
"","1123.7300001084805","sequential-stimulus-presentation-old","121","422906","0.0-27.0-1.4","SS1618435636608","trial","","40","500","1623.7300001084805","images/stimuli/spore_stims/complex_11_A_a.gif","images/stimuli/spore_stims/complex_09_A_b.gif","forced_long","","9","complex_dissimilar","images/stimuli/spore_stims/complex_09_A_b.gif","","","","",""
"","null","html-keyboard-response","122","423942","0.0-27.0-0.5","SS1618435636608","","","null","","","","","","<p><img src= images/blank.png width =""600"" height = ""600"" style=""position:fixed;top:50%; left:50%; transform: translate(-50%, -50%); border:5px solid black"">","","","","","","","",""
"","1043.654999928549","sequential-stimulus-presentation-old","123","425490","0.0-27.0-1.5","SS1618435636608","trial","","40","500","1543.654999928549","images/stimuli/spore_stims/complex_11_A_a.gif","images/stimuli/spore_stims/complex_09_A_b.gif","forced_long","","9","complex_dissimilar","images/stimuli/spore_stims/complex_09_A_b.gif","","","","",""
"","2661.240000044927","survey-multi-choice","124","428153","0.0-28.0","SS1618435636608","math_question","","","","","","","","","","","","{""Q0"":""12""}","[0]","12","",""
"","null","html-keyboard-response","125","429314","0.0-29.0-0.0","SS1618435636608","","","null","","","","","","<p><img src= images/blank.png width =""600"" height = ""600"" style=""position:fixed;top:50%; left:50%; transform: translate(-50%, -50%); border:5px solid black"">","","","","","","","",""
"","1547.770000062883","sequential-stimulus-presentation-old","126","435865","0.0-29.0-1.0","SS1618435636608","trial","","40","500","2047.770000062883","images/stimuli/spore_stims/simple_01_A_b.gif","images/stimuli/spore_stims/simple_16_A_a.gif","forced_long","","10","simple_dissimilar","images/stimuli/spore_stims/simple_16_A_a.gif","","","","",""
"","null","html-keyboard-response","127","436924","0.0-29.0-0.1","SS1618435636608","","","null","","","","","","<p><img src= images/blank.png width =""600"" height = ""600"" style=""position:fixed;top:50%; left:50%; transform: translate(-50%, -50%); border:5px solid black"">","","","","","","","",""
"","1466.8300000485033","sequential-stimulus-presentation-old","128","438894","0.0-29.0-1.1","SS1618435636608","trial","","40","500","1966.8300000485033","images/stimuli/spore_stims/simple_01_A_b.gif","images/stimuli/spore_stims/simple_16_A_a.gif","forced_long","","10","simple_dissimilar","images/stimuli/spore_stims/simple_16_A_a.gif","","","","",""
"","null","html-keyboard-response","129","439713","0.0-29.0-0.2","SS1618435636608","","","null","","","","","","<p><img src= images/blank.png width =""600"" height = ""600"" style=""position:fixed;top:50%; left:50%; transform: translate(-50%, -50%); border:5px solid black"">","","","","","","","",""
"","649.730000179261","sequential-stimulus-presentation-old","130","440867","0.0-29.0-1.2","SS1618435636608","trial","","40","500","1149.730000179261","images/stimuli/spore_stims/simple_01_A_b.gif","images/stimuli/spore_stims/simple_16_A_a.gif","forced_long","","10","simple_dissimilar","images/stimuli/spore_stims/simple_16_A_a.gif","","","","",""
"","null","html-keyboard-response","131","441992","0.0-29.0-0.3","SS1618435636608","","","null","","","","","","<p><img src= images/blank.png width =""600"" height = ""600"" style=""position:fixed;top:50%; left:50%; transform: translate(-50%, -50%); border:5px solid black"">","","","","","","","",""
"","1429.035000037402","sequential-stimulus-presentation-old","132","443924","0.0-29.0-1.3","SS1618435636608","trial","","40","500","1929.035000037402","images/stimuli/spore_stims/simple_01_A_b.gif","images/stimuli/spore_stims/simple_16_A_a.gif","forced_long","","10","simple_dissimilar","images/stimuli/spore_stims/simple_01_A_b.gif","","","","",""
"","null","html-keyboard-response","133","445115","0.0-29.0-0.4","SS1618435636608","","","null","","","","","","<p><img src= images/blank.png width =""600"" height = ""600"" style=""position:fixed;top:50%; left:50%; transform: translate(-50%, -50%); border:5px solid black"">","","","","","","","",""
"","1671.1949999444187","sequential-stimulus-presentation-old","134","447291","0.0-29.0-1.4","SS1618435636608","trial","","40","500","2171.1949999444187","images/stimuli/spore_stims/simple_01_A_b.gif","images/stimuli/spore_stims/simple_16_A_a.gif","forced_long","","10","simple_dissimilar","images/stimuli/spore_stims/simple_16_A_a.gif","","","","",""
"","null","html-keyboard-response","135","448350","0.0-29.0-0.5","SS1618435636608","","","null","","","","","","<p><img src= images/blank.png width =""600"" height = ""600"" style=""position:fixed;top:50%; left:50%; transform: translate(-50%, -50%); border:5px solid black"">","","","","","","","",""
"","3563.910000026226","sequential-stimulus-presentation-old","136","452417","0.0-29.0-1.5","SS1618435636608","trial","","40","500","4063.910000026226","images/stimuli/spore_stims/simple_01_A_b.gif","images/stimuli/spore_stims/simple_16_A_a.gif","forced_long","","10","simple_dissimilar","images/stimuli/spore_stims/simple_16_A_a.gif","","","","",""
"","3951.420000055805","survey-multi-choice","137","456372","0.0-30.0","SS1618435636608","math_question","","","","","","","","","","","","{""Q0"":""15""}","[0]","15","",""
"","null","html-keyboard-response","138","457576","0.0-31.0-0.0","SS1618435636608","","","null","","","","","","<p><img src= images/blank.png width =""600"" height = ""600"" style=""position:fixed;top:50%; left:50%; transform: translate(-50%, -50%); border:5px solid black"">","","","","","","","",""
"","1591.4699998684227","sequential-stimulus-presentation-old","139","459221","0.0-31.0-1.0","SS1618435636608","trial","","40","500","2091.4699998684227","images/stimuli/spore_stims/simple_12_A_a.gif","images/stimuli/spore_stims/simple_17_A_b.gif","forced_short","","11","simple_dissimilar","images/stimuli/spore_stims/simple_17_A_b.gif","","","","",""
"","null","html-keyboard-response","140","460091","0.0-31.0-0.1","SS1618435636608","","","null","","","","","","<p><img src= images/blank.png width =""600"" height = ""600"" style=""position:fixed;top:50%; left:50%; transform: translate(-50%, -50%); border:5px solid black"">","","","","","","","",""
"","2833.119999850169","sequential-stimulus-presentation-old","141","463428","0.0-31.0-1.1","SS1618435636608","trial","","40","500","3333.119999850169","images/stimuli/spore_stims/simple_12_A_a.gif","images/stimuli/spore_stims/simple_17_A_b.gif","forced_short","","11","simple_dissimilar","images/stimuli/spore_stims/simple_17_A_b.gif","","","","",""
"","null","html-keyboard-response","142","464469","0.0-31.0-0.2","SS1618435636608","","","null","","","","","","<p><img src= images/blank.png width =""600"" height = ""600"" style=""position:fixed;top:50%; left:50%; transform: translate(-50%, -50%); border:5px solid black"">","","","","","","","",""
"","3606.385000050068","sequential-stimulus-presentation-old","143","468579","0.0-31.0-1.2","SS1618435636608","trial","","40","500","4106.385000050068","images/stimuli/spore_stims/simple_12_A_a.gif","images/stimuli/spore_stims/simple_17_A_b.gif","forced_short","","11","simple_dissimilar","images/stimuli/spore_stims/simple_17_A_b.gif","","","","",""
"","null","html-keyboard-response","144","469538","0.0-31.0-0.3","SS1618435636608","","","null","","","","","","<p><img src= images/blank.png width =""600"" height = ""600"" style=""position:fixed;top:50%; left:50%; transform: translate(-50%, -50%); border:5px solid black"">","","","","","","","",""
"","5444.8750000447035","sequential-stimulus-presentation-old","145","475487","0.0-31.0-1.3","SS1618435636608","trial","","40","500","5944.8750000447035","images/stimuli/spore_stims/simple_12_A_a.gif","images/stimuli/spore_stims/simple_17_A_b.gif","forced_short","","11","simple_dissimilar","images/stimuli/spore_stims/simple_17_A_b.gif","","","","",""
"","null","html-keyboard-response","146","476660","0.0-31.0-0.4","SS1618435636608","","","null","","","","","","<p><img src= images/blank.png width =""600"" height = ""600"" style=""position:fixed;top:50%; left:50%; transform: translate(-50%, -50%); border:5px solid black"">","","","","","","","",""
"","3060.1550000719726","sequential-stimulus-presentation-old","147","480224","0.0-31.0-1.4","SS1618435636608","trial","","40","500","3560.1550000719726","images/stimuli/spore_stims/simple_12_A_a.gif","images/stimuli/spore_stims/simple_17_A_b.gif","forced_short","","11","simple_dissimilar","images/stimuli/spore_stims/simple_17_A_b.gif","","","","",""
"","null","html-keyboard-response","148","481195","0.0-31.0-0.5","SS1618435636608","","","null","","","","","","<p><img src= images/blank.png width =""600"" height = ""600"" style=""position:fixed;top:50%; left:50%; transform: translate(-50%, -50%); border:5px solid black"">","","","","","","","",""
"","3880.409999983385","sequential-stimulus-presentation-old","149","485580","0.0-31.0-1.5","SS1618435636608","trial","","40","500","4380.409999983385","images/stimuli/spore_stims/simple_12_A_a.gif","images/stimuli/spore_stims/simple_17_A_b.gif","forced_short","","11","simple_dissimilar","images/stimuli/spore_stims/simple_17_A_b.gif","","","","",""
"[{""page_index"":0,""viewing_time"":6605.054999934509}]","6605.319999856874","instructions","150","492187","0.0-32.0","SS1618435636608","instructions","","","","","","","","","","","","","","","",""
"","8752.855000086129","survey-likert","151","500944","0.0-33.0","SS1618435636608","similarity_question","","","","","","","","","","","","{""Q0"":0}","[0]","","images/stimuli/spore_stims/complex_07_A_b.gif","images/stimuli/spore_stims/complex_05_A_a.gif"
"","5192.904999945313","survey-likert","152","506142","0.0-34.0","SS1618435636608","similarity_question","","","","","","","","","","","","{""Q0"":0}","[0]","","images/stimuli/spore_stims/simple_07_A_a.gif","images/stimuli/spore_stims/simple_05_A_b.gif"
"","4621.030000038445","survey-likert","153","510767","0.0-35.0","SS1618435636608","similarity_question","","","","","","","","","","","","{""Q0"":0}","[0]","","images/stimuli/spore_stims/simple_03_A_b.gif","images/stimuli/spore_stims/simple_13_A_a.gif"
"","8622.69000010565","survey-likert","154","519393","0.0-36.0","SS1618435636608","similarity_question","","","","","","","","","","","","{""Q0"":0}","[0]","","images/stimuli/spore_stims/complex_08_A_b.gif","images/stimuli/spore_stims/complex_12_A_a.gif"
"","6102.85499994643","survey-likert","155","525500","0.0-37.0","SS1618435636608","similarity_question","","","","","","","","","","","","{""Q0"":0}","[0]","","images/stimuli/spore_stims/complex_15_A_b.gif","images/stimuli/spore_stims/complex_08_A_a.gif"
"","5442.634999984875","survey-likert","156","530946","0.0-38.0","SS1618435636608","similarity_question","","","","","","","","","","","","{""Q0"":0}","[0]","","images/stimuli/spore_stims/simple_18_A_b.gif","images/stimuli/spore_stims/simple_03_A_a.gif"
"","5804.860000032932","survey-likert","157","536755","0.0-39.0","SS1618435636608","similarity_question","","","","","","","","","","","","{""Q0"":0}","[0]","","images/stimuli/spore_stims/complex_09_A_a.gif","images/stimuli/spore_stims/complex_16_A_b.gif"
"","4196.020000148565","survey-likert","158","540955","0.0-40.0","SS1618435636608","similarity_question","","","","","","","","","","","","{""Q0"":0}","[0]","","images/stimuli/spore_stims/complex_11_A_a.gif","images/stimuli/spore_stims/complex_09_A_b.gif"
"","7282.439999980852","survey-likert","159","548241","0.0-41.0","SS1618435636608","similarity_question","","","","","","","","","","","","{""Q0"":1}","[0]","","images/stimuli/spore_stims/simple_16_A_a.gif","images/stimuli/spore_stims/simple_01_A_b.gif"
"","3843.434999929741","survey-likert","160","552088","0.0-42.0","SS1618435636608","similarity_question","","","","","","","","","","","","{""Q0"":0}","[0]","","images/stimuli/spore_stims/complex_12_A_b.gif","images/stimuli/spore_stims/complex_07_A_a.gif"
"","2974.4500000961125","survey-likert","161","555067","0.0-43.0","SS1618435636608","similarity_question","","","","","","","","","","","","{""Q0"":1}","[0]","","images/stimuli/spore_stims/simple_09_A_b.gif","images/stimuli/spore_stims/simple_08_A_a.gif"
"","9300.120000028983","survey-likert","162","564370","0.0-44.0","SS1618435636608","similarity_question","","","","","","","","","","","","{""Q0"":2}","[0]","","images/stimuli/spore_stims/simple_12_A_a.gif","images/stimuli/spore_stims/simple_17_A_b.gif"
"[{""page_index"":0,""viewing_time"":5639.840000076219}]","5640.184999909252","instructions","163","570014","0.0-45.0","SS1618435636608","instructions","","","","","","","","","","","","","","","",""
"","3969.8949998710304","survey-likert","164","573988","0.0-46.0","SS1618435636608","","","","","","","","","images/stimuli/spore_stims/simple_03_A_b.gif","","","","{""Q0"":0}","[0]","","",""
"","2036.9700000155717","survey-likert","165","576028","0.0-47.0","SS1618435636608","","","","","","","","","images/stimuli/spore_stims/simple_16_A_a.gif","","","","{""Q0"":0}","[0]","","",""
"","3982.3050000704825","survey-likert","166","580014","0.0-48.0","SS1618435636608","","","","","","","","","images/stimuli/spore_stims/complex_15_A_b.gif","","","","{""Q0"":5}","[0]","","",""
"","2701.115000061691","survey-likert","167","582719","0.0-49.0","SS1618435636608","","","","","","","","","images/stimuli/spore_stims/complex_11_A_a.gif","","","","{""Q0"":5}","[0]","","",""
"","2349.415000062436","survey-likert","168","585072","0.0-50.0","SS1618435636608","","","","","","","","","images/stimuli/spore_stims/complex_07_A_a.gif","","","","{""Q0"":4}","[0]","","",""
"","2231.3250000588596","survey-likert","169","587307","0.0-51.0","SS1618435636608","","","","","","","","","images/stimuli/spore_stims/simple_03_A_a.gif","","","","{""Q0"":0}","[0]","","",""
"","5770.679999841377","survey-likert","170","593081","0.0-52.0","SS1618435636608","","","","","","","","","images/stimuli/spore_stims/complex_12_A_a.gif","","","","{""Q0"":5}","[0]","","",""
"","2687.195000005886","survey-likert","171","595773","0.0-53.0","SS1618435636608","","","","","","","","","images/stimuli/spore_stims/simple_07_A_a.gif","","","","{""Q0"":0}","[0]","","",""
"","4934.3599998392165","survey-likert","172","600710","0.0-54.0","SS1618435636608","","","","","","","","","images/stimuli/spore_stims/complex_09_A_a.gif","","","","{""Q0"":4}","[0]","","",""
"","2109.6650001127273","survey-likert","173","602824","0.0-55.0","SS1618435636608","","","","","","","","","images/stimuli/spore_stims/complex_05_A_a.gif","","","","{""Q0"":4}","[0]","","",""
"","2735.704999882728","survey-likert","174","605564","0.0-56.0","SS1618435636608","","","","","","","","","images/stimuli/spore_stims/simple_17_A_b.gif","","","","{""Q0"":0}","[0]","","",""
"","2032.2049998212606","survey-likert","175","607600","0.0-57.0","SS1618435636608","","","","","","","","","images/stimuli/spore_stims/simple_08_A_a.gif","","","","{""Q0"":0}","[0]","","",""
"[{""page_index"":0,""viewing_time"":1399.9149999581277}]","1400.1799998804927","instructions","176","609003","0.0-58.0","SS1618435636608","instructions","","","","","","","","","","","","","","","",""
"","2950.4899999592453","demog-age","177","611960","0.0-59.0","SS1618435636608","","","","","","","","","","","","","{""age"":""25""}","","","",""
"","2608.119999989867","demog-ethnic-US","178","614574","0.0-60.0","SS1618435636608","","","","","","","","","","","","","{""ethnicity"":[""Asian""]}","[0]","","",""
"","5959.990000119433","demog-gender-and-education","179","620538","0.0-61.0","SS1618435636608","","","","","","","","","","","","","{""gender"":""Male"",""education"":""Bachelor's Degree""}","[0,1]","","",""
"","69740.59500009753","survey-text","180","690286","0.0-62.0","SS1618435636608","feedback","","","","","","","","","","","","{""Q0"":""There was no issue""}","","","",""
"[{""page_index"":0,""viewing_time"":1445.5250001046807}]","1445.9049999713898","instructions","181","691735","0.0-63.0","SS1618435636608","instructions","","","","","","","","","","","","","","","",""
