"view_history","rt","trial_type","trial_index","time_elapsed","internal_node_id","subject","stimulus_type","trial_stimulus","key_press","minimum_viewing_duration","trial_looking_time","block_deviant","block_background","exposure_type","stimulus","block_number","block_type","stimulus_displayed","responses","question_order","math_correct_answer","stimulus_left","stimulus_right"
"[{""page_index"":0,""viewing_time"":1622.8300000002491}]","1623.2199999940349","instructions","0","1625","0.0-0.0","SS1618365188452","","","","","","","","","","","","","","","","",""
"[{""page_index"":0,""viewing_time"":1157.709999999497},{""page_index"":1,""viewing_time"":5231.955000002927}]","6389.934999999241","instructions","1","10019","0.0-1.0","SS1618365188452","instructions","","","","","","","","","","","","","","","",""
"","3987.520000002405","sequential-stimulus-presentation-old","2","14509","0.0-2.0","SS1618365188452","","","40","500","4487.520000002405","null","null","self_paced","","","","","","","","",""
"","3638.8700000024983","sequential-stimulus-presentation-old","3","18650","0.0-3.0","SS1618365188452","","","40","500","4138.870000002498","null","null","self_paced","","","","","","","","",""
"[{""page_index"":0,""viewing_time"":4029.8899999979767}]","4030.02999999444","instructions","4","22681","0.0-4.0","SS1618365188452","instructions","","","","","","","","","","","","","","","",""
"","538.2499999977881","sequential-stimulus-presentation-old","5","28221","0.0-5.0","SS1618365188452","","","40","500","1038.249999997788","null","null","forced_long","","","","","","","","",""
"","3549.394999994547","sequential-stimulus-presentation-old","6","31822","0.0-6.0","SS1618365188452","","","40","50","3599.394999994547","null","null","forced_long","","","","","","","","",""
"[{""page_index"":0,""viewing_time"":2658.640000001469}]","2658.7650000001304","instructions","7","34481","0.0-7.0","SS1618365188452","instructions","","","","","","","","","","","","","","","",""
"[{""page_index"":0,""viewing_time"":5319.4450000009965},{""page_index"":1,""viewing_time"":7680.96499999956},{""page_index"":2,""viewing_time"":5060.984999996435},{""page_index"":3,""viewing_time"":809.8200000022189},{""page_index"":4,""viewing_time"":640.0900000007823}]","19511.44999999815","instructions","8","53994","0.0-8.0","SS1618365188452","instructions","","","","","","","","","","","","","","","",""
"","null","html-keyboard-response","9","54917","0.0-9.0-0.0","SS1618365188452","","","null","","","","","","<p><img src= images/blank.png width =""600"" height = ""600"" style=""position:fixed;top:50%; left:50%; transform: translate(-50%, -50%); border:5px solid black"">","","","","","","","",""
"","7695.50000000163","sequential-stimulus-presentation-old","10","63116","0.0-9.0-1.0","SS1618365188452","trial","","40","500","8195.50000000163","images/stimuli/spore_stims/complex_07_A_a.gif","images/stimuli/spore_stims/complex_06_A_b.gif","self_paced","","0","complex_dissimilar","images/stimuli/spore_stims/complex_06_A_b.gif","","","","",""
"","null","html-keyboard-response","11","64315","0.0-9.0-0.1","SS1618365188452","","","null","","","","","","<p><img src= images/blank.png width =""600"" height = ""600"" style=""position:fixed;top:50%; left:50%; transform: translate(-50%, -50%); border:5px solid black"">","","","","","","","",""
"","2158.6949999982608","sequential-stimulus-presentation-old","12","66976","0.0-9.0-1.1","SS1618365188452","trial","","40","500","2658.6949999982608","images/stimuli/spore_stims/complex_07_A_a.gif","images/stimuli/spore_stims/complex_06_A_b.gif","self_paced","","0","complex_dissimilar","images/stimuli/spore_stims/complex_06_A_b.gif","","","","",""
"","null","html-keyboard-response","13","67967","0.0-9.0-0.2","SS1618365188452","","","null","","","","","","<p><img src= images/blank.png width =""600"" height = ""600"" style=""position:fixed;top:50%; left:50%; transform: translate(-50%, -50%); border:5px solid black"">","","","","","","","",""
"","2287.420000000566","sequential-stimulus-presentation-old","14","70757","0.0-9.0-1.2","SS1618365188452","trial","","40","500","2787.420000000566","images/stimuli/spore_stims/complex_07_A_a.gif","images/stimuli/spore_stims/complex_06_A_b.gif","self_paced","","0","complex_dissimilar","images/stimuli/spore_stims/complex_06_A_b.gif","","","","",""
"","null","html-keyboard-response","15","71776","0.0-9.0-0.3","SS1618365188452","","","null","","","","","","<p><img src= images/blank.png width =""600"" height = ""600"" style=""position:fixed;top:50%; left:50%; transform: translate(-50%, -50%); border:5px solid black"">","","","","","","","",""
"","6949.370000002091","sequential-stimulus-presentation-old","16","79228","0.0-9.0-1.3","SS1618365188452","trial","","40","500","7449.370000002091","images/stimuli/spore_stims/complex_07_A_a.gif","images/stimuli/spore_stims/complex_06_A_b.gif","self_paced","","0","complex_dissimilar","images/stimuli/spore_stims/complex_06_A_b.gif","","","","",""
"","null","html-keyboard-response","17","80447","0.0-9.0-0.4","SS1618365188452","","","null","","","","","","<p><img src= images/blank.png width =""600"" height = ""600"" style=""position:fixed;top:50%; left:50%; transform: translate(-50%, -50%); border:5px solid black"">","","","","","","","",""
"","2418.724999995902","sequential-stimulus-presentation-old","18","83368","0.0-9.0-1.4","SS1618365188452","trial","","40","500","2918.724999995902","images/stimuli/spore_stims/complex_07_A_a.gif","images/stimuli/spore_stims/complex_06_A_b.gif","self_paced","","0","complex_dissimilar","images/stimuli/spore_stims/complex_06_A_b.gif","","","","",""
"","null","html-keyboard-response","19","84200","0.0-9.0-0.5","SS1618365188452","","","null","","","","","","<p><img src= images/blank.png width =""600"" height = ""600"" style=""position:fixed;top:50%; left:50%; transform: translate(-50%, -50%); border:5px solid black"">","","","","","","","",""
"","95.02999999676831","sequential-stimulus-presentation-old","20","84798","0.0-9.0-1.5","SS1618365188452","trial","","40","500","595.0299999967683","images/stimuli/spore_stims/complex_07_A_a.gif","images/stimuli/spore_stims/complex_06_A_b.gif","self_paced","","0","complex_dissimilar","images/stimuli/spore_stims/complex_06_A_b.gif","","","","",""
"","3721.494999997958","survey-multi-choice","21","88522","0.0-10.0","SS1618365188452","math_question","","","","","","","","","","","","{""Q0"":""15""}","[0]","15","",""
"","null","html-keyboard-response","22","89613","0.0-11.0-0.0","SS1618365188452","","","null","","","","","","<p><img src= images/blank.png width =""600"" height = ""600"" style=""position:fixed;top:50%; left:50%; transform: translate(-50%, -50%); border:5px solid black"">","","","","","","","",""
"","1134.200000000419","sequential-stimulus-presentation-old","23","95750","0.0-11.0-1.0","SS1618365188452","trial","","40","500","1634.200000000419","images/stimuli/spore_stims/complex_09_A_a.gif","images/stimuli/spore_stims/complex_15_A_b.gif","forced_long","","1","complex_dissimilar","images/stimuli/spore_stims/complex_15_A_b.gif","","","","",""
"","null","html-keyboard-response","24","96998","0.0-11.0-0.1","SS1618365188452","","","null","","","","","","<p><img src= images/blank.png width =""600"" height = ""600"" style=""position:fixed;top:50%; left:50%; transform: translate(-50%, -50%); border:5px solid black"">","","","","","","","",""
"","1340.0150000015856","sequential-stimulus-presentation-old","25","98840","0.0-11.0-1.1","SS1618365188452","trial","","40","500","1840.0150000015856","images/stimuli/spore_stims/complex_09_A_a.gif","images/stimuli/spore_stims/complex_15_A_b.gif","forced_long","","1","complex_dissimilar","images/stimuli/spore_stims/complex_15_A_b.gif","","","","",""
"","null","html-keyboard-response","26","99818","0.0-11.0-0.2","SS1618365188452","","","null","","","","","","<p><img src= images/blank.png width =""600"" height = ""600"" style=""position:fixed;top:50%; left:50%; transform: translate(-50%, -50%); border:5px solid black"">","","","","","","","",""
"","270.6149999939953","sequential-stimulus-presentation-old","27","100590","0.0-11.0-1.2","SS1618365188452","trial","","40","500","770.6149999939953","images/stimuli/spore_stims/complex_09_A_a.gif","images/stimuli/spore_stims/complex_15_A_b.gif","forced_long","","1","complex_dissimilar","images/stimuli/spore_stims/complex_15_A_b.gif","","","","",""
"","null","html-keyboard-response","28","101695","0.0-11.0-0.3","SS1618365188452","","","null","","","","","","<p><img src= images/blank.png width =""600"" height = ""600"" style=""position:fixed;top:50%; left:50%; transform: translate(-50%, -50%); border:5px solid black"">","","","","","","","",""
"","432.7049999992596","sequential-stimulus-presentation-old","29","102631","0.0-11.0-1.3","SS1618365188452","trial","","40","500","932.7049999992596","images/stimuli/spore_stims/complex_09_A_a.gif","images/stimuli/spore_stims/complex_15_A_b.gif","forced_long","","1","complex_dissimilar","images/stimuli/spore_stims/complex_15_A_b.gif","","","","",""
"","2560.6449999977485","survey-multi-choice","30","105193","0.0-12.0","SS1618365188452","math_question","","","","","","","","","","","","{""Q0"":""9""}","[0]","9","",""
"","null","html-keyboard-response","31","106375","0.0-13.0-0.0","SS1618365188452","","","null","","","","","","<p><img src= images/blank.png width =""600"" height = ""600"" style=""position:fixed;top:50%; left:50%; transform: translate(-50%, -50%); border:5px solid black"">","","","","","","","",""
"","544.90000000078","sequential-stimulus-presentation-old","32","111922","0.0-13.0-1.0","SS1618365188452","trial","","40","500","1044.90000000078","images/stimuli/spore_stims/simple_10_A_b.gif","images/stimuli/spore_stims/simple_02_A_a.gif","forced_long","","2","simple_dissimilar","images/stimuli/spore_stims/simple_02_A_a.gif","","","","",""
"","null","html-keyboard-response","33","113224","0.0-13.0-0.1","SS1618365188452","","","null","","","","","","<p><img src= images/blank.png width =""600"" height = ""600"" style=""position:fixed;top:50%; left:50%; transform: translate(-50%, -50%); border:5px solid black"">","","","","","","","",""
"","436.77999999636086","sequential-stimulus-presentation-old","34","114163","0.0-13.0-1.1","SS1618365188452","trial","","40","500","936.7799999963609","images/stimuli/spore_stims/simple_10_A_b.gif","images/stimuli/spore_stims/simple_02_A_a.gif","forced_long","","2","simple_dissimilar","images/stimuli/spore_stims/simple_02_A_a.gif","","","","",""
"","null","html-keyboard-response","35","114971","0.0-13.0-0.2","SS1618365188452","","","null","","","","","","<p><img src= images/blank.png width =""600"" height = ""600"" style=""position:fixed;top:50%; left:50%; transform: translate(-50%, -50%); border:5px solid black"">","","","","","","","",""
"","107.72999999608146","sequential-stimulus-presentation-old","36","115582","0.0-13.0-1.2","SS1618365188452","trial","","40","500","607.7299999960815","images/stimuli/spore_stims/simple_10_A_b.gif","images/stimuli/spore_stims/simple_02_A_a.gif","forced_long","","2","simple_dissimilar","images/stimuli/spore_stims/simple_02_A_a.gif","","","","",""
"","null","html-keyboard-response","37","116685","0.0-13.0-0.3","SS1618365188452","","","null","","","","","","<p><img src= images/blank.png width =""600"" height = ""600"" style=""position:fixed;top:50%; left:50%; transform: translate(-50%, -50%); border:5px solid black"">","","","","","","","",""
"","1085.769999997865","sequential-stimulus-presentation-old","38","118273","0.0-13.0-1.3","SS1618365188452","trial","","40","500","1585.769999997865","images/stimuli/spore_stims/simple_10_A_b.gif","images/stimuli/spore_stims/simple_02_A_a.gif","forced_long","","2","simple_dissimilar","images/stimuli/spore_stims/simple_10_A_b.gif","","","","",""
"","null","html-keyboard-response","39","119443","0.0-13.0-0.4","SS1618365188452","","","null","","","","","","<p><img src= images/blank.png width =""600"" height = ""600"" style=""position:fixed;top:50%; left:50%; transform: translate(-50%, -50%); border:5px solid black"">","","","","","","","",""
"","1557.4800000031246","sequential-stimulus-presentation-old","40","121503","0.0-13.0-1.4","SS1618365188452","trial","","40","500","2057.4800000031246","images/stimuli/spore_stims/simple_10_A_b.gif","images/stimuli/spore_stims/simple_02_A_a.gif","forced_long","","2","simple_dissimilar","images/stimuli/spore_stims/simple_02_A_a.gif","","","","",""
"","2508.064999994531","survey-multi-choice","41","124013","0.0-14.0","SS1618365188452","math_question","","","","","","","","","","","","{""Q0"":""9""}","[0]","9","",""
"","null","html-keyboard-response","42","125115","0.0-15.0-0.0","SS1618365188452","","","null","","","","","","<p><img src= images/blank.png width =""600"" height = ""600"" style=""position:fixed;top:50%; left:50%; transform: translate(-50%, -50%); border:5px solid black"">","","","","","","","",""
"","1105.1100000040606","sequential-stimulus-presentation-old","43","126275","0.0-15.0-1.0","SS1618365188452","trial","","40","500","1605.1100000040606","images/stimuli/spore_stims/simple_09_A_b.gif","images/stimuli/spore_stims/simple_14_A_a.gif","forced_short","","3","simple_dissimilar","images/stimuli/spore_stims/simple_14_A_a.gif","","","","",""
"","null","html-keyboard-response","44","127273","0.0-15.0-0.1","SS1618365188452","","","null","","","","","","<p><img src= images/blank.png width =""600"" height = ""600"" style=""position:fixed;top:50%; left:50%; transform: translate(-50%, -50%); border:5px solid black"">","","","","","","","",""
"","4639.6050000039395","sequential-stimulus-presentation-old","45","132415","0.0-15.0-1.1","SS1618365188452","trial","","40","500","5139.6050000039395","images/stimuli/spore_stims/simple_09_A_b.gif","images/stimuli/spore_stims/simple_14_A_a.gif","forced_short","","3","simple_dissimilar","images/stimuli/spore_stims/simple_14_A_a.gif","","","","",""
"","null","html-keyboard-response","46","133276","0.0-15.0-0.2","SS1618365188452","","","null","","","","","","<p><img src= images/blank.png width =""600"" height = ""600"" style=""position:fixed;top:50%; left:50%; transform: translate(-50%, -50%); border:5px solid black"">","","","","","","","",""
"","1386.1800000013318","sequential-stimulus-presentation-old","47","135165","0.0-15.0-1.2","SS1618365188452","trial","","40","500","1886.1800000013318","images/stimuli/spore_stims/simple_09_A_b.gif","images/stimuli/spore_stims/simple_14_A_a.gif","forced_short","","3","simple_dissimilar","images/stimuli/spore_stims/simple_09_A_b.gif","","","","",""
"","null","html-keyboard-response","48","136291","0.0-15.0-0.3","SS1618365188452","","","null","","","","","","<p><img src= images/blank.png width =""600"" height = ""600"" style=""position:fixed;top:50%; left:50%; transform: translate(-50%, -50%); border:5px solid black"">","","","","","","","",""
"","1421.26499999722","sequential-stimulus-presentation-old","49","138216","0.0-15.0-1.3","SS1618365188452","trial","","40","500","1921.26499999722","images/stimuli/spore_stims/simple_09_A_b.gif","images/stimuli/spore_stims/simple_14_A_a.gif","forced_short","","3","simple_dissimilar","images/stimuli/spore_stims/simple_14_A_a.gif","","","","",""
"","2532.6849999983096","survey-multi-choice","50","140750","0.0-16.0","SS1618365188452","math_question","","","","","","","","","","","","{""Q0"":""10""}","[0]","10","",""
"","null","html-keyboard-response","51","141618","0.0-17.0-0.0","SS1618365188452","","","null","","","","","","<p><img src= images/blank.png width =""600"" height = ""600"" style=""position:fixed;top:50%; left:50%; transform: translate(-50%, -50%); border:5px solid black"">","","","","","","","",""
"","1085.3900000001886","sequential-stimulus-presentation-old","52","143207","0.0-17.0-1.0","SS1618365188452","trial","","40","500","1585.3900000001886","images/stimuli/spore_stims/complex_04_A_b.gif","images/stimuli/spore_stims/complex_17_A_a.gif","self_paced","","4","complex_dissimilar","images/stimuli/spore_stims/complex_17_A_a.gif","","","","",""
"","null","html-keyboard-response","53","144269","0.0-17.0-0.1","SS1618365188452","","","null","","","","","","<p><img src= images/blank.png width =""600"" height = ""600"" style=""position:fixed;top:50%; left:50%; transform: translate(-50%, -50%); border:5px solid black"">","","","","","","","",""
"","634.0349999954924","sequential-stimulus-presentation-old","54","145407","0.0-17.0-1.1","SS1618365188452","trial","","40","500","1134.0349999954924","images/stimuli/spore_stims/complex_04_A_b.gif","images/stimuli/spore_stims/complex_17_A_a.gif","self_paced","","4","complex_dissimilar","images/stimuli/spore_stims/complex_17_A_a.gif","","","","",""
"","null","html-keyboard-response","55","146491","0.0-17.0-0.2","SS1618365188452","","","null","","","","","","<p><img src= images/blank.png width =""600"" height = ""600"" style=""position:fixed;top:50%; left:50%; transform: translate(-50%, -50%); border:5px solid black"">","","","","","","","",""
"","572.8850000014063","sequential-stimulus-presentation-old","56","147567","0.0-17.0-1.2","SS1618365188452","trial","","40","500","1072.8850000014063","images/stimuli/spore_stims/complex_04_A_b.gif","images/stimuli/spore_stims/complex_17_A_a.gif","self_paced","","4","complex_dissimilar","images/stimuli/spore_stims/complex_04_A_b.gif","","","","",""
"","null","html-keyboard-response","57","148853","0.0-17.0-0.3","SS1618365188452","","","null","","","","","","<p><img src= images/blank.png width =""600"" height = ""600"" style=""position:fixed;top:50%; left:50%; transform: translate(-50%, -50%); border:5px solid black"">","","","","","","","",""
"","621.9249999994645","sequential-stimulus-presentation-old","58","149977","0.0-17.0-1.3","SS1618365188452","trial","","40","500","1121.9249999994645","images/stimuli/spore_stims/complex_04_A_b.gif","images/stimuli/spore_stims/complex_17_A_a.gif","self_paced","","4","complex_dissimilar","images/stimuli/spore_stims/complex_17_A_a.gif","","","","",""
"","null","html-keyboard-response","59","151020","0.0-17.0-0.4","SS1618365188452","","","null","","","","","","<p><img src= images/blank.png width =""600"" height = ""600"" style=""position:fixed;top:50%; left:50%; transform: translate(-50%, -50%); border:5px solid black"">","","","","","","","",""
"","2094.6450000046752","sequential-stimulus-presentation-old","60","153617","0.0-17.0-1.4","SS1618365188452","trial","","40","500","2594.6450000046752","images/stimuli/spore_stims/complex_04_A_b.gif","images/stimuli/spore_stims/complex_17_A_a.gif","self_paced","","4","complex_dissimilar","images/stimuli/spore_stims/complex_17_A_a.gif","","","","",""
"","null","html-keyboard-response","61","154734","0.0-17.0-0.5","SS1618365188452","","","null","","","","","","<p><img src= images/blank.png width =""600"" height = ""600"" style=""position:fixed;top:50%; left:50%; transform: translate(-50%, -50%); border:5px solid black"">","","","","","","","",""
"","1000.2349999995204","sequential-stimulus-presentation-old","62","156238","0.0-17.0-1.5","SS1618365188452","trial","","40","500","1500.2349999995204","images/stimuli/spore_stims/complex_04_A_b.gif","images/stimuli/spore_stims/complex_17_A_a.gif","self_paced","","4","complex_dissimilar","images/stimuli/spore_stims/complex_17_A_a.gif","","","","",""
"","2275.775000001886","survey-multi-choice","63","158516","0.0-18.0","SS1618365188452","math_question","","","","","","","","","","","","{""Q0"":""9""}","[0]","9","",""
"","null","html-keyboard-response","64","159395","0.0-19.0-0.0","SS1618365188452","","","null","","","","","","<p><img src= images/blank.png width =""600"" height = ""600"" style=""position:fixed;top:50%; left:50%; transform: translate(-50%, -50%); border:5px solid black"">","","","","","","","",""
"","3231.079999997746","sequential-stimulus-presentation-old","65","167629","0.0-19.0-1.0","SS1618365188452","trial","","40","500","3731.079999997746","images/stimuli/spore_stims/simple_08_A_b.gif","images/stimuli/spore_stims/simple_10_A_a.gif","forced_long","","5","simple_dissimilar","images/stimuli/spore_stims/simple_10_A_a.gif","","","","",""
"","null","html-keyboard-response","66","168857","0.0-19.0-0.1","SS1618365188452","","","null","","","","","","<p><img src= images/blank.png width =""600"" height = ""600"" style=""position:fixed;top:50%; left:50%; transform: translate(-50%, -50%); border:5px solid black"">","","","","","","","",""
"","239.28999999770895","sequential-stimulus-presentation-old","67","169600","0.0-19.0-1.1","SS1618365188452","trial","","40","500","739.289999997709","images/stimuli/spore_stims/simple_08_A_b.gif","images/stimuli/spore_stims/simple_10_A_a.gif","forced_long","","5","simple_dissimilar","images/stimuli/spore_stims/simple_10_A_a.gif","","","","",""
"","null","html-keyboard-response","68","170672","0.0-19.0-0.2","SS1618365188452","","","null","","","","","","<p><img src= images/blank.png width =""600"" height = ""600"" style=""position:fixed;top:50%; left:50%; transform: translate(-50%, -50%); border:5px solid black"">","","","","","","","",""
"","123.3600000050501","sequential-stimulus-presentation-old","69","171300","0.0-19.0-1.2","SS1618365188452","trial","","40","500","623.3600000050501","images/stimuli/spore_stims/simple_08_A_b.gif","images/stimuli/spore_stims/simple_10_A_a.gif","forced_long","","5","simple_dissimilar","images/stimuli/spore_stims/simple_10_A_a.gif","","","","",""
"","null","html-keyboard-response","70","172420","0.0-19.0-0.3","SS1618365188452","","","null","","","","","","<p><img src= images/blank.png width =""600"" height = ""600"" style=""position:fixed;top:50%; left:50%; transform: translate(-50%, -50%); border:5px solid black"">","","","","","","","",""
"","1747.1850000001723","sequential-stimulus-presentation-old","71","174670","0.0-19.0-1.3","SS1618365188452","trial","","40","500","2247.1850000001723","images/stimuli/spore_stims/simple_08_A_b.gif","images/stimuli/spore_stims/simple_10_A_a.gif","forced_long","","5","simple_dissimilar","images/stimuli/spore_stims/simple_10_A_a.gif","","","","",""
"","null","html-keyboard-response","72","175674","0.0-19.0-0.4","SS1618365188452","","","null","","","","","","<p><img src= images/blank.png width =""600"" height = ""600"" style=""position:fixed;top:50%; left:50%; transform: translate(-50%, -50%); border:5px solid black"">","","","","","","","",""
"","513.9249999992899","sequential-stimulus-presentation-old","73","176691","0.0-19.0-1.4","SS1618365188452","trial","","40","500","1013.9249999992899","images/stimuli/spore_stims/simple_08_A_b.gif","images/stimuli/spore_stims/simple_10_A_a.gif","forced_long","","5","simple_dissimilar","images/stimuli/spore_stims/simple_10_A_a.gif","","","","",""
"","2934.6799999984796","survey-multi-choice","74","179628","0.0-20.0","SS1618365188452","math_question","","","","","","","","","","","","{""Q0"":""3""}","[0]","3","",""
"","null","html-keyboard-response","75","180451","0.0-21.0-0.0","SS1618365188452","","","null","","","","","","<p><img src= images/blank.png width =""600"" height = ""600"" style=""position:fixed;top:50%; left:50%; transform: translate(-50%, -50%); border:5px solid black"">","","","","","","","",""
"","3637.9699999961304","sequential-stimulus-presentation-old","76","184142","0.0-21.0-1.0","SS1618365188452","trial","","40","500","4137.96999999613","images/stimuli/spore_stims/complex_16_A_a.gif","images/stimuli/spore_stims/complex_01_A_b.gif","forced_short","","6","complex_dissimilar","images/stimuli/spore_stims/complex_01_A_b.gif","","","","",""
"","null","html-keyboard-response","77","185005","0.0-21.0-0.1","SS1618365188452","","","null","","","","","","<p><img src= images/blank.png width =""600"" height = ""600"" style=""position:fixed;top:50%; left:50%; transform: translate(-50%, -50%); border:5px solid black"">","","","","","","","",""
"","803.7999999942258","sequential-stimulus-presentation-old","78","186312","0.0-21.0-1.1","SS1618365188452","trial","","40","500","1303.7999999942258","images/stimuli/spore_stims/complex_16_A_a.gif","images/stimuli/spore_stims/complex_01_A_b.gif","forced_short","","6","complex_dissimilar","images/stimuli/spore_stims/complex_01_A_b.gif","","","","",""
"","null","html-keyboard-response","79","187339","0.0-21.0-0.2","SS1618365188452","","","null","","","","","","<p><img src= images/blank.png width =""600"" height = ""600"" style=""position:fixed;top:50%; left:50%; transform: translate(-50%, -50%); border:5px solid black"">","","","","","","","",""
"","690.5750000005355","sequential-stimulus-presentation-old","80","188532","0.0-21.0-1.2","SS1618365188452","trial","","40","500","1190.5750000005355","images/stimuli/spore_stims/complex_16_A_a.gif","images/stimuli/spore_stims/complex_01_A_b.gif","forced_short","","6","complex_dissimilar","images/stimuli/spore_stims/complex_01_A_b.gif","","","","",""
"","null","html-keyboard-response","81","189519","0.0-21.0-0.3","SS1618365188452","","","null","","","","","","<p><img src= images/blank.png width =""600"" height = ""600"" style=""position:fixed;top:50%; left:50%; transform: translate(-50%, -50%); border:5px solid black"">","","","","","","","",""
"","930.5400000012014","sequential-stimulus-presentation-old","82","190953","0.0-21.0-1.3","SS1618365188452","trial","","40","500","1430.5400000012014","images/stimuli/spore_stims/complex_16_A_a.gif","images/stimuli/spore_stims/complex_01_A_b.gif","forced_short","","6","complex_dissimilar","images/stimuli/spore_stims/complex_16_A_a.gif","","","","",""
"","2884.510000003502","survey-multi-choice","83","193839","0.0-22.0","SS1618365188452","math_question","","","","","","","","","","","","{""Q0"":""11""}","[0]","11","",""
"","null","html-keyboard-response","84","194783","0.0-23.0-0.0","SS1618365188452","","","null","","","","","","<p><img src= images/blank.png width =""600"" height = ""600"" style=""position:fixed;top:50%; left:50%; transform: translate(-50%, -50%); border:5px solid black"">","","","","","","","",""
"","1527.525000004971","sequential-stimulus-presentation-old","85","196814","0.0-23.0-1.0","SS1618365188452","trial","","40","500","2027.525000004971","images/stimuli/spore_stims/simple_04_A_a.gif","images/stimuli/spore_stims/simple_16_A_b.gif","self_paced","","7","simple_dissimilar","images/stimuli/spore_stims/simple_16_A_b.gif","","","","",""
"","null","html-keyboard-response","86","197689","0.0-23.0-0.1","SS1618365188452","","","null","","","","","","<p><img src= images/blank.png width =""600"" height = ""600"" style=""position:fixed;top:50%; left:50%; transform: translate(-50%, -50%); border:5px solid black"">","","","","","","","",""
"","661.2049999966985","sequential-stimulus-presentation-old","87","198854","0.0-23.0-1.1","SS1618365188452","trial","","40","500","1161.2049999966985","images/stimuli/spore_stims/simple_04_A_a.gif","images/stimuli/spore_stims/simple_16_A_b.gif","self_paced","","7","simple_dissimilar","images/stimuli/spore_stims/simple_04_A_a.gif","","","","",""
"","null","html-keyboard-response","88","200059","0.0-23.0-0.2","SS1618365188452","","","null","","","","","","<p><img src= images/blank.png width =""600"" height = ""600"" style=""position:fixed;top:50%; left:50%; transform: translate(-50%, -50%); border:5px solid black"">","","","","","","","",""
"","151.87500000320142","sequential-stimulus-presentation-old","89","200714","0.0-23.0-1.2","SS1618365188452","trial","","40","500","651.8750000032014","images/stimuli/spore_stims/simple_04_A_a.gif","images/stimuli/spore_stims/simple_16_A_b.gif","self_paced","","7","simple_dissimilar","images/stimuli/spore_stims/simple_16_A_b.gif","","","","",""
"","null","html-keyboard-response","90","201952","0.0-23.0-0.3","SS1618365188452","","","null","","","","","","<p><img src= images/blank.png width =""600"" height = ""600"" style=""position:fixed;top:50%; left:50%; transform: translate(-50%, -50%); border:5px solid black"">","","","","","","","",""
"","1478.9500000042608","sequential-stimulus-presentation-old","91","203934","0.0-23.0-1.3","SS1618365188452","trial","","40","500","1978.9500000042608","images/stimuli/spore_stims/simple_04_A_a.gif","images/stimuli/spore_stims/simple_16_A_b.gif","self_paced","","7","simple_dissimilar","images/stimuli/spore_stims/simple_04_A_a.gif","","","","",""
"","null","html-keyboard-response","92","204792","0.0-23.0-0.4","SS1618365188452","","","null","","","","","","<p><img src= images/blank.png width =""600"" height = ""600"" style=""position:fixed;top:50%; left:50%; transform: translate(-50%, -50%); border:5px solid black"">","","","","","","","",""
"","169.44499999954132","sequential-stimulus-presentation-old","93","205464","0.0-23.0-1.4","SS1618365188452","trial","","40","500","669.4449999995413","images/stimuli/spore_stims/simple_04_A_a.gif","images/stimuli/spore_stims/simple_16_A_b.gif","self_paced","","7","simple_dissimilar","images/stimuli/spore_stims/simple_16_A_b.gif","","","","",""
"","2477.0900000003166","survey-multi-choice","94","207944","0.0-24.0","SS1618365188452","math_question","","","","","","","","","","","","{""Q0"":""7""}","[0]","7","",""
"","null","html-keyboard-response","95","208884","0.0-25.0-0.0","SS1618365188452","","","null","","","","","","<p><img src= images/blank.png width =""600"" height = ""600"" style=""position:fixed;top:50%; left:50%; transform: translate(-50%, -50%); border:5px solid black"">","","","","","","","",""
"","2499.5899999994435","sequential-stimulus-presentation-old","96","211436","0.0-25.0-1.0","SS1618365188452","trial","","40","500","2999.5899999994435","images/stimuli/spore_stims/simple_20_A_b.gif","images/stimuli/spore_stims/simple_08_A_a.gif","forced_short","","8","simple_dissimilar","images/stimuli/spore_stims/simple_08_A_a.gif","","","","",""
"","null","html-keyboard-response","97","212489","0.0-25.0-0.1","SS1618365188452","","","null","","","","","","<p><img src= images/blank.png width =""600"" height = ""600"" style=""position:fixed;top:50%; left:50%; transform: translate(-50%, -50%); border:5px solid black"">","","","","","","","",""
"","162.73000000364846","sequential-stimulus-presentation-old","98","213155","0.0-25.0-1.1","SS1618365188452","trial","","40","500","662.7300000036485","images/stimuli/spore_stims/simple_20_A_b.gif","images/stimuli/spore_stims/simple_08_A_a.gif","forced_short","","8","simple_dissimilar","images/stimuli/spore_stims/simple_20_A_b.gif","","","","",""
"","null","html-keyboard-response","99","214063","0.0-25.0-0.2","SS1618365188452","","","null","","","","","","<p><img src= images/blank.png width =""600"" height = ""600"" style=""position:fixed;top:50%; left:50%; transform: translate(-50%, -50%); border:5px solid black"">","","","","","","","",""
"","449.71999999688705","sequential-stimulus-presentation-old","100","215016","0.0-25.0-1.2","SS1618365188452","trial","","40","500","949.719999996887","images/stimuli/spore_stims/simple_20_A_b.gif","images/stimuli/spore_stims/simple_08_A_a.gif","forced_short","","8","simple_dissimilar","images/stimuli/spore_stims/simple_08_A_a.gif","","","","",""
"","null","html-keyboard-response","101","215913","0.0-25.0-0.3","SS1618365188452","","","null","","","","","","<p><img src= images/blank.png width =""600"" height = ""600"" style=""position:fixed;top:50%; left:50%; transform: translate(-50%, -50%); border:5px solid black"">","","","","","","","",""
"","558.469999996305","sequential-stimulus-presentation-old","102","216977","0.0-25.0-1.3","SS1618365188452","trial","","40","500","1058.469999996305","images/stimuli/spore_stims/simple_20_A_b.gif","images/stimuli/spore_stims/simple_08_A_a.gif","forced_short","","8","simple_dissimilar","images/stimuli/spore_stims/simple_08_A_a.gif","","","","",""
"","null","html-keyboard-response","103","217890","0.0-25.0-0.4","SS1618365188452","","","null","","","","","","<p><img src= images/blank.png width =""600"" height = ""600"" style=""position:fixed;top:50%; left:50%; transform: translate(-50%, -50%); border:5px solid black"">","","","","","","","",""
"","234.18500000116182","sequential-stimulus-presentation-old","104","218627","0.0-25.0-1.4","SS1618365188452","trial","","40","500","734.1850000011618","images/stimuli/spore_stims/simple_20_A_b.gif","images/stimuli/spore_stims/simple_08_A_a.gif","forced_short","","8","simple_dissimilar","images/stimuli/spore_stims/simple_08_A_a.gif","","","","",""
"","null","html-keyboard-response","105","219530","0.0-25.0-0.5","SS1618365188452","","","null","","","","","","<p><img src= images/blank.png width =""600"" height = ""600"" style=""position:fixed;top:50%; left:50%; transform: translate(-50%, -50%); border:5px solid black"">","","","","","","","",""
"","213.1149999986519","sequential-stimulus-presentation-old","106","220246","0.0-25.0-1.5","SS1618365188452","trial","","40","500","713.1149999986519","images/stimuli/spore_stims/simple_20_A_b.gif","images/stimuli/spore_stims/simple_08_A_a.gif","forced_short","","8","simple_dissimilar","images/stimuli/spore_stims/simple_08_A_a.gif","","","","",""
"","2699.7150000024703","survey-multi-choice","107","222949","0.0-26.0","SS1618365188452","math_question","","","","","","","","","","","","{""Q0"":""5""}","[0]","5","",""
"","null","html-keyboard-response","108","224128","0.0-27.0-0.0","SS1618365188452","","","null","","","","","","<p><img src= images/blank.png width =""600"" height = ""600"" style=""position:fixed;top:50%; left:50%; transform: translate(-50%, -50%); border:5px solid black"">","","","","","","","",""
"","605.4599999988568","sequential-stimulus-presentation-old","109","229738","0.0-27.0-1.0","SS1618365188452","trial","","40","500","1105.4599999988568","images/stimuli/spore_stims/complex_14_A_b.gif","images/stimuli/spore_stims/complex_03_A_a.gif","forced_long","","9","complex_dissimilar","images/stimuli/spore_stims/complex_03_A_a.gif","","","","",""
"","null","html-keyboard-response","110","230619","0.0-27.0-0.1","SS1618365188452","","","null","","","","","","<p><img src= images/blank.png width =""600"" height = ""600"" style=""position:fixed;top:50%; left:50%; transform: translate(-50%, -50%); border:5px solid black"">","","","","","","","",""
"","46.014999999897555","sequential-stimulus-presentation-old","111","231168","0.0-27.0-1.1","SS1618365188452","trial","","40","500","546.0149999998976","images/stimuli/spore_stims/complex_14_A_b.gif","images/stimuli/spore_stims/complex_03_A_a.gif","forced_long","","9","complex_dissimilar","images/stimuli/spore_stims/complex_03_A_a.gif","","","","",""
"","null","html-keyboard-response","112","232056","0.0-27.0-0.2","SS1618365188452","","","null","","","","","","<p><img src= images/blank.png width =""600"" height = ""600"" style=""position:fixed;top:50%; left:50%; transform: translate(-50%, -50%); border:5px solid black"">","","","","","","","",""
"","78.92500000161817","sequential-stimulus-presentation-old","113","232638","0.0-27.0-1.2","SS1618365188452","trial","","40","500","578.9250000016182","images/stimuli/spore_stims/complex_14_A_b.gif","images/stimuli/spore_stims/complex_03_A_a.gif","forced_long","","9","complex_dissimilar","images/stimuli/spore_stims/complex_03_A_a.gif","","","","",""
"","null","html-keyboard-response","114","233491","0.0-27.0-0.3","SS1618365188452","","","null","","","","","","<p><img src= images/blank.png width =""600"" height = ""600"" style=""position:fixed;top:50%; left:50%; transform: translate(-50%, -50%); border:5px solid black"">","","","","","","","",""
"","43.754999998782296","sequential-stimulus-presentation-old","115","234038","0.0-27.0-1.3","SS1618365188452","trial","","40","500","543.7549999987823","images/stimuli/spore_stims/complex_14_A_b.gif","images/stimuli/spore_stims/complex_03_A_a.gif","forced_long","","9","complex_dissimilar","images/stimuli/spore_stims/complex_03_A_a.gif","","","","",""
"","null","html-keyboard-response","116","235242","0.0-27.0-0.4","SS1618365188452","","","null","","","","","","<p><img src= images/blank.png width =""600"" height = ""600"" style=""position:fixed;top:50%; left:50%; transform: translate(-50%, -50%); border:5px solid black"">","","","","","","","",""
"","143.579999996291","sequential-stimulus-presentation-old","117","235888","0.0-27.0-1.4","SS1618365188452","trial","","40","500","643.579999996291","images/stimuli/spore_stims/complex_14_A_b.gif","images/stimuli/spore_stims/complex_03_A_a.gif","forced_long","","9","complex_dissimilar","images/stimuli/spore_stims/complex_03_A_a.gif","","","","",""
"","2554.4599999993807","survey-multi-choice","118","238445","0.0-28.0","SS1618365188452","math_question","","","","","","","","","","","","{""Q0"":""12""}","[0]","12","",""
"","null","html-keyboard-response","119","239583","0.0-29.0-0.0","SS1618365188452","","","null","","","","","","<p><img src= images/blank.png width =""600"" height = ""600"" style=""position:fixed;top:50%; left:50%; transform: translate(-50%, -50%); border:5px solid black"">","","","","","","","",""
"","4853.555000001506","sequential-stimulus-presentation-old","120","244490","0.0-29.0-1.0","SS1618365188452","trial","","40","500","5353.555000001506","images/stimuli/spore_stims/complex_02_A_a.gif","images/stimuli/spore_stims/complex_12_A_b.gif","forced_short","","10","complex_dissimilar","images/stimuli/spore_stims/complex_12_A_b.gif","","","","",""
"","null","html-keyboard-response","121","245335","0.0-29.0-0.1","SS1618365188452","","","null","","","","","","<p><img src= images/blank.png width =""600"" height = ""600"" style=""position:fixed;top:50%; left:50%; transform: translate(-50%, -50%); border:5px solid black"">","","","","","","","",""
"","321.2050000001909","sequential-stimulus-presentation-old","122","246160","0.0-29.0-1.1","SS1618365188452","trial","","40","500","821.2050000001909","images/stimuli/spore_stims/complex_02_A_a.gif","images/stimuli/spore_stims/complex_12_A_b.gif","forced_short","","10","complex_dissimilar","images/stimuli/spore_stims/complex_12_A_b.gif","","","","",""
"","null","html-keyboard-response","123","247149","0.0-29.0-0.2","SS1618365188452","","","null","","","","","","<p><img src= images/blank.png width =""600"" height = ""600"" style=""position:fixed;top:50%; left:50%; transform: translate(-50%, -50%); border:5px solid black"">","","","","","","","",""
"","3207.415000004403","sequential-stimulus-presentation-old","124","250860","0.0-29.0-1.2","SS1618365188452","trial","","40","500","3707.415000004403","images/stimuli/spore_stims/complex_02_A_a.gif","images/stimuli/spore_stims/complex_12_A_b.gif","forced_short","","10","complex_dissimilar","images/stimuli/spore_stims/complex_02_A_a.gif","","","","",""
"","null","html-keyboard-response","125","251942","0.0-29.0-0.3","SS1618365188452","","","null","","","","","","<p><img src= images/blank.png width =""600"" height = ""600"" style=""position:fixed;top:50%; left:50%; transform: translate(-50%, -50%); border:5px solid black"">","","","","","","","",""
"","1084.710000002815","sequential-stimulus-presentation-old","126","253531","0.0-29.0-1.3","SS1618365188452","trial","","40","500","1584.710000002815","images/stimuli/spore_stims/complex_02_A_a.gif","images/stimuli/spore_stims/complex_12_A_b.gif","forced_short","","10","complex_dissimilar","images/stimuli/spore_stims/complex_12_A_b.gif","","","","",""
"","null","html-keyboard-response","127","254555","0.0-29.0-0.4","SS1618365188452","","","null","","","","","","<p><img src= images/blank.png width =""600"" height = ""600"" style=""position:fixed;top:50%; left:50%; transform: translate(-50%, -50%); border:5px solid black"">","","","","","","","",""
"","112.62999999598833","sequential-stimulus-presentation-old","128","255171","0.0-29.0-1.4","SS1618365188452","trial","","40","500","612.6299999959883","images/stimuli/spore_stims/complex_02_A_a.gif","images/stimuli/spore_stims/complex_12_A_b.gif","forced_short","","10","complex_dissimilar","images/stimuli/spore_stims/complex_02_A_a.gif","","","","",""
"","2094.875000002503","survey-multi-choice","129","257268","0.0-30.0","SS1618365188452","math_question","","","","","","","","","","","","{""Q0"":""11""}","[0]","11","",""
"","null","html-keyboard-response","130","258181","0.0-31.0-0.0","SS1618365188452","","","null","","","","","","<p><img src= images/blank.png width =""600"" height = ""600"" style=""position:fixed;top:50%; left:50%; transform: translate(-50%, -50%); border:5px solid black"">","","","","","","","",""
"","287.03999999561347","sequential-stimulus-presentation-old","131","258971","0.0-31.0-1.0","SS1618365188452","trial","","40","500","787.0399999956135","images/stimuli/spore_stims/simple_01_A_b.gif","images/stimuli/spore_stims/simple_09_A_a.gif","self_paced","","11","simple_dissimilar","images/stimuli/spore_stims/simple_09_A_a.gif","","","","",""
"","null","html-keyboard-response","132","259904","0.0-31.0-0.1","SS1618365188452","","","null","","","","","","<p><img src= images/blank.png width =""600"" height = ""600"" style=""position:fixed;top:50%; left:50%; transform: translate(-50%, -50%); border:5px solid black"">","","","","","","","",""
"","695.9100000021863","sequential-stimulus-presentation-old","133","261103","0.0-31.0-1.1","SS1618365188452","trial","","40","500","1195.9100000021863","images/stimuli/spore_stims/simple_01_A_b.gif","images/stimuli/spore_stims/simple_09_A_a.gif","self_paced","","11","simple_dissimilar","images/stimuli/spore_stims/simple_09_A_a.gif","","","","",""
"","null","html-keyboard-response","134","262039","0.0-31.0-0.2","SS1618365188452","","","null","","","","","","<p><img src= images/blank.png width =""600"" height = ""600"" style=""position:fixed;top:50%; left:50%; transform: translate(-50%, -50%); border:5px solid black"">","","","","","","","",""
"","408.65499999927124","sequential-stimulus-presentation-old","135","262952","0.0-31.0-1.2","SS1618365188452","trial","","40","500","908.6549999992712","images/stimuli/spore_stims/simple_01_A_b.gif","images/stimuli/spore_stims/simple_09_A_a.gif","self_paced","","11","simple_dissimilar","images/stimuli/spore_stims/simple_09_A_a.gif","","","","",""
"","null","html-keyboard-response","136","263777","0.0-31.0-0.3","SS1618365188452","","","null","","","","","","<p><img src= images/blank.png width =""600"" height = ""600"" style=""position:fixed;top:50%; left:50%; transform: translate(-50%, -50%); border:5px solid black"">","","","","","","","",""
"","241.6449999946053","sequential-stimulus-presentation-old","137","264522","0.0-31.0-1.3","SS1618365188452","trial","","40","500","741.6449999946053","images/stimuli/spore_stims/simple_01_A_b.gif","images/stimuli/spore_stims/simple_09_A_a.gif","self_paced","","11","simple_dissimilar","images/stimuli/spore_stims/simple_09_A_a.gif","","","","",""
"","null","html-keyboard-response","138","265461","0.0-31.0-0.4","SS1618365188452","","","null","","","","","","<p><img src= images/blank.png width =""600"" height = ""600"" style=""position:fixed;top:50%; left:50%; transform: translate(-50%, -50%); border:5px solid black"">","","","","","","","",""
"","406.36000000085915","sequential-stimulus-presentation-old","139","266372","0.0-31.0-1.4","SS1618365188452","trial","","40","500","906.3600000008591","images/stimuli/spore_stims/simple_01_A_b.gif","images/stimuli/spore_stims/simple_09_A_a.gif","self_paced","","11","simple_dissimilar","images/stimuli/spore_stims/simple_09_A_a.gif","","","","",""
"","null","html-keyboard-response","140","267279","0.0-31.0-0.5","SS1618365188452","","","null","","","","","","<p><img src= images/blank.png width =""600"" height = ""600"" style=""position:fixed;top:50%; left:50%; transform: translate(-50%, -50%); border:5px solid black"">","","","","","","","",""
"","830.3749999977299","sequential-stimulus-presentation-old","141","268613","0.0-31.0-1.5","SS1618365188452","trial","","40","500","1330.37499999773","images/stimuli/spore_stims/simple_01_A_b.gif","images/stimuli/spore_stims/simple_09_A_a.gif","self_paced","","11","simple_dissimilar","images/stimuli/spore_stims/simple_01_A_b.gif","","","","",""
"[{""page_index"":0,""viewing_time"":4781.00500000437}]","4781.264999997802","instructions","142","273396","0.0-32.0","SS1618365188452","instructions","","","","","","","","","","","","","","","",""
"","4188.9699999956065","survey-likert","143","277589","0.0-33.0","SS1618365188452","similarity_question","","","","","","","","","","","","{""Q0"":1}","[0]","","images/stimuli/spore_stims/complex_09_A_a.gif","images/stimuli/spore_stims/complex_15_A_b.gif"
"","2547.4099999992177","survey-likert","144","280141","0.0-34.0","SS1618365188452","similarity_question","","","","","","","","","","","","{""Q0"":1}","[0]","","images/stimuli/spore_stims/complex_12_A_b.gif","images/stimuli/spore_stims/complex_02_A_a.gif"
"","4676.809999997204","survey-likert","145","284821","0.0-35.0","SS1618365188452","similarity_question","","","","","","","","","","","","{""Q0"":5}","[0]","","images/stimuli/spore_stims/simple_01_A_b.gif","images/stimuli/spore_stims/simple_09_A_a.gif"
"","3044.3949999971665","survey-likert","146","287869","0.0-36.0","SS1618365188452","similarity_question","","","","","","","","","","","","{""Q0"":2}","[0]","","images/stimuli/spore_stims/simple_16_A_b.gif","images/stimuli/spore_stims/simple_04_A_a.gif"
"","3076.3549999974202","survey-likert","147","290949","0.0-37.0","SS1618365188452","similarity_question","","","","","","","","","","","","{""Q0"":5}","[0]","","images/stimuli/spore_stims/simple_10_A_a.gif","images/stimuli/spore_stims/simple_08_A_b.gif"
"","5060.535000004165","survey-likert","148","296012","0.0-38.0","SS1618365188452","similarity_question","","","","","","","","","","","","{""Q0"":1}","[0]","","images/stimuli/spore_stims/complex_16_A_a.gif","images/stimuli/spore_stims/complex_01_A_b.gif"
"","4156.089999996766","survey-likert","149","300172","0.0-39.0","SS1618365188452","similarity_question","","","","","","","","","","","","{""Q0"":2}","[0]","","images/stimuli/spore_stims/simple_02_A_a.gif","images/stimuli/spore_stims/simple_10_A_b.gif"
"","2620.795000002545","survey-likert","150","302796","0.0-40.0","SS1618365188452","similarity_question","","","","","","","","","","","","{""Q0"":5}","[0]","","images/stimuli/spore_stims/simple_09_A_b.gif","images/stimuli/spore_stims/simple_14_A_a.gif"
"","3687.1200000023236","survey-likert","151","306487","0.0-41.0","SS1618365188452","similarity_question","","","","","","","","","","","","{""Q0"":0}","[0]","","images/stimuli/spore_stims/complex_03_A_a.gif","images/stimuli/spore_stims/complex_14_A_b.gif"
"","2595.979999998235","survey-likert","152","309087","0.0-42.0","SS1618365188452","similarity_question","","","","","","","","","","","","{""Q0"":1}","[0]","","images/stimuli/spore_stims/complex_17_A_a.gif","images/stimuli/spore_stims/complex_04_A_b.gif"
"","3822.1799999955692","survey-likert","153","312913","0.0-43.0","SS1618365188452","similarity_question","","","","","","","","","","","","{""Q0"":2}","[0]","","images/stimuli/spore_stims/complex_06_A_b.gif","images/stimuli/spore_stims/complex_07_A_a.gif"
"","2340.0600000022678","survey-likert","154","315257","0.0-44.0","SS1618365188452","similarity_question","","","","","","","","","","","","{""Q0"":5}","[0]","","images/stimuli/spore_stims/simple_20_A_b.gif","images/stimuli/spore_stims/simple_08_A_a.gif"
"[{""page_index"":0,""viewing_time"":3596.5049999940675}]","3596.78499999427","instructions","155","318857","0.0-45.0","SS1618365188452","instructions","","","","","","","","","","","","","","","",""
"","2453.0499999964377","survey-likert","156","321313","0.0-46.0","SS1618365188452","","","","","","","","","images/stimuli/spore_stims/complex_06_A_b.gif","","","","{""Q0"":5}","[0]","","",""
"","1427.1949999965727","survey-likert","157","322744","0.0-47.0","SS1618365188452","","","","","","","","","images/stimuli/spore_stims/simple_09_A_a.gif","","","","{""Q0"":1}","[0]","","",""
"","1244.2250000021886","survey-likert","158","323992","0.0-48.0","SS1618365188452","","","","","","","","","images/stimuli/spore_stims/simple_09_A_b.gif","","","","{""Q0"":1}","[0]","","",""
"","2396.600000000035","survey-likert","159","326392","0.0-49.0","SS1618365188452","","","","","","","","","images/stimuli/spore_stims/complex_15_A_b.gif","","","","{""Q0"":5}","[0]","","",""
"","2076.3149999984307","survey-likert","160","328472","0.0-50.0","SS1618365188452","","","","","","","","","images/stimuli/spore_stims/simple_10_A_b.gif","","","","{""Q0"":0}","[0]","","",""
"","2763.909999994212","survey-likert","161","331240","0.0-51.0","SS1618365188452","","","","","","","","","images/stimuli/spore_stims/complex_16_A_a.gif","","","","{""Q0"":5}","[0]","","",""
"","3165.4950000011013","survey-likert","162","334409","0.0-52.0","SS1618365188452","","","","","","","","","images/stimuli/spore_stims/complex_02_A_a.gif","","","","{""Q0"":4}","[0]","","",""
"","1884.6149999953923","survey-likert","163","336297","0.0-53.0","SS1618365188452","","","","","","","","","images/stimuli/spore_stims/complex_04_A_b.gif","","","","{""Q0"":4}","[0]","","",""
"","3100.284999993164","survey-likert","164","339401","0.0-54.0","SS1618365188452","","","","","","","","","images/stimuli/spore_stims/simple_20_A_b.gif","","","","{""Q0"":1}","[0]","","",""
"","2588.7000000002445","survey-likert","165","341993","0.0-55.0","SS1618365188452","","","","","","","","","images/stimuli/spore_stims/simple_08_A_b.gif","","","","{""Q0"":1}","[0]","","",""
"","1556.1350000061793","survey-likert","166","343553","0.0-56.0","SS1618365188452","","","","","","","","","images/stimuli/spore_stims/simple_16_A_b.gif","","","","{""Q0"":1}","[0]","","",""
"","2500.6649999995716","survey-likert","167","346057","0.0-57.0","SS1618365188452","","","","","","","","","images/stimuli/spore_stims/complex_03_A_a.gif","","","","{""Q0"":5}","[0]","","",""
"[{""page_index"":0,""viewing_time"":1188.6200000008103}]","1188.9099999971222","instructions","168","347249","0.0-58.0","SS1618365188452","instructions","","","","","","","","","","","","","","","",""
"","2482.349999998405","demog-age","169","349737","0.0-59.0","SS1618365188452","","","","","","","","","","","","","{""age"":""19""}","","","",""
"","2642.5749999980326","demog-ethnic-US","170","352385","0.0-60.0","SS1618365188452","","","","","","","","","","","","","{""ethnicity"":[""White""]}","[0]","","",""
"","4052.2300000011455","demog-gender-and-education","171","356442","0.0-61.0","SS1618365188452","","","","","","","","","","","","","{""gender"":""Male"",""education"":""High school diploma""}","[0,1]","","",""
"","4554.810000001453","survey-text","172","361002","0.0-62.0","SS1618365188452","feedback","","","","","","","","","","","","{""Q0"":""no""}","","","",""
"[{""page_index"":0,""viewing_time"":1212.1899999983725}]","1212.4350000012782","instructions","173","362217","0.0-63.0","SS1618365188452","instructions","","","","","","","","","","","","","","","",""
