"view_history","rt","trial_type","trial_index","time_elapsed","internal_node_id","subject","stimulus_type","trial_stimulus","key_press","minimum_viewing_duration","trial_looking_time","block_deviant","block_background","exposure_type","stimulus","block_number","block_type","stimulus_displayed","responses","question_order","math_correct_answer","stimulus_left","stimulus_right"
"[{""page_index"":0,""viewing_time"":6489.635000005364}]","6490.149999968708","instructions","0","6491","0.0-0.0","SS1618435647453","","","","","","","","","","","","","","","","",""
"[{""page_index"":0,""viewing_time"":13021.970000118017},{""page_index"":1,""viewing_time"":4799.974999856204}]","17822.129999753088","instructions","1","26322","0.0-1.0","SS1618435647453","instructions","","","","","","","","","","","","","","","",""
"","4858.150000218302","sequential-stimulus-presentation-old","2","31683","0.0-2.0","SS1618435647453","","","40","500","5358.150000218302","null","null","self_paced","","","","","","","","",""
"","6433.62500006333","sequential-stimulus-presentation-old","3","38618","0.0-3.0","SS1618435647453","","","40","500","6933.62500006333","null","null","self_paced","","","","","","","","",""
"[{""page_index"":0,""viewing_time"":12671.169999986887}]","12671.374999918044","instructions","4","51290","0.0-4.0","SS1618435647453","instructions","","","","","","","","","","","","","","","",""
"","1862.5400001183152","sequential-stimulus-presentation-old","5","58155","0.0-5.0","SS1618435647453","","","40","500","2362.540000118315","null","null","forced_long","","","","","","","","",""
"","2484.3500000424683","sequential-stimulus-presentation-old","6","60691","0.0-6.0","SS1618435647453","","","40","50","2534.3500000424683","null","null","forced_long","","","","","","","","",""
"[{""page_index"":0,""viewing_time"":4903.17999990657}]","4903.359999880195","instructions","7","65595","0.0-7.0","SS1618435647453","instructions","","","","","","","","","","","","","","","",""
"[{""page_index"":0,""viewing_time"":6543.06499985978},{""page_index"":1,""viewing_time"":8967.995000071824},{""page_index"":2,""viewing_time"":4744.244999717921},{""page_index"":3,""viewing_time"":1311.6100002080202},{""page_index"":4,""viewing_time"":1216.0849999636412}]","22783.185000065714","instructions","8","88378","0.0-8.0","SS1618435647453","instructions","","","","","","","","","","","","","","","",""
"","null","html-keyboard-response","9","89488","0.0-9.0-0.0","SS1618435647453","","","null","","","","","","<p><img src= images/blank.png width =""600"" height = ""600"" style=""position:fixed;top:50%; left:50%; transform: translate(-50%, -50%); border:5px solid black"">","","","","","","","",""
"","1069.7400001809","sequential-stimulus-presentation-old","10","90610","0.0-9.0-1.0","SS1618435647453","trial","","40","500","1569.7400001809","images/stimuli/spore_stims/simple_16_A_a.gif","images/stimuli/spore_stims/simple_19_A_b.gif","forced_short","","0","simple_dissimilar","images/stimuli/spore_stims/simple_19_A_b.gif","","","","",""
"","null","html-keyboard-response","11","91809","0.0-9.0-0.1","SS1618435647453","","","null","","","","","","<p><img src= images/blank.png width =""600"" height = ""600"" style=""position:fixed;top:50%; left:50%; transform: translate(-50%, -50%); border:5px solid black"">","","","","","","","",""
"","10891.224999912083","sequential-stimulus-presentation-old","12","103203","0.0-9.0-1.1","SS1618435647453","trial","","40","500","11391.224999912083","images/stimuli/spore_stims/simple_16_A_a.gif","images/stimuli/spore_stims/simple_19_A_b.gif","forced_short","","0","simple_dissimilar","images/stimuli/spore_stims/simple_19_A_b.gif","","","","",""
"","null","html-keyboard-response","13","104399","0.0-9.0-0.2","SS1618435647453","","","null","","","","","","<p><img src= images/blank.png width =""600"" height = ""600"" style=""position:fixed;top:50%; left:50%; transform: translate(-50%, -50%); border:5px solid black"">","","","","","","","",""
"","1693.7099997885525","sequential-stimulus-presentation-old","14","106595","0.0-9.0-1.2","SS1618435647453","trial","","40","500","2193.7099997885525","images/stimuli/spore_stims/simple_16_A_a.gif","images/stimuli/spore_stims/simple_19_A_b.gif","forced_short","","0","simple_dissimilar","images/stimuli/spore_stims/simple_19_A_b.gif","","","","",""
"","null","html-keyboard-response","15","107768","0.0-9.0-0.3","SS1618435647453","","","null","","","","","","<p><img src= images/blank.png width =""600"" height = ""600"" style=""position:fixed;top:50%; left:50%; transform: translate(-50%, -50%); border:5px solid black"">","","","","","","","",""
"","2208.949999883771","sequential-stimulus-presentation-old","16","110490","0.0-9.0-1.3","SS1618435647453","trial","","40","500","2708.949999883771","images/stimuli/spore_stims/simple_16_A_a.gif","images/stimuli/spore_stims/simple_19_A_b.gif","forced_short","","0","simple_dissimilar","images/stimuli/spore_stims/simple_19_A_b.gif","","","","",""
"","null","html-keyboard-response","17","111787","0.0-9.0-0.4","SS1618435647453","","","null","","","","","","<p><img src= images/blank.png width =""600"" height = ""600"" style=""position:fixed;top:50%; left:50%; transform: translate(-50%, -50%); border:5px solid black"">","","","","","","","",""
"","2032.4650001712143","sequential-stimulus-presentation-old","18","114323","0.0-9.0-1.4","SS1618435647453","trial","","40","500","2532.4650001712143","images/stimuli/spore_stims/simple_16_A_a.gif","images/stimuli/spore_stims/simple_19_A_b.gif","forced_short","","0","simple_dissimilar","images/stimuli/spore_stims/simple_19_A_b.gif","","","","",""
"","null","html-keyboard-response","19","115561","0.0-9.0-0.5","SS1618435647453","","","null","","","","","","<p><img src= images/blank.png width =""600"" height = ""600"" style=""position:fixed;top:50%; left:50%; transform: translate(-50%, -50%); border:5px solid black"">","","","","","","","",""
"","1874.8150002211332","sequential-stimulus-presentation-old","20","117938","0.0-9.0-1.5","SS1618435647453","trial","","40","500","2374.8150002211332","images/stimuli/spore_stims/simple_16_A_a.gif","images/stimuli/spore_stims/simple_19_A_b.gif","forced_short","","0","simple_dissimilar","images/stimuli/spore_stims/simple_19_A_b.gif","","","","",""
"","3710.614999756217","survey-multi-choice","21","121651","0.0-10.0","SS1618435647453","math_question","","","","","","","","","","","","{""Q0"":""9""}","[0]","9","",""
"","null","html-keyboard-response","22","122813","0.0-11.0-0.0","SS1618435647453","","","null","","","","","","<p><img src= images/blank.png width =""600"" height = ""600"" style=""position:fixed;top:50%; left:50%; transform: translate(-50%, -50%); border:5px solid black"">","","","","","","","",""
"","777.619999833405","sequential-stimulus-presentation-old","23","128595","0.0-11.0-1.0","SS1618435647453","trial","","40","500","1277.619999833405","images/stimuli/spore_stims/simple_03_A_a.gif","images/stimuli/spore_stims/simple_10_A_b.gif","forced_long","","1","simple_dissimilar","images/stimuli/spore_stims/simple_10_A_b.gif","","","","",""
"","null","html-keyboard-response","24","129658","0.0-11.0-0.1","SS1618435647453","","","null","","","","","","<p><img src= images/blank.png width =""600"" height = ""600"" style=""position:fixed;top:50%; left:50%; transform: translate(-50%, -50%); border:5px solid black"">","","","","","","","",""
"","4090.0099999271333","sequential-stimulus-presentation-old","25","134250","0.0-11.0-1.1","SS1618435647453","trial","","40","500","4590.009999927133","images/stimuli/spore_stims/simple_03_A_a.gif","images/stimuli/spore_stims/simple_10_A_b.gif","forced_long","","1","simple_dissimilar","images/stimuli/spore_stims/simple_10_A_b.gif","","","","",""
"","null","html-keyboard-response","26","135186","0.0-11.0-0.2","SS1618435647453","","","null","","","","","","<p><img src= images/blank.png width =""600"" height = ""600"" style=""position:fixed;top:50%; left:50%; transform: translate(-50%, -50%); border:5px solid black"">","","","","","","","",""
"","6026.404999662191","sequential-stimulus-presentation-old","27","141714","0.0-11.0-1.2","SS1618435647453","trial","","40","500","6526.404999662191","images/stimuli/spore_stims/simple_03_A_a.gif","images/stimuli/spore_stims/simple_10_A_b.gif","forced_long","","1","simple_dissimilar","images/stimuli/spore_stims/simple_03_A_a.gif","","","","",""
"","null","html-keyboard-response","28","142588","0.0-11.0-0.3","SS1618435647453","","","null","","","","","","<p><img src= images/blank.png width =""600"" height = ""600"" style=""position:fixed;top:50%; left:50%; transform: translate(-50%, -50%); border:5px solid black"">","","","","","","","",""
"","4264.425000175834","sequential-stimulus-presentation-old","29","147354","0.0-11.0-1.3","SS1618435647453","trial","","40","500","4764.425000175834","images/stimuli/spore_stims/simple_03_A_a.gif","images/stimuli/spore_stims/simple_10_A_b.gif","forced_long","","1","simple_dissimilar","images/stimuli/spore_stims/simple_10_A_b.gif","","","","",""
"","null","html-keyboard-response","30","148324","0.0-11.0-0.4","SS1618435647453","","","null","","","","","","<p><img src= images/blank.png width =""600"" height = ""600"" style=""position:fixed;top:50%; left:50%; transform: translate(-50%, -50%); border:5px solid black"">","","","","","","","",""
"","3376.4550001360476","sequential-stimulus-presentation-old","31","152203","0.0-11.0-1.4","SS1618435647453","trial","","40","500","3876.4550001360476","images/stimuli/spore_stims/simple_03_A_a.gif","images/stimuli/spore_stims/simple_10_A_b.gif","forced_long","","1","simple_dissimilar","images/stimuli/spore_stims/simple_10_A_b.gif","","","","",""
"","null","html-keyboard-response","32","153374","0.0-11.0-0.5","SS1618435647453","","","null","","","","","","<p><img src= images/blank.png width =""600"" height = ""600"" style=""position:fixed;top:50%; left:50%; transform: translate(-50%, -50%); border:5px solid black"">","","","","","","","",""
"","2345.000000204891","sequential-stimulus-presentation-old","33","156226","0.0-11.0-1.5","SS1618435647453","trial","","40","500","2845.000000204891","images/stimuli/spore_stims/simple_03_A_a.gif","images/stimuli/spore_stims/simple_10_A_b.gif","forced_long","","1","simple_dissimilar","images/stimuli/spore_stims/simple_10_A_b.gif","","","","",""
"","3367.0049998909235","survey-multi-choice","34","159595","0.0-12.0","SS1618435647453","math_question","","","","","","","","","","","","{""Q0"":""11""}","[0]","11","",""
"","null","html-keyboard-response","35","160802","0.0-13.0-0.0","SS1618435647453","","","null","","","","","","<p><img src= images/blank.png width =""600"" height = ""600"" style=""position:fixed;top:50%; left:50%; transform: translate(-50%, -50%); border:5px solid black"">","","","","","","","",""
"","826.3799999840558","sequential-stimulus-presentation-old","36","161682","0.0-13.0-1.0","SS1618435647453","trial","","40","500","1326.3799999840558","images/stimuli/spore_stims/complex_01_A_a.gif","images/stimuli/spore_stims/complex_05_A_b.gif","forced_short","","2","complex_dissimilar","images/stimuli/spore_stims/complex_05_A_b.gif","","","","",""
"","null","html-keyboard-response","37","162544","0.0-13.0-0.1","SS1618435647453","","","null","","","","","","<p><img src= images/blank.png width =""600"" height = ""600"" style=""position:fixed;top:50%; left:50%; transform: translate(-50%, -50%); border:5px solid black"">","","","","","","","",""
"","6772.394999861717","sequential-stimulus-presentation-old","38","169819","0.0-13.0-1.1","SS1618435647453","trial","","40","500","7272.394999861717","images/stimuli/spore_stims/complex_01_A_a.gif","images/stimuli/spore_stims/complex_05_A_b.gif","forced_short","","2","complex_dissimilar","images/stimuli/spore_stims/complex_05_A_b.gif","","","","",""
"","null","html-keyboard-response","39","170955","0.0-13.0-0.2","SS1618435647453","","","null","","","","","","<p><img src= images/blank.png width =""600"" height = ""600"" style=""position:fixed;top:50%; left:50%; transform: translate(-50%, -50%); border:5px solid black"">","","","","","","","",""
"","6120.480000041425","sequential-stimulus-presentation-old","40","177578","0.0-13.0-1.2","SS1618435647453","trial","","40","500","6620.480000041425","images/stimuli/spore_stims/complex_01_A_a.gif","images/stimuli/spore_stims/complex_05_A_b.gif","forced_short","","2","complex_dissimilar","images/stimuli/spore_stims/complex_05_A_b.gif","","","","",""
"","null","html-keyboard-response","41","178570","0.0-13.0-0.3","SS1618435647453","","","null","","","","","","<p><img src= images/blank.png width =""600"" height = ""600"" style=""position:fixed;top:50%; left:50%; transform: translate(-50%, -50%); border:5px solid black"">","","","","","","","",""
"","2521.2199999950826","sequential-stimulus-presentation-old","42","181595","0.0-13.0-1.3","SS1618435647453","trial","","40","500","3021.2199999950826","images/stimuli/spore_stims/complex_01_A_a.gif","images/stimuli/spore_stims/complex_05_A_b.gif","forced_short","","2","complex_dissimilar","images/stimuli/spore_stims/complex_05_A_b.gif","","","","",""
"","null","html-keyboard-response","43","182751","0.0-13.0-0.4","SS1618435647453","","","null","","","","","","<p><img src= images/blank.png width =""600"" height = ""600"" style=""position:fixed;top:50%; left:50%; transform: translate(-50%, -50%); border:5px solid black"">","","","","","","","",""
"","3132.994999643415","sequential-stimulus-presentation-old","44","186387","0.0-13.0-1.4","SS1618435647453","trial","","40","500","3632.994999643415","images/stimuli/spore_stims/complex_01_A_a.gif","images/stimuli/spore_stims/complex_05_A_b.gif","forced_short","","2","complex_dissimilar","images/stimuli/spore_stims/complex_05_A_b.gif","","","","",""
"","null","html-keyboard-response","45","187325","0.0-13.0-0.5","SS1618435647453","","","null","","","","","","<p><img src= images/blank.png width =""600"" height = ""600"" style=""position:fixed;top:50%; left:50%; transform: translate(-50%, -50%); border:5px solid black"">","","","","","","","",""
"","3206.0150001198053","sequential-stimulus-presentation-old","46","191034","0.0-13.0-1.5","SS1618435647453","trial","","40","500","3706.0150001198053","images/stimuli/spore_stims/complex_01_A_a.gif","images/stimuli/spore_stims/complex_05_A_b.gif","forced_short","","2","complex_dissimilar","images/stimuli/spore_stims/complex_01_A_a.gif","","","","",""
"","3278.6899995990098","survey-multi-choice","47","194315","0.0-14.0","SS1618435647453","math_question","","","","","","","","","","","","{""Q0"":""10""}","[0]","10","",""
"","null","html-keyboard-response","48","195442","0.0-15.0-0.0","SS1618435647453","","","null","","","","","","<p><img src= images/blank.png width =""600"" height = ""600"" style=""position:fixed;top:50%; left:50%; transform: translate(-50%, -50%); border:5px solid black"">","","","","","","","",""
"","243.91499999910593","sequential-stimulus-presentation-old","49","200698","0.0-15.0-1.0","SS1618435647453","trial","","40","500","743.9149999991059","images/stimuli/spore_stims/complex_18_A_b.gif","images/stimuli/spore_stims/complex_19_A_a.gif","forced_long","","3","complex_dissimilar","images/stimuli/spore_stims/complex_19_A_a.gif","","","","",""
"","null","html-keyboard-response","50","201873","0.0-15.0-0.1","SS1618435647453","","","null","","","","","","<p><img src= images/blank.png width =""600"" height = ""600"" style=""position:fixed;top:50%; left:50%; transform: translate(-50%, -50%); border:5px solid black"">","","","","","","","",""
"","1674.875000026077","sequential-stimulus-presentation-old","51","204050","0.0-15.0-1.1","SS1618435647453","trial","","40","500","2174.875000026077","images/stimuli/spore_stims/complex_18_A_b.gif","images/stimuli/spore_stims/complex_19_A_a.gif","forced_long","","3","complex_dissimilar","images/stimuli/spore_stims/complex_19_A_a.gif","","","","",""
"","null","html-keyboard-response","52","205232","0.0-15.0-0.2","SS1618435647453","","","null","","","","","","<p><img src= images/blank.png width =""600"" height = ""600"" style=""position:fixed;top:50%; left:50%; transform: translate(-50%, -50%); border:5px solid black"">","","","","","","","",""
"","2508.119999896735","sequential-stimulus-presentation-old","53","208242","0.0-15.0-1.2","SS1618435647453","trial","","40","500","3008.119999896735","images/stimuli/spore_stims/complex_18_A_b.gif","images/stimuli/spore_stims/complex_19_A_a.gif","forced_long","","3","complex_dissimilar","images/stimuli/spore_stims/complex_19_A_a.gif","","","","",""
"","null","html-keyboard-response","54","209350","0.0-15.0-0.3","SS1618435647453","","","null","","","","","","<p><img src= images/blank.png width =""600"" height = ""600"" style=""position:fixed;top:50%; left:50%; transform: translate(-50%, -50%); border:5px solid black"">","","","","","","","",""
"","4717.9049998521805","sequential-stimulus-presentation-old","55","214570","0.0-15.0-1.3","SS1618435647453","trial","","40","500","5217.9049998521805","images/stimuli/spore_stims/complex_18_A_b.gif","images/stimuli/spore_stims/complex_19_A_a.gif","forced_long","","3","complex_dissimilar","images/stimuli/spore_stims/complex_18_A_b.gif","","","","",""
"","3206.359999720007","survey-multi-choice","56","217779","0.0-16.0","SS1618435647453","math_question","","","","","","","","","","","","{""Q0"":""10""}","[0]","10","",""
"","null","html-keyboard-response","57","218975","0.0-17.0-0.0","SS1618435647453","","","null","","","","","","<p><img src= images/blank.png width =""600"" height = ""600"" style=""position:fixed;top:50%; left:50%; transform: translate(-50%, -50%); border:5px solid black"">","","","","","","","",""
"","2924.234999809414","sequential-stimulus-presentation-old","58","222402","0.0-17.0-1.0","SS1618435647453","trial","","40","500","3424.234999809414","images/stimuli/spore_stims/simple_09_A_b.gif","images/stimuli/spore_stims/simple_05_A_a.gif","self_paced","","4","simple_dissimilar","images/stimuli/spore_stims/simple_05_A_a.gif","","","","",""
"","null","html-keyboard-response","59","223616","0.0-17.0-0.1","SS1618435647453","","","null","","","","","","<p><img src= images/blank.png width =""600"" height = ""600"" style=""position:fixed;top:50%; left:50%; transform: translate(-50%, -50%); border:5px solid black"">","","","","","","","",""
"","3779.6149998903275","sequential-stimulus-presentation-old","60","227898","0.0-17.0-1.1","SS1618435647453","trial","","40","500","4279.614999890327","images/stimuli/spore_stims/simple_09_A_b.gif","images/stimuli/spore_stims/simple_05_A_a.gif","self_paced","","4","simple_dissimilar","images/stimuli/spore_stims/simple_09_A_b.gif","","","","",""
"","null","html-keyboard-response","61","229153","0.0-17.0-0.2","SS1618435647453","","","null","","","","","","<p><img src= images/blank.png width =""600"" height = ""600"" style=""position:fixed;top:50%; left:50%; transform: translate(-50%, -50%); border:5px solid black"">","","","","","","","",""
"","1121.5400001965463","sequential-stimulus-presentation-old","62","230777","0.0-17.0-1.2","SS1618435647453","trial","","40","500","1621.5400001965463","images/stimuli/spore_stims/simple_09_A_b.gif","images/stimuli/spore_stims/simple_05_A_a.gif","self_paced","","4","simple_dissimilar","images/stimuli/spore_stims/simple_09_A_b.gif","","","","",""
"","null","html-keyboard-response","63","231714","0.0-17.0-0.3","SS1618435647453","","","null","","","","","","<p><img src= images/blank.png width =""600"" height = ""600"" style=""position:fixed;top:50%; left:50%; transform: translate(-50%, -50%); border:5px solid black"">","","","","","","","",""
"","2287.2799998149276","sequential-stimulus-presentation-old","64","234505","0.0-17.0-1.3","SS1618435647453","trial","","40","500","2787.2799998149276","images/stimuli/spore_stims/simple_09_A_b.gif","images/stimuli/spore_stims/simple_05_A_a.gif","self_paced","","4","simple_dissimilar","images/stimuli/spore_stims/simple_05_A_a.gif","","","","",""
"","2838.8800001703203","survey-multi-choice","65","237346","0.0-18.0","SS1618435647453","math_question","","","","","","","","","","","","{""Q0"":""10""}","[0]","10","",""
"","null","html-keyboard-response","66","238385","0.0-19.0-0.0","SS1618435647453","","","null","","","","","","<p><img src= images/blank.png width =""600"" height = ""600"" style=""position:fixed;top:50%; left:50%; transform: translate(-50%, -50%); border:5px solid black"">","","","","","","","",""
"","4542.489999905229","sequential-stimulus-presentation-old","67","247945","0.0-19.0-1.0","SS1618435647453","trial","","40","500","5042.489999905229","images/stimuli/spore_stims/complex_19_A_b.gif","images/stimuli/spore_stims/complex_13_A_a.gif","forced_long","","5","complex_dissimilar","images/stimuli/spore_stims/complex_13_A_a.gif","","","","",""
"","null","html-keyboard-response","68","248857","0.0-19.0-0.1","SS1618435647453","","","null","","","","","","<p><img src= images/blank.png width =""600"" height = ""600"" style=""position:fixed;top:50%; left:50%; transform: translate(-50%, -50%); border:5px solid black"">","","","","","","","",""
"","1344.099999871105","sequential-stimulus-presentation-old","69","250705","0.0-19.0-1.1","SS1618435647453","trial","","40","500","1844.099999871105","images/stimuli/spore_stims/complex_19_A_b.gif","images/stimuli/spore_stims/complex_13_A_a.gif","forced_long","","5","complex_dissimilar","images/stimuli/spore_stims/complex_19_A_b.gif","","","","",""
"","null","html-keyboard-response","70","251801","0.0-19.0-0.2","SS1618435647453","","","null","","","","","","<p><img src= images/blank.png width =""600"" height = ""600"" style=""position:fixed;top:50%; left:50%; transform: translate(-50%, -50%); border:5px solid black"">","","","","","","","",""
"","2249.55500010401","sequential-stimulus-presentation-old","71","254554","0.0-19.0-1.2","SS1618435647453","trial","","40","500","2749.55500010401","images/stimuli/spore_stims/complex_19_A_b.gif","images/stimuli/spore_stims/complex_13_A_a.gif","forced_long","","5","complex_dissimilar","images/stimuli/spore_stims/complex_13_A_a.gif","","","","",""
"","null","html-keyboard-response","72","255836","0.0-19.0-0.3","SS1618435647453","","","null","","","","","","<p><img src= images/blank.png width =""600"" height = ""600"" style=""position:fixed;top:50%; left:50%; transform: translate(-50%, -50%); border:5px solid black"">","","","","","","","",""
"","927.7599998749793","sequential-stimulus-presentation-old","73","257281","0.0-19.0-1.3","SS1618435647453","trial","","40","500","1427.7599998749793","images/stimuli/spore_stims/complex_19_A_b.gif","images/stimuli/spore_stims/complex_13_A_a.gif","forced_long","","5","complex_dissimilar","images/stimuli/spore_stims/complex_13_A_a.gif","","","","",""
"","null","html-keyboard-response","74","258323","0.0-19.0-0.4","SS1618435647453","","","null","","","","","","<p><img src= images/blank.png width =""600"" height = ""600"" style=""position:fixed;top:50%; left:50%; transform: translate(-50%, -50%); border:5px solid black"">","","","","","","","",""
"","1455.2199998870492","sequential-stimulus-presentation-old","75","260281","0.0-19.0-1.4","SS1618435647453","trial","","40","500","1955.2199998870492","images/stimuli/spore_stims/complex_19_A_b.gif","images/stimuli/spore_stims/complex_13_A_a.gif","forced_long","","5","complex_dissimilar","images/stimuli/spore_stims/complex_19_A_b.gif","","","","",""
"","3118.6750000342727","survey-multi-choice","76","263402","0.0-20.0","SS1618435647453","math_question","","","","","","","","","","","","{""Q0"":""12""}","[0]","12","",""
"","null","html-keyboard-response","77","264486","0.0-21.0-0.0","SS1618435647453","","","null","","","","","","<p><img src= images/blank.png width =""600"" height = ""600"" style=""position:fixed;top:50%; left:50%; transform: translate(-50%, -50%); border:5px solid black"">","","","","","","","",""
"","806.5149998292327","sequential-stimulus-presentation-old","78","265346","0.0-21.0-1.0","SS1618435647453","trial","","40","500","1306.5149998292327","images/stimuli/spore_stims/complex_14_A_a.gif","images/stimuli/spore_stims/complex_12_A_b.gif","forced_short","","6","complex_dissimilar","images/stimuli/spore_stims/complex_12_A_b.gif","","","","",""
"","null","html-keyboard-response","79","266252","0.0-21.0-0.1","SS1618435647453","","","null","","","","","","<p><img src= images/blank.png width =""600"" height = ""600"" style=""position:fixed;top:50%; left:50%; transform: translate(-50%, -50%); border:5px solid black"">","","","","","","","",""
"","2956.739999819547","sequential-stimulus-presentation-old","80","269721","0.0-21.0-1.1","SS1618435647453","trial","","40","500","3456.739999819547","images/stimuli/spore_stims/complex_14_A_a.gif","images/stimuli/spore_stims/complex_12_A_b.gif","forced_short","","6","complex_dissimilar","images/stimuli/spore_stims/complex_14_A_a.gif","","","","",""
"","null","html-keyboard-response","81","270885","0.0-21.0-0.2","SS1618435647453","","","null","","","","","","<p><img src= images/blank.png width =""600"" height = ""600"" style=""position:fixed;top:50%; left:50%; transform: translate(-50%, -50%); border:5px solid black"">","","","","","","","",""
"","3732.270000036806","sequential-stimulus-presentation-old","82","275121","0.0-21.0-1.2","SS1618435647453","trial","","40","500","4232.270000036806","images/stimuli/spore_stims/complex_14_A_a.gif","images/stimuli/spore_stims/complex_12_A_b.gif","forced_short","","6","complex_dissimilar","images/stimuli/spore_stims/complex_12_A_b.gif","","","","",""
"","null","html-keyboard-response","83","276011","0.0-21.0-0.3","SS1618435647453","","","null","","","","","","<p><img src= images/blank.png width =""600"" height = ""600"" style=""position:fixed;top:50%; left:50%; transform: translate(-50%, -50%); border:5px solid black"">","","","","","","","",""
"","1407.8250001184642","sequential-stimulus-presentation-old","84","277921","0.0-21.0-1.3","SS1618435647453","trial","","40","500","1907.8250001184642","images/stimuli/spore_stims/complex_14_A_a.gif","images/stimuli/spore_stims/complex_12_A_b.gif","forced_short","","6","complex_dissimilar","images/stimuli/spore_stims/complex_12_A_b.gif","","","","",""
"","null","html-keyboard-response","85","278937","0.0-21.0-0.4","SS1618435647453","","","null","","","","","","<p><img src= images/blank.png width =""600"" height = ""600"" style=""position:fixed;top:50%; left:50%; transform: translate(-50%, -50%); border:5px solid black"">","","","","","","","",""
"","2440.1799999177456","sequential-stimulus-presentation-old","86","281889","0.0-21.0-1.4","SS1618435647453","trial","","40","500","2940.1799999177456","images/stimuli/spore_stims/complex_14_A_a.gif","images/stimuli/spore_stims/complex_12_A_b.gif","forced_short","","6","complex_dissimilar","images/stimuli/spore_stims/complex_12_A_b.gif","","","","",""
"","3470.689999870956","survey-multi-choice","87","285361","0.0-22.0","SS1618435647453","math_question","","","","","","","","","","","","{""Q0"":""7""}","[0]","7","",""
"","null","html-keyboard-response","88","286292","0.0-23.0-0.0","SS1618435647453","","","null","","","","","","<p><img src= images/blank.png width =""600"" height = ""600"" style=""position:fixed;top:50%; left:50%; transform: translate(-50%, -50%); border:5px solid black"">","","","","","","","",""
"","575.5699998699129","sequential-stimulus-presentation-old","89","286921","0.0-23.0-1.0","SS1618435647453","trial","","40","500","1075.5699998699129","images/stimuli/spore_stims/simple_12_A_b.gif","images/stimuli/spore_stims/simple_19_A_a.gif","forced_short","","7","simple_dissimilar","images/stimuli/spore_stims/simple_19_A_a.gif","","","","",""
"","null","html-keyboard-response","90","287801","0.0-23.0-0.1","SS1618435647453","","","null","","","","","","<p><img src= images/blank.png width =""600"" height = ""600"" style=""position:fixed;top:50%; left:50%; transform: translate(-50%, -50%); border:5px solid black"">","","","","","","","",""
"","2169.8199999518692","sequential-stimulus-presentation-old","91","290474","0.0-23.0-1.1","SS1618435647453","trial","","40","500","2669.8199999518692","images/stimuli/spore_stims/simple_12_A_b.gif","images/stimuli/spore_stims/simple_19_A_a.gif","forced_short","","7","simple_dissimilar","images/stimuli/spore_stims/simple_12_A_b.gif","","","","",""
"","null","html-keyboard-response","92","291582","0.0-23.0-0.2","SS1618435647453","","","null","","","","","","<p><img src= images/blank.png width =""600"" height = ""600"" style=""position:fixed;top:50%; left:50%; transform: translate(-50%, -50%); border:5px solid black"">","","","","","","","",""
"","3280.4050003178418","sequential-stimulus-presentation-old","93","295377","0.0-23.0-1.2","SS1618435647453","trial","","40","500","3780.4050003178418","images/stimuli/spore_stims/simple_12_A_b.gif","images/stimuli/spore_stims/simple_19_A_a.gif","forced_short","","7","simple_dissimilar","images/stimuli/spore_stims/simple_19_A_a.gif","","","","",""
"","null","html-keyboard-response","94","296375","0.0-23.0-0.3","SS1618435647453","","","null","","","","","","<p><img src= images/blank.png width =""600"" height = ""600"" style=""position:fixed;top:50%; left:50%; transform: translate(-50%, -50%); border:5px solid black"">","","","","","","","",""
"","2074.8149999417365","sequential-stimulus-presentation-old","95","298953","0.0-23.0-1.3","SS1618435647453","trial","","40","500","2574.8149999417365","images/stimuli/spore_stims/simple_12_A_b.gif","images/stimuli/spore_stims/simple_19_A_a.gif","forced_short","","7","simple_dissimilar","images/stimuli/spore_stims/simple_19_A_a.gif","","","","",""
"","null","html-keyboard-response","96","299993","0.0-23.0-0.4","SS1618435647453","","","null","","","","","","<p><img src= images/blank.png width =""600"" height = ""600"" style=""position:fixed;top:50%; left:50%; transform: translate(-50%, -50%); border:5px solid black"">","","","","","","","",""
"","1867.474999744445","sequential-stimulus-presentation-old","97","302370","0.0-23.0-1.4","SS1618435647453","trial","","40","500","2367.474999744445","images/stimuli/spore_stims/simple_12_A_b.gif","images/stimuli/spore_stims/simple_19_A_a.gif","forced_short","","7","simple_dissimilar","images/stimuli/spore_stims/simple_19_A_a.gif","","","","",""
"","null","html-keyboard-response","98","303502","0.0-23.0-0.5","SS1618435647453","","","null","","","","","","<p><img src= images/blank.png width =""600"" height = ""600"" style=""position:fixed;top:50%; left:50%; transform: translate(-50%, -50%); border:5px solid black"">","","","","","","","",""
"","1102.770000230521","sequential-stimulus-presentation-old","99","305121","0.0-23.0-1.5","SS1618435647453","trial","","40","500","1602.770000230521","images/stimuli/spore_stims/simple_12_A_b.gif","images/stimuli/spore_stims/simple_19_A_a.gif","forced_short","","7","simple_dissimilar","images/stimuli/spore_stims/simple_19_A_a.gif","","","","",""
"","2918.620000127703","survey-multi-choice","100","308042","0.0-24.0","SS1618435647453","math_question","","","","","","","","","","","","{""Q0"":""11""}","[0]","11","",""
"","null","html-keyboard-response","101","308869","0.0-25.0-0.0","SS1618435647453","","","null","","","","","","<p><img src= images/blank.png width =""600"" height = ""600"" style=""position:fixed;top:50%; left:50%; transform: translate(-50%, -50%); border:5px solid black"">","","","","","","","",""
"","3198.020000010729","sequential-stimulus-presentation-old","102","312570","0.0-25.0-1.0","SS1618435647453","trial","","40","500","3698.020000010729","images/stimuli/spore_stims/simple_07_A_b.gif","images/stimuli/spore_stims/simple_13_A_a.gif","self_paced","","8","simple_dissimilar","images/stimuli/spore_stims/simple_13_A_a.gif","","","","",""
"","null","html-keyboard-response","103","313530","0.0-25.0-0.1","SS1618435647453","","","null","","","","","","<p><img src= images/blank.png width =""600"" height = ""600"" style=""position:fixed;top:50%; left:50%; transform: translate(-50%, -50%); border:5px solid black"">","","","","","","","",""
"","3136.4299999549985","sequential-stimulus-presentation-old","104","317169","0.0-25.0-1.1","SS1618435647453","trial","","40","500","3636.4299999549985","images/stimuli/spore_stims/simple_07_A_b.gif","images/stimuli/spore_stims/simple_13_A_a.gif","self_paced","","8","simple_dissimilar","images/stimuli/spore_stims/simple_07_A_b.gif","","","","",""
"","null","html-keyboard-response","105","318413","0.0-25.0-0.2","SS1618435647453","","","null","","","","","","<p><img src= images/blank.png width =""600"" height = ""600"" style=""position:fixed;top:50%; left:50%; transform: translate(-50%, -50%); border:5px solid black"">","","","","","","","",""
"","3909.9300000816584","sequential-stimulus-presentation-old","106","322825","0.0-25.0-1.2","SS1618435647453","trial","","40","500","4409.930000081658","images/stimuli/spore_stims/simple_07_A_b.gif","images/stimuli/spore_stims/simple_13_A_a.gif","self_paced","","8","simple_dissimilar","images/stimuli/spore_stims/simple_13_A_a.gif","","","","",""
"","null","html-keyboard-response","107","324012","0.0-25.0-0.3","SS1618435647453","","","null","","","","","","<p><img src= images/blank.png width =""600"" height = ""600"" style=""position:fixed;top:50%; left:50%; transform: translate(-50%, -50%); border:5px solid black"">","","","","","","","",""
"","2142.354999668896","sequential-stimulus-presentation-old","108","326657","0.0-25.0-1.3","SS1618435647453","trial","","40","500","2642.354999668896","images/stimuli/spore_stims/simple_07_A_b.gif","images/stimuli/spore_stims/simple_13_A_a.gif","self_paced","","8","simple_dissimilar","images/stimuli/spore_stims/simple_13_A_a.gif","","","","",""
"","null","html-keyboard-response","109","327961","0.0-25.0-0.4","SS1618435647453","","","null","","","","","","<p><img src= images/blank.png width =""600"" height = ""600"" style=""position:fixed;top:50%; left:50%; transform: translate(-50%, -50%); border:5px solid black"">","","","","","","","",""
"","1784.9900000728667","sequential-stimulus-presentation-old","110","330249","0.0-25.0-1.4","SS1618435647453","trial","","40","500","2284.9900000728667","images/stimuli/spore_stims/simple_07_A_b.gif","images/stimuli/spore_stims/simple_13_A_a.gif","self_paced","","8","simple_dissimilar","images/stimuli/spore_stims/simple_13_A_a.gif","","","","",""
"","null","html-keyboard-response","111","331402","0.0-25.0-0.5","SS1618435647453","","","null","","","","","","<p><img src= images/blank.png width =""600"" height = ""600"" style=""position:fixed;top:50%; left:50%; transform: translate(-50%, -50%); border:5px solid black"">","","","","","","","",""
"","2853.1299997121096","sequential-stimulus-presentation-old","112","334770","0.0-25.0-1.5","SS1618435647453","trial","","40","500","3353.1299997121096","images/stimuli/spore_stims/simple_07_A_b.gif","images/stimuli/spore_stims/simple_13_A_a.gif","self_paced","","8","simple_dissimilar","images/stimuli/spore_stims/simple_13_A_a.gif","","","","",""
"","3213.7699997983873","survey-multi-choice","113","337985","0.0-26.0","SS1618435647453","math_question","","","","","","","","","","","","{""Q0"":""12""}","[0]","12","",""
"","null","html-keyboard-response","114","338979","0.0-27.0-0.0","SS1618435647453","","","null","","","","","","<p><img src= images/blank.png width =""600"" height = ""600"" style=""position:fixed;top:50%; left:50%; transform: translate(-50%, -50%); border:5px solid black"">","","","","","","","",""
"","3189.455000218004","sequential-stimulus-presentation-old","115","342681","0.0-27.0-1.0","SS1618435647453","trial","","40","500","3689.455000218004","images/stimuli/spore_stims/complex_15_A_a.gif","images/stimuli/spore_stims/complex_08_A_b.gif","self_paced","","9","complex_dissimilar","images/stimuli/spore_stims/complex_08_A_b.gif","","","","",""
"","null","html-keyboard-response","116","343730","0.0-27.0-0.1","SS1618435647453","","","null","","","","","","<p><img src= images/blank.png width =""600"" height = ""600"" style=""position:fixed;top:50%; left:50%; transform: translate(-50%, -50%); border:5px solid black"">","","","","","","","",""
"","1077.7199999429286","sequential-stimulus-presentation-old","117","345314","0.0-27.0-1.1","SS1618435647453","trial","","40","500","1577.7199999429286","images/stimuli/spore_stims/complex_15_A_a.gif","images/stimuli/spore_stims/complex_08_A_b.gif","self_paced","","9","complex_dissimilar","images/stimuli/spore_stims/complex_08_A_b.gif","","","","",""
"","null","html-keyboard-response","118","346534","0.0-27.0-0.2","SS1618435647453","","","null","","","","","","<p><img src= images/blank.png width =""600"" height = ""600"" style=""position:fixed;top:50%; left:50%; transform: translate(-50%, -50%); border:5px solid black"">","","","","","","","",""
"","1036.5249998867512","sequential-stimulus-presentation-old","119","348073","0.0-27.0-1.2","SS1618435647453","trial","","40","500","1536.5249998867512","images/stimuli/spore_stims/complex_15_A_a.gif","images/stimuli/spore_stims/complex_08_A_b.gif","self_paced","","9","complex_dissimilar","images/stimuli/spore_stims/complex_08_A_b.gif","","","","",""
"","null","html-keyboard-response","120","349137","0.0-27.0-0.3","SS1618435647453","","","null","","","","","","<p><img src= images/blank.png width =""600"" height = ""600"" style=""position:fixed;top:50%; left:50%; transform: translate(-50%, -50%); border:5px solid black"">","","","","","","","",""
"","1406.324999872595","sequential-stimulus-presentation-old","121","351057","0.0-27.0-1.3","SS1618435647453","trial","","40","500","1906.324999872595","images/stimuli/spore_stims/complex_15_A_a.gif","images/stimuli/spore_stims/complex_08_A_b.gif","self_paced","","9","complex_dissimilar","images/stimuli/spore_stims/complex_08_A_b.gif","","","","",""
"","null","html-keyboard-response","122","352166","0.0-27.0-0.4","SS1618435647453","","","null","","","","","","<p><img src= images/blank.png width =""600"" height = ""600"" style=""position:fixed;top:50%; left:50%; transform: translate(-50%, -50%); border:5px solid black"">","","","","","","","",""
"","3480.1799999549985","sequential-stimulus-presentation-old","123","356161","0.0-27.0-1.4","SS1618435647453","trial","","40","500","3980.1799999549985","images/stimuli/spore_stims/complex_15_A_a.gif","images/stimuli/spore_stims/complex_08_A_b.gif","self_paced","","9","complex_dissimilar","images/stimuli/spore_stims/complex_15_A_a.gif","","","","",""
"","null","html-keyboard-response","124","357442","0.0-27.0-0.5","SS1618435647453","","","null","","","","","","<p><img src= images/blank.png width =""600"" height = ""600"" style=""position:fixed;top:50%; left:50%; transform: translate(-50%, -50%); border:5px solid black"">","","","","","","","",""
"","2151.6950000077486","sequential-stimulus-presentation-old","125","360097","0.0-27.0-1.5","SS1618435647453","trial","","40","500","2651.6950000077486","images/stimuli/spore_stims/complex_15_A_a.gif","images/stimuli/spore_stims/complex_08_A_b.gif","self_paced","","9","complex_dissimilar","images/stimuli/spore_stims/complex_08_A_b.gif","","","","",""
"","3085.8399998396635","survey-multi-choice","126","363185","0.0-28.0","SS1618435647453","math_question","","","","","","","","","","","","{""Q0"":""13""}","[0]","13","",""
"","null","html-keyboard-response","127","364189","0.0-29.0-0.0","SS1618435647453","","","null","","","","","","<p><img src= images/blank.png width =""600"" height = ""600"" style=""position:fixed;top:50%; left:50%; transform: translate(-50%, -50%); border:5px solid black"">","","","","","","","",""
"","2400.0250003300607","sequential-stimulus-presentation-old","128","371593","0.0-29.0-1.0","SS1618435647453","trial","","40","500","2900.0250003300607","images/stimuli/spore_stims/simple_18_A_b.gif","images/stimuli/spore_stims/simple_02_A_a.gif","forced_long","","10","simple_dissimilar","images/stimuli/spore_stims/simple_02_A_a.gif","","","","",""
"","null","html-keyboard-response","129","372608","0.0-29.0-0.1","SS1618435647453","","","null","","","","","","<p><img src= images/blank.png width =""600"" height = ""600"" style=""position:fixed;top:50%; left:50%; transform: translate(-50%, -50%); border:5px solid black"">","","","","","","","",""
"","4577.114999759942","sequential-stimulus-presentation-old","130","377689","0.0-29.0-1.1","SS1618435647453","trial","","40","500","5077.114999759942","images/stimuli/spore_stims/simple_18_A_b.gif","images/stimuli/spore_stims/simple_02_A_a.gif","forced_long","","10","simple_dissimilar","images/stimuli/spore_stims/simple_02_A_a.gif","","","","",""
"","null","html-keyboard-response","131","378689","0.0-29.0-0.2","SS1618435647453","","","null","","","","","","<p><img src= images/blank.png width =""600"" height = ""600"" style=""position:fixed;top:50%; left:50%; transform: translate(-50%, -50%); border:5px solid black"">","","","","","","","",""
"","3233.1650000996888","sequential-stimulus-presentation-old","132","382425","0.0-29.0-1.2","SS1618435647453","trial","","40","500","3733.1650000996888","images/stimuli/spore_stims/simple_18_A_b.gif","images/stimuli/spore_stims/simple_02_A_a.gif","forced_long","","10","simple_dissimilar","images/stimuli/spore_stims/simple_02_A_a.gif","","","","",""
"","null","html-keyboard-response","133","383411","0.0-29.0-0.3","SS1618435647453","","","null","","","","","","<p><img src= images/blank.png width =""600"" height = ""600"" style=""position:fixed;top:50%; left:50%; transform: translate(-50%, -50%); border:5px solid black"">","","","","","","","",""
"","1670.0150002725422","sequential-stimulus-presentation-old","134","385585","0.0-29.0-1.3","SS1618435647453","trial","","40","500","2170.0150002725422","images/stimuli/spore_stims/simple_18_A_b.gif","images/stimuli/spore_stims/simple_02_A_a.gif","forced_long","","10","simple_dissimilar","images/stimuli/spore_stims/simple_02_A_a.gif","","","","",""
"","3094.030000269413","survey-multi-choice","135","388682","0.0-30.0","SS1618435647453","math_question","","","","","","","","","","","","{""Q0"":""11""}","[0]","11","",""
"","null","html-keyboard-response","136","389652","0.0-31.0-0.0","SS1618435647453","","","null","","","","","","<p><img src= images/blank.png width =""600"" height = ""600"" style=""position:fixed;top:50%; left:50%; transform: translate(-50%, -50%); border:5px solid black"">","","","","","","","",""
"","2734.3999999575317","sequential-stimulus-presentation-old","137","392889","0.0-31.0-1.0","SS1618435647453","trial","","40","500","3234.3999999575317","images/stimuli/spore_stims/complex_09_A_b.gif","images/stimuli/spore_stims/complex_07_A_a.gif","self_paced","","11","complex_dissimilar","images/stimuli/spore_stims/complex_07_A_a.gif","","","","",""
"","null","html-keyboard-response","138","394172","0.0-31.0-0.1","SS1618435647453","","","null","","","","","","<p><img src= images/blank.png width =""600"" height = ""600"" style=""position:fixed;top:50%; left:50%; transform: translate(-50%, -50%); border:5px solid black"">","","","","","","","",""
"","3637.6000000163913","sequential-stimulus-presentation-old","139","398313","0.0-31.0-1.1","SS1618435647453","trial","","40","500","4137.600000016391","images/stimuli/spore_stims/complex_09_A_b.gif","images/stimuli/spore_stims/complex_07_A_a.gif","self_paced","","11","complex_dissimilar","images/stimuli/spore_stims/complex_07_A_a.gif","","","","",""
"","null","html-keyboard-response","140","399206","0.0-31.0-0.2","SS1618435647453","","","null","","","","","","<p><img src= images/blank.png width =""600"" height = ""600"" style=""position:fixed;top:50%; left:50%; transform: translate(-50%, -50%); border:5px solid black"">","","","","","","","",""
"","3452.1800000220537","sequential-stimulus-presentation-old","141","403161","0.0-31.0-1.2","SS1618435647453","trial","","40","500","3952.1800000220537","images/stimuli/spore_stims/complex_09_A_b.gif","images/stimuli/spore_stims/complex_07_A_a.gif","self_paced","","11","complex_dissimilar","images/stimuli/spore_stims/complex_09_A_b.gif","","","","",""
"","null","html-keyboard-response","142","404087","0.0-31.0-0.3","SS1618435647453","","","null","","","","","","<p><img src= images/blank.png width =""600"" height = ""600"" style=""position:fixed;top:50%; left:50%; transform: translate(-50%, -50%); border:5px solid black"">","","","","","","","",""
"","3946.340000256896","sequential-stimulus-presentation-old","143","408538","0.0-31.0-1.3","SS1618435647453","trial","","40","500","4446.340000256896","images/stimuli/spore_stims/complex_09_A_b.gif","images/stimuli/spore_stims/complex_07_A_a.gif","self_paced","","11","complex_dissimilar","images/stimuli/spore_stims/complex_07_A_a.gif","","","","",""
"","null","html-keyboard-response","144","409767","0.0-31.0-0.4","SS1618435647453","","","null","","","","","","<p><img src= images/blank.png width =""600"" height = ""600"" style=""position:fixed;top:50%; left:50%; transform: translate(-50%, -50%); border:5px solid black"">","","","","","","","",""
"","2753.630000166595","sequential-stimulus-presentation-old","145","413026","0.0-31.0-1.4","SS1618435647453","trial","","40","500","3253.630000166595","images/stimuli/spore_stims/complex_09_A_b.gif","images/stimuli/spore_stims/complex_07_A_a.gif","self_paced","","11","complex_dissimilar","images/stimuli/spore_stims/complex_07_A_a.gif","","","","",""
"[{""page_index"":0,""viewing_time"":4950.090000405908}]","4950.300000142306","instructions","146","417978","0.0-32.0","SS1618435647453","instructions","","","","","","","","","","","","","","","",""
"","5573.4950001351535","survey-likert","147","423554","0.0-33.0","SS1618435647453","similarity_question","","","","","","","","","","","","{""Q0"":1}","[0]","","images/stimuli/spore_stims/complex_19_A_b.gif","images/stimuli/spore_stims/complex_13_A_a.gif"
"","7426.159999798983","survey-likert","148","430986","0.0-34.0","SS1618435647453","similarity_question","","","","","","","","","","","","{""Q0"":2}","[0]","","images/stimuli/spore_stims/complex_14_A_a.gif","images/stimuli/spore_stims/complex_12_A_b.gif"
"","4466.204999946058","survey-likert","149","435458","0.0-35.0","SS1618435647453","similarity_question","","","","","","","","","","","","{""Q0"":1}","[0]","","images/stimuli/spore_stims/complex_15_A_a.gif","images/stimuli/spore_stims/complex_08_A_b.gif"
"","5714.399999938905","survey-likert","150","441178","0.0-36.0","SS1618435647453","similarity_question","","","","","","","","","","","","{""Q0"":3}","[0]","","images/stimuli/spore_stims/simple_07_A_b.gif","images/stimuli/spore_stims/simple_13_A_a.gif"
"","2170.365000143647","survey-likert","151","443354","0.0-37.0","SS1618435647453","similarity_question","","","","","","","","","","","","{""Q0"":3}","[0]","","images/stimuli/spore_stims/simple_19_A_b.gif","images/stimuli/spore_stims/simple_16_A_a.gif"
"","3202.2649999707937","survey-likert","152","446562","0.0-38.0","SS1618435647453","similarity_question","","","","","","","","","","","","{""Q0"":1}","[0]","","images/stimuli/spore_stims/complex_01_A_a.gif","images/stimuli/spore_stims/complex_05_A_b.gif"
"","3763.170000165701","survey-likert","153","450331","0.0-39.0","SS1618435647453","similarity_question","","","","","","","","","","","","{""Q0"":1}","[0]","","images/stimuli/spore_stims/complex_18_A_b.gif","images/stimuli/spore_stims/complex_19_A_a.gif"
"","3865.650000050664","survey-likert","154","454202","0.0-40.0","SS1618435647453","similarity_question","","","","","","","","","","","","{""Q0"":1}","[0]","","images/stimuli/spore_stims/complex_09_A_b.gif","images/stimuli/spore_stims/complex_07_A_a.gif"
"","4770.209999755025","survey-likert","155","458978","0.0-41.0","SS1618435647453","similarity_question","","","","","","","","","","","","{""Q0"":4}","[0]","","images/stimuli/spore_stims/simple_09_A_b.gif","images/stimuli/spore_stims/simple_05_A_a.gif"
"","4362.455000169575","survey-likert","156","463346","0.0-42.0","SS1618435647453","similarity_question","","","","","","","","","","","","{""Q0"":5}","[0]","","images/stimuli/spore_stims/simple_10_A_b.gif","images/stimuli/spore_stims/simple_03_A_a.gif"
"","7370.919999666512","survey-likert","157","470722","0.0-43.0","SS1618435647453","similarity_question","","","","","","","","","","","","{""Q0"":2}","[0]","","images/stimuli/spore_stims/simple_18_A_b.gif","images/stimuli/spore_stims/simple_02_A_a.gif"
"","3762.0500000193715","survey-likert","158","474490","0.0-44.0","SS1618435647453","similarity_question","","","","","","","","","","","","{""Q0"":4}","[0]","","images/stimuli/spore_stims/simple_19_A_a.gif","images/stimuli/spore_stims/simple_12_A_b.gif"
"[{""page_index"":0,""viewing_time"":3258.3750002086163}]","3258.580000139773","instructions","159","477753","0.0-45.0","SS1618435647453","instructions","","","","","","","","","","","","","","","",""
"","4493.469999637455","survey-likert","160","482250","0.0-46.0","SS1618435647453","","","","","","","","","images/stimuli/spore_stims/complex_15_A_a.gif","","","","{""Q0"":5}","[0]","","",""
"","2754.244999960065","survey-likert","161","485010","0.0-47.0","SS1618435647453","","","","","","","","","images/stimuli/spore_stims/complex_01_A_a.gif","","","","{""Q0"":4}","[0]","","",""
"","2738.4899999015033","survey-likert","162","487754","0.0-48.0","SS1618435647453","","","","","","","","","images/stimuli/spore_stims/complex_19_A_b.gif","","","","{""Q0"":5}","[0]","","",""
"","3722.3950000479817","survey-likert","163","491482","0.0-49.0","SS1618435647453","","","","","","","","","images/stimuli/spore_stims/simple_09_A_b.gif","","","","{""Q0"":1}","[0]","","",""
"","2826.4300003647804","survey-likert","164","494314","0.0-50.0","SS1618435647453","","","","","","","","","images/stimuli/spore_stims/complex_07_A_a.gif","","","","{""Q0"":5}","[0]","","",""
"","3050.3750001080334","survey-likert","165","497370","0.0-51.0","SS1618435647453","","","","","","","","","images/stimuli/spore_stims/complex_14_A_a.gif","","","","{""Q0"":4}","[0]","","",""
"","3802.020000293851","survey-likert","166","501178","0.0-52.0","SS1618435647453","","","","","","","","","images/stimuli/spore_stims/simple_07_A_b.gif","","","","{""Q0"":1}","[0]","","",""
"","2202.779999934137","survey-likert","167","503386","0.0-53.0","SS1618435647453","","","","","","","","","images/stimuli/spore_stims/simple_18_A_b.gif","","","","{""Q0"":1}","[0]","","",""
"","2730.0849999301136","survey-likert","168","506122","0.0-54.0","SS1618435647453","","","","","","","","","images/stimuli/spore_stims/simple_19_A_a.gif","","","","{""Q0"":1}","[0]","","",""
"","2810.4449999518692","survey-likert","169","508938","0.0-55.0","SS1618435647453","","","","","","","","","images/stimuli/spore_stims/simple_03_A_a.gif","","","","{""Q0"":1}","[0]","","",""
"","3354.2800000868738","survey-likert","170","512298","0.0-56.0","SS1618435647453","","","","","","","","","images/stimuli/spore_stims/simple_16_A_a.gif","","","","{""Q0"":1}","[0]","","",""
"","3394.760000053793","survey-likert","171","515698","0.0-57.0","SS1618435647453","","","","","","","","","images/stimuli/spore_stims/complex_18_A_b.gif","","","","{""Q0"":5}","[0]","","",""
"[{""page_index"":0,""viewing_time"":1650.4500000737607}]","1650.6450003944337","instructions","172","517353","0.0-58.0","SS1618435647453","instructions","","","","","","","","","","","","","","","",""
"","2723.8249997608364","demog-age","173","520082","0.0-59.0","SS1618435647453","","","","","","","","","","","","","{""age"":""28""}","","","",""
"","4068.2899998500943","demog-ethnic-US","174","524154","0.0-60.0","SS1618435647453","","","","","","","","","","","","","{""ethnicity"":[""White""]}","[0]","","",""
"","3921.76999989897","demog-gender-and-education","175","528082","0.0-61.0","SS1618435647453","","","","","","","","","","","","","{""gender"":""Male"",""education"":""Bachelor's Degree""}","[0,1]","","",""
"","7752.780000213534","survey-text","176","535841","0.0-62.0","SS1618435647453","feedback","","","","","","","","","","","","{""Q0"":""nothing at all. Cheers!""}","","","",""
"[{""page_index"":0,""viewing_time"":1124.9549998901784}]","1125.1199999824166","instructions","177","536969","0.0-63.0","SS1618435647453","instructions","","","","","","","","","","","","","","","",""
