"view_history","rt","trial_type","trial_index","time_elapsed","internal_node_id","subject","stimulus_type","trial_stimulus","key_press","minimum_viewing_duration","trial_looking_time","block_deviant","block_background","exposure_type","stimulus","block_number","block_type","stimulus_displayed","responses","question_order","math_correct_answer","stimulus_left","stimulus_right"
"[{""page_index"":0,""viewing_time"":46742.79999989085}]","46743.32999996841","instructions","0","46748","0.0-0.0","SS1618435642997","","","","","","","","","","","","","","","","",""
"[{""page_index"":0,""viewing_time"":25060.44499995187},{""page_index"":1,""viewing_time"":6504.004999995232}]","31564.689999911934","instructions","1","80316","0.0-1.0","SS1618435642997","instructions","","","","","","","","","","","","","","","",""
"","12840.820000041276","sequential-stimulus-presentation-old","2","93661","0.0-2.0","SS1618435642997","","","40","500","13340.820000041276","null","null","self_paced","","","","","","","","",""
"","11274.13500007242","sequential-stimulus-presentation-old","3","105440","0.0-3.0","SS1618435642997","","","40","500","11774.13500007242","null","null","self_paced","","","","","","","","",""
"[{""page_index"":0,""viewing_time"":24002.930000191554}]","24003.185000037774","instructions","4","129443","0.0-4.0","SS1618435642997","instructions","","","","","","","","","","","","","","","",""
"","3723.7699998077005","sequential-stimulus-presentation-old","5","138170","0.0-5.0","SS1618435642997","","","40","500","4223.7699998077005","null","null","forced_long","","","","","","","","",""
"","5008.494999958202","sequential-stimulus-presentation-old","6","143233","0.0-6.0","SS1618435642997","","","40","50","5058.494999958202","null","null","forced_long","","","","","","","","",""
"[{""page_index"":0,""viewing_time"":7687.984999967739}]","7688.199999975041","instructions","7","150923","0.0-7.0","SS1618435642997","instructions","","","","","","","","","","","","","","","",""
"[{""page_index"":0,""viewing_time"":12687.304999912158},{""page_index"":1,""viewing_time"":14095.780000090599},{""page_index"":2,""viewing_time"":6576.064999913797},{""page_index"":3,""viewing_time"":1583.8699999731034},{""page_index"":4,""viewing_time"":1536.104999948293}]","36479.33499980718","instructions","8","187403","0.0-8.0","SS1618435642997","instructions","","","","","","","","","","","","","","","",""
"","null","html-keyboard-response","9","188650","0.0-9.0-0.0","SS1618435642997","","","null","","","","","","<p><img src= images/blank.png width =""600"" height = ""600"" style=""position:fixed;top:50%; left:50%; transform: translate(-50%, -50%); border:5px solid black"">","","","","","","","",""
"","874.9099997803569","sequential-stimulus-presentation-old","10","194534","0.0-9.0-1.0","SS1618435642997","trial","","40","500","1374.9099997803569","images/stimuli/spore_stims/simple_18_A_b.gif","images/stimuli/spore_stims/simple_02_A_a.gif","forced_long","","0","simple_dissimilar","images/stimuli/spore_stims/simple_02_A_a.gif","","","","",""
"","null","html-keyboard-response","11","195586","0.0-9.0-0.1","SS1618435642997","","","null","","","","","","<p><img src= images/blank.png width =""600"" height = ""600"" style=""position:fixed;top:50%; left:50%; transform: translate(-50%, -50%); border:5px solid black"">","","","","","","","",""
"","12358.829999808222","sequential-stimulus-presentation-old","12","208454","0.0-9.0-1.1","SS1618435642997","trial","","40","500","12858.829999808222","images/stimuli/spore_stims/simple_18_A_b.gif","images/stimuli/spore_stims/simple_02_A_a.gif","forced_long","","0","simple_dissimilar","images/stimuli/spore_stims/simple_02_A_a.gif","","","","",""
"","null","html-keyboard-response","13","209641","0.0-9.0-0.2","SS1618435642997","","","null","","","","","","<p><img src= images/blank.png width =""600"" height = ""600"" style=""position:fixed;top:50%; left:50%; transform: translate(-50%, -50%); border:5px solid black"">","","","","","","","",""
"","1710.969999898225","sequential-stimulus-presentation-old","14","211859","0.0-9.0-1.2","SS1618435642997","trial","","40","500","2210.969999898225","images/stimuli/spore_stims/simple_18_A_b.gif","images/stimuli/spore_stims/simple_02_A_a.gif","forced_long","","0","simple_dissimilar","images/stimuli/spore_stims/simple_02_A_a.gif","","","","",""
"","null","html-keyboard-response","15","213124","0.0-9.0-0.3","SS1618435642997","","","null","","","","","","<p><img src= images/blank.png width =""600"" height = ""600"" style=""position:fixed;top:50%; left:50%; transform: translate(-50%, -50%); border:5px solid black"">","","","","","","","",""
"","2351.5250000637025","sequential-stimulus-presentation-old","16","215979","0.0-9.0-1.3","SS1618435642997","trial","","40","500","2851.5250000637025","images/stimuli/spore_stims/simple_18_A_b.gif","images/stimuli/spore_stims/simple_02_A_a.gif","forced_long","","0","simple_dissimilar","images/stimuli/spore_stims/simple_02_A_a.gif","","","","",""
"","null","html-keyboard-response","17","216785","0.0-9.0-0.4","SS1618435642997","","","null","","","","","","<p><img src= images/blank.png width =""600"" height = ""600"" style=""position:fixed;top:50%; left:50%; transform: translate(-50%, -50%); border:5px solid black"">","","","","","","","",""
"","4958.284999942407","sequential-stimulus-presentation-old","18","222253","0.0-9.0-1.4","SS1618435642997","trial","","40","500","5458.284999942407","images/stimuli/spore_stims/simple_18_A_b.gif","images/stimuli/spore_stims/simple_02_A_a.gif","forced_long","","0","simple_dissimilar","images/stimuli/spore_stims/simple_02_A_a.gif","","","","",""
"","null","html-keyboard-response","19","223529","0.0-9.0-0.5","SS1618435642997","","","null","","","","","","<p><img src= images/blank.png width =""600"" height = ""600"" style=""position:fixed;top:50%; left:50%; transform: translate(-50%, -50%); border:5px solid black"">","","","","","","","",""
"","5497.535000089556","sequential-stimulus-presentation-old","20","229530","0.0-9.0-1.5","SS1618435642997","trial","","40","500","5997.535000089556","images/stimuli/spore_stims/simple_18_A_b.gif","images/stimuli/spore_stims/simple_02_A_a.gif","forced_long","","0","simple_dissimilar","images/stimuli/spore_stims/simple_02_A_a.gif","","","","",""
"","15171.319999964908","survey-multi-choice","21","244708","0.0-10.0","SS1618435642997","math_question","","","","","","","","","","","","{""Q0"":""9""}","[0]","9","",""
"","null","html-keyboard-response","22","245632","0.0-11.0-0.0","SS1618435642997","","","null","","","","","","<p><img src= images/blank.png width =""600"" height = ""600"" style=""position:fixed;top:50%; left:50%; transform: translate(-50%, -50%); border:5px solid black"">","","","","","","","",""
"","6478.004999924451","sequential-stimulus-presentation-old","23","252618","0.0-11.0-1.0","SS1618435642997","trial","","40","500","6978.004999924451","images/stimuli/spore_stims/complex_14_A_b.gif","images/stimuli/spore_stims/complex_12_A_a.gif","self_paced","","1","complex_dissimilar","images/stimuli/spore_stims/complex_12_A_a.gif","","","","",""
"","null","html-keyboard-response","24","253809","0.0-11.0-0.1","SS1618435642997","","","null","","","","","","<p><img src= images/blank.png width =""600"" height = ""600"" style=""position:fixed;top:50%; left:50%; transform: translate(-50%, -50%); border:5px solid black"">","","","","","","","",""
"","8100.154999876395","sequential-stimulus-presentation-old","25","262416","0.0-11.0-1.1","SS1618435642997","trial","","40","500","8600.154999876395","images/stimuli/spore_stims/complex_14_A_b.gif","images/stimuli/spore_stims/complex_12_A_a.gif","self_paced","","1","complex_dissimilar","images/stimuli/spore_stims/complex_14_A_b.gif","","","","",""
"","null","html-keyboard-response","26","263619","0.0-11.0-0.2","SS1618435642997","","","null","","","","","","<p><img src= images/blank.png width =""600"" height = ""600"" style=""position:fixed;top:50%; left:50%; transform: translate(-50%, -50%); border:5px solid black"">","","","","","","","",""
"","5969.389999983832","sequential-stimulus-presentation-old","27","270097","0.0-11.0-1.2","SS1618435642997","trial","","40","500","6469.389999983832","images/stimuli/spore_stims/complex_14_A_b.gif","images/stimuli/spore_stims/complex_12_A_a.gif","self_paced","","1","complex_dissimilar","images/stimuli/spore_stims/complex_14_A_b.gif","","","","",""
"","null","html-keyboard-response","28","271009","0.0-11.0-0.3","SS1618435642997","","","null","","","","","","<p><img src= images/blank.png width =""600"" height = ""600"" style=""position:fixed;top:50%; left:50%; transform: translate(-50%, -50%); border:5px solid black"">","","","","","","","",""
"","5831.535000121221","sequential-stimulus-presentation-old","29","277347","0.0-11.0-1.3","SS1618435642997","trial","","40","500","6331.535000121221","images/stimuli/spore_stims/complex_14_A_b.gif","images/stimuli/spore_stims/complex_12_A_a.gif","self_paced","","1","complex_dissimilar","images/stimuli/spore_stims/complex_12_A_a.gif","","","","",""
"","4396.685000043362","survey-multi-choice","30","281748","0.0-12.0","SS1618435642997","math_question","","","","","","","","","","","","{""Q0"":""10""}","[0]","10","",""
"","null","html-keyboard-response","31","282948","0.0-13.0-0.0","SS1618435642997","","","null","","","","","","<p><img src= images/blank.png width =""600"" height = ""600"" style=""position:fixed;top:50%; left:50%; transform: translate(-50%, -50%); border:5px solid black"">","","","","","","","",""
"","3576.714999973774","sequential-stimulus-presentation-old","32","286583","0.0-13.0-1.0","SS1618435642997","trial","","40","500","4076.714999973774","images/stimuli/spore_stims/simple_07_A_b.gif","images/stimuli/spore_stims/simple_11_A_a.gif","forced_short","","2","simple_dissimilar","images/stimuli/spore_stims/simple_11_A_a.gif","","","","",""
"","null","html-keyboard-response","33","287422","0.0-13.0-0.1","SS1618435642997","","","null","","","","","","<p><img src= images/blank.png width =""600"" height = ""600"" style=""position:fixed;top:50%; left:50%; transform: translate(-50%, -50%); border:5px solid black"">","","","","","","","",""
"","5556.100000161678","sequential-stimulus-presentation-old","34","293487","0.0-13.0-1.1","SS1618435642997","trial","","40","500","6056.100000161678","images/stimuli/spore_stims/simple_07_A_b.gif","images/stimuli/spore_stims/simple_11_A_a.gif","forced_short","","2","simple_dissimilar","images/stimuli/spore_stims/simple_11_A_a.gif","","","","",""
"","null","html-keyboard-response","35","294627","0.0-13.0-0.2","SS1618435642997","","","null","","","","","","<p><img src= images/blank.png width =""600"" height = ""600"" style=""position:fixed;top:50%; left:50%; transform: translate(-50%, -50%); border:5px solid black"">","","","","","","","",""
"","4239.4449999555945","sequential-stimulus-presentation-old","36","299374","0.0-13.0-1.2","SS1618435642997","trial","","40","500","4739.4449999555945","images/stimuli/spore_stims/simple_07_A_b.gif","images/stimuli/spore_stims/simple_11_A_a.gif","forced_short","","2","simple_dissimilar","images/stimuli/spore_stims/simple_11_A_a.gif","","","","",""
"","null","html-keyboard-response","37","300606","0.0-13.0-0.3","SS1618435642997","","","null","","","","","","<p><img src= images/blank.png width =""600"" height = ""600"" style=""position:fixed;top:50%; left:50%; transform: translate(-50%, -50%); border:5px solid black"">","","","","","","","",""
"","4924.559999955818","sequential-stimulus-presentation-old","38","306039","0.0-13.0-1.3","SS1618435642997","trial","","40","500","5424.559999955818","images/stimuli/spore_stims/simple_07_A_b.gif","images/stimuli/spore_stims/simple_11_A_a.gif","forced_short","","2","simple_dissimilar","images/stimuli/spore_stims/simple_07_A_b.gif","","","","",""
"","null","html-keyboard-response","39","307319","0.0-13.0-0.4","SS1618435642997","","","null","","","","","","<p><img src= images/blank.png width =""600"" height = ""600"" style=""position:fixed;top:50%; left:50%; transform: translate(-50%, -50%); border:5px solid black"">","","","","","","","",""
"","4676.389999920502","sequential-stimulus-presentation-old","40","312505","0.0-13.0-1.4","SS1618435642997","trial","","40","500","5176.389999920502","images/stimuli/spore_stims/simple_07_A_b.gif","images/stimuli/spore_stims/simple_11_A_a.gif","forced_short","","2","simple_dissimilar","images/stimuli/spore_stims/simple_07_A_b.gif","","","","",""
"","4037.705000024289","survey-multi-choice","41","316547","0.0-14.0","SS1618435642997","math_question","","","","","","","","","","","","{""Q0"":""12""}","[0]","12","",""
"","null","html-keyboard-response","42","317519","0.0-15.0-0.0","SS1618435642997","","","null","","","","","","<p><img src= images/blank.png width =""600"" height = ""600"" style=""position:fixed;top:50%; left:50%; transform: translate(-50%, -50%); border:5px solid black"">","","","","","","","",""
"","1005.5199998896569","sequential-stimulus-presentation-old","43","323537","0.0-15.0-1.0","SS1618435642997","trial","","40","500","1505.519999889657","images/stimuli/spore_stims/complex_07_A_a.gif","images/stimuli/spore_stims/complex_20_A_b.gif","forced_long","","3","complex_dissimilar","images/stimuli/spore_stims/complex_20_A_b.gif","","","","",""
"","null","html-keyboard-response","44","324401","0.0-15.0-0.1","SS1618435642997","","","null","","","","","","<p><img src= images/blank.png width =""600"" height = ""600"" style=""position:fixed;top:50%; left:50%; transform: translate(-50%, -50%); border:5px solid black"">","","","","","","","",""
"","6152.609999990091","sequential-stimulus-presentation-old","45","331064","0.0-15.0-1.1","SS1618435642997","trial","","40","500","6652.609999990091","images/stimuli/spore_stims/complex_07_A_a.gif","images/stimuli/spore_stims/complex_20_A_b.gif","forced_long","","3","complex_dissimilar","images/stimuli/spore_stims/complex_20_A_b.gif","","","","",""
"","null","html-keyboard-response","46","332181","0.0-15.0-0.2","SS1618435642997","","","null","","","","","","<p><img src= images/blank.png width =""600"" height = ""600"" style=""position:fixed;top:50%; left:50%; transform: translate(-50%, -50%); border:5px solid black"">","","","","","","","",""
"","8249.615000095218","sequential-stimulus-presentation-old","47","340939","0.0-15.0-1.2","SS1618435642997","trial","","40","500","8749.615000095218","images/stimuli/spore_stims/complex_07_A_a.gif","images/stimuli/spore_stims/complex_20_A_b.gif","forced_long","","3","complex_dissimilar","images/stimuli/spore_stims/complex_20_A_b.gif","","","","",""
"","null","html-keyboard-response","48","342213","0.0-15.0-0.3","SS1618435642997","","","null","","","","","","<p><img src= images/blank.png width =""600"" height = ""600"" style=""position:fixed;top:50%; left:50%; transform: translate(-50%, -50%); border:5px solid black"">","","","","","","","",""
"","5268.750000046566","sequential-stimulus-presentation-old","49","347991","0.0-15.0-1.3","SS1618435642997","trial","","40","500","5768.750000046566","images/stimuli/spore_stims/complex_07_A_a.gif","images/stimuli/spore_stims/complex_20_A_b.gif","forced_long","","3","complex_dissimilar","images/stimuli/spore_stims/complex_20_A_b.gif","","","","",""
"","null","html-keyboard-response","50","349093","0.0-15.0-0.4","SS1618435642997","","","null","","","","","","<p><img src= images/blank.png width =""600"" height = ""600"" style=""position:fixed;top:50%; left:50%; transform: translate(-50%, -50%); border:5px solid black"">","","","","","","","",""
"","1736.219999846071","sequential-stimulus-presentation-old","51","351338","0.0-15.0-1.4","SS1618435642997","trial","","40","500","2236.219999846071","images/stimuli/spore_stims/complex_07_A_a.gif","images/stimuli/spore_stims/complex_20_A_b.gif","forced_long","","3","complex_dissimilar","images/stimuli/spore_stims/complex_20_A_b.gif","","","","",""
"","2794.7100000455976","survey-multi-choice","52","354140","0.0-16.0","SS1618435642997","math_question","","","","","","","","","","","","{""Q0"":""11""}","[0]","11","",""
"","null","html-keyboard-response","53","355136","0.0-17.0-0.0","SS1618435642997","","","null","","","","","","<p><img src= images/blank.png width =""600"" height = ""600"" style=""position:fixed;top:50%; left:50%; transform: translate(-50%, -50%); border:5px solid black"">","","","","","","","",""
"","7007.830000016838","sequential-stimulus-presentation-old","54","362653","0.0-17.0-1.0","SS1618435642997","trial","","40","500","7507.830000016838","images/stimuli/spore_stims/simple_08_A_b.gif","images/stimuli/spore_stims/simple_19_A_a.gif","self_paced","","4","simple_dissimilar","images/stimuli/spore_stims/simple_19_A_a.gif","","","","",""
"","null","html-keyboard-response","55","363501","0.0-17.0-0.1","SS1618435642997","","","null","","","","","","<p><img src= images/blank.png width =""600"" height = ""600"" style=""position:fixed;top:50%; left:50%; transform: translate(-50%, -50%); border:5px solid black"">","","","","","","","",""
"","4347.169999964535","sequential-stimulus-presentation-old","56","368358","0.0-17.0-1.1","SS1618435642997","trial","","40","500","4847.169999964535","images/stimuli/spore_stims/simple_08_A_b.gif","images/stimuli/spore_stims/simple_19_A_a.gif","self_paced","","4","simple_dissimilar","images/stimuli/spore_stims/simple_19_A_a.gif","","","","",""
"","null","html-keyboard-response","57","369473","0.0-17.0-0.2","SS1618435642997","","","null","","","","","","<p><img src= images/blank.png width =""600"" height = ""600"" style=""position:fixed;top:50%; left:50%; transform: translate(-50%, -50%); border:5px solid black"">","","","","","","","",""
"","6033.2850001286715","sequential-stimulus-presentation-old","58","376017","0.0-17.0-1.2","SS1618435642997","trial","","40","500","6533.2850001286715","images/stimuli/spore_stims/simple_08_A_b.gif","images/stimuli/spore_stims/simple_19_A_a.gif","self_paced","","4","simple_dissimilar","images/stimuli/spore_stims/simple_19_A_a.gif","","","","",""
"","null","html-keyboard-response","59","377158","0.0-17.0-0.3","SS1618435642997","","","null","","","","","","<p><img src= images/blank.png width =""600"" height = ""600"" style=""position:fixed;top:50%; left:50%; transform: translate(-50%, -50%); border:5px solid black"">","","","","","","","",""
"","6880.12499990873","sequential-stimulus-presentation-old","60","384548","0.0-17.0-1.3","SS1618435642997","trial","","40","500","7380.12499990873","images/stimuli/spore_stims/simple_08_A_b.gif","images/stimuli/spore_stims/simple_19_A_a.gif","self_paced","","4","simple_dissimilar","images/stimuli/spore_stims/simple_19_A_a.gif","","","","",""
"","3387.0700001716614","survey-multi-choice","61","387939","0.0-18.0","SS1618435642997","math_question","","","","","","","","","","","","{""Q0"":""13""}","[0]","13","",""
"","null","html-keyboard-response","62","388994","0.0-19.0-0.0","SS1618435642997","","","null","","","","","","<p><img src= images/blank.png width =""600"" height = ""600"" style=""position:fixed;top:50%; left:50%; transform: translate(-50%, -50%); border:5px solid black"">","","","","","","","",""
"","7837.434999877587","sequential-stimulus-presentation-old","63","397340","0.0-19.0-1.0","SS1618435642997","trial","","40","500","8337.434999877587","images/stimuli/spore_stims/simple_12_A_b.gif","images/stimuli/spore_stims/simple_18_A_a.gif","self_paced","","5","simple_dissimilar","images/stimuli/spore_stims/simple_18_A_a.gif","","","","",""
"","null","html-keyboard-response","64","398248","0.0-19.0-0.1","SS1618435642997","","","null","","","","","","<p><img src= images/blank.png width =""600"" height = ""600"" style=""position:fixed;top:50%; left:50%; transform: translate(-50%, -50%); border:5px solid black"">","","","","","","","",""
"","8486.030000029132","sequential-stimulus-presentation-old","65","407242","0.0-19.0-1.1","SS1618435642997","trial","","40","500","8986.030000029132","images/stimuli/spore_stims/simple_12_A_b.gif","images/stimuli/spore_stims/simple_18_A_a.gif","self_paced","","5","simple_dissimilar","images/stimuli/spore_stims/simple_18_A_a.gif","","","","",""
"","null","html-keyboard-response","66","408154","0.0-19.0-0.2","SS1618435642997","","","null","","","","","","<p><img src= images/blank.png width =""600"" height = ""600"" style=""position:fixed;top:50%; left:50%; transform: translate(-50%, -50%); border:5px solid black"">","","","","","","","",""
"","1201.1299999430776","sequential-stimulus-presentation-old","67","409867","0.0-19.0-1.2","SS1618435642997","trial","","40","500","1701.1299999430776","images/stimuli/spore_stims/simple_12_A_b.gif","images/stimuli/spore_stims/simple_18_A_a.gif","self_paced","","5","simple_dissimilar","images/stimuli/spore_stims/simple_18_A_a.gif","","","","",""
"","null","html-keyboard-response","68","411139","0.0-19.0-0.3","SS1618435642997","","","null","","","","","","<p><img src= images/blank.png width =""600"" height = ""600"" style=""position:fixed;top:50%; left:50%; transform: translate(-50%, -50%); border:5px solid black"">","","","","","","","",""
"","5076.505000004545","sequential-stimulus-presentation-old","69","416729","0.0-19.0-1.3","SS1618435642997","trial","","40","500","5576.505000004545","images/stimuli/spore_stims/simple_12_A_b.gif","images/stimuli/spore_stims/simple_18_A_a.gif","self_paced","","5","simple_dissimilar","images/stimuli/spore_stims/simple_12_A_b.gif","","","","",""
"","null","html-keyboard-response","70","417795","0.0-19.0-0.4","SS1618435642997","","","null","","","","","","<p><img src= images/blank.png width =""600"" height = ""600"" style=""position:fixed;top:50%; left:50%; transform: translate(-50%, -50%); border:5px solid black"">","","","","","","","",""
"","4665.225000120699","sequential-stimulus-presentation-old","71","422970","0.0-19.0-1.4","SS1618435642997","trial","","40","500","5165.225000120699","images/stimuli/spore_stims/simple_12_A_b.gif","images/stimuli/spore_stims/simple_18_A_a.gif","self_paced","","5","simple_dissimilar","images/stimuli/spore_stims/simple_12_A_b.gif","","","","",""
"","3652.0249999593943","survey-multi-choice","72","426627","0.0-20.0","SS1618435642997","math_question","","","","","","","","","","","","{""Q0"":""7""}","[0]","7","",""
"","null","html-keyboard-response","73","427728","0.0-21.0-0.0","SS1618435642997","","","null","","","","","","<p><img src= images/blank.png width =""600"" height = ""600"" style=""position:fixed;top:50%; left:50%; transform: translate(-50%, -50%); border:5px solid black"">","","","","","","","",""
"","954.6449999324977","sequential-stimulus-presentation-old","74","433693","0.0-21.0-1.0","SS1618435642997","trial","","40","500","1454.6449999324977","images/stimuli/spore_stims/complex_08_A_a.gif","images/stimuli/spore_stims/complex_10_A_b.gif","forced_long","","6","complex_dissimilar","images/stimuli/spore_stims/complex_10_A_b.gif","","","","",""
"","null","html-keyboard-response","75","434691","0.0-21.0-0.1","SS1618435642997","","","null","","","","","","<p><img src= images/blank.png width =""600"" height = ""600"" style=""position:fixed;top:50%; left:50%; transform: translate(-50%, -50%); border:5px solid black"">","","","","","","","",""
"","8805.989999789745","sequential-stimulus-presentation-old","76","444003","0.0-21.0-1.1","SS1618435642997","trial","","40","500","9305.989999789745","images/stimuli/spore_stims/complex_08_A_a.gif","images/stimuli/spore_stims/complex_10_A_b.gif","forced_long","","6","complex_dissimilar","images/stimuli/spore_stims/complex_10_A_b.gif","","","","",""
"","null","html-keyboard-response","77","444819","0.0-21.0-0.2","SS1618435642997","","","null","","","","","","<p><img src= images/blank.png width =""600"" height = ""600"" style=""position:fixed;top:50%; left:50%; transform: translate(-50%, -50%); border:5px solid black"">","","","","","","","",""
"","3640.7350001391023","sequential-stimulus-presentation-old","78","448971","0.0-21.0-1.2","SS1618435642997","trial","","40","500","4140.735000139102","images/stimuli/spore_stims/complex_08_A_a.gif","images/stimuli/spore_stims/complex_10_A_b.gif","forced_long","","6","complex_dissimilar","images/stimuli/spore_stims/complex_10_A_b.gif","","","","",""
"","null","html-keyboard-response","79","449872","0.0-21.0-0.3","SS1618435642997","","","null","","","","","","<p><img src= images/blank.png width =""600"" height = ""600"" style=""position:fixed;top:50%; left:50%; transform: translate(-50%, -50%); border:5px solid black"">","","","","","","","",""
"","2966.2650001700968","sequential-stimulus-presentation-old","80","453348","0.0-21.0-1.3","SS1618435642997","trial","","40","500","3466.2650001700968","images/stimuli/spore_stims/complex_08_A_a.gif","images/stimuli/spore_stims/complex_10_A_b.gif","forced_long","","6","complex_dissimilar","images/stimuli/spore_stims/complex_10_A_b.gif","","","","",""
"","null","html-keyboard-response","81","454229","0.0-21.0-0.4","SS1618435642997","","","null","","","","","","<p><img src= images/blank.png width =""600"" height = ""600"" style=""position:fixed;top:50%; left:50%; transform: translate(-50%, -50%); border:5px solid black"">","","","","","","","",""
"","4165.234999964014","sequential-stimulus-presentation-old","82","458898","0.0-21.0-1.4","SS1618435642997","trial","","40","500","4665.234999964014","images/stimuli/spore_stims/complex_08_A_a.gif","images/stimuli/spore_stims/complex_10_A_b.gif","forced_long","","6","complex_dissimilar","images/stimuli/spore_stims/complex_10_A_b.gif","","","","",""
"","3446.209999965504","survey-multi-choice","83","462347","0.0-22.0","SS1618435642997","math_question","","","","","","","","","","","","{""Q0"":""9""}","[0]","9","",""
"","null","html-keyboard-response","84","463387","0.0-23.0-0.0","SS1618435642997","","","null","","","","","","<p><img src= images/blank.png width =""600"" height = ""600"" style=""position:fixed;top:50%; left:50%; transform: translate(-50%, -50%); border:5px solid black"">","","","","","","","",""
"","5255.5549999233335","sequential-stimulus-presentation-old","85","469145","0.0-23.0-1.0","SS1618435642997","trial","","40","500","5755.5549999233335","images/stimuli/spore_stims/complex_04_A_a.gif","images/stimuli/spore_stims/complex_06_A_b.gif","self_paced","","7","complex_dissimilar","images/stimuli/spore_stims/complex_06_A_b.gif","","","","",""
"","null","html-keyboard-response","86","470264","0.0-23.0-0.1","SS1618435642997","","","null","","","","","","<p><img src= images/blank.png width =""600"" height = ""600"" style=""position:fixed;top:50%; left:50%; transform: translate(-50%, -50%); border:5px solid black"">","","","","","","","",""
"","7147.899999981746","sequential-stimulus-presentation-old","87","477921","0.0-23.0-1.1","SS1618435642997","trial","","40","500","7647.899999981746","images/stimuli/spore_stims/complex_04_A_a.gif","images/stimuli/spore_stims/complex_06_A_b.gif","self_paced","","7","complex_dissimilar","images/stimuli/spore_stims/complex_06_A_b.gif","","","","",""
"","null","html-keyboard-response","88","479221","0.0-23.0-0.2","SS1618435642997","","","null","","","","","","<p><img src= images/blank.png width =""600"" height = ""600"" style=""position:fixed;top:50%; left:50%; transform: translate(-50%, -50%); border:5px solid black"">","","","","","","","",""
"","11053.859999869019","sequential-stimulus-presentation-old","89","490785","0.0-23.0-1.2","SS1618435642997","trial","","40","500","11553.859999869019","images/stimuli/spore_stims/complex_04_A_a.gif","images/stimuli/spore_stims/complex_06_A_b.gif","self_paced","","7","complex_dissimilar","images/stimuli/spore_stims/complex_06_A_b.gif","","","","",""
"","null","html-keyboard-response","90","492031","0.0-23.0-0.3","SS1618435642997","","","null","","","","","","<p><img src= images/blank.png width =""600"" height = ""600"" style=""position:fixed;top:50%; left:50%; transform: translate(-50%, -50%); border:5px solid black"">","","","","","","","",""
"","3034.724999917671","sequential-stimulus-presentation-old","91","495576","0.0-23.0-1.3","SS1618435642997","trial","","40","500","3534.724999917671","images/stimuli/spore_stims/complex_04_A_a.gif","images/stimuli/spore_stims/complex_06_A_b.gif","self_paced","","7","complex_dissimilar","images/stimuli/spore_stims/complex_06_A_b.gif","","","","",""
"","null","html-keyboard-response","92","496678","0.0-23.0-0.4","SS1618435642997","","","null","","","","","","<p><img src= images/blank.png width =""600"" height = ""600"" style=""position:fixed;top:50%; left:50%; transform: translate(-50%, -50%); border:5px solid black"">","","","","","","","",""
"","5505.070000188425","sequential-stimulus-presentation-old","93","502693","0.0-23.0-1.4","SS1618435642997","trial","","40","500","6005.070000188425","images/stimuli/spore_stims/complex_04_A_a.gif","images/stimuli/spore_stims/complex_06_A_b.gif","self_paced","","7","complex_dissimilar","images/stimuli/spore_stims/complex_04_A_a.gif","","","","",""
"","null","html-keyboard-response","94","503590","0.0-23.0-0.5","SS1618435642997","","","null","","","","","","<p><img src= images/blank.png width =""600"" height = ""600"" style=""position:fixed;top:50%; left:50%; transform: translate(-50%, -50%); border:5px solid black"">","","","","","","","",""
"","5285.165000008419","sequential-stimulus-presentation-old","95","509386","0.0-23.0-1.5","SS1618435642997","trial","","40","500","5785.165000008419","images/stimuli/spore_stims/complex_04_A_a.gif","images/stimuli/spore_stims/complex_06_A_b.gif","self_paced","","7","complex_dissimilar","images/stimuli/spore_stims/complex_06_A_b.gif","","","","",""
"","3298.6699999310076","survey-multi-choice","96","512691","0.0-24.0","SS1618435642997","math_question","","","","","","","","","","","","{""Q0"":""12""}","[0]","12","",""
"","null","html-keyboard-response","97","513845","0.0-25.0-0.0","SS1618435642997","","","null","","","","","","<p><img src= images/blank.png width =""600"" height = ""600"" style=""position:fixed;top:50%; left:50%; transform: translate(-50%, -50%); border:5px solid black"">","","","","","","","",""
"","789.6600000094622","sequential-stimulus-presentation-old","98","519647","0.0-25.0-1.0","SS1618435642997","trial","","40","500","1289.6600000094622","images/stimuli/spore_stims/simple_02_A_b.gif","images/stimuli/spore_stims/simple_06_A_a.gif","forced_long","","8","simple_dissimilar","images/stimuli/spore_stims/simple_06_A_a.gif","","","","",""
"","null","html-keyboard-response","99","520939","0.0-25.0-0.1","SS1618435642997","","","null","","","","","","<p><img src= images/blank.png width =""600"" height = ""600"" style=""position:fixed;top:50%; left:50%; transform: translate(-50%, -50%); border:5px solid black"">","","","","","","","",""
"","2110.124999890104","sequential-stimulus-presentation-old","100","523559","0.0-25.0-1.1","SS1618435642997","trial","","40","500","2610.124999890104","images/stimuli/spore_stims/simple_02_A_b.gif","images/stimuli/spore_stims/simple_06_A_a.gif","forced_long","","8","simple_dissimilar","images/stimuli/spore_stims/simple_02_A_b.gif","","","","",""
"","null","html-keyboard-response","101","524429","0.0-25.0-0.2","SS1618435642997","","","null","","","","","","<p><img src= images/blank.png width =""600"" height = ""600"" style=""position:fixed;top:50%; left:50%; transform: translate(-50%, -50%); border:5px solid black"">","","","","","","","",""
"","1872.884999960661","sequential-stimulus-presentation-old","102","526810","0.0-25.0-1.2","SS1618435642997","trial","","40","500","2372.884999960661","images/stimuli/spore_stims/simple_02_A_b.gif","images/stimuli/spore_stims/simple_06_A_a.gif","forced_long","","8","simple_dissimilar","images/stimuli/spore_stims/simple_06_A_a.gif","","","","",""
"","null","html-keyboard-response","103","527953","0.0-25.0-0.3","SS1618435642997","","","null","","","","","","<p><img src= images/blank.png width =""600"" height = ""600"" style=""position:fixed;top:50%; left:50%; transform: translate(-50%, -50%); border:5px solid black"">","","","","","","","",""
"","1947.249999968335","sequential-stimulus-presentation-old","104","530411","0.0-25.0-1.3","SS1618435642997","trial","","40","500","2447.249999968335","images/stimuli/spore_stims/simple_02_A_b.gif","images/stimuli/spore_stims/simple_06_A_a.gif","forced_long","","8","simple_dissimilar","images/stimuli/spore_stims/simple_06_A_a.gif","","","","",""
"","null","html-keyboard-response","105","531460","0.0-25.0-0.4","SS1618435642997","","","null","","","","","","<p><img src= images/blank.png width =""600"" height = ""600"" style=""position:fixed;top:50%; left:50%; transform: translate(-50%, -50%); border:5px solid black"">","","","","","","","",""
"","1481.0849998611957","sequential-stimulus-presentation-old","106","533453","0.0-25.0-1.4","SS1618435642997","trial","","40","500","1981.0849998611957","images/stimuli/spore_stims/simple_02_A_b.gif","images/stimuli/spore_stims/simple_06_A_a.gif","forced_long","","8","simple_dissimilar","images/stimuli/spore_stims/simple_06_A_a.gif","","","","",""
"","null","html-keyboard-response","107","534501","0.0-25.0-0.5","SS1618435642997","","","null","","","","","","<p><img src= images/blank.png width =""600"" height = ""600"" style=""position:fixed;top:50%; left:50%; transform: translate(-50%, -50%); border:5px solid black"">","","","","","","","",""
"","1137.0749999769032","sequential-stimulus-presentation-old","108","536148","0.0-25.0-1.5","SS1618435642997","trial","","40","500","1637.0749999769032","images/stimuli/spore_stims/simple_02_A_b.gif","images/stimuli/spore_stims/simple_06_A_a.gif","forced_long","","8","simple_dissimilar","images/stimuli/spore_stims/simple_02_A_b.gif","","","","",""
"","3352.7250001206994","survey-multi-choice","109","539507","0.0-26.0","SS1618435642997","math_question","","","","","","","","","","","","{""Q0"":""9""}","[0]","9","",""
"","null","html-keyboard-response","110","540451","0.0-27.0-0.0","SS1618435642997","","","null","","","","","","<p><img src= images/blank.png width =""600"" height = ""600"" style=""position:fixed;top:50%; left:50%; transform: translate(-50%, -50%); border:5px solid black"">","","","","","","","",""
"","1453.4350000321865","sequential-stimulus-presentation-old","111","541969","0.0-27.0-1.0","SS1618435642997","trial","","40","500","1953.4350000321865","images/stimuli/spore_stims/complex_11_A_b.gif","images/stimuli/spore_stims/complex_03_A_a.gif","forced_short","","9","complex_dissimilar","images/stimuli/spore_stims/complex_03_A_a.gif","","","","",""
"","null","html-keyboard-response","112","543111","0.0-27.0-0.1","SS1618435642997","","","null","","","","","","<p><img src= images/blank.png width =""600"" height = ""600"" style=""position:fixed;top:50%; left:50%; transform: translate(-50%, -50%); border:5px solid black"">","","","","","","","",""
"","5284.415000118315","sequential-stimulus-presentation-old","113","548899","0.0-27.0-1.1","SS1618435642997","trial","","40","500","5784.415000118315","images/stimuli/spore_stims/complex_11_A_b.gif","images/stimuli/spore_stims/complex_03_A_a.gif","forced_short","","9","complex_dissimilar","images/stimuli/spore_stims/complex_03_A_a.gif","","","","",""
"","null","html-keyboard-response","114","550009","0.0-27.0-0.2","SS1618435642997","","","null","","","","","","<p><img src= images/blank.png width =""600"" height = ""600"" style=""position:fixed;top:50%; left:50%; transform: translate(-50%, -50%); border:5px solid black"">","","","","","","","",""
"","6165.040000109002","sequential-stimulus-presentation-old","115","556684","0.0-27.0-1.2","SS1618435642997","trial","","40","500","6665.040000109002","images/stimuli/spore_stims/complex_11_A_b.gif","images/stimuli/spore_stims/complex_03_A_a.gif","forced_short","","9","complex_dissimilar","images/stimuli/spore_stims/complex_03_A_a.gif","","","","",""
"","null","html-keyboard-response","116","557569","0.0-27.0-0.3","SS1618435642997","","","null","","","","","","<p><img src= images/blank.png width =""600"" height = ""600"" style=""position:fixed;top:50%; left:50%; transform: translate(-50%, -50%); border:5px solid black"">","","","","","","","",""
"","3491.389999864623","sequential-stimulus-presentation-old","117","561572","0.0-27.0-1.3","SS1618435642997","trial","","40","500","3991.389999864623","images/stimuli/spore_stims/complex_11_A_b.gif","images/stimuli/spore_stims/complex_03_A_a.gif","forced_short","","9","complex_dissimilar","images/stimuli/spore_stims/complex_03_A_a.gif","","","","",""
"","3127.845000009984","survey-multi-choice","118","564707","0.0-28.0","SS1618435642997","math_question","","","","","","","","","","","","{""Q0"":""8""}","[0]","8","",""
"","null","html-keyboard-response","119","565846","0.0-29.0-0.0","SS1618435642997","","","null","","","","","","<p><img src= images/blank.png width =""600"" height = ""600"" style=""position:fixed;top:50%; left:50%; transform: translate(-50%, -50%); border:5px solid black"">","","","","","","","",""
"","1091.939999954775","sequential-stimulus-presentation-old","120","566999","0.0-29.0-1.0","SS1618435642997","trial","","40","500","1591.939999954775","images/stimuli/spore_stims/complex_08_A_b.gif","images/stimuli/spore_stims/complex_13_A_a.gif","forced_short","","10","complex_dissimilar","images/stimuli/spore_stims/complex_13_A_a.gif","","","","",""
"","null","html-keyboard-response","121","568029","0.0-29.0-0.1","SS1618435642997","","","null","","","","","","<p><img src= images/blank.png width =""600"" height = ""600"" style=""position:fixed;top:50%; left:50%; transform: translate(-50%, -50%); border:5px solid black"">","","","","","","","",""
"","3812.019999837503","sequential-stimulus-presentation-old","122","572352","0.0-29.0-1.1","SS1618435642997","trial","","40","500","4312.019999837503","images/stimuli/spore_stims/complex_08_A_b.gif","images/stimuli/spore_stims/complex_13_A_a.gif","forced_short","","10","complex_dissimilar","images/stimuli/spore_stims/complex_08_A_b.gif","","","","",""
"","null","html-keyboard-response","123","573571","0.0-29.0-0.2","SS1618435642997","","","null","","","","","","<p><img src= images/blank.png width =""600"" height = ""600"" style=""position:fixed;top:50%; left:50%; transform: translate(-50%, -50%); border:5px solid black"">","","","","","","","",""
"","2762.0399999432266","sequential-stimulus-presentation-old","124","576847","0.0-29.0-1.2","SS1618435642997","trial","","40","500","3262.0399999432266","images/stimuli/spore_stims/complex_08_A_b.gif","images/stimuli/spore_stims/complex_13_A_a.gif","forced_short","","10","complex_dissimilar","images/stimuli/spore_stims/complex_13_A_a.gif","","","","",""
"","null","html-keyboard-response","125","577925","0.0-29.0-0.3","SS1618435642997","","","null","","","","","","<p><img src= images/blank.png width =""600"" height = ""600"" style=""position:fixed;top:50%; left:50%; transform: translate(-50%, -50%); border:5px solid black"">","","","","","","","",""
"","3626.0950001887977","sequential-stimulus-presentation-old","126","582066","0.0-29.0-1.3","SS1618435642997","trial","","40","500","4126.095000188798","images/stimuli/spore_stims/complex_08_A_b.gif","images/stimuli/spore_stims/complex_13_A_a.gif","forced_short","","10","complex_dissimilar","images/stimuli/spore_stims/complex_13_A_a.gif","","","","",""
"","null","html-keyboard-response","127","582908","0.0-29.0-0.4","SS1618435642997","","","null","","","","","","<p><img src= images/blank.png width =""600"" height = ""600"" style=""position:fixed;top:50%; left:50%; transform: translate(-50%, -50%); border:5px solid black"">","","","","","","","",""
"","532.9899999778718","sequential-stimulus-presentation-old","128","583955","0.0-29.0-1.4","SS1618435642997","trial","","40","500","1032.9899999778718","images/stimuli/spore_stims/complex_08_A_b.gif","images/stimuli/spore_stims/complex_13_A_a.gif","forced_short","","10","complex_dissimilar","images/stimuli/spore_stims/complex_08_A_b.gif","","","","",""
"","3737.7949999645352","survey-multi-choice","129","587699","0.0-30.0","SS1618435642997","math_question","","","","","","","","","","","","{""Q0"":""13""}","[0]","13","",""
"","null","html-keyboard-response","130","588596","0.0-31.0-0.0","SS1618435642997","","","null","","","","","","<p><img src= images/blank.png width =""600"" height = ""600"" style=""position:fixed;top:50%; left:50%; transform: translate(-50%, -50%); border:5px solid black"">","","","","","","","",""
"","557.0399998687208","sequential-stimulus-presentation-old","131","589214","0.0-31.0-1.0","SS1618435642997","trial","","40","500","1057.0399998687208","images/stimuli/spore_stims/simple_04_A_a.gif","images/stimuli/spore_stims/simple_06_A_b.gif","forced_short","","11","simple_dissimilar","images/stimuli/spore_stims/simple_06_A_b.gif","","","","",""
"","null","html-keyboard-response","132","590388","0.0-31.0-0.1","SS1618435642997","","","null","","","","","","<p><img src= images/blank.png width =""600"" height = ""600"" style=""position:fixed;top:50%; left:50%; transform: translate(-50%, -50%); border:5px solid black"">","","","","","","","",""
"","564.9399999529123","sequential-stimulus-presentation-old","133","591465","0.0-31.0-1.1","SS1618435642997","trial","","40","500","1064.9399999529123","images/stimuli/spore_stims/simple_04_A_a.gif","images/stimuli/spore_stims/simple_06_A_b.gif","forced_short","","11","simple_dissimilar","images/stimuli/spore_stims/simple_06_A_b.gif","","","","",""
"","null","html-keyboard-response","134","592352","0.0-31.0-0.2","SS1618435642997","","","null","","","","","","<p><img src= images/blank.png width =""600"" height = ""600"" style=""position:fixed;top:50%; left:50%; transform: translate(-50%, -50%); border:5px solid black"">","","","","","","","",""
"","78.32000008784235","sequential-stimulus-presentation-old","135","592941","0.0-31.0-1.2","SS1618435642997","trial","","40","500","578.3200000878423","images/stimuli/spore_stims/simple_04_A_a.gif","images/stimuli/spore_stims/simple_06_A_b.gif","forced_short","","11","simple_dissimilar","images/stimuli/spore_stims/simple_06_A_b.gif","","","","",""
"","null","html-keyboard-response","136","594230","0.0-31.0-0.3","SS1618435642997","","","null","","","","","","<p><img src= images/blank.png width =""600"" height = ""600"" style=""position:fixed;top:50%; left:50%; transform: translate(-50%, -50%); border:5px solid black"">","","","","","","","",""
"","310.8500000089407","sequential-stimulus-presentation-old","137","595050","0.0-31.0-1.3","SS1618435642997","trial","","40","500","810.8500000089407","images/stimuli/spore_stims/simple_04_A_a.gif","images/stimuli/spore_stims/simple_06_A_b.gif","forced_short","","11","simple_dissimilar","images/stimuli/spore_stims/simple_06_A_b.gif","","","","",""
"","null","html-keyboard-response","138","596001","0.0-31.0-0.4","SS1618435642997","","","null","","","","","","<p><img src= images/blank.png width =""600"" height = ""600"" style=""position:fixed;top:50%; left:50%; transform: translate(-50%, -50%); border:5px solid black"">","","","","","","","",""
"","1029.4149999972433","sequential-stimulus-presentation-old","139","597541","0.0-31.0-1.4","SS1618435642997","trial","","40","500","1529.4149999972433","images/stimuli/spore_stims/simple_04_A_a.gif","images/stimuli/spore_stims/simple_06_A_b.gif","forced_short","","11","simple_dissimilar","images/stimuli/spore_stims/simple_06_A_b.gif","","","","",""
"","null","html-keyboard-response","140","598601","0.0-31.0-0.5","SS1618435642997","","","null","","","","","","<p><img src= images/blank.png width =""600"" height = ""600"" style=""position:fixed;top:50%; left:50%; transform: translate(-50%, -50%); border:5px solid black"">","","","","","","","",""
"","1188.7700001243502","sequential-stimulus-presentation-old","141","600302","0.0-31.0-1.5","SS1618435642997","trial","","40","500","1688.7700001243502","images/stimuli/spore_stims/simple_04_A_a.gif","images/stimuli/spore_stims/simple_06_A_b.gif","forced_short","","11","simple_dissimilar","images/stimuli/spore_stims/simple_06_A_b.gif","","","","",""
"[{""page_index"":0,""viewing_time"":6375.44499989599}]","6375.680000055581","instructions","142","606683","0.0-32.0","SS1618435642997","instructions","","","","","","","","","","","","","","","",""
"","20469.17499997653","survey-likert","143","627155","0.0-33.0","SS1618435642997","similarity_question","","","","","","","","","","","","{""Q0"":2}","[0]","","images/stimuli/spore_stims/complex_06_A_b.gif","images/stimuli/spore_stims/complex_04_A_a.gif"
"","11937.919999938458","survey-likert","144","639099","0.0-34.0","SS1618435642997","similarity_question","","","","","","","","","","","","{""Q0"":1}","[0]","","images/stimuli/spore_stims/simple_02_A_a.gif","images/stimuli/spore_stims/simple_18_A_b.gif"
"","8186.469999840483","survey-likert","145","647291","0.0-35.0","SS1618435642997","similarity_question","","","","","","","","","","","","{""Q0"":3}","[0]","","images/stimuli/spore_stims/complex_12_A_a.gif","images/stimuli/spore_stims/complex_14_A_b.gif"
"","5979.129999876022","survey-likert","146","653275","0.0-36.0","SS1618435642997","similarity_question","","","","","","","","","","","","{""Q0"":2}","[0]","","images/stimuli/spore_stims/simple_18_A_a.gif","images/stimuli/spore_stims/simple_12_A_b.gif"
"","8625.50999992527","survey-likert","147","661907","0.0-37.0","SS1618435642997","similarity_question","","","","","","","","","","","","{""Q0"":2}","[0]","","images/stimuli/spore_stims/complex_13_A_a.gif","images/stimuli/spore_stims/complex_08_A_b.gif"
"","12017.514999955893","survey-likert","148","673931","0.0-38.0","SS1618435642997","similarity_question","","","","","","","","","","","","{""Q0"":2}","[0]","","images/stimuli/spore_stims/complex_10_A_b.gif","images/stimuli/spore_stims/complex_08_A_a.gif"
"","13682.88500001654","survey-likert","149","687619","0.0-39.0","SS1618435642997","similarity_question","","","","","","","","","","","","{""Q0"":2}","[0]","","images/stimuli/spore_stims/complex_03_A_a.gif","images/stimuli/spore_stims/complex_11_A_b.gif"
"","7810.539999976754","survey-likert","150","695435","0.0-40.0","SS1618435642997","similarity_question","","","","","","","","","","","","{""Q0"":4}","[0]","","images/stimuli/spore_stims/complex_07_A_a.gif","images/stimuli/spore_stims/complex_20_A_b.gif"
"","5602.710000006482","survey-likert","151","701043","0.0-41.0","SS1618435642997","similarity_question","","","","","","","","","","","","{""Q0"":6}","[0]","","images/stimuli/spore_stims/simple_06_A_a.gif","images/stimuli/spore_stims/simple_02_A_b.gif"
"","5570.705000078306","survey-likert","152","706619","0.0-42.0","SS1618435642997","similarity_question","","","","","","","","","","","","{""Q0"":4}","[0]","","images/stimuli/spore_stims/simple_04_A_a.gif","images/stimuli/spore_stims/simple_06_A_b.gif"
"","7658.865000121295","survey-likert","153","714283","0.0-43.0","SS1618435642997","similarity_question","","","","","","","","","","","","{""Q0"":4}","[0]","","images/stimuli/spore_stims/simple_07_A_b.gif","images/stimuli/spore_stims/simple_11_A_a.gif"
"","6674.529999960214","survey-likert","154","720963","0.0-44.0","SS1618435642997","similarity_question","","","","","","","","","","","","{""Q0"":5}","[0]","","images/stimuli/spore_stims/simple_08_A_b.gif","images/stimuli/spore_stims/simple_19_A_a.gif"
"[{""page_index"":0,""viewing_time"":5083.359999815002}]","5083.584999898449","instructions","155","726051","0.0-45.0","SS1618435642997","instructions","","","","","","","","","","","","","","","",""
"","6269.834999926388","survey-likert","156","732323","0.0-46.0","SS1618435642997","","","","","","","","","images/stimuli/spore_stims/complex_08_A_b.gif","","","","{""Q0"":4}","[0]","","",""
"","7417.759999865666","survey-likert","157","739747","0.0-47.0","SS1618435642997","","","","","","","","","images/stimuli/spore_stims/simple_12_A_b.gif","","","","{""Q0"":1}","[0]","","",""
"","2930.9650000650436","survey-likert","158","742683","0.0-48.0","SS1618435642997","","","","","","","","","images/stimuli/spore_stims/simple_06_A_a.gif","","","","{""Q0"":0}","[0]","","",""
"","2394.7999998927116","survey-likert","159","745083","0.0-49.0","SS1618435642997","","","","","","","","","images/stimuli/spore_stims/complex_08_A_a.gif","","","","{""Q0"":4}","[0]","","",""
"","2546.894999919459","survey-likert","160","747635","0.0-50.0","SS1618435642997","","","","","","","","","images/stimuli/spore_stims/simple_07_A_b.gif","","","","{""Q0"":1}","[0]","","",""
"","4386.764999944717","survey-likert","161","752027","0.0-51.0","SS1618435642997","","","","","","","","","images/stimuli/spore_stims/complex_20_A_b.gif","","","","{""Q0"":4}","[0]","","",""
"","3314.4000000320375","survey-likert","162","755347","0.0-52.0","SS1618435642997","","","","","","","","","images/stimuli/spore_stims/simple_19_A_a.gif","","","","{""Q0"":1}","[0]","","",""
"","1850.7349998690188","survey-likert","163","757203","0.0-53.0","SS1618435642997","","","","","","","","","images/stimuli/spore_stims/simple_02_A_a.gif","","","","{""Q0"":0}","[0]","","",""
"","2706.6150000318885","survey-likert","164","759915","0.0-54.0","SS1618435642997","","","","","","","","","images/stimuli/spore_stims/complex_06_A_b.gif","","","","{""Q0"":4}","[0]","","",""
"","2890.5699998140335","survey-likert","165","762811","0.0-55.0","SS1618435642997","","","","","","","","","images/stimuli/spore_stims/complex_12_A_a.gif","","","","{""Q0"":5}","[0]","","",""
"","2874.579999828711","survey-likert","166","765691","0.0-56.0","SS1618435642997","","","","","","","","","images/stimuli/spore_stims/complex_03_A_a.gif","","","","{""Q0"":4}","[0]","","",""
"","4657.764999894425","survey-likert","167","770355","0.0-57.0","SS1618435642997","","","","","","","","","images/stimuli/spore_stims/simple_04_A_a.gif","","","","{""Q0"":1}","[0]","","",""
"[{""page_index"":0,""viewing_time"":2563.1399999838322}]","2563.354999991134","instructions","168","772923","0.0-58.0","SS1618435642997","instructions","","","","","","","","","","","","","","","",""
"","2404.0249998215586","demog-age","169","775331","0.0-59.0","SS1618435642997","","","","","","","","","","","","","{""age"":""30""}","","","",""
"","5235.774999950081","demog-ethnic-US","170","780571","0.0-60.0","SS1618435642997","","","","","","","","","","","","","{""ethnicity"":[""White""]}","[0]","","",""
"","10978.120000101626","demog-gender-and-education","171","791555","0.0-61.0","SS1618435642997","","","","","","","","","","","","","{""gender"":""Male"",""education"":""Master's Degree""}","[0,1]","","",""
"","7928.539999993518","survey-text","172","799491","0.0-62.0","SS1618435642997","feedback","","","","","","","","","","","","{""Q0"":""None""}","","","",""
"[{""page_index"":0,""viewing_time"":2237.7100000157952}]","2237.9350000992417","instructions","173","801731","0.0-63.0","SS1618435642997","instructions","","","","","","","","","","","","","","","",""
