"view_history","rt","trial_type","trial_index","time_elapsed","internal_node_id","subject","stimulus_type","trial_stimulus","key_press","minimum_viewing_duration","trial_looking_time","block_deviant","block_background","exposure_type","stimulus","block_number","block_type","stimulus_displayed","responses","question_order","math_correct_answer","stimulus_left","stimulus_right"
"[{""page_index"":0,""viewing_time"":144634.7550000064}]","144635.414999997","instructions","0","144636","0.0-0.0","SS1618435653535","","","","","","","","","","","","","","","","",""
"[{""page_index"":0,""viewing_time"":16495.710000002873},{""page_index"":1,""viewing_time"":6140.24999999674}]","22636.240000007092","instructions","1","169276","0.0-1.0","SS1618435653535","instructions","","","","","","","","","","","","","","","",""
"","10674.56499999389","sequential-stimulus-presentation-old","2","180453","0.0-2.0","SS1618435653535","","","40","500","11174.56499999389","null","null","self_paced","","","","","","","","",""
"","6881.339999992633","sequential-stimulus-presentation-old","3","187836","0.0-3.0","SS1618435653535","","","40","500","7381.339999992633","null","null","self_paced","","","","","","","","",""
"[{""page_index"":0,""viewing_time"":24046.45999999775}]","24046.709999995073","instructions","4","211883","0.0-4.0","SS1618435653535","instructions","","","","","","","","","","","","","","","",""
"","5996.155000000726","sequential-stimulus-presentation-old","5","222882","0.0-5.0","SS1618435653535","","","40","500","6496.155000000726","null","null","forced_long","","","","","","","","",""
"","5226.684999986901","sequential-stimulus-presentation-old","6","228169","0.0-6.0","SS1618435653535","","","40","50","5276.684999986901","null","null","forced_long","","","","","","","","",""
"[{""page_index"":0,""viewing_time"":9980.844999998226}]","9981.054999996559","instructions","7","238151","0.0-7.0","SS1618435653535","instructions","","","","","","","","","","","","","","","",""
"[{""page_index"":0,""viewing_time"":8406.779999990249},{""page_index"":1,""viewing_time"":10747.925000003306},{""page_index"":2,""viewing_time"":15104.149999999208},{""page_index"":3,""viewing_time"":2916.1949999979697},{""page_index"":4,""viewing_time"":1411.9700000010198}]","38587.26000000024","instructions","8","276739","0.0-8.0","SS1618435653535","instructions","","","","","","","","","","","","","","","",""
"","null","html-keyboard-response","9","277602","0.0-9.0-0.0","SS1618435653535","","","null","","","","","","<p><img src= images/blank.png width =""600"" height = ""600"" style=""position:fixed;top:50%; left:50%; transform: translate(-50%, -50%); border:5px solid black"">","","","","","","","",""
"","2386.270000002696","sequential-stimulus-presentation-old","10","284992","0.0-9.0-1.0","SS1618435653535","trial","","40","500","2886.270000002696","images/stimuli/spore_stims/complex_16_A_b.gif","images/stimuli/spore_stims/complex_09_A_a.gif","forced_long","","0","complex_dissimilar","images/stimuli/spore_stims/complex_09_A_a.gif","","","","",""
"","null","html-keyboard-response","11","285874","0.0-9.0-0.1","SS1618435653535","","","null","","","","","","<p><img src= images/blank.png width =""600"" height = ""600"" style=""position:fixed;top:50%; left:50%; transform: translate(-50%, -50%); border:5px solid black"">","","","","","","","",""
"","13627.540000001318","sequential-stimulus-presentation-old","12","300007","0.0-9.0-1.1","SS1618435653535","trial","","40","500","14127.540000001318","images/stimuli/spore_stims/complex_16_A_b.gif","images/stimuli/spore_stims/complex_09_A_a.gif","forced_long","","0","complex_dissimilar","images/stimuli/spore_stims/complex_09_A_a.gif","","","","",""
"","null","html-keyboard-response","13","301129","0.0-9.0-0.2","SS1618435653535","","","null","","","","","","<p><img src= images/blank.png width =""600"" height = ""600"" style=""position:fixed;top:50%; left:50%; transform: translate(-50%, -50%); border:5px solid black"">","","","","","","","",""
"","7212.530000004335","sequential-stimulus-presentation-old","14","308843","0.0-9.0-1.2","SS1618435653535","trial","","40","500","7712.530000004335","images/stimuli/spore_stims/complex_16_A_b.gif","images/stimuli/spore_stims/complex_09_A_a.gif","forced_long","","0","complex_dissimilar","images/stimuli/spore_stims/complex_09_A_a.gif","","","","",""
"","null","html-keyboard-response","15","309975","0.0-9.0-0.3","SS1618435653535","","","null","","","","","","<p><img src= images/blank.png width =""600"" height = ""600"" style=""position:fixed;top:50%; left:50%; transform: translate(-50%, -50%); border:5px solid black"">","","","","","","","",""
"","8812.820000006468","sequential-stimulus-presentation-old","16","319290","0.0-9.0-1.3","SS1618435653535","trial","","40","500","9312.820000006468","images/stimuli/spore_stims/complex_16_A_b.gif","images/stimuli/spore_stims/complex_09_A_a.gif","forced_long","","0","complex_dissimilar","images/stimuli/spore_stims/complex_09_A_a.gif","","","","",""
"","3750.9399999980815","survey-multi-choice","17","323044","0.0-10.0","SS1618435653535","math_question","","","","","","","","","","","","{""Q0"":""6""}","[0]","6","",""
"","null","html-keyboard-response","18","324286","0.0-11.0-0.0","SS1618435653535","","","null","","","","","","<p><img src= images/blank.png width =""600"" height = ""600"" style=""position:fixed;top:50%; left:50%; transform: translate(-50%, -50%); border:5px solid black"">","","","","","","","",""
"","917.3700000101235","sequential-stimulus-presentation-old","19","330207","0.0-11.0-1.0","SS1618435653535","trial","","40","500","1417.3700000101235","images/stimuli/spore_stims/simple_18_A_a.gif","images/stimuli/spore_stims/simple_19_A_b.gif","forced_long","","1","simple_dissimilar","images/stimuli/spore_stims/simple_19_A_b.gif","","","","",""
"","null","html-keyboard-response","20","331098","0.0-11.0-0.1","SS1618435653535","","","null","","","","","","<p><img src= images/blank.png width =""600"" height = ""600"" style=""position:fixed;top:50%; left:50%; transform: translate(-50%, -50%); border:5px solid black"">","","","","","","","",""
"","7651.534999997239","sequential-stimulus-presentation-old","21","339263","0.0-11.0-1.1","SS1618435653535","trial","","40","500","8151.534999997239","images/stimuli/spore_stims/simple_18_A_a.gif","images/stimuli/spore_stims/simple_19_A_b.gif","forced_long","","1","simple_dissimilar","images/stimuli/spore_stims/simple_19_A_b.gif","","","","",""
"","null","html-keyboard-response","22","340199","0.0-11.0-0.2","SS1618435653535","","","null","","","","","","<p><img src= images/blank.png width =""600"" height = ""600"" style=""position:fixed;top:50%; left:50%; transform: translate(-50%, -50%); border:5px solid black"">","","","","","","","",""
"","6162.530000001425","sequential-stimulus-presentation-old","23","346864","0.0-11.0-1.2","SS1618435653535","trial","","40","500","6662.530000001425","images/stimuli/spore_stims/simple_18_A_a.gif","images/stimuli/spore_stims/simple_19_A_b.gif","forced_long","","1","simple_dissimilar","images/stimuli/spore_stims/simple_19_A_b.gif","","","","",""
"","null","html-keyboard-response","24","347928","0.0-11.0-0.3","SS1618435653535","","","null","","","","","","<p><img src= images/blank.png width =""600"" height = ""600"" style=""position:fixed;top:50%; left:50%; transform: translate(-50%, -50%); border:5px solid black"">","","","","","","","",""
"","5890.645000006771","sequential-stimulus-presentation-old","25","354322","0.0-11.0-1.3","SS1618435653535","trial","","40","500","6390.645000006771","images/stimuli/spore_stims/simple_18_A_a.gif","images/stimuli/spore_stims/simple_19_A_b.gif","forced_long","","1","simple_dissimilar","images/stimuli/spore_stims/simple_19_A_b.gif","","","","",""
"","null","html-keyboard-response","26","355306","0.0-11.0-0.4","SS1618435653535","","","null","","","","","","<p><img src= images/blank.png width =""600"" height = ""600"" style=""position:fixed;top:50%; left:50%; transform: translate(-50%, -50%); border:5px solid black"">","","","","","","","",""
"","9430.95500000345","sequential-stimulus-presentation-old","27","365251","0.0-11.0-1.4","SS1618435653535","trial","","40","500","9930.95500000345","images/stimuli/spore_stims/simple_18_A_a.gif","images/stimuli/spore_stims/simple_19_A_b.gif","forced_long","","1","simple_dissimilar","images/stimuli/spore_stims/simple_19_A_b.gif","","","","",""
"","null","html-keyboard-response","28","366093","0.0-11.0-0.5","SS1618435653535","","","null","","","","","","<p><img src= images/blank.png width =""600"" height = ""600"" style=""position:fixed;top:50%; left:50%; transform: translate(-50%, -50%); border:5px solid black"">","","","","","","","",""
"","7232.719999999972","sequential-stimulus-presentation-old","29","373828","0.0-11.0-1.5","SS1618435653535","trial","","40","500","7732.719999999972","images/stimuli/spore_stims/simple_18_A_a.gif","images/stimuli/spore_stims/simple_19_A_b.gif","forced_long","","1","simple_dissimilar","images/stimuli/spore_stims/simple_19_A_b.gif","","","","",""
"","3285.0299999990966","survey-multi-choice","30","377115","0.0-12.0","SS1618435653535","math_question","","","","","","","","","","","","{""Q0"":""9""}","[0]","9","",""
"","null","html-keyboard-response","31","378319","0.0-13.0-0.0","SS1618435653535","","","null","","","","","","<p><img src= images/blank.png width =""600"" height = ""600"" style=""position:fixed;top:50%; left:50%; transform: translate(-50%, -50%); border:5px solid black"">","","","","","","","",""
"","1839.4699999917066","sequential-stimulus-presentation-old","32","380213","0.0-13.0-1.0","SS1618435653535","trial","","40","500","2339.4699999917066","images/stimuli/spore_stims/simple_16_A_a.gif","images/stimuli/spore_stims/simple_02_A_b.gif","forced_short","","2","simple_dissimilar","images/stimuli/spore_stims/simple_02_A_b.gif","","","","",""
"","null","html-keyboard-response","33","381209","0.0-13.0-0.1","SS1618435653535","","","null","","","","","","<p><img src= images/blank.png width =""600"" height = ""600"" style=""position:fixed;top:50%; left:50%; transform: translate(-50%, -50%); border:5px solid black"">","","","","","","","",""
"","6551.09999999695","sequential-stimulus-presentation-old","34","388273","0.0-13.0-1.1","SS1618435653535","trial","","40","500","7051.09999999695","images/stimuli/spore_stims/simple_16_A_a.gif","images/stimuli/spore_stims/simple_02_A_b.gif","forced_short","","2","simple_dissimilar","images/stimuli/spore_stims/simple_16_A_a.gif","","","","",""
"","null","html-keyboard-response","35","389438","0.0-13.0-0.2","SS1618435653535","","","null","","","","","","<p><img src= images/blank.png width =""600"" height = ""600"" style=""position:fixed;top:50%; left:50%; transform: translate(-50%, -50%); border:5px solid black"">","","","","","","","",""
"","9291.400000001886","sequential-stimulus-presentation-old","36","399241","0.0-13.0-1.2","SS1618435653535","trial","","40","500","9791.400000001886","images/stimuli/spore_stims/simple_16_A_a.gif","images/stimuli/spore_stims/simple_02_A_b.gif","forced_short","","2","simple_dissimilar","images/stimuli/spore_stims/simple_16_A_a.gif","","","","",""
"","null","html-keyboard-response","37","400478","0.0-13.0-0.3","SS1618435653535","","","null","","","","","","<p><img src= images/blank.png width =""600"" height = ""600"" style=""position:fixed;top:50%; left:50%; transform: translate(-50%, -50%); border:5px solid black"">","","","","","","","",""
"","9379.965000000084","sequential-stimulus-presentation-old","38","410369","0.0-13.0-1.3","SS1618435653535","trial","","40","500","9879.965000000084","images/stimuli/spore_stims/simple_16_A_a.gif","images/stimuli/spore_stims/simple_02_A_b.gif","forced_short","","2","simple_dissimilar","images/stimuli/spore_stims/simple_02_A_b.gif","","","","",""
"","null","html-keyboard-response","39","411575","0.0-13.0-0.4","SS1618435653535","","","null","","","","","","<p><img src= images/blank.png width =""600"" height = ""600"" style=""position:fixed;top:50%; left:50%; transform: translate(-50%, -50%); border:5px solid black"">","","","","","","","",""
"","6474.795000001905","sequential-stimulus-presentation-old","40","418565","0.0-13.0-1.4","SS1618435653535","trial","","40","500","6974.795000001905","images/stimuli/spore_stims/simple_16_A_a.gif","images/stimuli/spore_stims/simple_02_A_b.gif","forced_short","","2","simple_dissimilar","images/stimuli/spore_stims/simple_02_A_b.gif","","","","",""
"","null","html-keyboard-response","41","419755","0.0-13.0-0.5","SS1618435653535","","","null","","","","","","<p><img src= images/blank.png width =""600"" height = ""600"" style=""position:fixed;top:50%; left:50%; transform: translate(-50%, -50%); border:5px solid black"">","","","","","","","",""
"","5101.215000002412","sequential-stimulus-presentation-old","42","425359","0.0-13.0-1.5","SS1618435653535","trial","","40","500","5601.215000002412","images/stimuli/spore_stims/simple_16_A_a.gif","images/stimuli/spore_stims/simple_02_A_b.gif","forced_short","","2","simple_dissimilar","images/stimuli/spore_stims/simple_02_A_b.gif","","","","",""
"","2679.1700000030687","survey-multi-choice","43","428040","0.0-14.0","SS1618435653535","math_question","","","","","","","","","","","","{""Q0"":""6""}","[0]","6","",""
"","null","html-keyboard-response","44","429019","0.0-15.0-0.0","SS1618435653535","","","null","","","","","","<p><img src= images/blank.png width =""600"" height = ""600"" style=""position:fixed;top:50%; left:50%; transform: translate(-50%, -50%); border:5px solid black"">","","","","","","","",""
"","1816.9099999940954","sequential-stimulus-presentation-old","45","430895","0.0-15.0-1.0","SS1618435653535","trial","","40","500","2316.9099999940954","images/stimuli/spore_stims/complex_13_A_b.gif","images/stimuli/spore_stims/complex_18_A_a.gif","forced_short","","3","complex_dissimilar","images/stimuli/spore_stims/complex_18_A_a.gif","","","","",""
"","null","html-keyboard-response","46","432145","0.0-15.0-0.1","SS1618435653535","","","null","","","","","","<p><img src= images/blank.png width =""600"" height = ""600"" style=""position:fixed;top:50%; left:50%; transform: translate(-50%, -50%); border:5px solid black"">","","","","","","","",""
"","7187.955000001239","sequential-stimulus-presentation-old","47","439836","0.0-15.0-1.1","SS1618435653535","trial","","40","500","7687.955000001239","images/stimuli/spore_stims/complex_13_A_b.gif","images/stimuli/spore_stims/complex_18_A_a.gif","forced_short","","3","complex_dissimilar","images/stimuli/spore_stims/complex_13_A_b.gif","","","","",""
"","null","html-keyboard-response","48","441018","0.0-15.0-0.2","SS1618435653535","","","null","","","","","","<p><img src= images/blank.png width =""600"" height = ""600"" style=""position:fixed;top:50%; left:50%; transform: translate(-50%, -50%); border:5px solid black"">","","","","","","","",""
"","8190.904999995837","sequential-stimulus-presentation-old","49","449711","0.0-15.0-1.2","SS1618435653535","trial","","40","500","8690.904999995837","images/stimuli/spore_stims/complex_13_A_b.gif","images/stimuli/spore_stims/complex_18_A_a.gif","forced_short","","3","complex_dissimilar","images/stimuli/spore_stims/complex_18_A_a.gif","","","","",""
"","null","html-keyboard-response","50","450855","0.0-15.0-0.3","SS1618435653535","","","null","","","","","","<p><img src= images/blank.png width =""600"" height = ""600"" style=""position:fixed;top:50%; left:50%; transform: translate(-50%, -50%); border:5px solid black"">","","","","","","","",""
"","5210.525000002235","sequential-stimulus-presentation-old","51","456585","0.0-15.0-1.3","SS1618435653535","trial","","40","500","5710.525000002235","images/stimuli/spore_stims/complex_13_A_b.gif","images/stimuli/spore_stims/complex_18_A_a.gif","forced_short","","3","complex_dissimilar","images/stimuli/spore_stims/complex_18_A_a.gif","","","","",""
"","3732.87999999593","survey-multi-choice","52","460320","0.0-16.0","SS1618435653535","math_question","","","","","","","","","","","","{""Q0"":""10""}","[0]","10","",""
"","null","html-keyboard-response","53","461546","0.0-17.0-0.0","SS1618435653535","","","null","","","","","","<p><img src= images/blank.png width =""600"" height = ""600"" style=""position:fixed;top:50%; left:50%; transform: translate(-50%, -50%); border:5px solid black"">","","","","","","","",""
"","10878.314999994473","sequential-stimulus-presentation-old","54","472929","0.0-17.0-1.0","SS1618435653535","trial","","40","500","11378.314999994473","images/stimuli/spore_stims/complex_10_A_a.gif","images/stimuli/spore_stims/complex_20_A_b.gif","self_paced","","4","complex_dissimilar","images/stimuli/spore_stims/complex_20_A_b.gif","","","","",""
"","null","html-keyboard-response","55","474084","0.0-17.0-0.1","SS1618435653535","","","null","","","","","","<p><img src= images/blank.png width =""600"" height = ""600"" style=""position:fixed;top:50%; left:50%; transform: translate(-50%, -50%); border:5px solid black"">","","","","","","","",""
"","4442.349999997532","sequential-stimulus-presentation-old","56","479042","0.0-17.0-1.1","SS1618435653535","trial","","40","500","4942.349999997532","images/stimuli/spore_stims/complex_10_A_a.gif","images/stimuli/spore_stims/complex_20_A_b.gif","self_paced","","4","complex_dissimilar","images/stimuli/spore_stims/complex_20_A_b.gif","","","","",""
"","null","html-keyboard-response","57","480315","0.0-17.0-0.2","SS1618435653535","","","null","","","","","","<p><img src= images/blank.png width =""600"" height = ""600"" style=""position:fixed;top:50%; left:50%; transform: translate(-50%, -50%); border:5px solid black"">","","","","","","","",""
"","5668.684999996913","sequential-stimulus-presentation-old","58","486490","0.0-17.0-1.2","SS1618435653535","trial","","40","500","6168.684999996913","images/stimuli/spore_stims/complex_10_A_a.gif","images/stimuli/spore_stims/complex_20_A_b.gif","self_paced","","4","complex_dissimilar","images/stimuli/spore_stims/complex_20_A_b.gif","","","","",""
"","null","html-keyboard-response","59","487701","0.0-17.0-0.3","SS1618435653535","","","null","","","","","","<p><img src= images/blank.png width =""600"" height = ""600"" style=""position:fixed;top:50%; left:50%; transform: translate(-50%, -50%); border:5px solid black"">","","","","","","","",""
"","4751.839999997173","sequential-stimulus-presentation-old","60","492966","0.0-17.0-1.3","SS1618435653535","trial","","40","500","5251.839999997173","images/stimuli/spore_stims/complex_10_A_a.gif","images/stimuli/spore_stims/complex_20_A_b.gif","self_paced","","4","complex_dissimilar","images/stimuli/spore_stims/complex_20_A_b.gif","","","","",""
"","null","html-keyboard-response","61","493955","0.0-17.0-0.4","SS1618435653535","","","null","","","","","","<p><img src= images/blank.png width =""600"" height = ""600"" style=""position:fixed;top:50%; left:50%; transform: translate(-50%, -50%); border:5px solid black"">","","","","","","","",""
"","5400.840000002063","sequential-stimulus-presentation-old","62","499868","0.0-17.0-1.4","SS1618435653535","trial","","40","500","5900.840000002063","images/stimuli/spore_stims/complex_10_A_a.gif","images/stimuli/spore_stims/complex_20_A_b.gif","self_paced","","4","complex_dissimilar","images/stimuli/spore_stims/complex_20_A_b.gif","","","","",""
"","3770.3850000107195","survey-multi-choice","63","503640","0.0-18.0","SS1618435653535","math_question","","","","","","","","","","","","{""Q0"":""9""}","[0]","9","",""
"","null","html-keyboard-response","64","504476","0.0-19.0-0.0","SS1618435653535","","","null","","","","","","<p><img src= images/blank.png width =""600"" height = ""600"" style=""position:fixed;top:50%; left:50%; transform: translate(-50%, -50%); border:5px solid black"">","","","","","","","",""
"","10843.154999995022","sequential-stimulus-presentation-old","65","515822","0.0-19.0-1.0","SS1618435653535","trial","","40","500","11343.154999995022","images/stimuli/spore_stims/complex_03_A_a.gif","images/stimuli/spore_stims/complex_15_A_b.gif","self_paced","","5","complex_dissimilar","images/stimuli/spore_stims/complex_15_A_b.gif","","","","",""
"","null","html-keyboard-response","66","517109","0.0-19.0-0.1","SS1618435653535","","","null","","","","","","<p><img src= images/blank.png width =""600"" height = ""600"" style=""position:fixed;top:50%; left:50%; transform: translate(-50%, -50%); border:5px solid black"">","","","","","","","",""
"","8670.629999993253","sequential-stimulus-presentation-old","67","526290","0.0-19.0-1.1","SS1618435653535","trial","","40","500","9170.629999993253","images/stimuli/spore_stims/complex_03_A_a.gif","images/stimuli/spore_stims/complex_15_A_b.gif","self_paced","","5","complex_dissimilar","images/stimuli/spore_stims/complex_15_A_b.gif","","","","",""
"","null","html-keyboard-response","68","527553","0.0-19.0-0.2","SS1618435653535","","","null","","","","","","<p><img src= images/blank.png width =""600"" height = ""600"" style=""position:fixed;top:50%; left:50%; transform: translate(-50%, -50%); border:5px solid black"">","","","","","","","",""
"","11305.11000000115","sequential-stimulus-presentation-old","69","539372","0.0-19.0-1.2","SS1618435653535","trial","","40","500","11805.11000000115","images/stimuli/spore_stims/complex_03_A_a.gif","images/stimuli/spore_stims/complex_15_A_b.gif","self_paced","","5","complex_dissimilar","images/stimuli/spore_stims/complex_03_A_a.gif","","","","",""
"","null","html-keyboard-response","70","540260","0.0-19.0-0.3","SS1618435653535","","","null","","","","","","<p><img src= images/blank.png width =""600"" height = ""600"" style=""position:fixed;top:50%; left:50%; transform: translate(-50%, -50%); border:5px solid black"">","","","","","","","",""
"","5634.030000001076","sequential-stimulus-presentation-old","71","546397","0.0-19.0-1.3","SS1618435653535","trial","","40","500","6134.030000001076","images/stimuli/spore_stims/complex_03_A_a.gif","images/stimuli/spore_stims/complex_15_A_b.gif","self_paced","","5","complex_dissimilar","images/stimuli/spore_stims/complex_15_A_b.gif","","","","",""
"","null","html-keyboard-response","72","547246","0.0-19.0-0.4","SS1618435653535","","","null","","","","","","<p><img src= images/blank.png width =""600"" height = ""600"" style=""position:fixed;top:50%; left:50%; transform: translate(-50%, -50%); border:5px solid black"">","","","","","","","",""
"","5619.330000001355","sequential-stimulus-presentation-old","73","553368","0.0-19.0-1.4","SS1618435653535","trial","","40","500","6119.330000001355","images/stimuli/spore_stims/complex_03_A_a.gif","images/stimuli/spore_stims/complex_15_A_b.gif","self_paced","","5","complex_dissimilar","images/stimuli/spore_stims/complex_15_A_b.gif","","","","",""
"","2941.500000000815","survey-multi-choice","74","556311","0.0-20.0","SS1618435653535","math_question","","","","","","","","","","","","{""Q0"":""9""}","[0]","9","",""
"","null","html-keyboard-response","75","557444","0.0-21.0-0.0","SS1618435653535","","","null","","","","","","<p><img src= images/blank.png width =""600"" height = ""600"" style=""position:fixed;top:50%; left:50%; transform: translate(-50%, -50%); border:5px solid black"">","","","","","","","",""
"","4501.219999991008","sequential-stimulus-presentation-old","76","566950","0.0-21.0-1.0","SS1618435653535","trial","","40","500","5001.219999991008","images/stimuli/spore_stims/simple_07_A_a.gif","images/stimuli/spore_stims/simple_17_A_b.gif","forced_long","","6","simple_dissimilar","images/stimuli/spore_stims/simple_17_A_b.gif","","","","",""
"","null","html-keyboard-response","77","567871","0.0-21.0-0.1","SS1618435653535","","","null","","","","","","<p><img src= images/blank.png width =""600"" height = ""600"" style=""position:fixed;top:50%; left:50%; transform: translate(-50%, -50%); border:5px solid black"">","","","","","","","",""
"","8220.2249999973","sequential-stimulus-presentation-old","78","576595","0.0-21.0-1.1","SS1618435653535","trial","","40","500","8720.2249999973","images/stimuli/spore_stims/simple_07_A_a.gif","images/stimuli/spore_stims/simple_17_A_b.gif","forced_long","","6","simple_dissimilar","images/stimuli/spore_stims/simple_17_A_b.gif","","","","",""
"","null","html-keyboard-response","79","577633","0.0-21.0-0.2","SS1618435653535","","","null","","","","","","<p><img src= images/blank.png width =""600"" height = ""600"" style=""position:fixed;top:50%; left:50%; transform: translate(-50%, -50%); border:5px solid black"">","","","","","","","",""
"","3875.034999990021","sequential-stimulus-presentation-old","80","582022","0.0-21.0-1.2","SS1618435653535","trial","","40","500","4375.034999990021","images/stimuli/spore_stims/simple_07_A_a.gif","images/stimuli/spore_stims/simple_17_A_b.gif","forced_long","","6","simple_dissimilar","images/stimuli/spore_stims/simple_17_A_b.gif","","","","",""
"","null","html-keyboard-response","81","583274","0.0-21.0-0.3","SS1618435653535","","","null","","","","","","<p><img src= images/blank.png width =""600"" height = ""600"" style=""position:fixed;top:50%; left:50%; transform: translate(-50%, -50%); border:5px solid black"">","","","","","","","",""
"","5955.835000000661","sequential-stimulus-presentation-old","82","589739","0.0-21.0-1.3","SS1618435653535","trial","","40","500","6455.835000000661","images/stimuli/spore_stims/simple_07_A_a.gif","images/stimuli/spore_stims/simple_17_A_b.gif","forced_long","","6","simple_dissimilar","images/stimuli/spore_stims/simple_17_A_b.gif","","","","",""
"","null","html-keyboard-response","83","590622","0.0-21.0-0.4","SS1618435653535","","","null","","","","","","<p><img src= images/blank.png width =""600"" height = ""600"" style=""position:fixed;top:50%; left:50%; transform: translate(-50%, -50%); border:5px solid black"">","","","","","","","",""
"","3584.599999987404","sequential-stimulus-presentation-old","84","594719","0.0-21.0-1.4","SS1618435653535","trial","","40","500","4084.599999987404","images/stimuli/spore_stims/simple_07_A_a.gif","images/stimuli/spore_stims/simple_17_A_b.gif","forced_long","","6","simple_dissimilar","images/stimuli/spore_stims/simple_17_A_b.gif","","","","",""
"","3078.0200000008335","survey-multi-choice","85","597799","0.0-22.0","SS1618435653535","math_question","","","","","","","","","","","","{""Q0"":""4""}","[0]","4","",""
"","null","html-keyboard-response","86","598960","0.0-23.0-0.0","SS1618435653535","","","null","","","","","","<p><img src= images/blank.png width =""600"" height = ""600"" style=""position:fixed;top:50%; left:50%; transform: translate(-50%, -50%); border:5px solid black"">","","","","","","","",""
"","8372.21000000136","sequential-stimulus-presentation-old","87","607394","0.0-23.0-1.0","SS1618435653535","trial","","40","500","8872.21000000136","images/stimuli/spore_stims/complex_13_A_a.gif","images/stimuli/spore_stims/complex_02_A_b.gif","forced_short","","7","complex_dissimilar","images/stimuli/spore_stims/complex_02_A_b.gif","","","","",""
"","null","html-keyboard-response","88","608303","0.0-23.0-0.1","SS1618435653535","","","null","","","","","","<p><img src= images/blank.png width =""600"" height = ""600"" style=""position:fixed;top:50%; left:50%; transform: translate(-50%, -50%); border:5px solid black"">","","","","","","","",""
"","10730.160000006435","sequential-stimulus-presentation-old","89","619537","0.0-23.0-1.1","SS1618435653535","trial","","40","500","11230.160000006435","images/stimuli/spore_stims/complex_13_A_a.gif","images/stimuli/spore_stims/complex_02_A_b.gif","forced_short","","7","complex_dissimilar","images/stimuli/spore_stims/complex_02_A_b.gif","","","","",""
"","null","html-keyboard-response","90","620676","0.0-23.0-0.2","SS1618435653535","","","null","","","","","","<p><img src= images/blank.png width =""600"" height = ""600"" style=""position:fixed;top:50%; left:50%; transform: translate(-50%, -50%); border:5px solid black"">","","","","","","","",""
"","5898.475000009057","sequential-stimulus-presentation-old","91","627078","0.0-23.0-1.2","SS1618435653535","trial","","40","500","6398.475000009057","images/stimuli/spore_stims/complex_13_A_a.gif","images/stimuli/spore_stims/complex_02_A_b.gif","forced_short","","7","complex_dissimilar","images/stimuli/spore_stims/complex_02_A_b.gif","","","","",""
"","null","html-keyboard-response","92","628176","0.0-23.0-0.3","SS1618435653535","","","null","","","","","","<p><img src= images/blank.png width =""600"" height = ""600"" style=""position:fixed;top:50%; left:50%; transform: translate(-50%, -50%); border:5px solid black"">","","","","","","","",""
"","5908.540000003995","sequential-stimulus-presentation-old","93","634589","0.0-23.0-1.3","SS1618435653535","trial","","40","500","6408.540000003995","images/stimuli/spore_stims/complex_13_A_a.gif","images/stimuli/spore_stims/complex_02_A_b.gif","forced_short","","7","complex_dissimilar","images/stimuli/spore_stims/complex_02_A_b.gif","","","","",""
"","3693.3699999935925","survey-multi-choice","94","638284","0.0-24.0","SS1618435653535","math_question","","","","","","","","","","","","{""Q0"":""5""}","[0]","5","",""
"","null","html-keyboard-response","95","639127","0.0-25.0-0.0","SS1618435653535","","","null","","","","","","<p><img src= images/blank.png width =""600"" height = ""600"" style=""position:fixed;top:50%; left:50%; transform: translate(-50%, -50%); border:5px solid black"">","","","","","","","",""
"","1643.8750000088476","sequential-stimulus-presentation-old","96","640834","0.0-25.0-1.0","SS1618435653535","trial","","40","500","2143.8750000088476","images/stimuli/spore_stims/simple_05_A_b.gif","images/stimuli/spore_stims/simple_08_A_a.gif","forced_short","","8","simple_dissimilar","images/stimuli/spore_stims/simple_08_A_a.gif","","","","",""
"","null","html-keyboard-response","97","642104","0.0-25.0-0.1","SS1618435653535","","","null","","","","","","<p><img src= images/blank.png width =""600"" height = ""600"" style=""position:fixed;top:50%; left:50%; transform: translate(-50%, -50%); border:5px solid black"">","","","","","","","",""
"","7352.969999992638","sequential-stimulus-presentation-old","98","649960","0.0-25.0-1.1","SS1618435653535","trial","","40","500","7852.969999992638","images/stimuli/spore_stims/simple_05_A_b.gif","images/stimuli/spore_stims/simple_08_A_a.gif","forced_short","","8","simple_dissimilar","images/stimuli/spore_stims/simple_08_A_a.gif","","","","",""
"","null","html-keyboard-response","99","650873","0.0-25.0-0.2","SS1618435653535","","","null","","","","","","<p><img src= images/blank.png width =""600"" height = ""600"" style=""position:fixed;top:50%; left:50%; transform: translate(-50%, -50%); border:5px solid black"">","","","","","","","",""
"","3867.320000004838","sequential-stimulus-presentation-old","100","655253","0.0-25.0-1.2","SS1618435653535","trial","","40","500","4367.320000004838","images/stimuli/spore_stims/simple_05_A_b.gif","images/stimuli/spore_stims/simple_08_A_a.gif","forced_short","","8","simple_dissimilar","images/stimuli/spore_stims/simple_08_A_a.gif","","","","",""
"","null","html-keyboard-response","101","656209","0.0-25.0-0.3","SS1618435653535","","","null","","","","","","<p><img src= images/blank.png width =""600"" height = ""600"" style=""position:fixed;top:50%; left:50%; transform: translate(-50%, -50%); border:5px solid black"">","","","","","","","",""
"","3802.284999997937","sequential-stimulus-presentation-old","102","660514","0.0-25.0-1.3","SS1618435653535","trial","","40","500","4302.284999997937","images/stimuli/spore_stims/simple_05_A_b.gif","images/stimuli/spore_stims/simple_08_A_a.gif","forced_short","","8","simple_dissimilar","images/stimuli/spore_stims/simple_08_A_a.gif","","","","",""
"","null","html-keyboard-response","103","661674","0.0-25.0-0.4","SS1618435653535","","","null","","","","","","<p><img src= images/blank.png width =""600"" height = ""600"" style=""position:fixed;top:50%; left:50%; transform: translate(-50%, -50%); border:5px solid black"">","","","","","","","",""
"","3568.700000003446","sequential-stimulus-presentation-old","104","665746","0.0-25.0-1.4","SS1618435653535","trial","","40","500","4068.700000003446","images/stimuli/spore_stims/simple_05_A_b.gif","images/stimuli/spore_stims/simple_08_A_a.gif","forced_short","","8","simple_dissimilar","images/stimuli/spore_stims/simple_08_A_a.gif","","","","",""
"","4591.715000002296","survey-multi-choice","105","670339","0.0-26.0","SS1618435653535","math_question","","","","","","","","","","","","{""Q0"":""8""}","[0]","8","",""
"","null","html-keyboard-response","106","671474","0.0-27.0-0.0","SS1618435653535","","","null","","","","","","<p><img src= images/blank.png width =""600"" height = ""600"" style=""position:fixed;top:50%; left:50%; transform: translate(-50%, -50%); border:5px solid black"">","","","","","","","",""
"","1073.90000000305","sequential-stimulus-presentation-old","107","677562","0.0-27.0-1.0","SS1618435653535","trial","","40","500","1573.90000000305","images/stimuli/spore_stims/complex_04_A_a.gif","images/stimuli/spore_stims/complex_05_A_b.gif","forced_long","","9","complex_dissimilar","images/stimuli/spore_stims/complex_05_A_b.gif","","","","",""
"","null","html-keyboard-response","108","678632","0.0-27.0-0.1","SS1618435653535","","","null","","","","","","<p><img src= images/blank.png width =""600"" height = ""600"" style=""position:fixed;top:50%; left:50%; transform: translate(-50%, -50%); border:5px solid black"">","","","","","","","",""
"","8328.854999999749","sequential-stimulus-presentation-old","109","687474","0.0-27.0-1.1","SS1618435653535","trial","","40","500","8828.854999999749","images/stimuli/spore_stims/complex_04_A_a.gif","images/stimuli/spore_stims/complex_05_A_b.gif","forced_long","","9","complex_dissimilar","images/stimuli/spore_stims/complex_05_A_b.gif","","","","",""
"","null","html-keyboard-response","110","688417","0.0-27.0-0.2","SS1618435653535","","","null","","","","","","<p><img src= images/blank.png width =""600"" height = ""600"" style=""position:fixed;top:50%; left:50%; transform: translate(-50%, -50%); border:5px solid black"">","","","","","","","",""
"","6308.949999991455","sequential-stimulus-presentation-old","111","695229","0.0-27.0-1.2","SS1618435653535","trial","","40","500","6808.949999991455","images/stimuli/spore_stims/complex_04_A_a.gif","images/stimuli/spore_stims/complex_05_A_b.gif","forced_long","","9","complex_dissimilar","images/stimuli/spore_stims/complex_05_A_b.gif","","","","",""
"","null","html-keyboard-response","112","696275","0.0-27.0-0.3","SS1618435653535","","","null","","","","","","<p><img src= images/blank.png width =""600"" height = ""600"" style=""position:fixed;top:50%; left:50%; transform: translate(-50%, -50%); border:5px solid black"">","","","","","","","",""
"","6329.545000000508","sequential-stimulus-presentation-old","113","703108","0.0-27.0-1.3","SS1618435653535","trial","","40","500","6829.545000000508","images/stimuli/spore_stims/complex_04_A_a.gif","images/stimuli/spore_stims/complex_05_A_b.gif","forced_long","","9","complex_dissimilar","images/stimuli/spore_stims/complex_04_A_a.gif","","","","",""
"","3367.3500000004424","survey-multi-choice","114","706478","0.0-28.0","SS1618435653535","math_question","","","","","","","","","","","","{""Q0"":""12""}","[0]","12","",""
"","null","html-keyboard-response","115","707625","0.0-29.0-0.0","SS1618435653535","","","null","","","","","","<p><img src= images/blank.png width =""600"" height = ""600"" style=""position:fixed;top:50%; left:50%; transform: translate(-50%, -50%); border:5px solid black"">","","","","","","","",""
"","10953.39999999851","sequential-stimulus-presentation-old","116","719093","0.0-29.0-1.0","SS1618435653535","trial","","40","500","11453.39999999851","images/stimuli/spore_stims/simple_10_A_a.gif","images/stimuli/spore_stims/simple_12_A_b.gif","self_paced","","10","simple_dissimilar","images/stimuli/spore_stims/simple_12_A_b.gif","","","","",""
"","null","html-keyboard-response","117","720309","0.0-29.0-0.1","SS1618435653535","","","null","","","","","","<p><img src= images/blank.png width =""600"" height = ""600"" style=""position:fixed;top:50%; left:50%; transform: translate(-50%, -50%); border:5px solid black"">","","","","","","","",""
"","5077.734999998938","sequential-stimulus-presentation-old","118","725891","0.0-29.0-1.1","SS1618435653535","trial","","40","500","5577.734999998938","images/stimuli/spore_stims/simple_10_A_a.gif","images/stimuli/spore_stims/simple_12_A_b.gif","self_paced","","10","simple_dissimilar","images/stimuli/spore_stims/simple_12_A_b.gif","","","","",""
"","null","html-keyboard-response","119","726904","0.0-29.0-0.2","SS1618435653535","","","null","","","","","","<p><img src= images/blank.png width =""600"" height = ""600"" style=""position:fixed;top:50%; left:50%; transform: translate(-50%, -50%); border:5px solid black"">","","","","","","","",""
"","7994.334999995772","sequential-stimulus-presentation-old","120","735402","0.0-29.0-1.2","SS1618435653535","trial","","40","500","8494.334999995772","images/stimuli/spore_stims/simple_10_A_a.gif","images/stimuli/spore_stims/simple_12_A_b.gif","self_paced","","10","simple_dissimilar","images/stimuli/spore_stims/simple_10_A_a.gif","","","","",""
"","null","html-keyboard-response","121","736495","0.0-29.0-0.3","SS1618435653535","","","null","","","","","","<p><img src= images/blank.png width =""600"" height = ""600"" style=""position:fixed;top:50%; left:50%; transform: translate(-50%, -50%); border:5px solid black"">","","","","","","","",""
"","6139.569999999367","sequential-stimulus-presentation-old","122","743148","0.0-29.0-1.3","SS1618435653535","trial","","40","500","6639.569999999367","images/stimuli/spore_stims/simple_10_A_a.gif","images/stimuli/spore_stims/simple_12_A_b.gif","self_paced","","10","simple_dissimilar","images/stimuli/spore_stims/simple_12_A_b.gif","","","","",""
"","3476.1300000100164","survey-multi-choice","123","746627","0.0-30.0","SS1618435653535","math_question","","","","","","","","","","","","{""Q0"":""8""}","[0]","8","",""
"","null","html-keyboard-response","124","747778","0.0-31.0-0.0","SS1618435653535","","","null","","","","","","<p><img src= images/blank.png width =""600"" height = ""600"" style=""position:fixed;top:50%; left:50%; transform: translate(-50%, -50%); border:5px solid black"">","","","","","","","",""
"","7342.290000000503","sequential-stimulus-presentation-old","125","755629","0.0-31.0-1.0","SS1618435653535","trial","","40","500","7842.290000000503","images/stimuli/spore_stims/simple_20_A_b.gif","images/stimuli/spore_stims/simple_02_A_a.gif","self_paced","","11","simple_dissimilar","images/stimuli/spore_stims/simple_02_A_a.gif","","","","",""
"","null","html-keyboard-response","126","756528","0.0-31.0-0.1","SS1618435653535","","","null","","","","","","<p><img src= images/blank.png width =""600"" height = ""600"" style=""position:fixed;top:50%; left:50%; transform: translate(-50%, -50%); border:5px solid black"">","","","","","","","",""
"","7931.989999997313","sequential-stimulus-presentation-old","127","764967","0.0-31.0-1.1","SS1618435653535","trial","","40","500","8431.989999997313","images/stimuli/spore_stims/simple_20_A_b.gif","images/stimuli/spore_stims/simple_02_A_a.gif","self_paced","","11","simple_dissimilar","images/stimuli/spore_stims/simple_20_A_b.gif","","","","",""
"","null","html-keyboard-response","128","765967","0.0-31.0-0.2","SS1618435653535","","","null","","","","","","<p><img src= images/blank.png width =""600"" height = ""600"" style=""position:fixed;top:50%; left:50%; transform: translate(-50%, -50%); border:5px solid black"">","","","","","","","",""
"","7528.924999991432","sequential-stimulus-presentation-old","129","774001","0.0-31.0-1.2","SS1618435653535","trial","","40","500","8028.924999991432","images/stimuli/spore_stims/simple_20_A_b.gif","images/stimuli/spore_stims/simple_02_A_a.gif","self_paced","","11","simple_dissimilar","images/stimuli/spore_stims/simple_02_A_a.gif","","","","",""
"","null","html-keyboard-response","130","775015","0.0-31.0-0.3","SS1618435653535","","","null","","","","","","<p><img src= images/blank.png width =""600"" height = ""600"" style=""position:fixed;top:50%; left:50%; transform: translate(-50%, -50%); border:5px solid black"">","","","","","","","",""
"","5634.245000008377","sequential-stimulus-presentation-old","131","781163","0.0-31.0-1.3","SS1618435653535","trial","","40","500","6134.245000008377","images/stimuli/spore_stims/simple_20_A_b.gif","images/stimuli/spore_stims/simple_02_A_a.gif","self_paced","","11","simple_dissimilar","images/stimuli/spore_stims/simple_02_A_a.gif","","","","",""
"","null","html-keyboard-response","132","782047","0.0-31.0-0.4","SS1618435653535","","","null","","","","","","<p><img src= images/blank.png width =""600"" height = ""600"" style=""position:fixed;top:50%; left:50%; transform: translate(-50%, -50%); border:5px solid black"">","","","","","","","",""
"","4198.140000007697","sequential-stimulus-presentation-old","133","786749","0.0-31.0-1.4","SS1618435653535","trial","","40","500","4698.140000007697","images/stimuli/spore_stims/simple_20_A_b.gif","images/stimuli/spore_stims/simple_02_A_a.gif","self_paced","","11","simple_dissimilar","images/stimuli/spore_stims/simple_20_A_b.gif","","","","",""
"[{""page_index"":0,""viewing_time"":5459.755000003497}]","5460.034999996424","instructions","134","792211","0.0-32.0","SS1618435653535","instructions","","","","","","","","","","","","","","","",""
"","13172.745000003488","survey-likert","135","805387","0.0-33.0","SS1618435653535","similarity_question","","","","","","","","","","","","{""Q0"":4}","[0]","","images/stimuli/spore_stims/simple_08_A_a.gif","images/stimuli/spore_stims/simple_05_A_b.gif"
"","6852.400000003399","survey-likert","136","812243","0.0-34.0","SS1618435653535","similarity_question","","","","","","","","","","","","{""Q0"":1}","[0]","","images/stimuli/spore_stims/complex_18_A_a.gif","images/stimuli/spore_stims/complex_13_A_b.gif"
"","9059.625000008964","survey-likert","137","821308","0.0-35.0","SS1618435653535","similarity_question","","","","","","","","","","","","{""Q0"":0}","[0]","","images/stimuli/spore_stims/simple_18_A_a.gif","images/stimuli/spore_stims/simple_19_A_b.gif"
"","10435.720000008587","survey-likert","138","831747","0.0-36.0","SS1618435653535","similarity_question","","","","","","","","","","","","{""Q0"":0}","[0]","","images/stimuli/spore_stims/complex_04_A_a.gif","images/stimuli/spore_stims/complex_05_A_b.gif"
"","8856.939999997849","survey-likert","139","840607","0.0-37.0","SS1618435653535","similarity_question","","","","","","","","","","","","{""Q0"":4}","[0]","","images/stimuli/spore_stims/simple_12_A_b.gif","images/stimuli/spore_stims/simple_10_A_a.gif"
"","9623.860000006971","survey-likert","140","850235","0.0-38.0","SS1618435653535","similarity_question","","","","","","","","","","","","{""Q0"":1}","[0]","","images/stimuli/spore_stims/simple_07_A_a.gif","images/stimuli/spore_stims/simple_17_A_b.gif"
"","15148.68500000739","survey-likert","141","865387","0.0-39.0","SS1618435653535","similarity_question","","","","","","","","","","","","{""Q0"":2}","[0]","","images/stimuli/spore_stims/simple_20_A_b.gif","images/stimuli/spore_stims/simple_02_A_a.gif"
"","8940.824999997858","survey-likert","142","874331","0.0-40.0","SS1618435653535","similarity_question","","","","","","","","","","","","{""Q0"":4}","[0]","","images/stimuli/spore_stims/simple_16_A_a.gif","images/stimuli/spore_stims/simple_02_A_b.gif"
"","6119.559999991907","survey-likert","143","880455","0.0-41.0","SS1618435653535","similarity_question","","","","","","","","","","","","{""Q0"":0}","[0]","","images/stimuli/spore_stims/complex_09_A_a.gif","images/stimuli/spore_stims/complex_16_A_b.gif"
"","9793.30000000482","survey-likert","144","890251","0.0-42.0","SS1618435653535","similarity_question","","","","","","","","","","","","{""Q0"":0}","[0]","","images/stimuli/spore_stims/complex_02_A_b.gif","images/stimuli/spore_stims/complex_13_A_a.gif"
"","5896.399999997811","survey-likert","145","896151","0.0-43.0","SS1618435653535","similarity_question","","","","","","","","","","","","{""Q0"":0}","[0]","","images/stimuli/spore_stims/complex_03_A_a.gif","images/stimuli/spore_stims/complex_15_A_b.gif"
"","5428.580000007059","survey-likert","146","901583","0.0-44.0","SS1618435653535","similarity_question","","","","","","","","","","","","{""Q0"":1}","[0]","","images/stimuli/spore_stims/complex_20_A_b.gif","images/stimuli/spore_stims/complex_10_A_a.gif"
"[{""page_index"":0,""viewing_time"":5625.065000000177}]","5625.34999998752","instructions","147","907210","0.0-45.0","SS1618435653535","instructions","","","","","","","","","","","","","","","",""
"","11441.145000004326","survey-likert","148","918655","0.0-46.0","SS1618435653535","","","","","","","","","images/stimuli/spore_stims/complex_13_A_a.gif","","","","{""Q0"":5}","[0]","","",""
"","3916.639999995823","survey-likert","149","922575","0.0-47.0","SS1618435653535","","","","","","","","","images/stimuli/spore_stims/simple_20_A_b.gif","","","","{""Q0"":1}","[0]","","",""
"","3905.4199999955017","survey-likert","150","926483","0.0-48.0","SS1618435653535","","","","","","","","","images/stimuli/spore_stims/complex_18_A_a.gif","","","","{""Q0"":6}","[0]","","",""
"","3496.3999999890802","survey-likert","151","929982","0.0-49.0","SS1618435653535","","","","","","","","","images/stimuli/spore_stims/simple_07_A_a.gif","","","","{""Q0"":0}","[0]","","",""
"","4500.594999990426","survey-likert","152","934487","0.0-50.0","SS1618435653535","","","","","","","","","images/stimuli/spore_stims/complex_04_A_a.gif","","","","{""Q0"":6}","[0]","","",""
"","4509.619999997085","survey-likert","153","939000","0.0-51.0","SS1618435653535","","","","","","","","","images/stimuli/spore_stims/simple_18_A_a.gif","","","","{""Q0"":0}","[0]","","",""
"","3648.1500000081724","survey-likert","154","942651","0.0-52.0","SS1618435653535","","","","","","","","","images/stimuli/spore_stims/complex_09_A_a.gif","","","","{""Q0"":6}","[0]","","",""
"","5080.450000008568","survey-likert","155","947735","0.0-53.0","SS1618435653535","","","","","","","","","images/stimuli/spore_stims/complex_20_A_b.gif","","","","{""Q0"":5}","[0]","","",""
"","3396.7799999954877","survey-likert","156","951135","0.0-54.0","SS1618435653535","","","","","","","","","images/stimuli/spore_stims/simple_02_A_b.gif","","","","{""Q0"":0}","[0]","","",""
"","2720.9299999958603","survey-likert","157","953859","0.0-55.0","SS1618435653535","","","","","","","","","images/stimuli/spore_stims/simple_10_A_a.gif","","","","{""Q0"":0}","[0]","","",""
"","3440.4100000101607","survey-likert","158","957303","0.0-56.0","SS1618435653535","","","","","","","","","images/stimuli/spore_stims/simple_08_A_a.gif","","","","{""Q0"":0}","[0]","","",""
"","3524.760000000242","survey-likert","159","960831","0.0-57.0","SS1618435653535","","","","","","","","","images/stimuli/spore_stims/complex_15_A_b.gif","","","","{""Q0"":6}","[0]","","",""
"[{""page_index"":0,""viewing_time"":3588.3900000044378}]","3588.6500000051456","instructions","160","964422","0.0-58.0","SS1618435653535","instructions","","","","","","","","","","","","","","","",""
"","3183.520000005956","demog-age","161","967611","0.0-59.0","SS1618435653535","","","","","","","","","","","","","{""age"":""31""}","","","",""
"","9003.224999993108","demog-ethnic-US","162","976620","0.0-60.0","SS1618435653535","","","","","","","","","","","","","{""ethnicity"":[""White""]}","[0]","","",""
"","8359.895000001416","demog-gender-and-education","163","984983","0.0-61.0","SS1618435653535","","","","","","","","","","","","","{""gender"":""Female"",""education"":""Associate Degree/Technical certification""}","[0,1]","","",""
"","19871.564999994007","survey-text","164","1004858","0.0-62.0","SS1618435653535","feedback","","","","","","","","","","","","{""Q0"":""Everything was OK.""}","","","",""
"[{""page_index"":0,""viewing_time"":2897.3750000004657}]","2897.6300000067567","instructions","165","1007759","0.0-63.0","SS1618435653535","instructions","","","","","","","","","","","","","","","",""
