"view_history","rt","trial_type","trial_index","time_elapsed","internal_node_id","subject","stimulus_type","trial_stimulus","key_press","minimum_viewing_duration","trial_looking_time","block_deviant","block_background","exposure_type","stimulus","block_number","block_type","stimulus_displayed","responses","question_order","math_correct_answer","stimulus_left","stimulus_right"
"[{""page_index"":0,""viewing_time"":16896}]","16896","instructions","0","16897","0.0-0.0","SS1618435637816","","","","","","","","","","","","","","","","",""
"[{""page_index"":0,""viewing_time"":15879},{""page_index"":1,""viewing_time"":11814}]","27694","instructions","1","46600","0.0-1.0","SS1618435637816","instructions","","","","","","","","","","","","","","","",""
"","7660","sequential-stimulus-presentation-old","2","54764","0.0-2.0","SS1618435637816","","","40","500","8160","null","null","self_paced","","","","","","","","",""
"","9030","sequential-stimulus-presentation-old","3","64296","0.0-3.0","SS1618435637816","","","40","500","9530","null","null","self_paced","","","","","","","","",""
"[{""page_index"":0,""viewing_time"":13120}]","13120","instructions","4","77418","0.0-4.0","SS1618435637816","instructions","","","","","","","","","","","","","","","",""
"","2724","sequential-stimulus-presentation-old","5","85148","0.0-5.0","SS1618435637816","","","40","500","3224","null","null","forced_long","","","","","","","","",""
"","5209","sequential-stimulus-presentation-old","6","90414","0.0-6.0","SS1618435637816","","","40","50","5259","null","null","forced_long","","","","","","","","",""
"[{""page_index"":0,""viewing_time"":2993}]","2994","instructions","7","93408","0.0-7.0","SS1618435637816","instructions","","","","","","","","","","","","","","","",""
"[{""page_index"":0,""viewing_time"":9615},{""page_index"":1,""viewing_time"":7845},{""page_index"":2,""viewing_time"":5996},{""page_index"":3,""viewing_time"":2258},{""page_index"":4,""viewing_time"":1401}]","27115","instructions","8","120525","0.0-8.0","SS1618435637816","instructions","","","","","","","","","","","","","","","",""
"","null","html-keyboard-response","9","121711","0.0-9.0-0.0","SS1618435637816","","","null","","","","","","<p><img src= images/blank.png width =""600"" height = ""600"" style=""position:fixed;top:50%; left:50%; transform: translate(-50%, -50%); border:5px solid black"">","","","","","","","",""
"","2355","sequential-stimulus-presentation-old","10","124128","0.0-9.0-1.0","SS1618435637816","trial","","40","500","2855","images/stimuli/spore_stims/complex_06_A_a.gif","images/stimuli/spore_stims/complex_02_A_b.gif","forced_short","","0","complex_dissimilar","images/stimuli/spore_stims/complex_02_A_b.gif","","","","",""
"","null","html-keyboard-response","11","125146","0.0-9.0-0.1","SS1618435637816","","","null","","","","","","<p><img src= images/blank.png width =""600"" height = ""600"" style=""position:fixed;top:50%; left:50%; transform: translate(-50%, -50%); border:5px solid black"">","","","","","","","",""
"","4032","sequential-stimulus-presentation-old","12","129682","0.0-9.0-1.1","SS1618435637816","trial","","40","500","4532","images/stimuli/spore_stims/complex_06_A_a.gif","images/stimuli/spore_stims/complex_02_A_b.gif","forced_short","","0","complex_dissimilar","images/stimuli/spore_stims/complex_06_A_a.gif","","","","",""
"","null","html-keyboard-response","13","130898","0.0-9.0-0.2","SS1618435637816","","","null","","","","","","<p><img src= images/blank.png width =""600"" height = ""600"" style=""position:fixed;top:50%; left:50%; transform: translate(-50%, -50%); border:5px solid black"">","","","","","","","",""
"","3290","sequential-stimulus-presentation-old","14","134695","0.0-9.0-1.2","SS1618435637816","trial","","40","500","3790","images/stimuli/spore_stims/complex_06_A_a.gif","images/stimuli/spore_stims/complex_02_A_b.gif","forced_short","","0","complex_dissimilar","images/stimuli/spore_stims/complex_02_A_b.gif","","","","",""
"","null","html-keyboard-response","15","135984","0.0-9.0-0.3","SS1618435637816","","","null","","","","","","<p><img src= images/blank.png width =""600"" height = ""600"" style=""position:fixed;top:50%; left:50%; transform: translate(-50%, -50%); border:5px solid black"">","","","","","","","",""
"","1485","sequential-stimulus-presentation-old","16","137973","0.0-9.0-1.3","SS1618435637816","trial","","40","500","1985","images/stimuli/spore_stims/complex_06_A_a.gif","images/stimuli/spore_stims/complex_02_A_b.gif","forced_short","","0","complex_dissimilar","images/stimuli/spore_stims/complex_06_A_a.gif","","","","",""
"","null","html-keyboard-response","17","138947","0.0-9.0-0.4","SS1618435637816","","","null","","","","","","<p><img src= images/blank.png width =""600"" height = ""600"" style=""position:fixed;top:50%; left:50%; transform: translate(-50%, -50%); border:5px solid black"">","","","","","","","",""
"","9651","sequential-stimulus-presentation-old","18","149106","0.0-9.0-1.4","SS1618435637816","trial","","40","500","10151","images/stimuli/spore_stims/complex_06_A_a.gif","images/stimuli/spore_stims/complex_02_A_b.gif","forced_short","","0","complex_dissimilar","images/stimuli/spore_stims/complex_02_A_b.gif","","","","",""
"","6385","survey-multi-choice","19","155495","0.0-10.0","SS1618435637816","math_question","","","","","","","","","","","","{""Q0"":""11""}","[0]","11","",""
"","null","html-keyboard-response","20","156473","0.0-11.0-0.0","SS1618435637816","","","null","","","","","","<p><img src= images/blank.png width =""600"" height = ""600"" style=""position:fixed;top:50%; left:50%; transform: translate(-50%, -50%); border:5px solid black"">","","","","","","","",""
"","1477","sequential-stimulus-presentation-old","21","162964","0.0-11.0-1.0","SS1618435637816","trial","","40","500","1977","images/stimuli/spore_stims/complex_07_A_a.gif","images/stimuli/spore_stims/complex_11_A_b.gif","forced_long","","1","complex_dissimilar","images/stimuli/spore_stims/complex_11_A_b.gif","","","","",""
"","null","html-keyboard-response","22","164204","0.0-11.0-0.1","SS1618435637816","","","null","","","","","","<p><img src= images/blank.png width =""600"" height = ""600"" style=""position:fixed;top:50%; left:50%; transform: translate(-50%, -50%); border:5px solid black"">","","","","","","","",""
"","303","sequential-stimulus-presentation-old","23","165015","0.0-11.0-1.1","SS1618435637816","trial","","40","500","803","images/stimuli/spore_stims/complex_07_A_a.gif","images/stimuli/spore_stims/complex_11_A_b.gif","forced_long","","1","complex_dissimilar","images/stimuli/spore_stims/complex_11_A_b.gif","","","","",""
"","null","html-keyboard-response","24","166055","0.0-11.0-0.2","SS1618435637816","","","null","","","","","","<p><img src= images/blank.png width =""600"" height = ""600"" style=""position:fixed;top:50%; left:50%; transform: translate(-50%, -50%); border:5px solid black"">","","","","","","","",""
"","2192","sequential-stimulus-presentation-old","25","168756","0.0-11.0-1.2","SS1618435637816","trial","","40","500","2692","images/stimuli/spore_stims/complex_07_A_a.gif","images/stimuli/spore_stims/complex_11_A_b.gif","forced_long","","1","complex_dissimilar","images/stimuli/spore_stims/complex_11_A_b.gif","","","","",""
"","null","html-keyboard-response","26","170032","0.0-11.0-0.3","SS1618435637816","","","null","","","","","","<p><img src= images/blank.png width =""600"" height = ""600"" style=""position:fixed;top:50%; left:50%; transform: translate(-50%, -50%); border:5px solid black"">","","","","","","","",""
"","3537","sequential-stimulus-presentation-old","27","174074","0.0-11.0-1.3","SS1618435637816","trial","","40","500","4037","images/stimuli/spore_stims/complex_07_A_a.gif","images/stimuli/spore_stims/complex_11_A_b.gif","forced_long","","1","complex_dissimilar","images/stimuli/spore_stims/complex_11_A_b.gif","","","","",""
"","null","html-keyboard-response","28","175128","0.0-11.0-0.4","SS1618435637816","","","null","","","","","","<p><img src= images/blank.png width =""600"" height = ""600"" style=""position:fixed;top:50%; left:50%; transform: translate(-50%, -50%); border:5px solid black"">","","","","","","","",""
"","2405","sequential-stimulus-presentation-old","29","178036","0.0-11.0-1.4","SS1618435637816","trial","","40","500","2905","images/stimuli/spore_stims/complex_07_A_a.gif","images/stimuli/spore_stims/complex_11_A_b.gif","forced_long","","1","complex_dissimilar","images/stimuli/spore_stims/complex_11_A_b.gif","","","","",""
"","2499","survey-multi-choice","30","180538","0.0-12.0","SS1618435637816","math_question","","","","","","","","","","","","{""Q0"":""8""}","[0]","8","",""
"","null","html-keyboard-response","31","181427","0.0-13.0-0.0","SS1618435637816","","","null","","","","","","<p><img src= images/blank.png width =""600"" height = ""600"" style=""position:fixed;top:50%; left:50%; transform: translate(-50%, -50%); border:5px solid black"">","","","","","","","",""
"","1939","sequential-stimulus-presentation-old","32","183871","0.0-13.0-1.0","SS1618435637816","trial","","40","500","2439","images/stimuli/spore_stims/complex_15_A_b.gif","images/stimuli/spore_stims/complex_11_A_a.gif","self_paced","","2","complex_dissimilar","images/stimuli/spore_stims/complex_11_A_a.gif","","","","",""
"","null","html-keyboard-response","33","184703","0.0-13.0-0.1","SS1618435637816","","","null","","","","","","<p><img src= images/blank.png width =""600"" height = ""600"" style=""position:fixed;top:50%; left:50%; transform: translate(-50%, -50%); border:5px solid black"">","","","","","","","",""
"","1911","sequential-stimulus-presentation-old","34","187119","0.0-13.0-1.1","SS1618435637816","trial","","40","500","2411","images/stimuli/spore_stims/complex_15_A_b.gif","images/stimuli/spore_stims/complex_11_A_a.gif","self_paced","","2","complex_dissimilar","images/stimuli/spore_stims/complex_11_A_a.gif","","","","",""
"","null","html-keyboard-response","35","188355","0.0-13.0-0.2","SS1618435637816","","","null","","","","","","<p><img src= images/blank.png width =""600"" height = ""600"" style=""position:fixed;top:50%; left:50%; transform: translate(-50%, -50%); border:5px solid black"">","","","","","","","",""
"","1190","sequential-stimulus-presentation-old","36","190052","0.0-13.0-1.2","SS1618435637816","trial","","40","500","1690","images/stimuli/spore_stims/complex_15_A_b.gif","images/stimuli/spore_stims/complex_11_A_a.gif","self_paced","","2","complex_dissimilar","images/stimuli/spore_stims/complex_11_A_a.gif","","","","",""
"","null","html-keyboard-response","37","191301","0.0-13.0-0.3","SS1618435637816","","","null","","","","","","<p><img src= images/blank.png width =""600"" height = ""600"" style=""position:fixed;top:50%; left:50%; transform: translate(-50%, -50%); border:5px solid black"">","","","","","","","",""
"","1559","sequential-stimulus-presentation-old","38","193363","0.0-13.0-1.3","SS1618435637816","trial","","40","500","2059","images/stimuli/spore_stims/complex_15_A_b.gif","images/stimuli/spore_stims/complex_11_A_a.gif","self_paced","","2","complex_dissimilar","images/stimuli/spore_stims/complex_11_A_a.gif","","","","",""
"","null","html-keyboard-response","39","194515","0.0-13.0-0.4","SS1618435637816","","","null","","","","","","<p><img src= images/blank.png width =""600"" height = ""600"" style=""position:fixed;top:50%; left:50%; transform: translate(-50%, -50%); border:5px solid black"">","","","","","","","",""
"","8039","sequential-stimulus-presentation-old","40","203057","0.0-13.0-1.4","SS1618435637816","trial","","40","500","8539","images/stimuli/spore_stims/complex_15_A_b.gif","images/stimuli/spore_stims/complex_11_A_a.gif","self_paced","","2","complex_dissimilar","images/stimuli/spore_stims/complex_11_A_a.gif","","","","",""
"","null","html-keyboard-response","41","204338","0.0-13.0-0.5","SS1618435637816","","","null","","","","","","<p><img src= images/blank.png width =""600"" height = ""600"" style=""position:fixed;top:50%; left:50%; transform: translate(-50%, -50%); border:5px solid black"">","","","","","","","",""
"","10728","sequential-stimulus-presentation-old","42","215575","0.0-13.0-1.5","SS1618435637816","trial","","40","500","11228","images/stimuli/spore_stims/complex_15_A_b.gif","images/stimuli/spore_stims/complex_11_A_a.gif","self_paced","","2","complex_dissimilar","images/stimuli/spore_stims/complex_11_A_a.gif","","","","",""
"","2757","survey-multi-choice","43","218334","0.0-14.0","SS1618435637816","math_question","","","","","","","","","","","","{""Q0"":""7""}","[0]","7","",""
"","null","html-keyboard-response","44","219248","0.0-15.0-0.0","SS1618435637816","","","null","","","","","","<p><img src= images/blank.png width =""600"" height = ""600"" style=""position:fixed;top:50%; left:50%; transform: translate(-50%, -50%); border:5px solid black"">","","","","","","","",""
"","1016","sequential-stimulus-presentation-old","45","220326","0.0-15.0-1.0","SS1618435637816","trial","","40","500","1516","images/stimuli/spore_stims/simple_11_A_a.gif","images/stimuli/spore_stims/simple_07_A_b.gif","forced_short","","3","simple_dissimilar","images/stimuli/spore_stims/simple_07_A_b.gif","","","","",""
"","null","html-keyboard-response","46","221172","0.0-15.0-0.1","SS1618435637816","","","null","","","","","","<p><img src= images/blank.png width =""600"" height = ""600"" style=""position:fixed;top:50%; left:50%; transform: translate(-50%, -50%); border:5px solid black"">","","","","","","","",""
"","3090","sequential-stimulus-presentation-old","47","224769","0.0-15.0-1.1","SS1618435637816","trial","","40","500","3590","images/stimuli/spore_stims/simple_11_A_a.gif","images/stimuli/spore_stims/simple_07_A_b.gif","forced_short","","3","simple_dissimilar","images/stimuli/spore_stims/simple_07_A_b.gif","","","","",""
"","null","html-keyboard-response","48","226028","0.0-15.0-0.2","SS1618435637816","","","null","","","","","","<p><img src= images/blank.png width =""600"" height = ""600"" style=""position:fixed;top:50%; left:50%; transform: translate(-50%, -50%); border:5px solid black"">","","","","","","","",""
"","3475","sequential-stimulus-presentation-old","49","230008","0.0-15.0-1.2","SS1618435637816","trial","","40","500","3975","images/stimuli/spore_stims/simple_11_A_a.gif","images/stimuli/spore_stims/simple_07_A_b.gif","forced_short","","3","simple_dissimilar","images/stimuli/spore_stims/simple_07_A_b.gif","","","","",""
"","null","html-keyboard-response","50","230827","0.0-15.0-0.3","SS1618435637816","","","null","","","","","","<p><img src= images/blank.png width =""600"" height = ""600"" style=""position:fixed;top:50%; left:50%; transform: translate(-50%, -50%); border:5px solid black"">","","","","","","","",""
"","3407","sequential-stimulus-presentation-old","51","234744","0.0-15.0-1.3","SS1618435637816","trial","","40","500","3907","images/stimuli/spore_stims/simple_11_A_a.gif","images/stimuli/spore_stims/simple_07_A_b.gif","forced_short","","3","simple_dissimilar","images/stimuli/spore_stims/simple_07_A_b.gif","","","","",""
"","null","html-keyboard-response","52","235846","0.0-15.0-0.4","SS1618435637816","","","null","","","","","","<p><img src= images/blank.png width =""600"" height = ""600"" style=""position:fixed;top:50%; left:50%; transform: translate(-50%, -50%); border:5px solid black"">","","","","","","","",""
"","2665","sequential-stimulus-presentation-old","53","239020","0.0-15.0-1.4","SS1618435637816","trial","","40","500","3165","images/stimuli/spore_stims/simple_11_A_a.gif","images/stimuli/spore_stims/simple_07_A_b.gif","forced_short","","3","simple_dissimilar","images/stimuli/spore_stims/simple_11_A_a.gif","","","","",""
"","null","html-keyboard-response","54","239826","0.0-15.0-0.5","SS1618435637816","","","null","","","","","","<p><img src= images/blank.png width =""600"" height = ""600"" style=""position:fixed;top:50%; left:50%; transform: translate(-50%, -50%); border:5px solid black"">","","","","","","","",""
"","648","sequential-stimulus-presentation-old","55","240979","0.0-15.0-1.5","SS1618435637816","trial","","40","500","1148","images/stimuli/spore_stims/simple_11_A_a.gif","images/stimuli/spore_stims/simple_07_A_b.gif","forced_short","","3","simple_dissimilar","images/stimuli/spore_stims/simple_11_A_a.gif","","","","",""
"","2558","survey-multi-choice","56","243538","0.0-16.0","SS1618435637816","math_question","","","","","","","","","","","","{""Q0"":""4""}","[0]","4","",""
"","null","html-keyboard-response","57","244663","0.0-17.0-0.0","SS1618435637816","","","null","","","","","","<p><img src= images/blank.png width =""600"" height = ""600"" style=""position:fixed;top:50%; left:50%; transform: translate(-50%, -50%); border:5px solid black"">","","","","","","","",""
"","10805","sequential-stimulus-presentation-old","58","260482","0.0-17.0-1.0","SS1618435637816","trial","","40","500","11305","images/stimuli/spore_stims/complex_16_A_b.gif","images/stimuli/spore_stims/complex_12_A_a.gif","forced_long","","4","complex_dissimilar","images/stimuli/spore_stims/complex_12_A_a.gif","","","","",""
"","null","html-keyboard-response","59","261737","0.0-17.0-0.1","SS1618435637816","","","null","","","","","","<p><img src= images/blank.png width =""600"" height = ""600"" style=""position:fixed;top:50%; left:50%; transform: translate(-50%, -50%); border:5px solid black"">","","","","","","","",""
"","398","sequential-stimulus-presentation-old","60","262643","0.0-17.0-1.1","SS1618435637816","trial","","40","500","898","images/stimuli/spore_stims/complex_16_A_b.gif","images/stimuli/spore_stims/complex_12_A_a.gif","forced_long","","4","complex_dissimilar","images/stimuli/spore_stims/complex_12_A_a.gif","","","","",""
"","null","html-keyboard-response","61","263482","0.0-17.0-0.2","SS1618435637816","","","null","","","","","","<p><img src= images/blank.png width =""600"" height = ""600"" style=""position:fixed;top:50%; left:50%; transform: translate(-50%, -50%); border:5px solid black"">","","","","","","","",""
"","1939","sequential-stimulus-presentation-old","62","265927","0.0-17.0-1.2","SS1618435637816","trial","","40","500","2439","images/stimuli/spore_stims/complex_16_A_b.gif","images/stimuli/spore_stims/complex_12_A_a.gif","forced_long","","4","complex_dissimilar","images/stimuli/spore_stims/complex_16_A_b.gif","","","","",""
"","null","html-keyboard-response","63","267066","0.0-17.0-0.3","SS1618435637816","","","null","","","","","","<p><img src= images/blank.png width =""600"" height = ""600"" style=""position:fixed;top:50%; left:50%; transform: translate(-50%, -50%); border:5px solid black"">","","","","","","","",""
"","582","sequential-stimulus-presentation-old","64","268157","0.0-17.0-1.3","SS1618435637816","trial","","40","500","1082","images/stimuli/spore_stims/complex_16_A_b.gif","images/stimuli/spore_stims/complex_12_A_a.gif","forced_long","","4","complex_dissimilar","images/stimuli/spore_stims/complex_12_A_a.gif","","","","",""
"","null","html-keyboard-response","65","269233","0.0-17.0-0.4","SS1618435637816","","","null","","","","","","<p><img src= images/blank.png width =""600"" height = ""600"" style=""position:fixed;top:50%; left:50%; transform: translate(-50%, -50%); border:5px solid black"">","","","","","","","",""
"","1137","sequential-stimulus-presentation-old","66","270877","0.0-17.0-1.4","SS1618435637816","trial","","40","500","1637","images/stimuli/spore_stims/complex_16_A_b.gif","images/stimuli/spore_stims/complex_12_A_a.gif","forced_long","","4","complex_dissimilar","images/stimuli/spore_stims/complex_16_A_b.gif","","","","",""
"","2780","survey-multi-choice","67","273660","0.0-18.0","SS1618435637816","math_question","","","","","","","","","","","","{""Q0"":""10""}","[0]","10","",""
"","null","html-keyboard-response","68","274962","0.0-19.0-0.0","SS1618435637816","","","null","","","","","","<p><img src= images/blank.png width =""600"" height = ""600"" style=""position:fixed;top:50%; left:50%; transform: translate(-50%, -50%); border:5px solid black"">","","","","","","","",""
"","55","sequential-stimulus-presentation-old","69","275525","0.0-19.0-1.0","SS1618435637816","trial","","40","500","555","images/stimuli/spore_stims/complex_05_A_b.gif","images/stimuli/spore_stims/complex_14_A_a.gif","self_paced","","5","complex_dissimilar","images/stimuli/spore_stims/complex_14_A_a.gif","","","","",""
"","null","html-keyboard-response","70","276744","0.0-19.0-0.1","SS1618435637816","","","null","","","","","","<p><img src= images/blank.png width =""600"" height = ""600"" style=""position:fixed;top:50%; left:50%; transform: translate(-50%, -50%); border:5px solid black"">","","","","","","","",""
"","809","sequential-stimulus-presentation-old","71","278056","0.0-19.0-1.1","SS1618435637816","trial","","40","500","1309","images/stimuli/spore_stims/complex_05_A_b.gif","images/stimuli/spore_stims/complex_14_A_a.gif","self_paced","","5","complex_dissimilar","images/stimuli/spore_stims/complex_14_A_a.gif","","","","",""
"","null","html-keyboard-response","72","279164","0.0-19.0-0.2","SS1618435637816","","","null","","","","","","<p><img src= images/blank.png width =""600"" height = ""600"" style=""position:fixed;top:50%; left:50%; transform: translate(-50%, -50%); border:5px solid black"">","","","","","","","",""
"","516","sequential-stimulus-presentation-old","73","280195","0.0-19.0-1.2","SS1618435637816","trial","","40","500","1016","images/stimuli/spore_stims/complex_05_A_b.gif","images/stimuli/spore_stims/complex_14_A_a.gif","self_paced","","5","complex_dissimilar","images/stimuli/spore_stims/complex_14_A_a.gif","","","","",""
"","null","html-keyboard-response","74","281047","0.0-19.0-0.3","SS1618435637816","","","null","","","","","","<p><img src= images/blank.png width =""600"" height = ""600"" style=""position:fixed;top:50%; left:50%; transform: translate(-50%, -50%); border:5px solid black"">","","","","","","","",""
"","595","sequential-stimulus-presentation-old","75","282148","0.0-19.0-1.3","SS1618435637816","trial","","40","500","1095","images/stimuli/spore_stims/complex_05_A_b.gif","images/stimuli/spore_stims/complex_14_A_a.gif","self_paced","","5","complex_dissimilar","images/stimuli/spore_stims/complex_14_A_a.gif","","","","",""
"","2494","survey-multi-choice","76","284644","0.0-20.0","SS1618435637816","math_question","","","","","","","","","","","","{""Q0"":""4""}","[0]","4","",""
"","null","html-keyboard-response","77","285944","0.0-21.0-0.0","SS1618435637816","","","null","","","","","","<p><img src= images/blank.png width =""600"" height = ""600"" style=""position:fixed;top:50%; left:50%; transform: translate(-50%, -50%); border:5px solid black"">","","","","","","","",""
"","444","sequential-stimulus-presentation-old","78","286449","0.0-21.0-1.0","SS1618435637816","trial","","40","500","944","images/stimuli/spore_stims/simple_15_A_a.gif","images/stimuli/spore_stims/simple_03_A_b.gif","forced_short","","6","simple_dissimilar","images/stimuli/spore_stims/simple_03_A_b.gif","","","","",""
"","null","html-keyboard-response","79","287592","0.0-21.0-0.1","SS1618435637816","","","null","","","","","","<p><img src= images/blank.png width =""600"" height = ""600"" style=""position:fixed;top:50%; left:50%; transform: translate(-50%, -50%); border:5px solid black"">","","","","","","","",""
"","240","sequential-stimulus-presentation-old","80","288349","0.0-21.0-1.1","SS1618435637816","trial","","40","500","740","images/stimuli/spore_stims/simple_15_A_a.gif","images/stimuli/spore_stims/simple_03_A_b.gif","forced_short","","6","simple_dissimilar","images/stimuli/spore_stims/simple_03_A_b.gif","","","","",""
"","null","html-keyboard-response","81","289428","0.0-21.0-0.2","SS1618435637816","","","null","","","","","","<p><img src= images/blank.png width =""600"" height = ""600"" style=""position:fixed;top:50%; left:50%; transform: translate(-50%, -50%); border:5px solid black"">","","","","","","","",""
"","300","sequential-stimulus-presentation-old","82","290234","0.0-21.0-1.2","SS1618435637816","trial","","40","500","800","images/stimuli/spore_stims/simple_15_A_a.gif","images/stimuli/spore_stims/simple_03_A_b.gif","forced_short","","6","simple_dissimilar","images/stimuli/spore_stims/simple_03_A_b.gif","","","","",""
"","null","html-keyboard-response","83","291446","0.0-21.0-0.3","SS1618435637816","","","null","","","","","","<p><img src= images/blank.png width =""600"" height = ""600"" style=""position:fixed;top:50%; left:50%; transform: translate(-50%, -50%); border:5px solid black"">","","","","","","","",""
"","556","sequential-stimulus-presentation-old","84","292510","0.0-21.0-1.3","SS1618435637816","trial","","40","500","1056","images/stimuli/spore_stims/simple_15_A_a.gif","images/stimuli/spore_stims/simple_03_A_b.gif","forced_short","","6","simple_dissimilar","images/stimuli/spore_stims/simple_15_A_a.gif","","","","",""
"","null","html-keyboard-response","85","293546","0.0-21.0-0.4","SS1618435637816","","","null","","","","","","<p><img src= images/blank.png width =""600"" height = ""600"" style=""position:fixed;top:50%; left:50%; transform: translate(-50%, -50%); border:5px solid black"">","","","","","","","",""
"","400","sequential-stimulus-presentation-old","86","294450","0.0-21.0-1.4","SS1618435637816","trial","","40","500","900","images/stimuli/spore_stims/simple_15_A_a.gif","images/stimuli/spore_stims/simple_03_A_b.gif","forced_short","","6","simple_dissimilar","images/stimuli/spore_stims/simple_15_A_a.gif","","","","",""
"","6006","survey-multi-choice","87","300459","0.0-22.0","SS1618435637816","math_question","","","","","","","","","","","","{""Q0"":""17""}","[0]","17","",""
"","null","html-keyboard-response","88","301353","0.0-23.0-0.0","SS1618435637816","","","null","","","","","","<p><img src= images/blank.png width =""600"" height = ""600"" style=""position:fixed;top:50%; left:50%; transform: translate(-50%, -50%); border:5px solid black"">","","","","","","","",""
"","408","sequential-stimulus-presentation-old","89","306767","0.0-23.0-1.0","SS1618435637816","trial","","40","500","908","images/stimuli/spore_stims/simple_09_A_b.gif","images/stimuli/spore_stims/simple_04_A_a.gif","forced_long","","7","simple_dissimilar","images/stimuli/spore_stims/simple_04_A_a.gif","","","","",""
"","null","html-keyboard-response","90","307787","0.0-23.0-0.1","SS1618435637816","","","null","","","","","","<p><img src= images/blank.png width =""600"" height = ""600"" style=""position:fixed;top:50%; left:50%; transform: translate(-50%, -50%); border:5px solid black"">","","","","","","","",""
"","75","sequential-stimulus-presentation-old","91","308381","0.0-23.0-1.1","SS1618435637816","trial","","40","500","575","images/stimuli/spore_stims/simple_09_A_b.gif","images/stimuli/spore_stims/simple_04_A_a.gif","forced_long","","7","simple_dissimilar","images/stimuli/spore_stims/simple_09_A_b.gif","","","","",""
"","null","html-keyboard-response","92","309523","0.0-23.0-0.2","SS1618435637816","","","null","","","","","","<p><img src= images/blank.png width =""600"" height = ""600"" style=""position:fixed;top:50%; left:50%; transform: translate(-50%, -50%); border:5px solid black"">","","","","","","","",""
"","124","sequential-stimulus-presentation-old","93","310164","0.0-23.0-1.2","SS1618435637816","trial","","40","500","624","images/stimuli/spore_stims/simple_09_A_b.gif","images/stimuli/spore_stims/simple_04_A_a.gif","forced_long","","7","simple_dissimilar","images/stimuli/spore_stims/simple_04_A_a.gif","","","","",""
"","null","html-keyboard-response","94","311413","0.0-23.0-0.3","SS1618435637816","","","null","","","","","","<p><img src= images/blank.png width =""600"" height = ""600"" style=""position:fixed;top:50%; left:50%; transform: translate(-50%, -50%); border:5px solid black"">","","","","","","","",""
"","35","sequential-stimulus-presentation-old","95","311951","0.0-23.0-1.3","SS1618435637816","trial","","40","500","535","images/stimuli/spore_stims/simple_09_A_b.gif","images/stimuli/spore_stims/simple_04_A_a.gif","forced_long","","7","simple_dissimilar","images/stimuli/spore_stims/simple_04_A_a.gif","","","","",""
"","null","html-keyboard-response","96","312900","0.0-23.0-0.4","SS1618435637816","","","null","","","","","","<p><img src= images/blank.png width =""600"" height = ""600"" style=""position:fixed;top:50%; left:50%; transform: translate(-50%, -50%); border:5px solid black"">","","","","","","","",""
"","37","sequential-stimulus-presentation-old","97","313444","0.0-23.0-1.4","SS1618435637816","trial","","40","500","537","images/stimuli/spore_stims/simple_09_A_b.gif","images/stimuli/spore_stims/simple_04_A_a.gif","forced_long","","7","simple_dissimilar","images/stimuli/spore_stims/simple_04_A_a.gif","","","","",""
"","null","html-keyboard-response","98","314555","0.0-23.0-0.5","SS1618435637816","","","null","","","","","","<p><img src= images/blank.png width =""600"" height = ""600"" style=""position:fixed;top:50%; left:50%; transform: translate(-50%, -50%); border:5px solid black"">","","","","","","","",""
"","1003","sequential-stimulus-presentation-old","99","316068","0.0-23.0-1.5","SS1618435637816","trial","","40","500","1503","images/stimuli/spore_stims/simple_09_A_b.gif","images/stimuli/spore_stims/simple_04_A_a.gif","forced_long","","7","simple_dissimilar","images/stimuli/spore_stims/simple_04_A_a.gif","","","","",""
"","3621","survey-multi-choice","100","319692","0.0-24.0","SS1618435637816","math_question","","","","","","","","","","","","{""Q0"":""16""}","[0]","16","",""
"","null","html-keyboard-response","101","320520","0.0-25.0-0.0","SS1618435637816","","","null","","","","","","<p><img src= images/blank.png width =""600"" height = ""600"" style=""position:fixed;top:50%; left:50%; transform: translate(-50%, -50%); border:5px solid black"">","","","","","","","",""
"","4453","sequential-stimulus-presentation-old","102","329987","0.0-25.0-1.0","SS1618435637816","trial","","40","500","4953","images/stimuli/spore_stims/simple_17_A_a.gif","images/stimuli/spore_stims/simple_04_A_b.gif","forced_long","","8","simple_dissimilar","images/stimuli/spore_stims/simple_04_A_b.gif","","","","",""
"","null","html-keyboard-response","103","330813","0.0-25.0-0.1","SS1618435637816","","","null","","","","","","<p><img src= images/blank.png width =""600"" height = ""600"" style=""position:fixed;top:50%; left:50%; transform: translate(-50%, -50%); border:5px solid black"">","","","","","","","",""
"","1131","sequential-stimulus-presentation-old","104","332448","0.0-25.0-1.1","SS1618435637816","trial","","40","500","1631","images/stimuli/spore_stims/simple_17_A_a.gif","images/stimuli/spore_stims/simple_04_A_b.gif","forced_long","","8","simple_dissimilar","images/stimuli/spore_stims/simple_04_A_b.gif","","","","",""
"","null","html-keyboard-response","105","333439","0.0-25.0-0.2","SS1618435637816","","","null","","","","","","<p><img src= images/blank.png width =""600"" height = ""600"" style=""position:fixed;top:50%; left:50%; transform: translate(-50%, -50%); border:5px solid black"">","","","","","","","",""
"","4066","sequential-stimulus-presentation-old","106","338010","0.0-25.0-1.2","SS1618435637816","trial","","40","500","4566","images/stimuli/spore_stims/simple_17_A_a.gif","images/stimuli/spore_stims/simple_04_A_b.gif","forced_long","","8","simple_dissimilar","images/stimuli/spore_stims/simple_04_A_b.gif","","","","",""
"","null","html-keyboard-response","107","338936","0.0-25.0-0.3","SS1618435637816","","","null","","","","","","<p><img src= images/blank.png width =""600"" height = ""600"" style=""position:fixed;top:50%; left:50%; transform: translate(-50%, -50%); border:5px solid black"">","","","","","","","",""
"","2521","sequential-stimulus-presentation-old","108","341966","0.0-25.0-1.3","SS1618435637816","trial","","40","500","3021","images/stimuli/spore_stims/simple_17_A_a.gif","images/stimuli/spore_stims/simple_04_A_b.gif","forced_long","","8","simple_dissimilar","images/stimuli/spore_stims/simple_04_A_b.gif","","","","",""
"","null","html-keyboard-response","109","342871","0.0-25.0-0.4","SS1618435637816","","","null","","","","","","<p><img src= images/blank.png width =""600"" height = ""600"" style=""position:fixed;top:50%; left:50%; transform: translate(-50%, -50%); border:5px solid black"">","","","","","","","",""
"","3517","sequential-stimulus-presentation-old","110","346904","0.0-25.0-1.4","SS1618435637816","trial","","40","500","4017","images/stimuli/spore_stims/simple_17_A_a.gif","images/stimuli/spore_stims/simple_04_A_b.gif","forced_long","","8","simple_dissimilar","images/stimuli/spore_stims/simple_17_A_a.gif","","","","",""
"","3962","survey-multi-choice","111","350870","0.0-26.0","SS1618435637816","math_question","","","","","","","","","","","","{""Q0"":""6""}","[0]","6","",""
"","null","html-keyboard-response","112","352114","0.0-27.0-0.0","SS1618435637816","","","null","","","","","","<p><img src= images/blank.png width =""600"" height = ""600"" style=""position:fixed;top:50%; left:50%; transform: translate(-50%, -50%); border:5px solid black"">","","","","","","","",""
"","2843","sequential-stimulus-presentation-old","113","355462","0.0-27.0-1.0","SS1618435637816","trial","","40","500","3343","images/stimuli/spore_stims/simple_17_A_b.gif","images/stimuli/spore_stims/simple_06_A_a.gif","self_paced","","9","simple_dissimilar","images/stimuli/spore_stims/simple_06_A_a.gif","","","","",""
"","null","html-keyboard-response","114","356569","0.0-27.0-0.1","SS1618435637816","","","null","","","","","","<p><img src= images/blank.png width =""600"" height = ""600"" style=""position:fixed;top:50%; left:50%; transform: translate(-50%, -50%); border:5px solid black"">","","","","","","","",""
"","2864","sequential-stimulus-presentation-old","115","359938","0.0-27.0-1.1","SS1618435637816","trial","","40","500","3364","images/stimuli/spore_stims/simple_17_A_b.gif","images/stimuli/spore_stims/simple_06_A_a.gif","self_paced","","9","simple_dissimilar","images/stimuli/spore_stims/simple_17_A_b.gif","","","","",""
"","null","html-keyboard-response","116","360916","0.0-27.0-0.2","SS1618435637816","","","null","","","","","","<p><img src= images/blank.png width =""600"" height = ""600"" style=""position:fixed;top:50%; left:50%; transform: translate(-50%, -50%); border:5px solid black"">","","","","","","","",""
"","4326","sequential-stimulus-presentation-old","117","365748","0.0-27.0-1.2","SS1618435637816","trial","","40","500","4826","images/stimuli/spore_stims/simple_17_A_b.gif","images/stimuli/spore_stims/simple_06_A_a.gif","self_paced","","9","simple_dissimilar","images/stimuli/spore_stims/simple_17_A_b.gif","","","","",""
"","null","html-keyboard-response","118","366693","0.0-27.0-0.3","SS1618435637816","","","null","","","","","","<p><img src= images/blank.png width =""600"" height = ""600"" style=""position:fixed;top:50%; left:50%; transform: translate(-50%, -50%); border:5px solid black"">","","","","","","","",""
"","1065","sequential-stimulus-presentation-old","119","368267","0.0-27.0-1.3","SS1618435637816","trial","","40","500","1565","images/stimuli/spore_stims/simple_17_A_b.gif","images/stimuli/spore_stims/simple_06_A_a.gif","self_paced","","9","simple_dissimilar","images/stimuli/spore_stims/simple_06_A_a.gif","","","","",""
"","4097","survey-multi-choice","120","372368","0.0-28.0","SS1618435637816","math_question","","","","","","","","","","","","{""Q0"":""9""}","[0]","9","",""
"","null","html-keyboard-response","121","373552","0.0-29.0-0.0","SS1618435637816","","","null","","","","","","<p><img src= images/blank.png width =""600"" height = ""600"" style=""position:fixed;top:50%; left:50%; transform: translate(-50%, -50%); border:5px solid black"">","","","","","","","",""
"","2373","sequential-stimulus-presentation-old","122","375985","0.0-29.0-1.0","SS1618435637816","trial","","40","500","2873","images/stimuli/spore_stims/complex_18_A_a.gif","images/stimuli/spore_stims/complex_07_A_b.gif","forced_short","","10","complex_dissimilar","images/stimuli/spore_stims/complex_07_A_b.gif","","","","",""
"","null","html-keyboard-response","123","376891","0.0-29.0-0.1","SS1618435637816","","","null","","","","","","<p><img src= images/blank.png width =""600"" height = ""600"" style=""position:fixed;top:50%; left:50%; transform: translate(-50%, -50%); border:5px solid black"">","","","","","","","",""
"","189","sequential-stimulus-presentation-old","124","377588","0.0-29.0-1.1","SS1618435637816","trial","","40","500","689","images/stimuli/spore_stims/complex_18_A_a.gif","images/stimuli/spore_stims/complex_07_A_b.gif","forced_short","","10","complex_dissimilar","images/stimuli/spore_stims/complex_07_A_b.gif","","","","",""
"","null","html-keyboard-response","125","378855","0.0-29.0-0.2","SS1618435637816","","","null","","","","","","<p><img src= images/blank.png width =""600"" height = ""600"" style=""position:fixed;top:50%; left:50%; transform: translate(-50%, -50%); border:5px solid black"">","","","","","","","",""
"","3169","sequential-stimulus-presentation-old","126","382531","0.0-29.0-1.2","SS1618435637816","trial","","40","500","3669","images/stimuli/spore_stims/complex_18_A_a.gif","images/stimuli/spore_stims/complex_07_A_b.gif","forced_short","","10","complex_dissimilar","images/stimuli/spore_stims/complex_07_A_b.gif","","","","",""
"","null","html-keyboard-response","127","383719","0.0-29.0-0.3","SS1618435637816","","","null","","","","","","<p><img src= images/blank.png width =""600"" height = ""600"" style=""position:fixed;top:50%; left:50%; transform: translate(-50%, -50%); border:5px solid black"">","","","","","","","",""
"","171","sequential-stimulus-presentation-old","128","384396","0.0-29.0-1.3","SS1618435637816","trial","","40","500","671","images/stimuli/spore_stims/complex_18_A_a.gif","images/stimuli/spore_stims/complex_07_A_b.gif","forced_short","","10","complex_dissimilar","images/stimuli/spore_stims/complex_07_A_b.gif","","","","",""
"","null","html-keyboard-response","129","385496","0.0-29.0-0.4","SS1618435637816","","","null","","","","","","<p><img src= images/blank.png width =""600"" height = ""600"" style=""position:fixed;top:50%; left:50%; transform: translate(-50%, -50%); border:5px solid black"">","","","","","","","",""
"","2864","sequential-stimulus-presentation-old","130","388862","0.0-29.0-1.4","SS1618435637816","trial","","40","500","3364","images/stimuli/spore_stims/complex_18_A_a.gif","images/stimuli/spore_stims/complex_07_A_b.gif","forced_short","","10","complex_dissimilar","images/stimuli/spore_stims/complex_18_A_a.gif","","","","",""
"","null","html-keyboard-response","131","389933","0.0-29.0-0.5","SS1618435637816","","","null","","","","","","<p><img src= images/blank.png width =""600"" height = ""600"" style=""position:fixed;top:50%; left:50%; transform: translate(-50%, -50%); border:5px solid black"">","","","","","","","",""
"","684","sequential-stimulus-presentation-old","132","391120","0.0-29.0-1.5","SS1618435637816","trial","","40","500","1184","images/stimuli/spore_stims/complex_18_A_a.gif","images/stimuli/spore_stims/complex_07_A_b.gif","forced_short","","10","complex_dissimilar","images/stimuli/spore_stims/complex_07_A_b.gif","","","","",""
"","8564","survey-multi-choice","133","399688","0.0-30.0","SS1618435637816","math_question","","","","","","","","","","","","{""Q0"":""13""}","[0]","13","",""
"","null","html-keyboard-response","134","400978","0.0-31.0-0.0","SS1618435637816","","","null","","","","","","<p><img src= images/blank.png width =""600"" height = ""600"" style=""position:fixed;top:50%; left:50%; transform: translate(-50%, -50%); border:5px solid black"">","","","","","","","",""
"","424","sequential-stimulus-presentation-old","135","401907","0.0-31.0-1.0","SS1618435637816","trial","","40","500","924","images/stimuli/spore_stims/simple_08_A_b.gif","images/stimuli/spore_stims/simple_10_A_a.gif","self_paced","","11","simple_dissimilar","images/stimuli/spore_stims/simple_10_A_a.gif","","","","",""
"","null","html-keyboard-response","136","402989","0.0-31.0-0.1","SS1618435637816","","","null","","","","","","<p><img src= images/blank.png width =""600"" height = ""600"" style=""position:fixed;top:50%; left:50%; transform: translate(-50%, -50%); border:5px solid black"">","","","","","","","",""
"","102","sequential-stimulus-presentation-old","137","403599","0.0-31.0-1.1","SS1618435637816","trial","","40","500","602","images/stimuli/spore_stims/simple_08_A_b.gif","images/stimuli/spore_stims/simple_10_A_a.gif","self_paced","","11","simple_dissimilar","images/stimuli/spore_stims/simple_08_A_b.gif","","","","",""
"","null","html-keyboard-response","138","404419","0.0-31.0-0.2","SS1618435637816","","","null","","","","","","<p><img src= images/blank.png width =""600"" height = ""600"" style=""position:fixed;top:50%; left:50%; transform: translate(-50%, -50%); border:5px solid black"">","","","","","","","",""
"","215","sequential-stimulus-presentation-old","139","405144","0.0-31.0-1.2","SS1618435637816","trial","","40","500","715","images/stimuli/spore_stims/simple_08_A_b.gif","images/stimuli/spore_stims/simple_10_A_a.gif","self_paced","","11","simple_dissimilar","images/stimuli/spore_stims/simple_10_A_a.gif","","","","",""
"","null","html-keyboard-response","140","406167","0.0-31.0-0.3","SS1618435637816","","","null","","","","","","<p><img src= images/blank.png width =""600"" height = ""600"" style=""position:fixed;top:50%; left:50%; transform: translate(-50%, -50%); border:5px solid black"">","","","","","","","",""
"","61","sequential-stimulus-presentation-old","141","406733","0.0-31.0-1.3","SS1618435637816","trial","","40","500","561","images/stimuli/spore_stims/simple_08_A_b.gif","images/stimuli/spore_stims/simple_10_A_a.gif","self_paced","","11","simple_dissimilar","images/stimuli/spore_stims/simple_08_A_b.gif","","","","",""
"","null","html-keyboard-response","142","407665","0.0-31.0-0.4","SS1618435637816","","","null","","","","","","<p><img src= images/blank.png width =""600"" height = ""600"" style=""position:fixed;top:50%; left:50%; transform: translate(-50%, -50%); border:5px solid black"">","","","","","","","",""
"","243","sequential-stimulus-presentation-old","143","408412","0.0-31.0-1.4","SS1618435637816","trial","","40","500","743","images/stimuli/spore_stims/simple_08_A_b.gif","images/stimuli/spore_stims/simple_10_A_a.gif","self_paced","","11","simple_dissimilar","images/stimuli/spore_stims/simple_10_A_a.gif","","","","",""
"","null","html-keyboard-response","144","409543","0.0-31.0-0.5","SS1618435637816","","","null","","","","","","<p><img src= images/blank.png width =""600"" height = ""600"" style=""position:fixed;top:50%; left:50%; transform: translate(-50%, -50%); border:5px solid black"">","","","","","","","",""
"","1249","sequential-stimulus-presentation-old","145","411296","0.0-31.0-1.5","SS1618435637816","trial","","40","500","1749","images/stimuli/spore_stims/simple_08_A_b.gif","images/stimuli/spore_stims/simple_10_A_a.gif","self_paced","","11","simple_dissimilar","images/stimuli/spore_stims/simple_10_A_a.gif","","","","",""
"[{""page_index"":0,""viewing_time"":5918}]","5918","instructions","146","417217","0.0-32.0","SS1618435637816","instructions","","","","","","","","","","","","","","","",""
"","8282","survey-likert","147","425504","0.0-33.0","SS1618435637816","similarity_question","","","","","","","","","","","","{""Q0"":0}","[0]","","images/stimuli/spore_stims/simple_11_A_a.gif","images/stimuli/spore_stims/simple_07_A_b.gif"
"","6450","survey-likert","148","431960","0.0-34.0","SS1618435637816","similarity_question","","","","","","","","","","","","{""Q0"":2}","[0]","","images/stimuli/spore_stims/complex_02_A_b.gif","images/stimuli/spore_stims/complex_06_A_a.gif"
"","7838","survey-likert","149","439807","0.0-35.0","SS1618435637816","similarity_question","","","","","","","","","","","","{""Q0"":4}","[0]","","images/stimuli/spore_stims/simple_17_A_b.gif","images/stimuli/spore_stims/simple_06_A_a.gif"
"","2651","survey-likert","150","442465","0.0-36.0","SS1618435637816","similarity_question","","","","","","","","","","","","{""Q0"":4}","[0]","","images/stimuli/spore_stims/simple_08_A_b.gif","images/stimuli/spore_stims/simple_10_A_a.gif"
"","6872","survey-likert","151","449344","0.0-37.0","SS1618435637816","similarity_question","","","","","","","","","","","","{""Q0"":1}","[0]","","images/stimuli/spore_stims/complex_15_A_b.gif","images/stimuli/spore_stims/complex_11_A_a.gif"
"","5200","survey-likert","152","454550","0.0-38.0","SS1618435637816","similarity_question","","","","","","","","","","","","{""Q0"":4}","[0]","","images/stimuli/spore_stims/simple_09_A_b.gif","images/stimuli/spore_stims/simple_04_A_a.gif"
"","3473","survey-likert","153","458028","0.0-39.0","SS1618435637816","similarity_question","","","","","","","","","","","","{""Q0"":0}","[0]","","images/stimuli/spore_stims/complex_05_A_b.gif","images/stimuli/spore_stims/complex_14_A_a.gif"
"","2152","survey-likert","154","460186","0.0-40.0","SS1618435637816","similarity_question","","","","","","","","","","","","{""Q0"":5}","[0]","","images/stimuli/spore_stims/simple_03_A_b.gif","images/stimuli/spore_stims/simple_15_A_a.gif"
"","3724","survey-likert","155","463915","0.0-41.0","SS1618435637816","similarity_question","","","","","","","","","","","","{""Q0"":0}","[0]","","images/stimuli/spore_stims/complex_07_A_b.gif","images/stimuli/spore_stims/complex_18_A_a.gif"
"","3894","survey-likert","156","467816","0.0-42.0","SS1618435637816","similarity_question","","","","","","","","","","","","{""Q0"":1}","[0]","","images/stimuli/spore_stims/complex_16_A_b.gif","images/stimuli/spore_stims/complex_12_A_a.gif"
"","2312","survey-likert","157","470134","0.0-43.0","SS1618435637816","similarity_question","","","","","","","","","","","","{""Q0"":5}","[0]","","images/stimuli/spore_stims/simple_17_A_a.gif","images/stimuli/spore_stims/simple_04_A_b.gif"
"","3265","survey-likert","158","473404","0.0-44.0","SS1618435637816","similarity_question","","","","","","","","","","","","{""Q0"":0}","[0]","","images/stimuli/spore_stims/complex_07_A_a.gif","images/stimuli/spore_stims/complex_11_A_b.gif"
"[{""page_index"":0,""viewing_time"":2578}]","2578","instructions","159","475988","0.0-45.0","SS1618435637816","instructions","","","","","","","","","","","","","","","",""
"","6658","survey-likert","160","482649","0.0-46.0","SS1618435637816","","","","","","","","","images/stimuli/spore_stims/complex_11_A_b.gif","","","","{""Q0"":4}","[0]","","",""
"","2353","survey-likert","161","485010","0.0-47.0","SS1618435637816","","","","","","","","","images/stimuli/spore_stims/simple_10_A_a.gif","","","","{""Q0"":0}","[0]","","",""
"","2969","survey-likert","162","487984","0.0-48.0","SS1618435637816","","","","","","","","","images/stimuli/spore_stims/simple_03_A_b.gif","","","","{""Q0"":0}","[0]","","",""
"","3905","survey-likert","163","491894","0.0-49.0","SS1618435637816","","","","","","","","","images/stimuli/spore_stims/complex_06_A_a.gif","","","","{""Q0"":4}","[0]","","",""
"","2096","survey-likert","164","493995","0.0-50.0","SS1618435637816","","","","","","","","","images/stimuli/spore_stims/complex_16_A_b.gif","","","","{""Q0"":5}","[0]","","",""
"","2676","survey-likert","165","496678","0.0-51.0","SS1618435637816","","","","","","","","","images/stimuli/spore_stims/complex_15_A_b.gif","","","","{""Q0"":5}","[0]","","",""
"","2250","survey-likert","166","498934","0.0-52.0","SS1618435637816","","","","","","","","","images/stimuli/spore_stims/complex_18_A_a.gif","","","","{""Q0"":5}","[0]","","",""
"","2065","survey-likert","167","501005","0.0-53.0","SS1618435637816","","","","","","","","","images/stimuli/spore_stims/simple_06_A_a.gif","","","","{""Q0"":0}","[0]","","",""
"","2124","survey-likert","168","503135","0.0-54.0","SS1618435637816","","","","","","","","","images/stimuli/spore_stims/simple_11_A_a.gif","","","","{""Q0"":0}","[0]","","",""
"","3271","survey-likert","169","506412","0.0-55.0","SS1618435637816","","","","","","","","","images/stimuli/spore_stims/simple_04_A_b.gif","","","","{""Q0"":0}","[0]","","",""
"","1815","survey-likert","170","508232","0.0-56.0","SS1618435637816","","","","","","","","","images/stimuli/spore_stims/simple_09_A_b.gif","","","","{""Q0"":0}","[0]","","",""
"","3125","survey-likert","171","511362","0.0-57.0","SS1618435637816","","","","","","","","","images/stimuli/spore_stims/complex_14_A_a.gif","","","","{""Q0"":5}","[0]","","",""
"[{""page_index"":0,""viewing_time"":2111}]","2111","instructions","172","513479","0.0-58.0","SS1618435637816","instructions","","","","","","","","","","","","","","","",""
"","2561","demog-age","173","516047","0.0-59.0","SS1618435637816","","","","","","","","","","","","","{""age"":""18""}","","","",""
"","10810","demog-ethnic-US","174","526863","0.0-60.0","SS1618435637816","","","","","","","","","","","","","{""ethnicity"":[""White""]}","[0]","","",""
"","7725","demog-gender-and-education","175","534596","0.0-61.0","SS1618435637816","","","","","","","","","","","","","{""gender"":""Male"",""education"":""High school diploma""}","[0,1]","","",""
"","10297","survey-text","176","544900","0.0-62.0","SS1618435637816","feedback","","","","","","","","","","","","{""Q0"":""No""}","","","",""
"[{""page_index"":0,""viewing_time"":2591}]","2591","instructions","177","547495","0.0-63.0","SS1618435637816","instructions","","","","","","","","","","","","","","","",""
