"view_history","rt","trial_type","trial_index","time_elapsed","internal_node_id","subject","stimulus_type","trial_stimulus","key_press","minimum_viewing_duration","trial_looking_time","block_deviant","block_background","exposure_type","stimulus","block_number","block_type","stimulus_displayed","responses","question_order","math_correct_answer","stimulus_left","stimulus_right"
"[{""page_index"":0,""viewing_time"":4928}]","4928","instructions","0","4930","0.0-0.0","SS1618435636360","","","","","","","","","","","","","","","","",""
"[{""page_index"":0,""viewing_time"":6414},{""page_index"":1,""viewing_time"":3100}]","9514","instructions","1","16448","0.0-1.0","SS1618435636360","instructions","","","","","","","","","","","","","","","",""
"","4149","sequential-stimulus-presentation-old","2","21098","0.0-2.0","SS1618435636360","","","40","500","4649","null","null","self_paced","","","","","","","","",""
"","5329","sequential-stimulus-presentation-old","3","26930","0.0-3.0","SS1618435636360","","","40","500","5829","null","null","self_paced","","","","","","","","",""
"[{""page_index"":0,""viewing_time"":15188}]","15188","instructions","4","42119","0.0-4.0","SS1618435636360","instructions","","","","","","","","","","","","","","","",""
"","1133","sequential-stimulus-presentation-old","5","48255","0.0-5.0","SS1618435636360","","","40","500","1633","null","null","forced_long","","","","","","","","",""
"","2676","sequential-stimulus-presentation-old","6","50983","0.0-6.0","SS1618435636360","","","40","50","2726","null","null","forced_long","","","","","","","","",""
"[{""page_index"":0,""viewing_time"":2775}]","2775","instructions","7","53759","0.0-7.0","SS1618435636360","instructions","","","","","","","","","","","","","","","",""
"[{""page_index"":0,""viewing_time"":4879},{""page_index"":1,""viewing_time"":5218},{""page_index"":2,""viewing_time"":3481},{""page_index"":3,""viewing_time"":1914},{""page_index"":4,""viewing_time"":1483}]","16975","instructions","8","70736","0.0-8.0","SS1618435636360","instructions","","","","","","","","","","","","","","","",""
"","null","html-keyboard-response","9","72027","0.0-9.0-0.0","SS1618435636360","","","null","","","","","","<p><img src= images/blank.png width =""600"" height = ""600"" style=""position:fixed;top:50%; left:50%; transform: translate(-50%, -50%); border:5px solid black"">","","","","","","","",""
"","1061","sequential-stimulus-presentation-old","10","78091","0.0-9.0-1.0","SS1618435636360","trial","","40","500","1561","images/stimuli/spore_stims/simple_19_A_b.gif","images/stimuli/spore_stims/simple_09_A_a.gif","forced_long","","0","simple_dissimilar","images/stimuli/spore_stims/simple_09_A_a.gif","","","","",""
"","null","html-keyboard-response","11","79351","0.0-9.0-0.1","SS1618435636360","","","null","","","","","","<p><img src= images/blank.png width =""600"" height = ""600"" style=""position:fixed;top:50%; left:50%; transform: translate(-50%, -50%); border:5px solid black"">","","","","","","","",""
"","3221","sequential-stimulus-presentation-old","12","83075","0.0-9.0-1.1","SS1618435636360","trial","","40","500","3721","images/stimuli/spore_stims/simple_19_A_b.gif","images/stimuli/spore_stims/simple_09_A_a.gif","forced_long","","0","simple_dissimilar","images/stimuli/spore_stims/simple_09_A_a.gif","","","","",""
"","null","html-keyboard-response","13","83884","0.0-9.0-0.2","SS1618435636360","","","null","","","","","","<p><img src= images/blank.png width =""600"" height = ""600"" style=""position:fixed;top:50%; left:50%; transform: translate(-50%, -50%); border:5px solid black"">","","","","","","","",""
"","1562","sequential-stimulus-presentation-old","14","85947","0.0-9.0-1.2","SS1618435636360","trial","","40","500","2062","images/stimuli/spore_stims/simple_19_A_b.gif","images/stimuli/spore_stims/simple_09_A_a.gif","forced_long","","0","simple_dissimilar","images/stimuli/spore_stims/simple_09_A_a.gif","","","","",""
"","null","html-keyboard-response","15","87206","0.0-9.0-0.3","SS1618435636360","","","null","","","","","","<p><img src= images/blank.png width =""600"" height = ""600"" style=""position:fixed;top:50%; left:50%; transform: translate(-50%, -50%); border:5px solid black"">","","","","","","","",""
"","3833","sequential-stimulus-presentation-old","16","91540","0.0-9.0-1.3","SS1618435636360","trial","","40","500","4333","images/stimuli/spore_stims/simple_19_A_b.gif","images/stimuli/spore_stims/simple_09_A_a.gif","forced_long","","0","simple_dissimilar","images/stimuli/spore_stims/simple_09_A_a.gif","","","","",""
"","null","html-keyboard-response","17","92618","0.0-9.0-0.4","SS1618435636360","","","null","","","","","","<p><img src= images/blank.png width =""600"" height = ""600"" style=""position:fixed;top:50%; left:50%; transform: translate(-50%, -50%); border:5px solid black"">","","","","","","","",""
"","2659","sequential-stimulus-presentation-old","18","95779","0.0-9.0-1.4","SS1618435636360","trial","","40","500","3159","images/stimuli/spore_stims/simple_19_A_b.gif","images/stimuli/spore_stims/simple_09_A_a.gif","forced_long","","0","simple_dissimilar","images/stimuli/spore_stims/simple_19_A_b.gif","","","","",""
"","null","html-keyboard-response","19","97026","0.0-9.0-0.5","SS1618435636360","","","null","","","","","","<p><img src= images/blank.png width =""600"" height = ""600"" style=""position:fixed;top:50%; left:50%; transform: translate(-50%, -50%); border:5px solid black"">","","","","","","","",""
"","1444","sequential-stimulus-presentation-old","20","98972","0.0-9.0-1.5","SS1618435636360","trial","","40","500","1944","images/stimuli/spore_stims/simple_19_A_b.gif","images/stimuli/spore_stims/simple_09_A_a.gif","forced_long","","0","simple_dissimilar","images/stimuli/spore_stims/simple_19_A_b.gif","","","","",""
"","4936","survey-multi-choice","21","103908","0.0-10.0","SS1618435636360","math_question","","","","","","","","","","","","{""Q0"":""11""}","[0]","11","",""
"","null","html-keyboard-response","22","104725","0.0-11.0-0.0","SS1618435636360","","","null","","","","","","<p><img src= images/blank.png width =""600"" height = ""600"" style=""position:fixed;top:50%; left:50%; transform: translate(-50%, -50%); border:5px solid black"">","","","","","","","",""
"","3602","sequential-stimulus-presentation-old","23","108828","0.0-11.0-1.0","SS1618435636360","trial","","40","500","4102","images/stimuli/spore_stims/complex_05_A_b.gif","images/stimuli/spore_stims/complex_20_A_a.gif","self_paced","","1","complex_dissimilar","images/stimuli/spore_stims/complex_20_A_a.gif","","","","",""
"","null","html-keyboard-response","24","109683","0.0-11.0-0.1","SS1618435636360","","","null","","","","","","<p><img src= images/blank.png width =""600"" height = ""600"" style=""position:fixed;top:50%; left:50%; transform: translate(-50%, -50%); border:5px solid black"">","","","","","","","",""
"","982","sequential-stimulus-presentation-old","25","111167","0.0-11.0-1.1","SS1618435636360","trial","","40","500","1482","images/stimuli/spore_stims/complex_05_A_b.gif","images/stimuli/spore_stims/complex_20_A_a.gif","self_paced","","1","complex_dissimilar","images/stimuli/spore_stims/complex_20_A_a.gif","","","","",""
"","null","html-keyboard-response","26","112306","0.0-11.0-0.2","SS1618435636360","","","null","","","","","","<p><img src= images/blank.png width =""600"" height = ""600"" style=""position:fixed;top:50%; left:50%; transform: translate(-50%, -50%); border:5px solid black"">","","","","","","","",""
"","549","sequential-stimulus-presentation-old","27","113360","0.0-11.0-1.2","SS1618435636360","trial","","40","500","1049","images/stimuli/spore_stims/complex_05_A_b.gif","images/stimuli/spore_stims/complex_20_A_a.gif","self_paced","","1","complex_dissimilar","images/stimuli/spore_stims/complex_20_A_a.gif","","","","",""
"","null","html-keyboard-response","28","114423","0.0-11.0-0.3","SS1618435636360","","","null","","","","","","<p><img src= images/blank.png width =""600"" height = ""600"" style=""position:fixed;top:50%; left:50%; transform: translate(-50%, -50%); border:5px solid black"">","","","","","","","",""
"","1051","sequential-stimulus-presentation-old","29","115976","0.0-11.0-1.3","SS1618435636360","trial","","40","500","1551","images/stimuli/spore_stims/complex_05_A_b.gif","images/stimuli/spore_stims/complex_20_A_a.gif","self_paced","","1","complex_dissimilar","images/stimuli/spore_stims/complex_20_A_a.gif","","","","",""
"","null","html-keyboard-response","30","116949","0.0-11.0-0.4","SS1618435636360","","","null","","","","","","<p><img src= images/blank.png width =""600"" height = ""600"" style=""position:fixed;top:50%; left:50%; transform: translate(-50%, -50%); border:5px solid black"">","","","","","","","",""
"","868","sequential-stimulus-presentation-old","31","118319","0.0-11.0-1.4","SS1618435636360","trial","","40","500","1368","images/stimuli/spore_stims/complex_05_A_b.gif","images/stimuli/spore_stims/complex_20_A_a.gif","self_paced","","1","complex_dissimilar","images/stimuli/spore_stims/complex_20_A_a.gif","","","","",""
"","null","html-keyboard-response","32","119372","0.0-11.0-0.5","SS1618435636360","","","null","","","","","","<p><img src= images/blank.png width =""600"" height = ""600"" style=""position:fixed;top:50%; left:50%; transform: translate(-50%, -50%); border:5px solid black"">","","","","","","","",""
"","622","sequential-stimulus-presentation-old","33","120495","0.0-11.0-1.5","SS1618435636360","trial","","40","500","1122","images/stimuli/spore_stims/complex_05_A_b.gif","images/stimuli/spore_stims/complex_20_A_a.gif","self_paced","","1","complex_dissimilar","images/stimuli/spore_stims/complex_20_A_a.gif","","","","",""
"","4101","survey-multi-choice","34","124599","0.0-12.0","SS1618435636360","math_question","","","","","","","","","","","","{""Q0"":""4""}","[0]","4","",""
"","null","html-keyboard-response","35","125604","0.0-13.0-0.0","SS1618435636360","","","null","","","","","","<p><img src= images/blank.png width =""600"" height = ""600"" style=""position:fixed;top:50%; left:50%; transform: translate(-50%, -50%); border:5px solid black"">","","","","","","","",""
"","2461","sequential-stimulus-presentation-old","36","128119","0.0-13.0-1.0","SS1618435636360","trial","","40","500","2961","images/stimuli/spore_stims/simple_12_A_b.gif","images/stimuli/spore_stims/simple_17_A_a.gif","forced_short","","2","simple_dissimilar","images/stimuli/spore_stims/simple_17_A_a.gif","","","","",""
"","null","html-keyboard-response","37","129281","0.0-13.0-0.1","SS1618435636360","","","null","","","","","","<p><img src= images/blank.png width =""600"" height = ""600"" style=""position:fixed;top:50%; left:50%; transform: translate(-50%, -50%); border:5px solid black"">","","","","","","","",""
"","785","sequential-stimulus-presentation-old","38","130568","0.0-13.0-1.1","SS1618435636360","trial","","40","500","1285","images/stimuli/spore_stims/simple_12_A_b.gif","images/stimuli/spore_stims/simple_17_A_a.gif","forced_short","","2","simple_dissimilar","images/stimuli/spore_stims/simple_17_A_a.gif","","","","",""
"","null","html-keyboard-response","39","131649","0.0-13.0-0.2","SS1618435636360","","","null","","","","","","<p><img src= images/blank.png width =""600"" height = ""600"" style=""position:fixed;top:50%; left:50%; transform: translate(-50%, -50%); border:5px solid black"">","","","","","","","",""
"","10","sequential-stimulus-presentation-old","40","132159","0.0-13.0-1.2","SS1618435636360","trial","","40","500","510","images/stimuli/spore_stims/simple_12_A_b.gif","images/stimuli/spore_stims/simple_17_A_a.gif","forced_short","","2","simple_dissimilar","images/stimuli/spore_stims/simple_17_A_a.gif","","","","",""
"","null","html-keyboard-response","41","132967","0.0-13.0-0.3","SS1618435636360","","","null","","","","","","<p><img src= images/blank.png width =""600"" height = ""600"" style=""position:fixed;top:50%; left:50%; transform: translate(-50%, -50%); border:5px solid black"">","","","","","","","",""
"","1705","sequential-stimulus-presentation-old","42","135176","0.0-13.0-1.3","SS1618435636360","trial","","40","500","2205","images/stimuli/spore_stims/simple_12_A_b.gif","images/stimuli/spore_stims/simple_17_A_a.gif","forced_short","","2","simple_dissimilar","images/stimuli/spore_stims/simple_17_A_a.gif","","","","",""
"","6044","survey-multi-choice","43","141221","0.0-14.0","SS1618435636360","math_question","","","","","","","","","","","","{""Q0"":""15""}","[0]","15","",""
"","null","html-keyboard-response","44","142351","0.0-15.0-0.0","SS1618435636360","","","null","","","","","","<p><img src= images/blank.png width =""600"" height = ""600"" style=""position:fixed;top:50%; left:50%; transform: translate(-50%, -50%); border:5px solid black"">","","","","","","","",""
"","375","sequential-stimulus-presentation-old","45","147731","0.0-15.0-1.0","SS1618435636360","trial","","40","500","875","images/stimuli/spore_stims/complex_02_A_a.gif","images/stimuli/spore_stims/complex_07_A_b.gif","forced_long","","3","complex_dissimilar","images/stimuli/spore_stims/complex_07_A_b.gif","","","","",""
"","null","html-keyboard-response","46","148899","0.0-15.0-0.1","SS1618435636360","","","null","","","","","","<p><img src= images/blank.png width =""600"" height = ""600"" style=""position:fixed;top:50%; left:50%; transform: translate(-50%, -50%); border:5px solid black"">","","","","","","","",""
"","385","sequential-stimulus-presentation-old","47","149787","0.0-15.0-1.1","SS1618435636360","trial","","40","500","885","images/stimuli/spore_stims/complex_02_A_a.gif","images/stimuli/spore_stims/complex_07_A_b.gif","forced_long","","3","complex_dissimilar","images/stimuli/spore_stims/complex_07_A_b.gif","","","","",""
"","null","html-keyboard-response","48","150990","0.0-15.0-0.2","SS1618435636360","","","null","","","","","","<p><img src= images/blank.png width =""600"" height = ""600"" style=""position:fixed;top:50%; left:50%; transform: translate(-50%, -50%); border:5px solid black"">","","","","","","","",""
"","2648","sequential-stimulus-presentation-old","49","154139","0.0-15.0-1.2","SS1618435636360","trial","","40","500","3148","images/stimuli/spore_stims/complex_02_A_a.gif","images/stimuli/spore_stims/complex_07_A_b.gif","forced_long","","3","complex_dissimilar","images/stimuli/spore_stims/complex_07_A_b.gif","","","","",""
"","null","html-keyboard-response","50","155091","0.0-15.0-0.3","SS1618435636360","","","null","","","","","","<p><img src= images/blank.png width =""600"" height = ""600"" style=""position:fixed;top:50%; left:50%; transform: translate(-50%, -50%); border:5px solid black"">","","","","","","","",""
"","282","sequential-stimulus-presentation-old","51","155876","0.0-15.0-1.3","SS1618435636360","trial","","40","500","782","images/stimuli/spore_stims/complex_02_A_a.gif","images/stimuli/spore_stims/complex_07_A_b.gif","forced_long","","3","complex_dissimilar","images/stimuli/spore_stims/complex_07_A_b.gif","","","","",""
"","null","html-keyboard-response","52","156768","0.0-15.0-0.4","SS1618435636360","","","null","","","","","","<p><img src= images/blank.png width =""600"" height = ""600"" style=""position:fixed;top:50%; left:50%; transform: translate(-50%, -50%); border:5px solid black"">","","","","","","","",""
"","29","sequential-stimulus-presentation-old","53","157298","0.0-15.0-1.4","SS1618435636360","trial","","40","500","529","images/stimuli/spore_stims/complex_02_A_a.gif","images/stimuli/spore_stims/complex_07_A_b.gif","forced_long","","3","complex_dissimilar","images/stimuli/spore_stims/complex_07_A_b.gif","","","","",""
"","8669","survey-multi-choice","54","165969","0.0-16.0","SS1618435636360","math_question","","","","","","","","","","","","{""Q0"":""16""}","[0]","16","",""
"","null","html-keyboard-response","55","167186","0.0-17.0-0.0","SS1618435636360","","","null","","","","","","<p><img src= images/blank.png width =""600"" height = ""600"" style=""position:fixed;top:50%; left:50%; transform: translate(-50%, -50%); border:5px solid black"">","","","","","","","",""
"","1696","sequential-stimulus-presentation-old","56","168934","0.0-17.0-1.0","SS1618435636360","trial","","40","500","2196","images/stimuli/spore_stims/complex_15_A_b.gif","images/stimuli/spore_stims/complex_12_A_a.gif","forced_short","","4","complex_dissimilar","images/stimuli/spore_stims/complex_12_A_a.gif","","","","",""
"","null","html-keyboard-response","57","170054","0.0-17.0-0.1","SS1618435636360","","","null","","","","","","<p><img src= images/blank.png width =""600"" height = ""600"" style=""position:fixed;top:50%; left:50%; transform: translate(-50%, -50%); border:5px solid black"">","","","","","","","",""
"","2922","sequential-stimulus-presentation-old","58","173480","0.0-17.0-1.1","SS1618435636360","trial","","40","500","3422","images/stimuli/spore_stims/complex_15_A_b.gif","images/stimuli/spore_stims/complex_12_A_a.gif","forced_short","","4","complex_dissimilar","images/stimuli/spore_stims/complex_15_A_b.gif","","","","",""
"","null","html-keyboard-response","59","174328","0.0-17.0-0.2","SS1618435636360","","","null","","","","","","<p><img src= images/blank.png width =""600"" height = ""600"" style=""position:fixed;top:50%; left:50%; transform: translate(-50%, -50%); border:5px solid black"">","","","","","","","",""
"","1378","sequential-stimulus-presentation-old","60","176208","0.0-17.0-1.2","SS1618435636360","trial","","40","500","1878","images/stimuli/spore_stims/complex_15_A_b.gif","images/stimuli/spore_stims/complex_12_A_a.gif","forced_short","","4","complex_dissimilar","images/stimuli/spore_stims/complex_12_A_a.gif","","","","",""
"","null","html-keyboard-response","61","177290","0.0-17.0-0.3","SS1618435636360","","","null","","","","","","<p><img src= images/blank.png width =""600"" height = ""600"" style=""position:fixed;top:50%; left:50%; transform: translate(-50%, -50%); border:5px solid black"">","","","","","","","",""
"","1238","sequential-stimulus-presentation-old","62","179031","0.0-17.0-1.3","SS1618435636360","trial","","40","500","1738","images/stimuli/spore_stims/complex_15_A_b.gif","images/stimuli/spore_stims/complex_12_A_a.gif","forced_short","","4","complex_dissimilar","images/stimuli/spore_stims/complex_12_A_a.gif","","","","",""
"","null","html-keyboard-response","63","180183","0.0-17.0-0.4","SS1618435636360","","","null","","","","","","<p><img src= images/blank.png width =""600"" height = ""600"" style=""position:fixed;top:50%; left:50%; transform: translate(-50%, -50%); border:5px solid black"">","","","","","","","",""
"","1727","sequential-stimulus-presentation-old","64","182414","0.0-17.0-1.4","SS1618435636360","trial","","40","500","2227","images/stimuli/spore_stims/complex_15_A_b.gif","images/stimuli/spore_stims/complex_12_A_a.gif","forced_short","","4","complex_dissimilar","images/stimuli/spore_stims/complex_15_A_b.gif","","","","",""
"","4875","survey-multi-choice","65","187292","0.0-18.0","SS1618435636360","math_question","","","","","","","","","","","","{""Q0"":""12""}","[0]","12","",""
"","null","html-keyboard-response","66","188133","0.0-19.0-0.0","SS1618435636360","","","null","","","","","","<p><img src= images/blank.png width =""600"" height = ""600"" style=""position:fixed;top:50%; left:50%; transform: translate(-50%, -50%); border:5px solid black"">","","","","","","","",""
"","1568","sequential-stimulus-presentation-old","67","190207","0.0-19.0-1.0","SS1618435636360","trial","","40","500","2068","images/stimuli/spore_stims/complex_19_A_b.gif","images/stimuli/spore_stims/complex_15_A_a.gif","self_paced","","5","complex_dissimilar","images/stimuli/spore_stims/complex_15_A_a.gif","","","","",""
"","null","html-keyboard-response","68","191375","0.0-19.0-0.1","SS1618435636360","","","null","","","","","","<p><img src= images/blank.png width =""600"" height = ""600"" style=""position:fixed;top:50%; left:50%; transform: translate(-50%, -50%); border:5px solid black"">","","","","","","","",""
"","809","sequential-stimulus-presentation-old","69","192687","0.0-19.0-1.1","SS1618435636360","trial","","40","500","1309","images/stimuli/spore_stims/complex_19_A_b.gif","images/stimuli/spore_stims/complex_15_A_a.gif","self_paced","","5","complex_dissimilar","images/stimuli/spore_stims/complex_15_A_a.gif","","","","",""
"","null","html-keyboard-response","70","193901","0.0-19.0-0.2","SS1618435636360","","","null","","","","","","<p><img src= images/blank.png width =""600"" height = ""600"" style=""position:fixed;top:50%; left:50%; transform: translate(-50%, -50%); border:5px solid black"">","","","","","","","",""
"","138","sequential-stimulus-presentation-old","71","194544","0.0-19.0-1.2","SS1618435636360","trial","","40","500","638","images/stimuli/spore_stims/complex_19_A_b.gif","images/stimuli/spore_stims/complex_15_A_a.gif","self_paced","","5","complex_dissimilar","images/stimuli/spore_stims/complex_15_A_a.gif","","","","",""
"","null","html-keyboard-response","72","195512","0.0-19.0-0.3","SS1618435636360","","","null","","","","","","<p><img src= images/blank.png width =""600"" height = ""600"" style=""position:fixed;top:50%; left:50%; transform: translate(-50%, -50%); border:5px solid black"">","","","","","","","",""
"","768","sequential-stimulus-presentation-old","73","196784","0.0-19.0-1.3","SS1618435636360","trial","","40","500","1268","images/stimuli/spore_stims/complex_19_A_b.gif","images/stimuli/spore_stims/complex_15_A_a.gif","self_paced","","5","complex_dissimilar","images/stimuli/spore_stims/complex_15_A_a.gif","","","","",""
"","null","html-keyboard-response","74","197808","0.0-19.0-0.4","SS1618435636360","","","null","","","","","","<p><img src= images/blank.png width =""600"" height = ""600"" style=""position:fixed;top:50%; left:50%; transform: translate(-50%, -50%); border:5px solid black"">","","","","","","","",""
"","887","sequential-stimulus-presentation-old","75","199195","0.0-19.0-1.4","SS1618435636360","trial","","40","500","1387","images/stimuli/spore_stims/complex_19_A_b.gif","images/stimuli/spore_stims/complex_15_A_a.gif","self_paced","","5","complex_dissimilar","images/stimuli/spore_stims/complex_19_A_b.gif","","","","",""
"","null","html-keyboard-response","76","200152","0.0-19.0-0.5","SS1618435636360","","","null","","","","","","<p><img src= images/blank.png width =""600"" height = ""600"" style=""position:fixed;top:50%; left:50%; transform: translate(-50%, -50%); border:5px solid black"">","","","","","","","",""
"","227","sequential-stimulus-presentation-old","77","200883","0.0-19.0-1.5","SS1618435636360","trial","","40","500","727","images/stimuli/spore_stims/complex_19_A_b.gif","images/stimuli/spore_stims/complex_15_A_a.gif","self_paced","","5","complex_dissimilar","images/stimuli/spore_stims/complex_15_A_a.gif","","","","",""
"","6098","survey-multi-choice","78","206982","0.0-20.0","SS1618435636360","math_question","","","","","","","","","","","","{""Q0"":""10""}","[0]","10","",""
"","null","html-keyboard-response","79","208129","0.0-21.0-0.0","SS1618435636360","","","null","","","","","","<p><img src= images/blank.png width =""600"" height = ""600"" style=""position:fixed;top:50%; left:50%; transform: translate(-50%, -50%); border:5px solid black"">","","","","","","","",""
"","643","sequential-stimulus-presentation-old","80","209275","0.0-21.0-1.0","SS1618435636360","trial","","40","500","1143","images/stimuli/spore_stims/simple_06_A_b.gif","images/stimuli/spore_stims/simple_01_A_a.gif","self_paced","","6","simple_dissimilar","images/stimuli/spore_stims/simple_01_A_a.gif","","","","",""
"","null","html-keyboard-response","81","210098","0.0-21.0-0.1","SS1618435636360","","","null","","","","","","<p><img src= images/blank.png width =""600"" height = ""600"" style=""position:fixed;top:50%; left:50%; transform: translate(-50%, -50%); border:5px solid black"">","","","","","","","",""
"","1266","sequential-stimulus-presentation-old","82","211867","0.0-21.0-1.1","SS1618435636360","trial","","40","500","1766","images/stimuli/spore_stims/simple_06_A_b.gif","images/stimuli/spore_stims/simple_01_A_a.gif","self_paced","","6","simple_dissimilar","images/stimuli/spore_stims/simple_01_A_a.gif","","","","",""
"","null","html-keyboard-response","83","213077","0.0-21.0-0.2","SS1618435636360","","","null","","","","","","<p><img src= images/blank.png width =""600"" height = ""600"" style=""position:fixed;top:50%; left:50%; transform: translate(-50%, -50%); border:5px solid black"">","","","","","","","",""
"","216","sequential-stimulus-presentation-old","84","213795","0.0-21.0-1.2","SS1618435636360","trial","","40","500","716","images/stimuli/spore_stims/simple_06_A_b.gif","images/stimuli/spore_stims/simple_01_A_a.gif","self_paced","","6","simple_dissimilar","images/stimuli/spore_stims/simple_06_A_b.gif","","","","",""
"","null","html-keyboard-response","85","214802","0.0-21.0-0.3","SS1618435636360","","","null","","","","","","<p><img src= images/blank.png width =""600"" height = ""600"" style=""position:fixed;top:50%; left:50%; transform: translate(-50%, -50%); border:5px solid black"">","","","","","","","",""
"","402","sequential-stimulus-presentation-old","86","215708","0.0-21.0-1.3","SS1618435636360","trial","","40","500","902","images/stimuli/spore_stims/simple_06_A_b.gif","images/stimuli/spore_stims/simple_01_A_a.gif","self_paced","","6","simple_dissimilar","images/stimuli/spore_stims/simple_06_A_b.gif","","","","",""
"","5077","survey-multi-choice","87","220786","0.0-22.0","SS1618435636360","math_question","","","","","","","","","","","","{""Q0"":""11""}","[0]","11","",""
"","null","html-keyboard-response","88","222018","0.0-23.0-0.0","SS1618435636360","","","null","","","","","","<p><img src= images/blank.png width =""600"" height = ""600"" style=""position:fixed;top:50%; left:50%; transform: translate(-50%, -50%); border:5px solid black"">","","","","","","","",""
"","502","sequential-stimulus-presentation-old","89","227523","0.0-23.0-1.0","SS1618435636360","trial","","40","500","1002","images/stimuli/spore_stims/complex_01_A_b.gif","images/stimuli/spore_stims/complex_19_A_a.gif","forced_long","","7","complex_dissimilar","images/stimuli/spore_stims/complex_19_A_a.gif","","","","",""
"","null","html-keyboard-response","90","228435","0.0-23.0-0.1","SS1618435636360","","","null","","","","","","<p><img src= images/blank.png width =""600"" height = ""600"" style=""position:fixed;top:50%; left:50%; transform: translate(-50%, -50%); border:5px solid black"">","","","","","","","",""
"","282","sequential-stimulus-presentation-old","91","229219","0.0-23.0-1.1","SS1618435636360","trial","","40","500","782","images/stimuli/spore_stims/complex_01_A_b.gif","images/stimuli/spore_stims/complex_19_A_a.gif","forced_long","","7","complex_dissimilar","images/stimuli/spore_stims/complex_19_A_a.gif","","","","",""
"","null","html-keyboard-response","92","230367","0.0-23.0-0.2","SS1618435636360","","","null","","","","","","<p><img src= images/blank.png width =""600"" height = ""600"" style=""position:fixed;top:50%; left:50%; transform: translate(-50%, -50%); border:5px solid black"">","","","","","","","",""
"","1954","sequential-stimulus-presentation-old","93","232824","0.0-23.0-1.2","SS1618435636360","trial","","40","500","2454","images/stimuli/spore_stims/complex_01_A_b.gif","images/stimuli/spore_stims/complex_19_A_a.gif","forced_long","","7","complex_dissimilar","images/stimuli/spore_stims/complex_01_A_b.gif","","","","",""
"","null","html-keyboard-response","94","233667","0.0-23.0-0.3","SS1618435636360","","","null","","","","","","<p><img src= images/blank.png width =""600"" height = ""600"" style=""position:fixed;top:50%; left:50%; transform: translate(-50%, -50%); border:5px solid black"">","","","","","","","",""
"","684","sequential-stimulus-presentation-old","95","234855","0.0-23.0-1.3","SS1618435636360","trial","","40","500","1184","images/stimuli/spore_stims/complex_01_A_b.gif","images/stimuli/spore_stims/complex_19_A_a.gif","forced_long","","7","complex_dissimilar","images/stimuli/spore_stims/complex_01_A_b.gif","","","","",""
"","null","html-keyboard-response","96","236093","0.0-23.0-0.4","SS1618435636360","","","null","","","","","","<p><img src= images/blank.png width =""600"" height = ""600"" style=""position:fixed;top:50%; left:50%; transform: translate(-50%, -50%); border:5px solid black"">","","","","","","","",""
"","67","sequential-stimulus-presentation-old","97","236663","0.0-23.0-1.4","SS1618435636360","trial","","40","500","567","images/stimuli/spore_stims/complex_01_A_b.gif","images/stimuli/spore_stims/complex_19_A_a.gif","forced_long","","7","complex_dissimilar","images/stimuli/spore_stims/complex_19_A_a.gif","","","","",""
"","3763","survey-multi-choice","98","240428","0.0-24.0","SS1618435636360","math_question","","","","","","","","","","","","{""Q0"":""4""}","[0]","4","",""
"","null","html-keyboard-response","99","241672","0.0-25.0-0.0","SS1618435636360","","","null","","","","","","<p><img src= images/blank.png width =""600"" height = ""600"" style=""position:fixed;top:50%; left:50%; transform: translate(-50%, -50%); border:5px solid black"">","","","","","","","",""
"","1618","sequential-stimulus-presentation-old","100","243342","0.0-25.0-1.0","SS1618435636360","trial","","40","500","2118","images/stimuli/spore_stims/complex_04_A_a.gif","images/stimuli/spore_stims/complex_02_A_b.gif","forced_short","","8","complex_dissimilar","images/stimuli/spore_stims/complex_02_A_b.gif","","","","",""
"","null","html-keyboard-response","101","244421","0.0-25.0-0.1","SS1618435636360","","","null","","","","","","<p><img src= images/blank.png width =""600"" height = ""600"" style=""position:fixed;top:50%; left:50%; transform: translate(-50%, -50%); border:5px solid black"">","","","","","","","",""
"","1426","sequential-stimulus-presentation-old","102","246352","0.0-25.0-1.1","SS1618435636360","trial","","40","500","1926","images/stimuli/spore_stims/complex_04_A_a.gif","images/stimuli/spore_stims/complex_02_A_b.gif","forced_short","","8","complex_dissimilar","images/stimuli/spore_stims/complex_02_A_b.gif","","","","",""
"","null","html-keyboard-response","103","247370","0.0-25.0-0.2","SS1618435636360","","","null","","","","","","<p><img src= images/blank.png width =""600"" height = ""600"" style=""position:fixed;top:50%; left:50%; transform: translate(-50%, -50%); border:5px solid black"">","","","","","","","",""
"","1301","sequential-stimulus-presentation-old","104","249175","0.0-25.0-1.2","SS1618435636360","trial","","40","500","1801","images/stimuli/spore_stims/complex_04_A_a.gif","images/stimuli/spore_stims/complex_02_A_b.gif","forced_short","","8","complex_dissimilar","images/stimuli/spore_stims/complex_02_A_b.gif","","","","",""
"","null","html-keyboard-response","105","250462","0.0-25.0-0.3","SS1618435636360","","","null","","","","","","<p><img src= images/blank.png width =""600"" height = ""600"" style=""position:fixed;top:50%; left:50%; transform: translate(-50%, -50%); border:5px solid black"">","","","","","","","",""
"","1746","sequential-stimulus-presentation-old","106","252712","0.0-25.0-1.3","SS1618435636360","trial","","40","500","2246","images/stimuli/spore_stims/complex_04_A_a.gif","images/stimuli/spore_stims/complex_02_A_b.gif","forced_short","","8","complex_dissimilar","images/stimuli/spore_stims/complex_02_A_b.gif","","","","",""
"","null","html-keyboard-response","107","253818","0.0-25.0-0.4","SS1618435636360","","","null","","","","","","<p><img src= images/blank.png width =""600"" height = ""600"" style=""position:fixed;top:50%; left:50%; transform: translate(-50%, -50%); border:5px solid black"">","","","","","","","",""
"","1678","sequential-stimulus-presentation-old","108","256000","0.0-25.0-1.4","SS1618435636360","trial","","40","500","2178","images/stimuli/spore_stims/complex_04_A_a.gif","images/stimuli/spore_stims/complex_02_A_b.gif","forced_short","","8","complex_dissimilar","images/stimuli/spore_stims/complex_02_A_b.gif","","","","",""
"","4284","survey-multi-choice","109","260286","0.0-26.0","SS1618435636360","math_question","","","","","","","","","","","","{""Q0"":""8""}","[0]","8","",""
"","null","html-keyboard-response","110","261180","0.0-27.0-0.0","SS1618435636360","","","null","","","","","","<p><img src= images/blank.png width =""600"" height = ""600"" style=""position:fixed;top:50%; left:50%; transform: translate(-50%, -50%); border:5px solid black"">","","","","","","","",""
"","363","sequential-stimulus-presentation-old","111","266547","0.0-27.0-1.0","SS1618435636360","trial","","40","500","863","images/stimuli/spore_stims/simple_04_A_b.gif","images/stimuli/spore_stims/simple_10_A_a.gif","forced_long","","9","simple_dissimilar","images/stimuli/spore_stims/simple_10_A_a.gif","","","","",""
"","null","html-keyboard-response","112","267797","0.0-27.0-0.1","SS1618435636360","","","null","","","","","","<p><img src= images/blank.png width =""600"" height = ""600"" style=""position:fixed;top:50%; left:50%; transform: translate(-50%, -50%); border:5px solid black"">","","","","","","","",""
"","1117","sequential-stimulus-presentation-old","113","269419","0.0-27.0-1.1","SS1618435636360","trial","","40","500","1617","images/stimuli/spore_stims/simple_04_A_b.gif","images/stimuli/spore_stims/simple_10_A_a.gif","forced_long","","9","simple_dissimilar","images/stimuli/spore_stims/simple_04_A_b.gif","","","","",""
"","null","html-keyboard-response","114","270462","0.0-27.0-0.2","SS1618435636360","","","null","","","","","","<p><img src= images/blank.png width =""600"" height = ""600"" style=""position:fixed;top:50%; left:50%; transform: translate(-50%, -50%); border:5px solid black"">","","","","","","","",""
"","590","sequential-stimulus-presentation-old","115","271555","0.0-27.0-1.2","SS1618435636360","trial","","40","500","1090","images/stimuli/spore_stims/simple_04_A_b.gif","images/stimuli/spore_stims/simple_10_A_a.gif","forced_long","","9","simple_dissimilar","images/stimuli/spore_stims/simple_10_A_a.gif","","","","",""
"","null","html-keyboard-response","116","272450","0.0-27.0-0.3","SS1618435636360","","","null","","","","","","<p><img src= images/blank.png width =""600"" height = ""600"" style=""position:fixed;top:50%; left:50%; transform: translate(-50%, -50%); border:5px solid black"">","","","","","","","",""
"","82","sequential-stimulus-presentation-old","117","273036","0.0-27.0-1.3","SS1618435636360","trial","","40","500","582","images/stimuli/spore_stims/simple_04_A_b.gif","images/stimuli/spore_stims/simple_10_A_a.gif","forced_long","","9","simple_dissimilar","images/stimuli/spore_stims/simple_10_A_a.gif","","","","",""
"","null","html-keyboard-response","118","273906","0.0-27.0-0.4","SS1618435636360","","","null","","","","","","<p><img src= images/blank.png width =""600"" height = ""600"" style=""position:fixed;top:50%; left:50%; transform: translate(-50%, -50%); border:5px solid black"">","","","","","","","",""
"","139","sequential-stimulus-presentation-old","119","274548","0.0-27.0-1.4","SS1618435636360","trial","","40","500","639","images/stimuli/spore_stims/simple_04_A_b.gif","images/stimuli/spore_stims/simple_10_A_a.gif","forced_long","","9","simple_dissimilar","images/stimuli/spore_stims/simple_04_A_b.gif","","","","",""
"","3951","survey-multi-choice","120","278501","0.0-28.0","SS1618435636360","math_question","","","","","","","","","","","","{""Q0"":""11""}","[0]","11","",""
"","null","html-keyboard-response","121","279785","0.0-29.0-0.0","SS1618435636360","","","null","","","","","","<p><img src= images/blank.png width =""600"" height = ""600"" style=""position:fixed;top:50%; left:50%; transform: translate(-50%, -50%); border:5px solid black"">","","","","","","","",""
"","1334","sequential-stimulus-presentation-old","122","281171","0.0-29.0-1.0","SS1618435636360","trial","","40","500","1834","images/stimuli/spore_stims/simple_02_A_b.gif","images/stimuli/spore_stims/simple_06_A_a.gif","forced_short","","10","simple_dissimilar","images/stimuli/spore_stims/simple_06_A_a.gif","","","","",""
"","null","html-keyboard-response","123","282374","0.0-29.0-0.1","SS1618435636360","","","null","","","","","","<p><img src= images/blank.png width =""600"" height = ""600"" style=""position:fixed;top:50%; left:50%; transform: translate(-50%, -50%); border:5px solid black"">","","","","","","","",""
"","182","sequential-stimulus-presentation-old","124","283060","0.0-29.0-1.1","SS1618435636360","trial","","40","500","682","images/stimuli/spore_stims/simple_02_A_b.gif","images/stimuli/spore_stims/simple_06_A_a.gif","forced_short","","10","simple_dissimilar","images/stimuli/spore_stims/simple_06_A_a.gif","","","","",""
"","null","html-keyboard-response","125","284153","0.0-29.0-0.2","SS1618435636360","","","null","","","","","","<p><img src= images/blank.png width =""600"" height = ""600"" style=""position:fixed;top:50%; left:50%; transform: translate(-50%, -50%); border:5px solid black"">","","","","","","","",""
"","369","sequential-stimulus-presentation-old","126","285026","0.0-29.0-1.2","SS1618435636360","trial","","40","500","869","images/stimuli/spore_stims/simple_02_A_b.gif","images/stimuli/spore_stims/simple_06_A_a.gif","forced_short","","10","simple_dissimilar","images/stimuli/spore_stims/simple_06_A_a.gif","","","","",""
"","null","html-keyboard-response","127","286260","0.0-29.0-0.3","SS1618435636360","","","null","","","","","","<p><img src= images/blank.png width =""600"" height = ""600"" style=""position:fixed;top:50%; left:50%; transform: translate(-50%, -50%); border:5px solid black"">","","","","","","","",""
"","1238","sequential-stimulus-presentation-old","128","288003","0.0-29.0-1.3","SS1618435636360","trial","","40","500","1738","images/stimuli/spore_stims/simple_02_A_b.gif","images/stimuli/spore_stims/simple_06_A_a.gif","forced_short","","10","simple_dissimilar","images/stimuli/spore_stims/simple_06_A_a.gif","","","","",""
"","null","html-keyboard-response","129","288828","0.0-29.0-0.4","SS1618435636360","","","null","","","","","","<p><img src= images/blank.png width =""600"" height = ""600"" style=""position:fixed;top:50%; left:50%; transform: translate(-50%, -50%); border:5px solid black"">","","","","","","","",""
"","41","sequential-stimulus-presentation-old","130","289372","0.0-29.0-1.4","SS1618435636360","trial","","40","500","541","images/stimuli/spore_stims/simple_02_A_b.gif","images/stimuli/spore_stims/simple_06_A_a.gif","forced_short","","10","simple_dissimilar","images/stimuli/spore_stims/simple_06_A_a.gif","","","","",""
"","4025","survey-multi-choice","131","293401","0.0-30.0","SS1618435636360","math_question","","","","","","","","","","","","{""Q0"":""9""}","[0]","9","",""
"","null","html-keyboard-response","132","294245","0.0-31.0-0.0","SS1618435636360","","","null","","","","","","<p><img src= images/blank.png width =""600"" height = ""600"" style=""position:fixed;top:50%; left:50%; transform: translate(-50%, -50%); border:5px solid black"">","","","","","","","",""
"","299","sequential-stimulus-presentation-old","133","295046","0.0-31.0-1.0","SS1618435636360","trial","","40","500","799","images/stimuli/spore_stims/simple_14_A_a.gif","images/stimuli/spore_stims/simple_05_A_b.gif","self_paced","","11","simple_dissimilar","images/stimuli/spore_stims/simple_05_A_b.gif","","","","",""
"","null","html-keyboard-response","134","296289","0.0-31.0-0.1","SS1618435636360","","","null","","","","","","<p><img src= images/blank.png width =""600"" height = ""600"" style=""position:fixed;top:50%; left:50%; transform: translate(-50%, -50%); border:5px solid black"">","","","","","","","",""
"","1024","sequential-stimulus-presentation-old","135","297815","0.0-31.0-1.1","SS1618435636360","trial","","40","500","1524","images/stimuli/spore_stims/simple_14_A_a.gif","images/stimuli/spore_stims/simple_05_A_b.gif","self_paced","","11","simple_dissimilar","images/stimuli/spore_stims/simple_05_A_b.gif","","","","",""
"","null","html-keyboard-response","136","298917","0.0-31.0-0.2","SS1618435636360","","","null","","","","","","<p><img src= images/blank.png width =""600"" height = ""600"" style=""position:fixed;top:50%; left:50%; transform: translate(-50%, -50%); border:5px solid black"">","","","","","","","",""
"","594","sequential-stimulus-presentation-old","137","300016","0.0-31.0-1.2","SS1618435636360","trial","","40","500","1094","images/stimuli/spore_stims/simple_14_A_a.gif","images/stimuli/spore_stims/simple_05_A_b.gif","self_paced","","11","simple_dissimilar","images/stimuli/spore_stims/simple_05_A_b.gif","","","","",""
"","null","html-keyboard-response","138","301126","0.0-31.0-0.3","SS1618435636360","","","null","","","","","","<p><img src= images/blank.png width =""600"" height = ""600"" style=""position:fixed;top:50%; left:50%; transform: translate(-50%, -50%); border:5px solid black"">","","","","","","","",""
"","52","sequential-stimulus-presentation-old","139","301679","0.0-31.0-1.3","SS1618435636360","trial","","40","500","552","images/stimuli/spore_stims/simple_14_A_a.gif","images/stimuli/spore_stims/simple_05_A_b.gif","self_paced","","11","simple_dissimilar","images/stimuli/spore_stims/simple_05_A_b.gif","","","","",""
"","null","html-keyboard-response","140","302812","0.0-31.0-0.4","SS1618435636360","","","null","","","","","","<p><img src= images/blank.png width =""600"" height = ""600"" style=""position:fixed;top:50%; left:50%; transform: translate(-50%, -50%); border:5px solid black"">","","","","","","","",""
"","533","sequential-stimulus-presentation-old","141","303848","0.0-31.0-1.4","SS1618435636360","trial","","40","500","1033","images/stimuli/spore_stims/simple_14_A_a.gif","images/stimuli/spore_stims/simple_05_A_b.gif","self_paced","","11","simple_dissimilar","images/stimuli/spore_stims/simple_14_A_a.gif","","","","",""
"[{""page_index"":0,""viewing_time"":2743}]","2743","instructions","142","306593","0.0-32.0","SS1618435636360","instructions","","","","","","","","","","","","","","","",""
"","8212","survey-likert","143","314813","0.0-33.0","SS1618435636360","similarity_question","","","","","","","","","","","","{""Q0"":3}","[0]","","images/stimuli/spore_stims/complex_15_A_b.gif","images/stimuli/spore_stims/complex_12_A_a.gif"
"","4616","survey-likert","144","319432","0.0-34.0","SS1618435636360","similarity_question","","","","","","","","","","","","{""Q0"":2}","[0]","","images/stimuli/spore_stims/complex_05_A_b.gif","images/stimuli/spore_stims/complex_20_A_a.gif"
"","5643","survey-likert","145","325078","0.0-35.0","SS1618435636360","similarity_question","","","","","","","","","","","","{""Q0"":5}","[0]","","images/stimuli/spore_stims/simple_06_A_b.gif","images/stimuli/spore_stims/simple_01_A_a.gif"
"","5115","survey-likert","146","330199","0.0-36.0","SS1618435636360","similarity_question","","","","","","","","","","","","{""Q0"":4}","[0]","","images/stimuli/spore_stims/simple_12_A_b.gif","images/stimuli/spore_stims/simple_17_A_a.gif"
"","4650","survey-likert","147","334851","0.0-37.0","SS1618435636360","similarity_question","","","","","","","","","","","","{""Q0"":4}","[0]","","images/stimuli/spore_stims/simple_09_A_a.gif","images/stimuli/spore_stims/simple_19_A_b.gif"
"","5523","survey-likert","148","340378","0.0-38.0","SS1618435636360","similarity_question","","","","","","","","","","","","{""Q0"":5}","[0]","","images/stimuli/spore_stims/simple_06_A_a.gif","images/stimuli/spore_stims/simple_02_A_b.gif"
"","10003","survey-likert","149","350385","0.0-39.0","SS1618435636360","similarity_question","","","","","","","","","","","","{""Q0"":2}","[0]","","images/stimuli/spore_stims/complex_04_A_a.gif","images/stimuli/spore_stims/complex_02_A_b.gif"
"","6441","survey-likert","150","356831","0.0-40.0","SS1618435636360","similarity_question","","","","","","","","","","","","{""Q0"":2}","[0]","","images/stimuli/spore_stims/complex_01_A_b.gif","images/stimuli/spore_stims/complex_19_A_a.gif"
"","5173","survey-likert","151","362008","0.0-41.0","SS1618435636360","similarity_question","","","","","","","","","","","","{""Q0"":1}","[0]","","images/stimuli/spore_stims/complex_19_A_b.gif","images/stimuli/spore_stims/complex_15_A_a.gif"
"","5165","survey-likert","152","367177","0.0-42.0","SS1618435636360","similarity_question","","","","","","","","","","","","{""Q0"":4}","[0]","","images/stimuli/spore_stims/simple_04_A_b.gif","images/stimuli/spore_stims/simple_10_A_a.gif"
"","6751","survey-likert","153","373934","0.0-43.0","SS1618435636360","similarity_question","","","","","","","","","","","","{""Q0"":2}","[0]","","images/stimuli/spore_stims/complex_07_A_b.gif","images/stimuli/spore_stims/complex_02_A_a.gif"
"","7354","survey-likert","154","381295","0.0-44.0","SS1618435636360","similarity_question","","","","","","","","","","","","{""Q0"":3}","[0]","","images/stimuli/spore_stims/simple_14_A_a.gif","images/stimuli/spore_stims/simple_05_A_b.gif"
"[{""page_index"":0,""viewing_time"":2816}]","2817","instructions","155","384115","0.0-45.0","SS1618435636360","instructions","","","","","","","","","","","","","","","",""
"","3793","survey-likert","156","387913","0.0-46.0","SS1618435636360","","","","","","","","","images/stimuli/spore_stims/complex_20_A_a.gif","","","","{""Q0"":5}","[0]","","",""
"","6514","survey-likert","157","394431","0.0-47.0","SS1618435636360","","","","","","","","","images/stimuli/spore_stims/complex_04_A_a.gif","","","","{""Q0"":5}","[0]","","",""
"","3681","survey-likert","158","398115","0.0-48.0","SS1618435636360","","","","","","","","","images/stimuli/spore_stims/complex_19_A_a.gif","","","","{""Q0"":5}","[0]","","",""
"","3848","survey-likert","159","401968","0.0-49.0","SS1618435636360","","","","","","","","","images/stimuli/spore_stims/simple_19_A_b.gif","","","","{""Q0"":1}","[0]","","",""
"","3765","survey-likert","160","405736","0.0-50.0","SS1618435636360","","","","","","","","","images/stimuli/spore_stims/complex_02_A_a.gif","","","","{""Q0"":4}","[0]","","",""
"","4019","survey-likert","161","409760","0.0-51.0","SS1618435636360","","","","","","","","","images/stimuli/spore_stims/simple_12_A_b.gif","","","","{""Q0"":1}","[0]","","",""
"","3633","survey-likert","162","413397","0.0-52.0","SS1618435636360","","","","","","","","","images/stimuli/spore_stims/simple_06_A_a.gif","","","","{""Q0"":1}","[0]","","",""
"","4727","survey-likert","163","418127","0.0-53.0","SS1618435636360","","","","","","","","","images/stimuli/spore_stims/simple_14_A_a.gif","","","","{""Q0"":1}","[0]","","",""
"","3387","survey-likert","164","421518","0.0-54.0","SS1618435636360","","","","","","","","","images/stimuli/spore_stims/simple_10_A_a.gif","","","","{""Q0"":0}","[0]","","",""
"","3667","survey-likert","165","425189","0.0-55.0","SS1618435636360","","","","","","","","","images/stimuli/spore_stims/complex_19_A_b.gif","","","","{""Q0"":5}","[0]","","",""
"","3870","survey-likert","166","429063","0.0-56.0","SS1618435636360","","","","","","","","","images/stimuli/spore_stims/complex_15_A_b.gif","","","","{""Q0"":6}","[0]","","",""
"","3608","survey-likert","167","432678","0.0-57.0","SS1618435636360","","","","","","","","","images/stimuli/spore_stims/simple_06_A_b.gif","","","","{""Q0"":1}","[0]","","",""
"[{""page_index"":0,""viewing_time"":1961}]","1961","instructions","168","434645","0.0-58.0","SS1618435636360","instructions","","","","","","","","","","","","","","","",""
"","3933","demog-age","169","438585","0.0-59.0","SS1618435636360","","","","","","","","","","","","","{""age"":""25""}","","","",""
"","4466","demog-ethnic-US","170","443056","0.0-60.0","SS1618435636360","","","","","","","","","","","","","{""ethnicity"":[""White""]}","[0]","","",""
"","12202","demog-gender-and-education","171","455264","0.0-61.0","SS1618435636360","","","","","","","","","","","","","{""gender"":""Female"",""education"":""Associate Degree/Technical certification""}","[0,1]","","",""
"","188933","survey-text","172","644202","0.0-62.0","SS1618435636360","feedback","","","","","","","","","","","","{""Q0"":""some of these are kind of creepy, if you really want to show them to babies and that wasn't just a pretense (so we wouldn't be affected by knowing the real research question), I would think twice about it and maybe review them again, haha""}","","","",""
"[{""page_index"":0,""viewing_time"":1695}]","1695","instructions","173","645903","0.0-63.0","SS1618435636360","instructions","","","","","","","","","","","","","","","",""
