"view_history","rt","trial_type","trial_index","time_elapsed","internal_node_id","subject","stimulus_type","trial_stimulus","key_press","minimum_viewing_duration","trial_looking_time","block_deviant","block_background","exposure_type","stimulus","block_number","block_type","stimulus_displayed","responses","question_order","math_correct_answer","stimulus_left","stimulus_right"
"[{""page_index"":0,""viewing_time"":8709.789999993518}]","8710.010000038892","instructions","0","8711","0.0-0.0","SS1618435646704","","","","","","","","","","","","","","","","",""
"[{""page_index"":0,""viewing_time"":4139.075000071898},{""page_index"":1,""viewing_time"":4269.5899999234825}]","8408.825000049546","instructions","1","19918","0.0-1.0","SS1618435646704","instructions","","","","","","","","","","","","","","","",""
"","3141.3499999325722","sequential-stimulus-presentation-old","2","23568","0.0-2.0","SS1618435646704","","","40","500","3641.3499999325722","null","null","self_paced","","","","","","","","",""
"","1747.4499999079853","sequential-stimulus-presentation-old","3","25818","0.0-3.0","SS1618435646704","","","40","500","2247.4499999079853","null","null","self_paced","","","","","","","","",""
"[{""page_index"":0,""viewing_time"":54571.25000003725}]","54571.44000008702","instructions","4","80390","0.0-4.0","SS1618435646704","instructions","","","","","","","","","","","","","","","",""
"","1397.7999999187887","sequential-stimulus-presentation-old","5","86790","0.0-5.0","SS1618435646704","","","40","500","1897.7999999187887","null","null","forced_long","","","","","","","","",""
"","10411.684999940917","sequential-stimulus-presentation-old","6","97254","0.0-6.0","SS1618435646704","","","40","50","10461.684999940917","null","null","forced_long","","","","","","","","",""
"[{""page_index"":0,""viewing_time"":36567.47999996878}]","36567.68999993801","instructions","7","133822","0.0-7.0","SS1618435646704","instructions","","","","","","","","","","","","","","","",""
"[{""page_index"":0,""viewing_time"":9302.834999980405},{""page_index"":1,""viewing_time"":4368.019999936223},{""page_index"":2,""viewing_time"":3864.019999979064},{""page_index"":3,""viewing_time"":1456.114999949932},{""page_index"":4,""viewing_time"":903.9100001100451}]","19895.09500004351","instructions","8","153718","0.0-8.0","SS1618435646704","instructions","","","","","","","","","","","","","","","",""
"","null","html-keyboard-response","9","154983","0.0-9.0-0.0","SS1618435646704","","","null","","","","","","<p><img src= images/blank.png width =""600"" height = ""600"" style=""position:fixed;top:50%; left:50%; transform: translate(-50%, -50%); border:5px solid black"">","","","","","","","",""
"","913.3550000842661","sequential-stimulus-presentation-old","10","155950","0.0-9.0-1.0","SS1618435646704","trial","","40","500","1413.355000084266","images/stimuli/spore_stims/simple_15_A_b.gif","images/stimuli/spore_stims/simple_14_A_a.gif","forced_short","","0","simple_dissimilar","images/stimuli/spore_stims/simple_14_A_a.gif","","","","",""
"","null","html-keyboard-response","11","157170","0.0-9.0-0.1","SS1618435646704","","","null","","","","","","<p><img src= images/blank.png width =""600"" height = ""600"" style=""position:fixed;top:50%; left:50%; transform: translate(-50%, -50%); border:5px solid black"">","","","","","","","",""
"","653.724999865517","sequential-stimulus-presentation-old","12","158326","0.0-9.0-1.1","SS1618435646704","trial","","40","500","1153.724999865517","images/stimuli/spore_stims/simple_15_A_b.gif","images/stimuli/spore_stims/simple_14_A_a.gif","forced_short","","0","simple_dissimilar","images/stimuli/spore_stims/simple_14_A_a.gif","","","","",""
"","null","html-keyboard-response","13","159601","0.0-9.0-0.2","SS1618435646704","","","null","","","","","","<p><img src= images/blank.png width =""600"" height = ""600"" style=""position:fixed;top:50%; left:50%; transform: translate(-50%, -50%); border:5px solid black"">","","","","","","","",""
"","1190.679999999702","sequential-stimulus-presentation-old","14","161293","0.0-9.0-1.2","SS1618435646704","trial","","40","500","1690.679999999702","images/stimuli/spore_stims/simple_15_A_b.gif","images/stimuli/spore_stims/simple_14_A_a.gif","forced_short","","0","simple_dissimilar","images/stimuli/spore_stims/simple_15_A_b.gif","","","","",""
"","null","html-keyboard-response","15","162385","0.0-9.0-0.3","SS1618435646704","","","null","","","","","","<p><img src= images/blank.png width =""600"" height = ""600"" style=""position:fixed;top:50%; left:50%; transform: translate(-50%, -50%); border:5px solid black"">","","","","","","","",""
"","1079.6949998475611","sequential-stimulus-presentation-old","16","163967","0.0-9.0-1.3","SS1618435646704","trial","","40","500","1579.6949998475611","images/stimuli/spore_stims/simple_15_A_b.gif","images/stimuli/spore_stims/simple_14_A_a.gif","forced_short","","0","simple_dissimilar","images/stimuli/spore_stims/simple_14_A_a.gif","","","","",""
"","2722.950000083074","survey-multi-choice","17","166694","0.0-10.0","SS1618435646704","math_question","","","","","","","","","","","","{""Q0"":""10""}","[0]","11","",""
"","null","html-keyboard-response","18","167820","0.0-11.0-0.0","SS1618435646704","","","null","","","","","","<p><img src= images/blank.png width =""600"" height = ""600"" style=""position:fixed;top:50%; left:50%; transform: translate(-50%, -50%); border:5px solid black"">","","","","","","","",""
"","427.3949998896569","sequential-stimulus-presentation-old","19","173255","0.0-11.0-1.0","SS1618435646704","trial","","40","500","927.3949998896569","images/stimuli/spore_stims/simple_02_A_a.gif","images/stimuli/spore_stims/simple_16_A_b.gif","forced_long","","1","simple_dissimilar","images/stimuli/spore_stims/simple_16_A_b.gif","","","","",""
"","null","html-keyboard-response","20","174209","0.0-11.0-0.1","SS1618435646704","","","null","","","","","","<p><img src= images/blank.png width =""600"" height = ""600"" style=""position:fixed;top:50%; left:50%; transform: translate(-50%, -50%); border:5px solid black"">","","","","","","","",""
"","139.75000008940697","sequential-stimulus-presentation-old","21","174854","0.0-11.0-1.1","SS1618435646704","trial","","40","500","639.750000089407","images/stimuli/spore_stims/simple_02_A_a.gif","images/stimuli/spore_stims/simple_16_A_b.gif","forced_long","","1","simple_dissimilar","images/stimuli/spore_stims/simple_16_A_b.gif","","","","",""
"","null","html-keyboard-response","22","175886","0.0-11.0-0.2","SS1618435646704","","","null","","","","","","<p><img src= images/blank.png width =""600"" height = ""600"" style=""position:fixed;top:50%; left:50%; transform: translate(-50%, -50%); border:5px solid black"">","","","","","","","",""
"","609.8799998871982","sequential-stimulus-presentation-old","23","176999","0.0-11.0-1.2","SS1618435646704","trial","","40","500","1109.8799998871982","images/stimuli/spore_stims/simple_02_A_a.gif","images/stimuli/spore_stims/simple_16_A_b.gif","forced_long","","1","simple_dissimilar","images/stimuli/spore_stims/simple_16_A_b.gif","","","","",""
"","null","html-keyboard-response","24","178254","0.0-11.0-0.3","SS1618435646704","","","null","","","","","","<p><img src= images/blank.png width =""600"" height = ""600"" style=""position:fixed;top:50%; left:50%; transform: translate(-50%, -50%); border:5px solid black"">","","","","","","","",""
"","476.8700001295656","sequential-stimulus-presentation-old","25","179238","0.0-11.0-1.3","SS1618435646704","trial","","40","500","976.8700001295656","images/stimuli/spore_stims/simple_02_A_a.gif","images/stimuli/spore_stims/simple_16_A_b.gif","forced_long","","1","simple_dissimilar","images/stimuli/spore_stims/simple_16_A_b.gif","","","","",""
"","null","html-keyboard-response","26","180518","0.0-11.0-0.4","SS1618435646704","","","null","","","","","","<p><img src= images/blank.png width =""600"" height = ""600"" style=""position:fixed;top:50%; left:50%; transform: translate(-50%, -50%); border:5px solid black"">","","","","","","","",""
"","386.0799998510629","sequential-stimulus-presentation-old","27","181405","0.0-11.0-1.4","SS1618435646704","trial","","40","500","886.0799998510629","images/stimuli/spore_stims/simple_02_A_a.gif","images/stimuli/spore_stims/simple_16_A_b.gif","forced_long","","1","simple_dissimilar","images/stimuli/spore_stims/simple_02_A_a.gif","","","","",""
"","null","html-keyboard-response","28","182667","0.0-11.0-0.5","SS1618435646704","","","null","","","","","","<p><img src= images/blank.png width =""600"" height = ""600"" style=""position:fixed;top:50%; left:50%; transform: translate(-50%, -50%); border:5px solid black"">","","","","","","","",""
"","2506.3249999657273","sequential-stimulus-presentation-old","29","185678","0.0-11.0-1.5","SS1618435646704","trial","","40","500","3006.3249999657273","images/stimuli/spore_stims/simple_02_A_a.gif","images/stimuli/spore_stims/simple_16_A_b.gif","forced_long","","1","simple_dissimilar","images/stimuli/spore_stims/simple_16_A_b.gif","","","","",""
"","34318.57000011951","survey-multi-choice","30","219998","0.0-12.0","SS1618435646704","math_question","","","","","","","","","","","","{""Q0"":""10""}","[0]","10","",""
"","null","html-keyboard-response","31","220860","0.0-13.0-0.0","SS1618435646704","","","null","","","","","","<p><img src= images/blank.png width =""600"" height = ""600"" style=""position:fixed;top:50%; left:50%; transform: translate(-50%, -50%); border:5px solid black"">","","","","","","","",""
"","1827.335000038147","sequential-stimulus-presentation-old","32","223190","0.0-13.0-1.0","SS1618435646704","trial","","40","500","2327.335000038147","images/stimuli/spore_stims/complex_03_A_a.gif","images/stimuli/spore_stims/complex_11_A_b.gif","self_paced","","2","complex_dissimilar","images/stimuli/spore_stims/complex_11_A_b.gif","","","","",""
"","null","html-keyboard-response","33","224387","0.0-13.0-0.1","SS1618435646704","","","null","","","","","","<p><img src= images/blank.png width =""600"" height = ""600"" style=""position:fixed;top:50%; left:50%; transform: translate(-50%, -50%); border:5px solid black"">","","","","","","","",""
"","3278.0850001145154","sequential-stimulus-presentation-old","34","228175","0.0-13.0-1.1","SS1618435646704","trial","","40","500","3778.0850001145154","images/stimuli/spore_stims/complex_03_A_a.gif","images/stimuli/spore_stims/complex_11_A_b.gif","self_paced","","2","complex_dissimilar","images/stimuli/spore_stims/complex_11_A_b.gif","","","","",""
"","null","html-keyboard-response","35","229489","0.0-13.0-0.2","SS1618435646704","","","null","","","","","","<p><img src= images/blank.png width =""600"" height = ""600"" style=""position:fixed;top:50%; left:50%; transform: translate(-50%, -50%); border:5px solid black"">","","","","","","","",""
"","1591.5149999782443","sequential-stimulus-presentation-old","36","231590","0.0-13.0-1.2","SS1618435646704","trial","","40","500","2091.5149999782443","images/stimuli/spore_stims/complex_03_A_a.gif","images/stimuli/spore_stims/complex_11_A_b.gif","self_paced","","2","complex_dissimilar","images/stimuli/spore_stims/complex_11_A_b.gif","","","","",""
"","null","html-keyboard-response","37","232600","0.0-13.0-0.3","SS1618435646704","","","null","","","","","","<p><img src= images/blank.png width =""600"" height = ""600"" style=""position:fixed;top:50%; left:50%; transform: translate(-50%, -50%); border:5px solid black"">","","","","","","","",""
"","2643.265000078827","sequential-stimulus-presentation-old","38","235750","0.0-13.0-1.3","SS1618435646704","trial","","40","500","3143.265000078827","images/stimuli/spore_stims/complex_03_A_a.gif","images/stimuli/spore_stims/complex_11_A_b.gif","self_paced","","2","complex_dissimilar","images/stimuli/spore_stims/complex_11_A_b.gif","","","","",""
"","2254.585000220686","survey-multi-choice","39","238006","0.0-14.0","SS1618435646704","math_question","","","","","","","","","","","","{""Q0"":""11""}","[0]","11","",""
"","null","html-keyboard-response","40","239076","0.0-15.0-0.0","SS1618435646704","","","null","","","","","","<p><img src= images/blank.png width =""600"" height = ""600"" style=""position:fixed;top:50%; left:50%; transform: translate(-50%, -50%); border:5px solid black"">","","","","","","","",""
"","6047.294999938458","sequential-stimulus-presentation-old","41","250126","0.0-15.0-1.0","SS1618435646704","trial","","40","500","6547.294999938458","images/stimuli/spore_stims/simple_11_A_a.gif","images/stimuli/spore_stims/simple_08_A_b.gif","forced_long","","3","simple_dissimilar","images/stimuli/spore_stims/simple_08_A_b.gif","","","","",""
"","null","html-keyboard-response","42","251333","0.0-15.0-0.1","SS1618435646704","","","null","","","","","","<p><img src= images/blank.png width =""600"" height = ""600"" style=""position:fixed;top:50%; left:50%; transform: translate(-50%, -50%); border:5px solid black"">","","","","","","","",""
"","568.1350000668317","sequential-stimulus-presentation-old","43","252407","0.0-15.0-1.1","SS1618435646704","trial","","40","500","1068.1350000668317","images/stimuli/spore_stims/simple_11_A_a.gif","images/stimuli/spore_stims/simple_08_A_b.gif","forced_long","","3","simple_dissimilar","images/stimuli/spore_stims/simple_08_A_b.gif","","","","",""
"","null","html-keyboard-response","44","253303","0.0-15.0-0.2","SS1618435646704","","","null","","","","","","<p><img src= images/blank.png width =""600"" height = ""600"" style=""position:fixed;top:50%; left:50%; transform: translate(-50%, -50%); border:5px solid black"">","","","","","","","",""
"","728.2549999654293","sequential-stimulus-presentation-old","45","254542","0.0-15.0-1.2","SS1618435646704","trial","","40","500","1228.2549999654293","images/stimuli/spore_stims/simple_11_A_a.gif","images/stimuli/spore_stims/simple_08_A_b.gif","forced_long","","3","simple_dissimilar","images/stimuli/spore_stims/simple_08_A_b.gif","","","","",""
"","null","html-keyboard-response","46","255784","0.0-15.0-0.3","SS1618435646704","","","null","","","","","","<p><img src= images/blank.png width =""600"" height = ""600"" style=""position:fixed;top:50%; left:50%; transform: translate(-50%, -50%); border:5px solid black"">","","","","","","","",""
"","71.02500018663704","sequential-stimulus-presentation-old","47","256358","0.0-15.0-1.3","SS1618435646704","trial","","40","500","571.025000186637","images/stimuli/spore_stims/simple_11_A_a.gif","images/stimuli/spore_stims/simple_08_A_b.gif","forced_long","","3","simple_dissimilar","images/stimuli/spore_stims/simple_08_A_b.gif","","","","",""
"","null","html-keyboard-response","48","257202","0.0-15.0-0.4","SS1618435646704","","","null","","","","","","<p><img src= images/blank.png width =""600"" height = ""600"" style=""position:fixed;top:50%; left:50%; transform: translate(-50%, -50%); border:5px solid black"">","","","","","","","",""
"","746.7650000471622","sequential-stimulus-presentation-old","49","258454","0.0-15.0-1.4","SS1618435646704","trial","","40","500","1246.7650000471622","images/stimuli/spore_stims/simple_11_A_a.gif","images/stimuli/spore_stims/simple_08_A_b.gif","forced_long","","3","simple_dissimilar","images/stimuli/spore_stims/simple_08_A_b.gif","","","","",""
"","2798.6200000159442","survey-multi-choice","50","261254","0.0-16.0","SS1618435646704","math_question","","","","","","","","","","","","{""Q0"":""10""}","[0]","10","",""
"","null","html-keyboard-response","51","262209","0.0-17.0-0.0","SS1618435646704","","","null","","","","","","<p><img src= images/blank.png width =""600"" height = ""600"" style=""position:fixed;top:50%; left:50%; transform: translate(-50%, -50%); border:5px solid black"">","","","","","","","",""
"","23665.305000031367","sequential-stimulus-presentation-old","52","290878","0.0-17.0-1.0","SS1618435646704","trial","","40","500","24165.305000031367","images/stimuli/spore_stims/complex_07_A_b.gif","images/stimuli/spore_stims/complex_11_A_a.gif","forced_long","","4","complex_dissimilar","images/stimuli/spore_stims/complex_11_A_a.gif","","","","",""
"","null","html-keyboard-response","53","292068","0.0-17.0-0.1","SS1618435646704","","","null","","","","","","<p><img src= images/blank.png width =""600"" height = ""600"" style=""position:fixed;top:50%; left:50%; transform: translate(-50%, -50%); border:5px solid black"">","","","","","","","",""
"","1017.3750000540167","sequential-stimulus-presentation-old","54","293592","0.0-17.0-1.1","SS1618435646704","trial","","40","500","1517.3750000540167","images/stimuli/spore_stims/complex_07_A_b.gif","images/stimuli/spore_stims/complex_11_A_a.gif","forced_long","","4","complex_dissimilar","images/stimuli/spore_stims/complex_11_A_a.gif","","","","",""
"","null","html-keyboard-response","55","294883","0.0-17.0-0.2","SS1618435646704","","","null","","","","","","<p><img src= images/blank.png width =""600"" height = ""600"" style=""position:fixed;top:50%; left:50%; transform: translate(-50%, -50%); border:5px solid black"">","","","","","","","",""
"","386.88500015996397","sequential-stimulus-presentation-old","56","295782","0.0-17.0-1.2","SS1618435646704","trial","","40","500","886.885000159964","images/stimuli/spore_stims/complex_07_A_b.gif","images/stimuli/spore_stims/complex_11_A_a.gif","forced_long","","4","complex_dissimilar","images/stimuli/spore_stims/complex_11_A_a.gif","","","","",""
"","null","html-keyboard-response","57","296726","0.0-17.0-0.3","SS1618435646704","","","null","","","","","","<p><img src= images/blank.png width =""600"" height = ""600"" style=""position:fixed;top:50%; left:50%; transform: translate(-50%, -50%); border:5px solid black"">","","","","","","","",""
"","2090.400000102818","sequential-stimulus-presentation-old","58","299318","0.0-17.0-1.3","SS1618435646704","trial","","40","500","2590.400000102818","images/stimuli/spore_stims/complex_07_A_b.gif","images/stimuli/spore_stims/complex_11_A_a.gif","forced_long","","4","complex_dissimilar","images/stimuli/spore_stims/complex_11_A_a.gif","","","","",""
"","2134.719999972731","survey-multi-choice","59","301454","0.0-18.0","SS1618435646704","math_question","","","","","","","","","","","","{""Q0"":""7""}","[0]","7","",""
"","null","html-keyboard-response","60","302716","0.0-19.0-0.0","SS1618435646704","","","null","","","","","","<p><img src= images/blank.png width =""600"" height = ""600"" style=""position:fixed;top:50%; left:50%; transform: translate(-50%, -50%); border:5px solid black"">","","","","","","","",""
"","621.284999884665","sequential-stimulus-presentation-old","61","303840","0.0-19.0-1.0","SS1618435646704","trial","","40","500","1121.284999884665","images/stimuli/spore_stims/simple_01_A_a.gif","images/stimuli/spore_stims/simple_12_A_b.gif","self_paced","","5","simple_dissimilar","images/stimuli/spore_stims/simple_12_A_b.gif","","","","",""
"","null","html-keyboard-response","62","304689","0.0-19.0-0.1","SS1618435646704","","","null","","","","","","<p><img src= images/blank.png width =""600"" height = ""600"" style=""position:fixed;top:50%; left:50%; transform: translate(-50%, -50%); border:5px solid black"">","","","","","","","",""
"","509.53999999910593","sequential-stimulus-presentation-old","63","305703","0.0-19.0-1.1","SS1618435646704","trial","","40","500","1009.5399999991059","images/stimuli/spore_stims/simple_01_A_a.gif","images/stimuli/spore_stims/simple_12_A_b.gif","self_paced","","5","simple_dissimilar","images/stimuli/spore_stims/simple_01_A_a.gif","","","","",""
"","null","html-keyboard-response","64","306611","0.0-19.0-0.2","SS1618435646704","","","null","","","","","","<p><img src= images/blank.png width =""600"" height = ""600"" style=""position:fixed;top:50%; left:50%; transform: translate(-50%, -50%); border:5px solid black"">","","","","","","","",""
"","452.2800000850111","sequential-stimulus-presentation-old","65","307566","0.0-19.0-1.2","SS1618435646704","trial","","40","500","952.2800000850111","images/stimuli/spore_stims/simple_01_A_a.gif","images/stimuli/spore_stims/simple_12_A_b.gif","self_paced","","5","simple_dissimilar","images/stimuli/spore_stims/simple_12_A_b.gif","","","","",""
"","null","html-keyboard-response","66","308580","0.0-19.0-0.3","SS1618435646704","","","null","","","","","","<p><img src= images/blank.png width =""600"" height = ""600"" style=""position:fixed;top:50%; left:50%; transform: translate(-50%, -50%); border:5px solid black"">","","","","","","","",""
"","421.3300000410527","sequential-stimulus-presentation-old","67","309504","0.0-19.0-1.3","SS1618435646704","trial","","40","500","921.3300000410527","images/stimuli/spore_stims/simple_01_A_a.gif","images/stimuli/spore_stims/simple_12_A_b.gif","self_paced","","5","simple_dissimilar","images/stimuli/spore_stims/simple_01_A_a.gif","","","","",""
"","null","html-keyboard-response","68","310423","0.0-19.0-0.4","SS1618435646704","","","null","","","","","","<p><img src= images/blank.png width =""600"" height = ""600"" style=""position:fixed;top:50%; left:50%; transform: translate(-50%, -50%); border:5px solid black"">","","","","","","","",""
"","2799.845000030473","sequential-stimulus-presentation-old","69","313734","0.0-19.0-1.4","SS1618435646704","trial","","40","500","3299.845000030473","images/stimuli/spore_stims/simple_01_A_a.gif","images/stimuli/spore_stims/simple_12_A_b.gif","self_paced","","5","simple_dissimilar","images/stimuli/spore_stims/simple_12_A_b.gif","","","","",""
"","null","html-keyboard-response","70","314566","0.0-19.0-0.5","SS1618435646704","","","null","","","","","","<p><img src= images/blank.png width =""600"" height = ""600"" style=""position:fixed;top:50%; left:50%; transform: translate(-50%, -50%); border:5px solid black"">","","","","","","","",""
"","2033.8049998972565","sequential-stimulus-presentation-old","71","317103","0.0-19.0-1.5","SS1618435646704","trial","","40","500","2533.8049998972565","images/stimuli/spore_stims/simple_01_A_a.gif","images/stimuli/spore_stims/simple_12_A_b.gif","self_paced","","5","simple_dissimilar","images/stimuli/spore_stims/simple_12_A_b.gif","","","","",""
"","3645.8600000478327","survey-multi-choice","72","320750","0.0-20.0","SS1618435646704","math_question","","","","","","","","","","","","{""Q0"":""11""}","[0]","11","",""
"","null","html-keyboard-response","73","321779","0.0-21.0-0.0","SS1618435646704","","","null","","","","","","<p><img src= images/blank.png width =""600"" height = ""600"" style=""position:fixed;top:50%; left:50%; transform: translate(-50%, -50%); border:5px solid black"">","","","","","","","",""
"","798.0249999091029","sequential-stimulus-presentation-old","74","322630","0.0-21.0-1.0","SS1618435646704","trial","","40","500","1298.024999909103","images/stimuli/spore_stims/simple_14_A_b.gif","images/stimuli/spore_stims/simple_07_A_a.gif","forced_short","","6","simple_dissimilar","images/stimuli/spore_stims/simple_07_A_a.gif","","","","",""
"","null","html-keyboard-response","75","323535","0.0-21.0-0.1","SS1618435646704","","","null","","","","","","<p><img src= images/blank.png width =""600"" height = ""600"" style=""position:fixed;top:50%; left:50%; transform: translate(-50%, -50%); border:5px solid black"">","","","","","","","",""
"","480.9099999256432","sequential-stimulus-presentation-old","76","324518","0.0-21.0-1.1","SS1618435646704","trial","","40","500","980.9099999256432","images/stimuli/spore_stims/simple_14_A_b.gif","images/stimuli/spore_stims/simple_07_A_a.gif","forced_short","","6","simple_dissimilar","images/stimuli/spore_stims/simple_14_A_b.gif","","","","",""
"","null","html-keyboard-response","77","325569","0.0-21.0-0.2","SS1618435646704","","","null","","","","","","<p><img src= images/blank.png width =""600"" height = ""600"" style=""position:fixed;top:50%; left:50%; transform: translate(-50%, -50%); border:5px solid black"">","","","","","","","",""
"","870.545000070706","sequential-stimulus-presentation-old","78","326942","0.0-21.0-1.2","SS1618435646704","trial","","40","500","1370.545000070706","images/stimuli/spore_stims/simple_14_A_b.gif","images/stimuli/spore_stims/simple_07_A_a.gif","forced_short","","6","simple_dissimilar","images/stimuli/spore_stims/simple_14_A_b.gif","","","","",""
"","null","html-keyboard-response","79","327878","0.0-21.0-0.3","SS1618435646704","","","null","","","","","","<p><img src= images/blank.png width =""600"" height = ""600"" style=""position:fixed;top:50%; left:50%; transform: translate(-50%, -50%); border:5px solid black"">","","","","","","","",""
"","432.2099999990314","sequential-stimulus-presentation-old","80","328822","0.0-21.0-1.3","SS1618435646704","trial","","40","500","932.2099999990314","images/stimuli/spore_stims/simple_14_A_b.gif","images/stimuli/spore_stims/simple_07_A_a.gif","forced_short","","6","simple_dissimilar","images/stimuli/spore_stims/simple_07_A_a.gif","","","","",""
"","null","html-keyboard-response","81","329756","0.0-21.0-0.4","SS1618435646704","","","null","","","","","","<p><img src= images/blank.png width =""600"" height = ""600"" style=""position:fixed;top:50%; left:50%; transform: translate(-50%, -50%); border:5px solid black"">","","","","","","","",""
"","564.3649999983609","sequential-stimulus-presentation-old","82","330822","0.0-21.0-1.4","SS1618435646704","trial","","40","500","1064.3649999983609","images/stimuli/spore_stims/simple_14_A_b.gif","images/stimuli/spore_stims/simple_07_A_a.gif","forced_short","","6","simple_dissimilar","images/stimuli/spore_stims/simple_07_A_a.gif","","","","",""
"","null","html-keyboard-response","83","331650","0.0-21.0-0.5","SS1618435646704","","","null","","","","","","<p><img src= images/blank.png width =""600"" height = ""600"" style=""position:fixed;top:50%; left:50%; transform: translate(-50%, -50%); border:5px solid black"">","","","","","","","",""
"","4.425000166520476","sequential-stimulus-presentation-old","84","332158","0.0-21.0-1.5","SS1618435646704","trial","","40","500","504.4250001665205","images/stimuli/spore_stims/simple_14_A_b.gif","images/stimuli/spore_stims/simple_07_A_a.gif","forced_short","","6","simple_dissimilar","images/stimuli/spore_stims/simple_07_A_a.gif","","","","",""
"","2198.8599998876452","survey-multi-choice","85","334358","0.0-22.0","SS1618435646704","math_question","","","","","","","","","","","","{""Q0"":""5""}","[0]","5","",""
"","null","html-keyboard-response","86","335618","0.0-23.0-0.0","SS1618435646704","","","null","","","","","","<p><img src= images/blank.png width =""600"" height = ""600"" style=""position:fixed;top:50%; left:50%; transform: translate(-50%, -50%); border:5px solid black"">","","","","","","","",""
"","693.3900001458824","sequential-stimulus-presentation-old","87","336374","0.0-23.0-1.0","SS1618435646704","trial","","40","500","1193.3900001458824","images/stimuli/spore_stims/complex_12_A_b.gif","images/stimuli/spore_stims/complex_10_A_a.gif","forced_short","","7","complex_dissimilar","images/stimuli/spore_stims/complex_10_A_a.gif","","","","",""
"","null","html-keyboard-response","88","337600","0.0-23.0-0.1","SS1618435646704","","","null","","","","","","<p><img src= images/blank.png width =""600"" height = ""600"" style=""position:fixed;top:50%; left:50%; transform: translate(-50%, -50%); border:5px solid black"">","","","","","","","",""
"","2055.2300000563264","sequential-stimulus-presentation-old","89","340158","0.0-23.0-1.1","SS1618435646704","trial","","40","500","2555.2300000563264","images/stimuli/spore_stims/complex_12_A_b.gif","images/stimuli/spore_stims/complex_10_A_a.gif","forced_short","","7","complex_dissimilar","images/stimuli/spore_stims/complex_12_A_b.gif","","","","",""
"","null","html-keyboard-response","90","341278","0.0-23.0-0.2","SS1618435646704","","","null","","","","","","<p><img src= images/blank.png width =""600"" height = ""600"" style=""position:fixed;top:50%; left:50%; transform: translate(-50%, -50%); border:5px solid black"">","","","","","","","",""
"","1312.7699999604374","sequential-stimulus-presentation-old","91","343094","0.0-23.0-1.2","SS1618435646704","trial","","40","500","1812.7699999604374","images/stimuli/spore_stims/complex_12_A_b.gif","images/stimuli/spore_stims/complex_10_A_a.gif","forced_short","","7","complex_dissimilar","images/stimuli/spore_stims/complex_10_A_a.gif","","","","",""
"","null","html-keyboard-response","92","344069","0.0-23.0-0.3","SS1618435646704","","","null","","","","","","<p><img src= images/blank.png width =""600"" height = ""600"" style=""position:fixed;top:50%; left:50%; transform: translate(-50%, -50%); border:5px solid black"">","","","","","","","",""
"","1578.4050000365824","sequential-stimulus-presentation-old","93","346150","0.0-23.0-1.3","SS1618435646704","trial","","40","500","2078.4050000365824","images/stimuli/spore_stims/complex_12_A_b.gif","images/stimuli/spore_stims/complex_10_A_a.gif","forced_short","","7","complex_dissimilar","images/stimuli/spore_stims/complex_12_A_b.gif","","","","",""
"","null","html-keyboard-response","94","347290","0.0-23.0-0.4","SS1618435646704","","","null","","","","","","<p><img src= images/blank.png width =""600"" height = ""600"" style=""position:fixed;top:50%; left:50%; transform: translate(-50%, -50%); border:5px solid black"">","","","","","","","",""
"","1149.2099999450147","sequential-stimulus-presentation-old","95","348942","0.0-23.0-1.4","SS1618435646704","trial","","40","500","1649.2099999450147","images/stimuli/spore_stims/complex_12_A_b.gif","images/stimuli/spore_stims/complex_10_A_a.gif","forced_short","","7","complex_dissimilar","images/stimuli/spore_stims/complex_10_A_a.gif","","","","",""
"","3310.7249999884516","survey-multi-choice","96","352254","0.0-24.0","SS1618435646704","math_question","","","","","","","","","","","","{""Q0"":""11""}","[0]","11","",""
"","null","html-keyboard-response","97","353509","0.0-25.0-0.0","SS1618435646704","","","null","","","","","","<p><img src= images/blank.png width =""600"" height = ""600"" style=""position:fixed;top:50%; left:50%; transform: translate(-50%, -50%); border:5px solid black"">","","","","","","","",""
"","674.6199999470264","sequential-stimulus-presentation-old","98","359190","0.0-25.0-1.0","SS1618435646704","trial","","40","500","1174.6199999470264","images/stimuli/spore_stims/complex_18_A_a.gif","images/stimuli/spore_stims/complex_14_A_b.gif","forced_long","","8","complex_dissimilar","images/stimuli/spore_stims/complex_14_A_b.gif","","","","",""
"","null","html-keyboard-response","99","360052","0.0-25.0-0.1","SS1618435646704","","","null","","","","","","<p><img src= images/blank.png width =""600"" height = ""600"" style=""position:fixed;top:50%; left:50%; transform: translate(-50%, -50%); border:5px solid black"">","","","","","","","",""
"","1148.930000141263","sequential-stimulus-presentation-old","100","361711","0.0-25.0-1.1","SS1618435646704","trial","","40","500","1648.930000141263","images/stimuli/spore_stims/complex_18_A_a.gif","images/stimuli/spore_stims/complex_14_A_b.gif","forced_long","","8","complex_dissimilar","images/stimuli/spore_stims/complex_14_A_b.gif","","","","",""
"","null","html-keyboard-response","101","362913","0.0-25.0-0.2","SS1618435646704","","","null","","","","","","<p><img src= images/blank.png width =""600"" height = ""600"" style=""position:fixed;top:50%; left:50%; transform: translate(-50%, -50%); border:5px solid black"">","","","","","","","",""
"","724.1800001356751","sequential-stimulus-presentation-old","102","364142","0.0-25.0-1.2","SS1618435646704","trial","","40","500","1224.180000135675","images/stimuli/spore_stims/complex_18_A_a.gif","images/stimuli/spore_stims/complex_14_A_b.gif","forced_long","","8","complex_dissimilar","images/stimuli/spore_stims/complex_14_A_b.gif","","","","",""
"","null","html-keyboard-response","103","365069","0.0-25.0-0.3","SS1618435646704","","","null","","","","","","<p><img src= images/blank.png width =""600"" height = ""600"" style=""position:fixed;top:50%; left:50%; transform: translate(-50%, -50%); border:5px solid black"">","","","","","","","",""
"","3554.2200000490993","sequential-stimulus-presentation-old","104","369126","0.0-25.0-1.3","SS1618435646704","trial","","40","500","4054.2200000490993","images/stimuli/spore_stims/complex_18_A_a.gif","images/stimuli/spore_stims/complex_14_A_b.gif","forced_long","","8","complex_dissimilar","images/stimuli/spore_stims/complex_14_A_b.gif","","","","",""
"","null","html-keyboard-response","105","370055","0.0-25.0-0.4","SS1618435646704","","","null","","","","","","<p><img src= images/blank.png width =""600"" height = ""600"" style=""position:fixed;top:50%; left:50%; transform: translate(-50%, -50%); border:5px solid black"">","","","","","","","",""
"","1561.0449998639524","sequential-stimulus-presentation-old","106","372119","0.0-25.0-1.4","SS1618435646704","trial","","40","500","2061.0449998639524","images/stimuli/spore_stims/complex_18_A_a.gif","images/stimuli/spore_stims/complex_14_A_b.gif","forced_long","","8","complex_dissimilar","images/stimuli/spore_stims/complex_18_A_a.gif","","","","",""
"","2333.7850000243634","survey-multi-choice","107","374454","0.0-26.0","SS1618435646704","math_question","","","","","","","","","","","","{""Q0"":""10""}","[0]","10","",""
"","null","html-keyboard-response","108","375324","0.0-27.0-0.0","SS1618435646704","","","null","","","","","","<p><img src= images/blank.png width =""600"" height = ""600"" style=""position:fixed;top:50%; left:50%; transform: translate(-50%, -50%); border:5px solid black"">","","","","","","","",""
"","2922.3000002093613","sequential-stimulus-presentation-old","109","378750","0.0-27.0-1.0","SS1618435646704","trial","","40","500","3422.3000002093613","images/stimuli/spore_stims/simple_19_A_b.gif","images/stimuli/spore_stims/simple_03_A_a.gif","self_paced","","9","simple_dissimilar","images/stimuli/spore_stims/simple_03_A_a.gif","","","","",""
"","null","html-keyboard-response","110","379762","0.0-27.0-0.1","SS1618435646704","","","null","","","","","","<p><img src= images/blank.png width =""600"" height = ""600"" style=""position:fixed;top:50%; left:50%; transform: translate(-50%, -50%); border:5px solid black"">","","","","","","","",""
"","737.2699999250472","sequential-stimulus-presentation-old","111","381006","0.0-27.0-1.1","SS1618435646704","trial","","40","500","1237.2699999250472","images/stimuli/spore_stims/simple_19_A_b.gif","images/stimuli/spore_stims/simple_03_A_a.gif","self_paced","","9","simple_dissimilar","images/stimuli/spore_stims/simple_03_A_a.gif","","","","",""
"","null","html-keyboard-response","112","382013","0.0-27.0-0.2","SS1618435646704","","","null","","","","","","<p><img src= images/blank.png width =""600"" height = ""600"" style=""position:fixed;top:50%; left:50%; transform: translate(-50%, -50%); border:5px solid black"">","","","","","","","",""
"","1329.1949999984354","sequential-stimulus-presentation-old","113","383854","0.0-27.0-1.2","SS1618435646704","trial","","40","500","1829.1949999984354","images/stimuli/spore_stims/simple_19_A_b.gif","images/stimuli/spore_stims/simple_03_A_a.gif","self_paced","","9","simple_dissimilar","images/stimuli/spore_stims/simple_19_A_b.gif","","","","",""
"","null","html-keyboard-response","114","385064","0.0-27.0-0.3","SS1618435646704","","","null","","","","","","<p><img src= images/blank.png width =""600"" height = ""600"" style=""position:fixed;top:50%; left:50%; transform: translate(-50%, -50%); border:5px solid black"">","","","","","","","",""
"","645.5849998164922","sequential-stimulus-presentation-old","115","386222","0.0-27.0-1.3","SS1618435646704","trial","","40","500","1145.5849998164922","images/stimuli/spore_stims/simple_19_A_b.gif","images/stimuli/spore_stims/simple_03_A_a.gif","self_paced","","9","simple_dissimilar","images/stimuli/spore_stims/simple_03_A_a.gif","","","","",""
"","null","html-keyboard-response","116","387033","0.0-27.0-0.4","SS1618435646704","","","null","","","","","","<p><img src= images/blank.png width =""600"" height = ""600"" style=""position:fixed;top:50%; left:50%; transform: translate(-50%, -50%); border:5px solid black"">","","","","","","","",""
"","727.309999987483","sequential-stimulus-presentation-old","117","388263","0.0-27.0-1.4","SS1618435646704","trial","","40","500","1227.309999987483","images/stimuli/spore_stims/simple_19_A_b.gif","images/stimuli/spore_stims/simple_03_A_a.gif","self_paced","","9","simple_dissimilar","images/stimuli/spore_stims/simple_03_A_a.gif","","","","",""
"","null","html-keyboard-response","118","389175","0.0-27.0-0.5","SS1618435646704","","","null","","","","","","<p><img src= images/blank.png width =""600"" height = ""600"" style=""position:fixed;top:50%; left:50%; transform: translate(-50%, -50%); border:5px solid black"">","","","","","","","",""
"","373.860000167042","sequential-stimulus-presentation-old","119","390064","0.0-27.0-1.5","SS1618435646704","trial","","40","500","873.860000167042","images/stimuli/spore_stims/simple_19_A_b.gif","images/stimuli/spore_stims/simple_03_A_a.gif","self_paced","","9","simple_dissimilar","images/stimuli/spore_stims/simple_03_A_a.gif","","","","",""
"","2164.644999895245","survey-multi-choice","120","392230","0.0-28.0","SS1618435646704","math_question","","","","","","","","","","","","{""Q0"":""8""}","[0]","8","",""
"","null","html-keyboard-response","121","393139","0.0-29.0-0.0","SS1618435646704","","","null","","","","","","<p><img src= images/blank.png width =""600"" height = ""600"" style=""position:fixed;top:50%; left:50%; transform: translate(-50%, -50%); border:5px solid black"">","","","","","","","",""
"","1420.6300000660121","sequential-stimulus-presentation-old","122","394614","0.0-29.0-1.0","SS1618435646704","trial","","40","500","1920.6300000660121","images/stimuli/spore_stims/complex_14_A_a.gif","images/stimuli/spore_stims/complex_16_A_b.gif","forced_short","","10","complex_dissimilar","images/stimuli/spore_stims/complex_16_A_b.gif","","","","",""
"","null","html-keyboard-response","123","395441","0.0-29.0-0.1","SS1618435646704","","","null","","","","","","<p><img src= images/blank.png width =""600"" height = ""600"" style=""position:fixed;top:50%; left:50%; transform: translate(-50%, -50%); border:5px solid black"">","","","","","","","",""
"","870.189999928698","sequential-stimulus-presentation-old","124","396814","0.0-29.0-1.1","SS1618435646704","trial","","40","500","1370.189999928698","images/stimuli/spore_stims/complex_14_A_a.gif","images/stimuli/spore_stims/complex_16_A_b.gif","forced_short","","10","complex_dissimilar","images/stimuli/spore_stims/complex_16_A_b.gif","","","","",""
"","null","html-keyboard-response","125","398069","0.0-29.0-0.2","SS1618435646704","","","null","","","","","","<p><img src= images/blank.png width =""600"" height = ""600"" style=""position:fixed;top:50%; left:50%; transform: translate(-50%, -50%); border:5px solid black"">","","","","","","","",""
"","426.71000002883375","sequential-stimulus-presentation-old","126","398998","0.0-29.0-1.2","SS1618435646704","trial","","40","500","926.7100000288337","images/stimuli/spore_stims/complex_14_A_a.gif","images/stimuli/spore_stims/complex_16_A_b.gif","forced_short","","10","complex_dissimilar","images/stimuli/spore_stims/complex_16_A_b.gif","","","","",""
"","null","html-keyboard-response","127","400055","0.0-29.0-0.3","SS1618435646704","","","null","","","","","","<p><img src= images/blank.png width =""600"" height = ""600"" style=""position:fixed;top:50%; left:50%; transform: translate(-50%, -50%); border:5px solid black"">","","","","","","","",""
"","132.90999992750585","sequential-stimulus-presentation-old","128","400702","0.0-29.0-1.3","SS1618435646704","trial","","40","500","632.9099999275059","images/stimuli/spore_stims/complex_14_A_a.gif","images/stimuli/spore_stims/complex_16_A_b.gif","forced_short","","10","complex_dissimilar","images/stimuli/spore_stims/complex_14_A_a.gif","","","","",""
"","null","html-keyboard-response","129","401963","0.0-29.0-0.4","SS1618435646704","","","null","","","","","","<p><img src= images/blank.png width =""600"" height = ""600"" style=""position:fixed;top:50%; left:50%; transform: translate(-50%, -50%); border:5px solid black"">","","","","","","","",""
"","138.00000003539026","sequential-stimulus-presentation-old","130","402606","0.0-29.0-1.4","SS1618435646704","trial","","40","500","638.0000000353903","images/stimuli/spore_stims/complex_14_A_a.gif","images/stimuli/spore_stims/complex_16_A_b.gif","forced_short","","10","complex_dissimilar","images/stimuli/spore_stims/complex_16_A_b.gif","","","","",""
"","null","html-keyboard-response","131","403793","0.0-29.0-0.5","SS1618435646704","","","null","","","","","","<p><img src= images/blank.png width =""600"" height = ""600"" style=""position:fixed;top:50%; left:50%; transform: translate(-50%, -50%); border:5px solid black"">","","","","","","","",""
"","329.3200000189245","sequential-stimulus-presentation-old","132","404639","0.0-29.0-1.5","SS1618435646704","trial","","40","500","829.3200000189245","images/stimuli/spore_stims/complex_14_A_a.gif","images/stimuli/spore_stims/complex_16_A_b.gif","forced_short","","10","complex_dissimilar","images/stimuli/spore_stims/complex_16_A_b.gif","","","","",""
"","2397.965000011027","survey-multi-choice","133","407038","0.0-30.0","SS1618435646704","math_question","","","","","","","","","","","","{""Q0"":""10""}","[0]","10","",""
"","null","html-keyboard-response","134","407904","0.0-31.0-0.0","SS1618435646704","","","null","","","","","","<p><img src= images/blank.png width =""600"" height = ""600"" style=""position:fixed;top:50%; left:50%; transform: translate(-50%, -50%); border:5px solid black"">","","","","","","","",""
"","2361.574999988079","sequential-stimulus-presentation-old","135","410774","0.0-31.0-1.0","SS1618435646704","trial","","40","500","2861.574999988079","images/stimuli/spore_stims/complex_13_A_a.gif","images/stimuli/spore_stims/complex_18_A_b.gif","self_paced","","11","complex_dissimilar","images/stimuli/spore_stims/complex_18_A_b.gif","","","","",""
"","null","html-keyboard-response","136","411962","0.0-31.0-0.1","SS1618435646704","","","null","","","","","","<p><img src= images/blank.png width =""600"" height = ""600"" style=""position:fixed;top:50%; left:50%; transform: translate(-50%, -50%); border:5px solid black"">","","","","","","","",""
"","60.95999991521239","sequential-stimulus-presentation-old","137","412534","0.0-31.0-1.1","SS1618435646704","trial","","40","500","560.9599999152124","images/stimuli/spore_stims/complex_13_A_a.gif","images/stimuli/spore_stims/complex_18_A_b.gif","self_paced","","11","complex_dissimilar","images/stimuli/spore_stims/complex_18_A_b.gif","","","","",""
"","null","html-keyboard-response","138","413745","0.0-31.0-0.2","SS1618435646704","","","null","","","","","","<p><img src= images/blank.png width =""600"" height = ""600"" style=""position:fixed;top:50%; left:50%; transform: translate(-50%, -50%); border:5px solid black"">","","","","","","","",""
"","254.11499990150332","sequential-stimulus-presentation-old","139","414502","0.0-31.0-1.2","SS1618435646704","trial","","40","500","754.1149999015033","images/stimuli/spore_stims/complex_13_A_a.gif","images/stimuli/spore_stims/complex_18_A_b.gif","self_paced","","11","complex_dissimilar","images/stimuli/spore_stims/complex_13_A_a.gif","","","","",""
"","null","html-keyboard-response","140","415762","0.0-31.0-0.3","SS1618435646704","","","null","","","","","","<p><img src= images/blank.png width =""600"" height = ""600"" style=""position:fixed;top:50%; left:50%; transform: translate(-50%, -50%); border:5px solid black"">","","","","","","","",""
"","479.2949999682605","sequential-stimulus-presentation-old","141","416750","0.0-31.0-1.3","SS1618435646704","trial","","40","500","979.2949999682605","images/stimuli/spore_stims/complex_13_A_a.gif","images/stimuli/spore_stims/complex_18_A_b.gif","self_paced","","11","complex_dissimilar","images/stimuli/spore_stims/complex_18_A_b.gif","","","","",""
"","null","html-keyboard-response","142","418040","0.0-31.0-0.4","SS1618435646704","","","null","","","","","","<p><img src= images/blank.png width =""600"" height = ""600"" style=""position:fixed;top:50%; left:50%; transform: translate(-50%, -50%); border:5px solid black"">","","","","","","","",""
"","189.90000011399388","sequential-stimulus-presentation-old","143","418742","0.0-31.0-1.4","SS1618435646704","trial","","40","500","689.9000001139939","images/stimuli/spore_stims/complex_13_A_a.gif","images/stimuli/spore_stims/complex_18_A_b.gif","self_paced","","11","complex_dissimilar","images/stimuli/spore_stims/complex_13_A_a.gif","","","","",""
"[{""page_index"":0,""viewing_time"":3526.524999877438}]","3526.679999893531","instructions","144","422270","0.0-32.0","SS1618435646704","instructions","","","","","","","","","","","","","","","",""
"","8669.560000067577","survey-likert","145","430942","0.0-33.0","SS1618435646704","similarity_question","","","","","","","","","","","","{""Q0"":0}","[0]","","images/stimuli/spore_stims/complex_14_A_a.gif","images/stimuli/spore_stims/complex_16_A_b.gif"
"","4968.91999989748","survey-likert","146","435918","0.0-34.0","SS1618435646704","similarity_question","","","","","","","","","","","","{""Q0"":0}","[0]","","images/stimuli/spore_stims/complex_10_A_a.gif","images/stimuli/spore_stims/complex_12_A_b.gif"
"","6330.489999847487","survey-likert","147","442254","0.0-35.0","SS1618435646704","similarity_question","","","","","","","","","","","","{""Q0"":4}","[0]","","images/stimuli/spore_stims/simple_11_A_a.gif","images/stimuli/spore_stims/simple_08_A_b.gif"
"","2417.3449999652803","survey-likert","148","444679","0.0-36.0","SS1618435646704","similarity_question","","","","","","","","","","","","{""Q0"":5}","[0]","","images/stimuli/spore_stims/simple_03_A_a.gif","images/stimuli/spore_stims/simple_19_A_b.gif"
"","2087.7149999141693","survey-likert","149","446774","0.0-37.0","SS1618435646704","similarity_question","","","","","","","","","","","","{""Q0"":5}","[0]","","images/stimuli/spore_stims/simple_15_A_b.gif","images/stimuli/spore_stims/simple_14_A_a.gif"
"","5033.51500001736","survey-likert","150","451814","0.0-38.0","SS1618435646704","similarity_question","","","","","","","","","","","","{""Q0"":0}","[0]","","images/stimuli/spore_stims/complex_11_A_a.gif","images/stimuli/spore_stims/complex_07_A_b.gif"
"","3578.5600000526756","survey-likert","151","455398","0.0-39.0","SS1618435646704","similarity_question","","","","","","","","","","","","{""Q0"":0}","[0]","","images/stimuli/spore_stims/complex_11_A_b.gif","images/stimuli/spore_stims/complex_03_A_a.gif"
"","4114.1900001093745","survey-likert","152","459518","0.0-40.0","SS1618435646704","similarity_question","","","","","","","","","","","","{""Q0"":0}","[0]","","images/stimuli/spore_stims/complex_13_A_a.gif","images/stimuli/spore_stims/complex_18_A_b.gif"
"","2168.569999979809","survey-likert","153","461694","0.0-41.0","SS1618435646704","similarity_question","","","","","","","","","","","","{""Q0"":0}","[0]","","images/stimuli/spore_stims/complex_14_A_b.gif","images/stimuli/spore_stims/complex_18_A_a.gif"
"","2970.119999954477","survey-likert","154","464670","0.0-42.0","SS1618435646704","similarity_question","","","","","","","","","","","","{""Q0"":2}","[0]","","images/stimuli/spore_stims/simple_02_A_a.gif","images/stimuli/spore_stims/simple_16_A_b.gif"
"","2434.4800000544637","survey-likert","155","467110","0.0-43.0","SS1618435646704","similarity_question","","","","","","","","","","","","{""Q0"":2}","[0]","","images/stimuli/spore_stims/simple_14_A_b.gif","images/stimuli/spore_stims/simple_07_A_a.gif"
"","2529.7700001392514","survey-likert","156","469646","0.0-44.0","SS1618435646704","similarity_question","","","","","","","","","","","","{""Q0"":2}","[0]","","images/stimuli/spore_stims/simple_01_A_a.gif","images/stimuli/spore_stims/simple_12_A_b.gif"
"[{""page_index"":0,""viewing_time"":3985.670000081882}]","3985.825000097975","instructions","157","473638","0.0-45.0","SS1618435646704","instructions","","","","","","","","","","","","","","","",""
"","2853.774999966845","survey-likert","158","476494","0.0-46.0","SS1618435646704","","","","","","","","","images/stimuli/spore_stims/simple_16_A_b.gif","","","","{""Q0"":1}","[0]","","",""
"","1666.6000001132488","survey-likert","159","478166","0.0-47.0","SS1618435646704","","","","","","","","","images/stimuli/spore_stims/simple_03_A_a.gif","","","","{""Q0"":2}","[0]","","",""
"","3778.0949999578297","survey-likert","160","481951","0.0-48.0","SS1618435646704","","","","","","","","","images/stimuli/spore_stims/complex_10_A_a.gif","","","","{""Q0"":5}","[0]","","",""
"","2296.3549999985844","survey-likert","161","484254","0.0-49.0","SS1618435646704","","","","","","","","","images/stimuli/spore_stims/simple_15_A_b.gif","","","","{""Q0"":1}","[0]","","",""
"","1761.7000001482666","survey-likert","162","486022","0.0-50.0","SS1618435646704","","","","","","","","","images/stimuli/spore_stims/simple_12_A_b.gif","","","","{""Q0"":1}","[0]","","",""
"","2194.365000119433","survey-likert","163","488222","0.0-51.0","SS1618435646704","","","","","","","","","images/stimuli/spore_stims/complex_14_A_b.gif","","","","{""Q0"":5}","[0]","","",""
"","2042.2549999784678","survey-likert","164","490270","0.0-52.0","SS1618435646704","","","","","","","","","images/stimuli/spore_stims/simple_11_A_a.gif","","","","{""Q0"":1}","[0]","","",""
"","2088.9700001571327","survey-likert","165","492367","0.0-53.0","SS1618435646704","","","","","","","","","images/stimuli/spore_stims/complex_13_A_a.gif","","","","{""Q0"":6}","[0]","","",""
"","2009.7199999727309","survey-likert","166","494383","0.0-54.0","SS1618435646704","","","","","","","","","images/stimuli/spore_stims/complex_11_A_b.gif","","","","{""Q0"":6}","[0]","","",""
"","2185.990000143647","survey-likert","167","496575","0.0-55.0","SS1618435646704","","","","","","","","","images/stimuli/spore_stims/complex_14_A_a.gif","","","","{""Q0"":5}","[0]","","",""
"","1961.5400000475347","survey-likert","168","498543","0.0-56.0","SS1618435646704","","","","","","","","","images/stimuli/spore_stims/simple_14_A_b.gif","","","","{""Q0"":1}","[0]","","",""
"","2712.4650001060218","survey-likert","169","501263","0.0-57.0","SS1618435646704","","","","","","","","","images/stimuli/spore_stims/complex_11_A_a.gif","","","","{""Q0"":6}","[0]","","",""
"[{""page_index"":0,""viewing_time"":1609.2600000556558}]","1609.4500001054257","instructions","170","502878","0.0-58.0","SS1618435646704","instructions","","","","","","","","","","","","","","","",""
"","5092.319999821484","demog-age","171","507975","0.0-59.0","SS1618435646704","","","","","","","","","","","","","{""age"":""27""}","","","",""
"","3571.989999851212","demog-ethnic-US","172","511551","0.0-60.0","SS1618435646704","","","","","","","","","","","","","{""ethnicity"":[""Hispanic or Latino""]}","[0]","","",""
"","5657.794999890029","demog-gender-and-education","173","517215","0.0-61.0","SS1618435646704","","","","","","","","","","","","","{""gender"":""Male"",""education"":""Bachelor's Degree""}","[0,1]","","",""
"","4184.225000208244","survey-text","174","521407","0.0-62.0","SS1618435646704","feedback","","","","","","","","","","","","{""Q0"":""no""}","","","",""
"[{""page_index"":0,""viewing_time"":693.5350000858307}]","693.7250001356006","instructions","175","522102","0.0-63.0","SS1618435646704","instructions","","","","","","","","","","","","","","","",""
