"view_history","rt","trial_type","trial_index","time_elapsed","internal_node_id","subject","stimulus_type","trial_stimulus","key_press","minimum_viewing_duration","trial_looking_time","block_deviant","block_background","exposure_type","stimulus","block_number","block_type","stimulus_displayed","responses","question_order","math_correct_answer","stimulus_left","stimulus_right"
"[{""page_index"":0,""viewing_time"":15085.42000001762}]","15085.825000016484","instructions","0","15088","0.0-0.0","SS1618435653305","","","","","","","","","","","","","","","","",""
"[{""page_index"":0,""viewing_time"":16069.260000018403},{""page_index"":1,""viewing_time"":7934.430000022985}]","24004.045000008773","instructions","1","41103","0.0-1.0","SS1618435653305","instructions","","","","","","","","","","","","","","","",""
"","9105.259999982081","sequential-stimulus-presentation-old","2","50713","0.0-2.0","SS1618435653305","","","40","500","9605.259999982081","null","null","self_paced","","","","","","","","",""
"","5521.7849999899045","sequential-stimulus-presentation-old","3","56738","0.0-3.0","SS1618435653305","","","40","500","6021.7849999899045","null","null","self_paced","","","","","","","","",""
"[{""page_index"":0,""viewing_time"":30573.254999995697}]","30573.64499999676","instructions","4","87312","0.0-4.0","SS1618435653305","instructions","","","","","","","","","","","","","","","",""
"","2886.3150000106543","sequential-stimulus-presentation-old","5","95208","0.0-5.0","SS1618435653305","","","40","500","3386.3150000106543","null","null","forced_long","","","","","","","","",""
"","4656.145000015385","sequential-stimulus-presentation-old","6","99920","0.0-6.0","SS1618435653305","","","40","50","4706.145000015385","null","null","forced_long","","","","","","","","",""
"[{""page_index"":0,""viewing_time"":4664.129999990109}]","4664.474999997765","instructions","7","104586","0.0-7.0","SS1618435653305","instructions","","","","","","","","","","","","","","","",""
"[{""page_index"":0,""viewing_time"":12053.255000035278},{""page_index"":1,""viewing_time"":12908.014999993611},{""page_index"":2,""viewing_time"":8046.49999999674},{""page_index"":3,""viewing_time"":4775.154999981169},{""page_index"":4,""viewing_time"":2806.864999991376}]","40590.19000001717","instructions","8","145177","0.0-8.0","SS1618435653305","instructions","","","","","","","","","","","","","","","",""
"","null","html-keyboard-response","9","146365","0.0-9.0-0.0","SS1618435653305","","","null","","","","","","<p><img src= images/blank.png width =""600"" height = ""600"" style=""position:fixed;top:50%; left:50%; transform: translate(-50%, -50%); border:5px solid black"">","","","","","","","",""
"","945.6350000109524","sequential-stimulus-presentation-old","10","152315","0.0-9.0-1.0","SS1618435653305","trial","","40","500","1445.6350000109524","images/stimuli/spore_stims/complex_14_A_a.gif","images/stimuli/spore_stims/complex_08_A_b.gif","forced_long","","0","complex_dissimilar","images/stimuli/spore_stims/complex_08_A_b.gif","","","","",""
"","null","html-keyboard-response","11","153524","0.0-9.0-0.1","SS1618435653305","","","null","","","","","","<p><img src= images/blank.png width =""600"" height = ""600"" style=""position:fixed;top:50%; left:50%; transform: translate(-50%, -50%); border:5px solid black"">","","","","","","","",""
"","157340.04999999888","sequential-stimulus-presentation-old","12","311368","0.0-9.0-1.1","SS1618435653305","trial","","40","500","157840.04999999888","images/stimuli/spore_stims/complex_14_A_a.gif","images/stimuli/spore_stims/complex_08_A_b.gif","forced_long","","0","complex_dissimilar","images/stimuli/spore_stims/complex_08_A_b.gif","","","","",""
"","null","html-keyboard-response","13","312234","0.0-9.0-0.2","SS1618435653305","","","null","","","","","","<p><img src= images/blank.png width =""600"" height = ""600"" style=""position:fixed;top:50%; left:50%; transform: translate(-50%, -50%); border:5px solid black"">","","","","","","","",""
"","30846.904999983963","sequential-stimulus-presentation-old","14","343584","0.0-9.0-1.2","SS1618435653305","trial","","40","500","31346.904999983963","images/stimuli/spore_stims/complex_14_A_a.gif","images/stimuli/spore_stims/complex_08_A_b.gif","forced_long","","0","complex_dissimilar","images/stimuli/spore_stims/complex_08_A_b.gif","","","","",""
"","null","html-keyboard-response","15","344605","0.0-9.0-0.3","SS1618435653305","","","null","","","","","","<p><img src= images/blank.png width =""600"" height = ""600"" style=""position:fixed;top:50%; left:50%; transform: translate(-50%, -50%); border:5px solid black"">","","","","","","","",""
"","15531.300000031479","sequential-stimulus-presentation-old","16","360641","0.0-9.0-1.3","SS1618435653305","trial","","40","500","16031.300000031479","images/stimuli/spore_stims/complex_14_A_a.gif","images/stimuli/spore_stims/complex_08_A_b.gif","forced_long","","0","complex_dissimilar","images/stimuli/spore_stims/complex_08_A_b.gif","","","","",""
"","null","html-keyboard-response","17","361633","0.0-9.0-0.4","SS1618435653305","","","null","","","","","","<p><img src= images/blank.png width =""600"" height = ""600"" style=""position:fixed;top:50%; left:50%; transform: translate(-50%, -50%); border:5px solid black"">","","","","","","","",""
"","5546.954999968875","sequential-stimulus-presentation-old","18","367692","0.0-9.0-1.4","SS1618435653305","trial","","40","500","6046.954999968875","images/stimuli/spore_stims/complex_14_A_a.gif","images/stimuli/spore_stims/complex_08_A_b.gif","forced_long","","0","complex_dissimilar","images/stimuli/spore_stims/complex_14_A_a.gif","","","","",""
"","7626.734999998007","survey-multi-choice","19","375322","0.0-10.0","SS1618435653305","math_question","","","","","","","","","","","","{""Q0"":""4""}","[0]","4","",""
"","null","html-keyboard-response","20","376292","0.0-11.0-0.0","SS1618435653305","","","null","","","","","","<p><img src= images/blank.png width =""600"" height = ""600"" style=""position:fixed;top:50%; left:50%; transform: translate(-50%, -50%); border:5px solid black"">","","","","","","","",""
"","20432.93499998981","sequential-stimulus-presentation-old","21","397236","0.0-11.0-1.0","SS1618435653305","trial","","40","500","20932.93499998981","images/stimuli/spore_stims/simple_05_A_b.gif","images/stimuli/spore_stims/simple_12_A_a.gif","self_paced","","1","simple_dissimilar","images/stimuli/spore_stims/simple_12_A_a.gif","","","","",""
"","null","html-keyboard-response","22","398428","0.0-11.0-0.1","SS1618435653305","","","null","","","","","","<p><img src= images/blank.png width =""600"" height = ""600"" style=""position:fixed;top:50%; left:50%; transform: translate(-50%, -50%); border:5px solid black"">","","","","","","","",""
"","9674.164999974892","sequential-stimulus-presentation-old","23","408612","0.0-11.0-1.1","SS1618435653305","trial","","40","500","10174.164999974892","images/stimuli/spore_stims/simple_05_A_b.gif","images/stimuli/spore_stims/simple_12_A_a.gif","self_paced","","1","simple_dissimilar","images/stimuli/spore_stims/simple_12_A_a.gif","","","","",""
"","null","html-keyboard-response","24","409707","0.0-11.0-0.2","SS1618435653305","","","null","","","","","","<p><img src= images/blank.png width =""600"" height = ""600"" style=""position:fixed;top:50%; left:50%; transform: translate(-50%, -50%); border:5px solid black"">","","","","","","","",""
"","4662.484999978915","sequential-stimulus-presentation-old","25","414879","0.0-11.0-1.2","SS1618435653305","trial","","40","500","5162.484999978915","images/stimuli/spore_stims/simple_05_A_b.gif","images/stimuli/spore_stims/simple_12_A_a.gif","self_paced","","1","simple_dissimilar","images/stimuli/spore_stims/simple_12_A_a.gif","","","","",""
"","null","html-keyboard-response","26","415830","0.0-11.0-0.3","SS1618435653305","","","null","","","","","","<p><img src= images/blank.png width =""600"" height = ""600"" style=""position:fixed;top:50%; left:50%; transform: translate(-50%, -50%); border:5px solid black"">","","","","","","","",""
"","7157.670000044163","sequential-stimulus-presentation-old","27","423492","0.0-11.0-1.3","SS1618435653305","trial","","40","500","7657.670000044163","images/stimuli/spore_stims/simple_05_A_b.gif","images/stimuli/spore_stims/simple_12_A_a.gif","self_paced","","1","simple_dissimilar","images/stimuli/spore_stims/simple_12_A_a.gif","","","","",""
"","null","html-keyboard-response","28","424733","0.0-11.0-0.4","SS1618435653305","","","null","","","","","","<p><img src= images/blank.png width =""600"" height = ""600"" style=""position:fixed;top:50%; left:50%; transform: translate(-50%, -50%); border:5px solid black"">","","","","","","","",""
"","19434.5350000076","sequential-stimulus-presentation-old","29","444672","0.0-11.0-1.4","SS1618435653305","trial","","40","500","19934.5350000076","images/stimuli/spore_stims/simple_05_A_b.gif","images/stimuli/spore_stims/simple_12_A_a.gif","self_paced","","1","simple_dissimilar","images/stimuli/spore_stims/simple_12_A_a.gif","","","","",""
"","5227.164999989327","survey-multi-choice","30","449902","0.0-12.0","SS1618435653305","math_question","","","","","","","","","","","","{""Q0"":""10""}","[0]","10","",""
"","null","html-keyboard-response","31","451025","0.0-13.0-0.0","SS1618435653305","","","null","","","","","","<p><img src= images/blank.png width =""600"" height = ""600"" style=""position:fixed;top:50%; left:50%; transform: translate(-50%, -50%); border:5px solid black"">","","","","","","","",""
"","15013.755000021774","sequential-stimulus-presentation-old","32","466542","0.0-13.0-1.0","SS1618435653305","trial","","40","500","15513.755000021774","images/stimuli/spore_stims/complex_17_A_b.gif","images/stimuli/spore_stims/complex_10_A_a.gif","self_paced","","2","complex_dissimilar","images/stimuli/spore_stims/complex_10_A_a.gif","","","","",""
"","null","html-keyboard-response","33","467663","0.0-13.0-0.1","SS1618435653305","","","null","","","","","","<p><img src= images/blank.png width =""600"" height = ""600"" style=""position:fixed;top:50%; left:50%; transform: translate(-50%, -50%); border:5px solid black"">","","","","","","","",""
"","6052.6950000203215","sequential-stimulus-presentation-old","34","474219","0.0-13.0-1.1","SS1618435653305","trial","","40","500","6552.6950000203215","images/stimuli/spore_stims/complex_17_A_b.gif","images/stimuli/spore_stims/complex_10_A_a.gif","self_paced","","2","complex_dissimilar","images/stimuli/spore_stims/complex_10_A_a.gif","","","","",""
"","null","html-keyboard-response","35","475135","0.0-13.0-0.2","SS1618435653305","","","null","","","","","","<p><img src= images/blank.png width =""600"" height = ""600"" style=""position:fixed;top:50%; left:50%; transform: translate(-50%, -50%); border:5px solid black"">","","","","","","","",""
"","6041.640000010375","sequential-stimulus-presentation-old","36","481687","0.0-13.0-1.2","SS1618435653305","trial","","40","500","6541.640000010375","images/stimuli/spore_stims/complex_17_A_b.gif","images/stimuli/spore_stims/complex_10_A_a.gif","self_paced","","2","complex_dissimilar","images/stimuli/spore_stims/complex_10_A_a.gif","","","","",""
"","null","html-keyboard-response","37","482576","0.0-13.0-0.3","SS1618435653305","","","null","","","","","","<p><img src= images/blank.png width =""600"" height = ""600"" style=""position:fixed;top:50%; left:50%; transform: translate(-50%, -50%); border:5px solid black"">","","","","","","","",""
"","4137.855000037234","sequential-stimulus-presentation-old","38","487218","0.0-13.0-1.3","SS1618435653305","trial","","40","500","4637.855000037234","images/stimuli/spore_stims/complex_17_A_b.gif","images/stimuli/spore_stims/complex_10_A_a.gif","self_paced","","2","complex_dissimilar","images/stimuli/spore_stims/complex_10_A_a.gif","","","","",""
"","null","html-keyboard-response","39","488142","0.0-13.0-0.4","SS1618435653305","","","null","","","","","","<p><img src= images/blank.png width =""600"" height = ""600"" style=""position:fixed;top:50%; left:50%; transform: translate(-50%, -50%); border:5px solid black"">","","","","","","","",""
"","6585.554999997839","sequential-stimulus-presentation-old","40","495239","0.0-13.0-1.4","SS1618435653305","trial","","40","500","7085.554999997839","images/stimuli/spore_stims/complex_17_A_b.gif","images/stimuli/spore_stims/complex_10_A_a.gif","self_paced","","2","complex_dissimilar","images/stimuli/spore_stims/complex_10_A_a.gif","","","","",""
"","5363.904999976512","survey-multi-choice","41","500605","0.0-14.0","SS1618435653305","math_question","","","","","","","","","","","","{""Q0"":""7""}","[0]","7","",""
"","null","html-keyboard-response","42","501922","0.0-15.0-0.0","SS1618435653305","","","null","","","","","","<p><img src= images/blank.png width =""600"" height = ""600"" style=""position:fixed;top:50%; left:50%; transform: translate(-50%, -50%); border:5px solid black"">","","","","","","","",""
"","1136.6150000249036","sequential-stimulus-presentation-old","43","508064","0.0-15.0-1.0","SS1618435653305","trial","","40","500","1636.6150000249036","images/stimuli/spore_stims/complex_19_A_a.gif","images/stimuli/spore_stims/complex_03_A_b.gif","forced_long","","3","complex_dissimilar","images/stimuli/spore_stims/complex_03_A_b.gif","","","","",""
"","null","html-keyboard-response","44","509355","0.0-15.0-0.1","SS1618435653305","","","null","","","","","","<p><img src= images/blank.png width =""600"" height = ""600"" style=""position:fixed;top:50%; left:50%; transform: translate(-50%, -50%); border:5px solid black"">","","","","","","","",""
"","33423.36000001524","sequential-stimulus-presentation-old","45","543289","0.0-15.0-1.1","SS1618435653305","trial","","40","500","33923.36000001524","images/stimuli/spore_stims/complex_19_A_a.gif","images/stimuli/spore_stims/complex_03_A_b.gif","forced_long","","3","complex_dissimilar","images/stimuli/spore_stims/complex_03_A_b.gif","","","","",""
"","null","html-keyboard-response","46","544574","0.0-15.0-0.2","SS1618435653305","","","null","","","","","","<p><img src= images/blank.png width =""600"" height = ""600"" style=""position:fixed;top:50%; left:50%; transform: translate(-50%, -50%); border:5px solid black"">","","","","","","","",""
"","22981.189999962226","sequential-stimulus-presentation-old","47","568064","0.0-15.0-1.2","SS1618435653305","trial","","40","500","23481.189999962226","images/stimuli/spore_stims/complex_19_A_a.gif","images/stimuli/spore_stims/complex_03_A_b.gif","forced_long","","3","complex_dissimilar","images/stimuli/spore_stims/complex_03_A_b.gif","","","","",""
"","null","html-keyboard-response","48","569103","0.0-15.0-0.3","SS1618435653305","","","null","","","","","","<p><img src= images/blank.png width =""600"" height = ""600"" style=""position:fixed;top:50%; left:50%; transform: translate(-50%, -50%); border:5px solid black"">","","","","","","","",""
"","19822.540000022855","sequential-stimulus-presentation-old","49","589430","0.0-15.0-1.3","SS1618435653305","trial","","40","500","20322.540000022855","images/stimuli/spore_stims/complex_19_A_a.gif","images/stimuli/spore_stims/complex_03_A_b.gif","forced_long","","3","complex_dissimilar","images/stimuli/spore_stims/complex_03_A_b.gif","","","","",""
"","null","html-keyboard-response","50","590682","0.0-15.0-0.4","SS1618435653305","","","null","","","","","","<p><img src= images/blank.png width =""600"" height = ""600"" style=""position:fixed;top:50%; left:50%; transform: translate(-50%, -50%); border:5px solid black"">","","","","","","","",""
"","27298.620000015944","sequential-stimulus-presentation-old","51","618485","0.0-15.0-1.4","SS1618435653305","trial","","40","500","27798.620000015944","images/stimuli/spore_stims/complex_19_A_a.gif","images/stimuli/spore_stims/complex_03_A_b.gif","forced_long","","3","complex_dissimilar","images/stimuli/spore_stims/complex_19_A_a.gif","","","","",""
"","null","html-keyboard-response","52","619513","0.0-15.0-0.5","SS1618435653305","","","null","","","","","","<p><img src= images/blank.png width =""600"" height = ""600"" style=""position:fixed;top:50%; left:50%; transform: translate(-50%, -50%); border:5px solid black"">","","","","","","","",""
"","30332.43999996921","sequential-stimulus-presentation-old","53","650349","0.0-15.0-1.5","SS1618435653305","trial","","40","500","30832.43999996921","images/stimuli/spore_stims/complex_19_A_a.gif","images/stimuli/spore_stims/complex_03_A_b.gif","forced_long","","3","complex_dissimilar","images/stimuli/spore_stims/complex_19_A_a.gif","","","","",""
"","4570.010000024922","survey-multi-choice","54","654922","0.0-16.0","SS1618435653305","math_question","","","","","","","","","","","","{""Q0"":""5""}","[0]","5","",""
"","null","html-keyboard-response","55","655896","0.0-17.0-0.0","SS1618435653305","","","null","","","","","","<p><img src= images/blank.png width =""600"" height = ""600"" style=""position:fixed;top:50%; left:50%; transform: translate(-50%, -50%); border:5px solid black"">","","","","","","","",""
"","1893.5899999924004","sequential-stimulus-presentation-old","56","657850","0.0-17.0-1.0","SS1618435653305","trial","","40","500","2393.5899999924004","images/stimuli/spore_stims/complex_18_A_a.gif","images/stimuli/spore_stims/complex_07_A_b.gif","forced_short","","4","complex_dissimilar","images/stimuli/spore_stims/complex_07_A_b.gif","","","","",""
"","null","html-keyboard-response","57","658878","0.0-17.0-0.1","SS1618435653305","","","null","","","","","","<p><img src= images/blank.png width =""600"" height = ""600"" style=""position:fixed;top:50%; left:50%; transform: translate(-50%, -50%); border:5px solid black"">","","","","","","","",""
"","12966.984999948181","sequential-stimulus-presentation-old","58","672359","0.0-17.0-1.1","SS1618435653305","trial","","40","500","13466.984999948181","images/stimuli/spore_stims/complex_18_A_a.gif","images/stimuli/spore_stims/complex_07_A_b.gif","forced_short","","4","complex_dissimilar","images/stimuli/spore_stims/complex_07_A_b.gif","","","","",""
"","null","html-keyboard-response","59","673583","0.0-17.0-0.2","SS1618435653305","","","null","","","","","","<p><img src= images/blank.png width =""600"" height = ""600"" style=""position:fixed;top:50%; left:50%; transform: translate(-50%, -50%); border:5px solid black"">","","","","","","","",""
"","13953.770000021905","sequential-stimulus-presentation-old","60","688049","0.0-17.0-1.2","SS1618435653305","trial","","40","500","14453.770000021905","images/stimuli/spore_stims/complex_18_A_a.gif","images/stimuli/spore_stims/complex_07_A_b.gif","forced_short","","4","complex_dissimilar","images/stimuli/spore_stims/complex_07_A_b.gif","","","","",""
"","null","html-keyboard-response","61","688991","0.0-17.0-0.3","SS1618435653305","","","null","","","","","","<p><img src= images/blank.png width =""600"" height = ""600"" style=""position:fixed;top:50%; left:50%; transform: translate(-50%, -50%); border:5px solid black"">","","","","","","","",""
"","10224.744999955874","sequential-stimulus-presentation-old","62","699724","0.0-17.0-1.3","SS1618435653305","trial","","40","500","10724.744999955874","images/stimuli/spore_stims/complex_18_A_a.gif","images/stimuli/spore_stims/complex_07_A_b.gif","forced_short","","4","complex_dissimilar","images/stimuli/spore_stims/complex_07_A_b.gif","","","","",""
"","null","html-keyboard-response","63","700562","0.0-17.0-0.4","SS1618435653305","","","null","","","","","","<p><img src= images/blank.png width =""600"" height = ""600"" style=""position:fixed;top:50%; left:50%; transform: translate(-50%, -50%); border:5px solid black"">","","","","","","","",""
"","7874.230000015814","sequential-stimulus-presentation-old","64","708949","0.0-17.0-1.4","SS1618435653305","trial","","40","500","8374.230000015814","images/stimuli/spore_stims/complex_18_A_a.gif","images/stimuli/spore_stims/complex_07_A_b.gif","forced_short","","4","complex_dissimilar","images/stimuli/spore_stims/complex_07_A_b.gif","","","","",""
"","4142.929999972694","survey-multi-choice","65","713095","0.0-18.0","SS1618435653305","math_question","","","","","","","","","","","","{""Q0"":""9""}","[0]","9","",""
"","null","html-keyboard-response","66","714114","0.0-19.0-0.0","SS1618435653305","","","null","","","","","","<p><img src= images/blank.png width =""600"" height = ""600"" style=""position:fixed;top:50%; left:50%; transform: translate(-50%, -50%); border:5px solid black"">","","","","","","","",""
"","1463.7799999909475","sequential-stimulus-presentation-old","67","715640","0.0-19.0-1.0","SS1618435653305","trial","","40","500","1963.7799999909475","images/stimuli/spore_stims/complex_11_A_a.gif","images/stimuli/spore_stims/complex_16_A_b.gif","forced_short","","5","complex_dissimilar","images/stimuli/spore_stims/complex_16_A_b.gif","","","","",""
"","null","html-keyboard-response","68","716897","0.0-19.0-0.1","SS1618435653305","","","null","","","","","","<p><img src= images/blank.png width =""600"" height = ""600"" style=""position:fixed;top:50%; left:50%; transform: translate(-50%, -50%); border:5px solid black"">","","","","","","","",""
"","16308.13499999931","sequential-stimulus-presentation-old","69","733710","0.0-19.0-1.1","SS1618435653305","trial","","40","500","16808.13499999931","images/stimuli/spore_stims/complex_11_A_a.gif","images/stimuli/spore_stims/complex_16_A_b.gif","forced_short","","5","complex_dissimilar","images/stimuli/spore_stims/complex_16_A_b.gif","","","","",""
"","null","html-keyboard-response","70","734775","0.0-19.0-0.2","SS1618435653305","","","null","","","","","","<p><img src= images/blank.png width =""600"" height = ""600"" style=""position:fixed;top:50%; left:50%; transform: translate(-50%, -50%); border:5px solid black"">","","","","","","","",""
"","14655.360000033397","sequential-stimulus-presentation-old","71","749943","0.0-19.0-1.2","SS1618435653305","trial","","40","500","15155.360000033397","images/stimuli/spore_stims/complex_11_A_a.gif","images/stimuli/spore_stims/complex_16_A_b.gif","forced_short","","5","complex_dissimilar","images/stimuli/spore_stims/complex_16_A_b.gif","","","","",""
"","null","html-keyboard-response","72","750938","0.0-19.0-0.3","SS1618435653305","","","null","","","","","","<p><img src= images/blank.png width =""600"" height = ""600"" style=""position:fixed;top:50%; left:50%; transform: translate(-50%, -50%); border:5px solid black"">","","","","","","","",""
"","12603.905000025406","sequential-stimulus-presentation-old","73","764047","0.0-19.0-1.3","SS1618435653305","trial","","40","500","13103.905000025406","images/stimuli/spore_stims/complex_11_A_a.gif","images/stimuli/spore_stims/complex_16_A_b.gif","forced_short","","5","complex_dissimilar","images/stimuli/spore_stims/complex_16_A_b.gif","","","","",""
"","5823.170000046957","survey-multi-choice","74","769874","0.0-20.0","SS1618435653305","math_question","","","","","","","","","","","","{""Q0"":""15""}","[0]","15","",""
"","null","html-keyboard-response","75","770968","0.0-21.0-0.0","SS1618435653305","","","null","","","","","","<p><img src= images/blank.png width =""600"" height = ""600"" style=""position:fixed;top:50%; left:50%; transform: translate(-50%, -50%); border:5px solid black"">","","","","","","","",""
"","1755.5500000016764","sequential-stimulus-presentation-old","76","772785","0.0-21.0-1.0","SS1618435653305","trial","","40","500","2255.5500000016764","images/stimuli/spore_stims/simple_01_A_a.gif","images/stimuli/spore_stims/simple_12_A_b.gif","forced_short","","6","simple_dissimilar","images/stimuli/spore_stims/simple_12_A_b.gif","","","","",""
"","null","html-keyboard-response","77","774063","0.0-21.0-0.1","SS1618435653305","","","null","","","","","","<p><img src= images/blank.png width =""600"" height = ""600"" style=""position:fixed;top:50%; left:50%; transform: translate(-50%, -50%); border:5px solid black"">","","","","","","","",""
"","6059.565000003204","sequential-stimulus-presentation-old","78","780627","0.0-21.0-1.1","SS1618435653305","trial","","40","500","6559.565000003204","images/stimuli/spore_stims/simple_01_A_a.gif","images/stimuli/spore_stims/simple_12_A_b.gif","forced_short","","6","simple_dissimilar","images/stimuli/spore_stims/simple_01_A_a.gif","","","","",""
"","null","html-keyboard-response","79","781761","0.0-21.0-0.2","SS1618435653305","","","null","","","","","","<p><img src= images/blank.png width =""600"" height = ""600"" style=""position:fixed;top:50%; left:50%; transform: translate(-50%, -50%); border:5px solid black"">","","","","","","","",""
"","5490.325000020675","sequential-stimulus-presentation-old","80","787756","0.0-21.0-1.2","SS1618435653305","trial","","40","500","5990.325000020675","images/stimuli/spore_stims/simple_01_A_a.gif","images/stimuli/spore_stims/simple_12_A_b.gif","forced_short","","6","simple_dissimilar","images/stimuli/spore_stims/simple_12_A_b.gif","","","","",""
"","null","html-keyboard-response","81","788842","0.0-21.0-0.3","SS1618435653305","","","null","","","","","","<p><img src= images/blank.png width =""600"" height = ""600"" style=""position:fixed;top:50%; left:50%; transform: translate(-50%, -50%); border:5px solid black"">","","","","","","","",""
"","9752.604999986943","sequential-stimulus-presentation-old","82","799105","0.0-21.0-1.3","SS1618435653305","trial","","40","500","10252.604999986943","images/stimuli/spore_stims/simple_01_A_a.gif","images/stimuli/spore_stims/simple_12_A_b.gif","forced_short","","6","simple_dissimilar","images/stimuli/spore_stims/simple_12_A_b.gif","","","","",""
"","null","html-keyboard-response","83","800342","0.0-21.0-0.4","SS1618435653305","","","null","","","","","","<p><img src= images/blank.png width =""600"" height = ""600"" style=""position:fixed;top:50%; left:50%; transform: translate(-50%, -50%); border:5px solid black"">","","","","","","","",""
"","7683.385000040289","sequential-stimulus-presentation-old","84","808529","0.0-21.0-1.4","SS1618435653305","trial","","40","500","8183.385000040289","images/stimuli/spore_stims/simple_01_A_a.gif","images/stimuli/spore_stims/simple_12_A_b.gif","forced_short","","6","simple_dissimilar","images/stimuli/spore_stims/simple_01_A_a.gif","","","","",""
"","5412.805000029039","survey-multi-choice","85","813945","0.0-22.0","SS1618435653305","math_question","","","","","","","","","","","","{""Q0"":""13""}","[0]","13","",""
"","null","html-keyboard-response","86","814821","0.0-23.0-0.0","SS1618435653305","","","null","","","","","","<p><img src= images/blank.png width =""600"" height = ""600"" style=""position:fixed;top:50%; left:50%; transform: translate(-50%, -50%); border:5px solid black"">","","","","","","","",""
"","9990.43000000529","sequential-stimulus-presentation-old","87","825315","0.0-23.0-1.0","SS1618435653305","trial","","40","500","10490.43000000529","images/stimuli/spore_stims/simple_20_A_b.gif","images/stimuli/spore_stims/simple_11_A_a.gif","self_paced","","7","simple_dissimilar","images/stimuli/spore_stims/simple_11_A_a.gif","","","","",""
"","null","html-keyboard-response","88","826392","0.0-23.0-0.1","SS1618435653305","","","null","","","","","","<p><img src= images/blank.png width =""600"" height = ""600"" style=""position:fixed;top:50%; left:50%; transform: translate(-50%, -50%); border:5px solid black"">","","","","","","","",""
"","8050.8150000241585","sequential-stimulus-presentation-old","89","834952","0.0-23.0-1.1","SS1618435653305","trial","","40","500","8550.815000024159","images/stimuli/spore_stims/simple_20_A_b.gif","images/stimuli/spore_stims/simple_11_A_a.gif","self_paced","","7","simple_dissimilar","images/stimuli/spore_stims/simple_11_A_a.gif","","","","",""
"","null","html-keyboard-response","90","836101","0.0-23.0-0.2","SS1618435653305","","","null","","","","","","<p><img src= images/blank.png width =""600"" height = ""600"" style=""position:fixed;top:50%; left:50%; transform: translate(-50%, -50%); border:5px solid black"">","","","","","","","",""
"","6727.619999961462","sequential-stimulus-presentation-old","91","843334","0.0-23.0-1.2","SS1618435653305","trial","","40","500","7227.619999961462","images/stimuli/spore_stims/simple_20_A_b.gif","images/stimuli/spore_stims/simple_11_A_a.gif","self_paced","","7","simple_dissimilar","images/stimuli/spore_stims/simple_11_A_a.gif","","","","",""
"","null","html-keyboard-response","92","844287","0.0-23.0-0.3","SS1618435653305","","","null","","","","","","<p><img src= images/blank.png width =""600"" height = ""600"" style=""position:fixed;top:50%; left:50%; transform: translate(-50%, -50%); border:5px solid black"">","","","","","","","",""
"","7652.100000006612","sequential-stimulus-presentation-old","93","852450","0.0-23.0-1.3","SS1618435653305","trial","","40","500","8152.100000006612","images/stimuli/spore_stims/simple_20_A_b.gif","images/stimuli/spore_stims/simple_11_A_a.gif","self_paced","","7","simple_dissimilar","images/stimuli/spore_stims/simple_11_A_a.gif","","","","",""
"","null","html-keyboard-response","94","853425","0.0-23.0-0.4","SS1618435653305","","","null","","","","","","<p><img src= images/blank.png width =""600"" height = ""600"" style=""position:fixed;top:50%; left:50%; transform: translate(-50%, -50%); border:5px solid black"">","","","","","","","",""
"","9811.244999989867","sequential-stimulus-presentation-old","95","863740","0.0-23.0-1.4","SS1618435653305","trial","","40","500","10311.244999989867","images/stimuli/spore_stims/simple_20_A_b.gif","images/stimuli/spore_stims/simple_11_A_a.gif","self_paced","","7","simple_dissimilar","images/stimuli/spore_stims/simple_20_A_b.gif","","","","",""
"","null","html-keyboard-response","96","864679","0.0-23.0-0.5","SS1618435653305","","","null","","","","","","<p><img src= images/blank.png width =""600"" height = ""600"" style=""position:fixed;top:50%; left:50%; transform: translate(-50%, -50%); border:5px solid black"">","","","","","","","",""
"","6814.635000017006","sequential-stimulus-presentation-old","97","872004","0.0-23.0-1.5","SS1618435653305","trial","","40","500","7314.635000017006","images/stimuli/spore_stims/simple_20_A_b.gif","images/stimuli/spore_stims/simple_11_A_a.gif","self_paced","","7","simple_dissimilar","images/stimuli/spore_stims/simple_11_A_a.gif","","","","",""
"","4049.094999965746","survey-multi-choice","98","876056","0.0-24.0","SS1618435653305","math_question","","","","","","","","","","","","{""Q0"":""10""}","[0]","10","",""
"","null","html-keyboard-response","99","877081","0.0-25.0-0.0","SS1618435653305","","","null","","","","","","<p><img src= images/blank.png width =""600"" height = ""600"" style=""position:fixed;top:50%; left:50%; transform: translate(-50%, -50%); border:5px solid black"">","","","","","","","",""
"","721.9100000220351","sequential-stimulus-presentation-old","100","882807","0.0-25.0-1.0","SS1618435653305","trial","","40","500","1221.910000022035","images/stimuli/spore_stims/simple_17_A_b.gif","images/stimuli/spore_stims/simple_09_A_a.gif","forced_long","","8","simple_dissimilar","images/stimuli/spore_stims/simple_09_A_a.gif","","","","",""
"","null","html-keyboard-response","101","884070","0.0-25.0-0.1","SS1618435653305","","","null","","","","","","<p><img src= images/blank.png width =""600"" height = ""600"" style=""position:fixed;top:50%; left:50%; transform: translate(-50%, -50%); border:5px solid black"">","","","","","","","",""
"","26404.335000028368","sequential-stimulus-presentation-old","102","910980","0.0-25.0-1.1","SS1618435653305","trial","","40","500","26904.335000028368","images/stimuli/spore_stims/simple_17_A_b.gif","images/stimuli/spore_stims/simple_09_A_a.gif","forced_long","","8","simple_dissimilar","images/stimuli/spore_stims/simple_09_A_a.gif","","","","",""
"","null","html-keyboard-response","103","911847","0.0-25.0-0.2","SS1618435653305","","","null","","","","","","<p><img src= images/blank.png width =""600"" height = ""600"" style=""position:fixed;top:50%; left:50%; transform: translate(-50%, -50%); border:5px solid black"">","","","","","","","",""
"","17643.97499995539","sequential-stimulus-presentation-old","104","930006","0.0-25.0-1.2","SS1618435653305","trial","","40","500","18143.97499995539","images/stimuli/spore_stims/simple_17_A_b.gif","images/stimuli/spore_stims/simple_09_A_a.gif","forced_long","","8","simple_dissimilar","images/stimuli/spore_stims/simple_09_A_a.gif","","","","",""
"","null","html-keyboard-response","105","931048","0.0-25.0-0.3","SS1618435653305","","","null","","","","","","<p><img src= images/blank.png width =""600"" height = ""600"" style=""position:fixed;top:50%; left:50%; transform: translate(-50%, -50%); border:5px solid black"">","","","","","","","",""
"","14245.470000023488","sequential-stimulus-presentation-old","106","945798","0.0-25.0-1.3","SS1618435653305","trial","","40","500","14745.470000023488","images/stimuli/spore_stims/simple_17_A_b.gif","images/stimuli/spore_stims/simple_09_A_a.gif","forced_long","","8","simple_dissimilar","images/stimuli/spore_stims/simple_09_A_a.gif","","","","",""
"","null","html-keyboard-response","107","946722","0.0-25.0-0.4","SS1618435653305","","","null","","","","","","<p><img src= images/blank.png width =""600"" height = ""600"" style=""position:fixed;top:50%; left:50%; transform: translate(-50%, -50%); border:5px solid black"">","","","","","","","",""
"","5318.310000002384","sequential-stimulus-presentation-old","108","952545","0.0-25.0-1.4","SS1618435653305","trial","","40","500","5818.310000002384","images/stimuli/spore_stims/simple_17_A_b.gif","images/stimuli/spore_stims/simple_09_A_a.gif","forced_long","","8","simple_dissimilar","images/stimuli/spore_stims/simple_09_A_a.gif","","","","",""
"","null","html-keyboard-response","109","953405","0.0-25.0-0.5","SS1618435653305","","","null","","","","","","<p><img src= images/blank.png width =""600"" height = ""600"" style=""position:fixed;top:50%; left:50%; transform: translate(-50%, -50%); border:5px solid black"">","","","","","","","",""
"","14303.034999989904","sequential-stimulus-presentation-old","110","968213","0.0-25.0-1.5","SS1618435653305","trial","","40","500","14803.034999989904","images/stimuli/spore_stims/simple_17_A_b.gif","images/stimuli/spore_stims/simple_09_A_a.gif","forced_long","","8","simple_dissimilar","images/stimuli/spore_stims/simple_17_A_b.gif","","","","",""
"","4401.990000042133","survey-multi-choice","111","972619","0.0-26.0","SS1618435653305","math_question","","","","","","","","","","","","{""Q0"":""9""}","[0]","9","",""
"","null","html-keyboard-response","112","973533","0.0-27.0-0.0","SS1618435653305","","","null","","","","","","<p><img src= images/blank.png width =""600"" height = ""600"" style=""position:fixed;top:50%; left:50%; transform: translate(-50%, -50%); border:5px solid black"">","","","","","","","",""
"","920.5500000389293","sequential-stimulus-presentation-old","113","974508","0.0-27.0-1.0","SS1618435653305","trial","","40","500","1420.5500000389293","images/stimuli/spore_stims/simple_03_A_a.gif","images/stimuli/spore_stims/simple_07_A_b.gif","forced_short","","9","simple_dissimilar","images/stimuli/spore_stims/simple_07_A_b.gif","","","","",""
"","null","html-keyboard-response","114","975807","0.0-27.0-0.1","SS1618435653305","","","null","","","","","","<p><img src= images/blank.png width =""600"" height = ""600"" style=""position:fixed;top:50%; left:50%; transform: translate(-50%, -50%); border:5px solid black"">","","","","","","","",""
"","18500.089999986812","sequential-stimulus-presentation-old","115","994816","0.0-27.0-1.1","SS1618435653305","trial","","40","500","19000.089999986812","images/stimuli/spore_stims/simple_03_A_a.gif","images/stimuli/spore_stims/simple_07_A_b.gif","forced_short","","9","simple_dissimilar","images/stimuli/spore_stims/simple_07_A_b.gif","","","","",""
"","null","html-keyboard-response","116","996109","0.0-27.0-0.2","SS1618435653305","","","null","","","","","","<p><img src= images/blank.png width =""600"" height = ""600"" style=""position:fixed;top:50%; left:50%; transform: translate(-50%, -50%); border:5px solid black"">","","","","","","","",""
"","6102.015000011306","sequential-stimulus-presentation-old","117","1002719","0.0-27.0-1.2","SS1618435653305","trial","","40","500","6602.015000011306","images/stimuli/spore_stims/simple_03_A_a.gif","images/stimuli/spore_stims/simple_07_A_b.gif","forced_short","","9","simple_dissimilar","images/stimuli/spore_stims/simple_07_A_b.gif","","","","",""
"","null","html-keyboard-response","118","1003674","0.0-27.0-0.3","SS1618435653305","","","null","","","","","","<p><img src= images/blank.png width =""600"" height = ""600"" style=""position:fixed;top:50%; left:50%; transform: translate(-50%, -50%); border:5px solid black"">","","","","","","","",""
"","20198.239999997895","sequential-stimulus-presentation-old","119","1024377","0.0-27.0-1.3","SS1618435653305","trial","","40","500","20698.239999997895","images/stimuli/spore_stims/simple_03_A_a.gif","images/stimuli/spore_stims/simple_07_A_b.gif","forced_short","","9","simple_dissimilar","images/stimuli/spore_stims/simple_07_A_b.gif","","","","",""
"","null","html-keyboard-response","120","1025664","0.0-27.0-0.4","SS1618435653305","","","null","","","","","","<p><img src= images/blank.png width =""600"" height = ""600"" style=""position:fixed;top:50%; left:50%; transform: translate(-50%, -50%); border:5px solid black"">","","","","","","","",""
"","15587.709999992512","sequential-stimulus-presentation-old","121","1041756","0.0-27.0-1.4","SS1618435653305","trial","","40","500","16087.709999992512","images/stimuli/spore_stims/simple_03_A_a.gif","images/stimuli/spore_stims/simple_07_A_b.gif","forced_short","","9","simple_dissimilar","images/stimuli/spore_stims/simple_07_A_b.gif","","","","",""
"","null","html-keyboard-response","122","1042725","0.0-27.0-0.5","SS1618435653305","","","null","","","","","","<p><img src= images/blank.png width =""600"" height = ""600"" style=""position:fixed;top:50%; left:50%; transform: translate(-50%, -50%); border:5px solid black"">","","","","","","","",""
"","9476.32999997586","sequential-stimulus-presentation-old","123","1052706","0.0-27.0-1.5","SS1618435653305","trial","","40","500","9976.32999997586","images/stimuli/spore_stims/simple_03_A_a.gif","images/stimuli/spore_stims/simple_07_A_b.gif","forced_short","","9","simple_dissimilar","images/stimuli/spore_stims/simple_07_A_b.gif","","","","",""
"","3805.960000026971","survey-multi-choice","124","1056516","0.0-28.0","SS1618435653305","math_question","","","","","","","","","","","","{""Q0"":""9""}","[0]","9","",""
"","null","html-keyboard-response","125","1057472","0.0-29.0-0.0","SS1618435653305","","","null","","","","","","<p><img src= images/blank.png width =""600"" height = ""600"" style=""position:fixed;top:50%; left:50%; transform: translate(-50%, -50%); border:5px solid black"">","","","","","","","",""
"","975.5650000297464","sequential-stimulus-presentation-old","126","1063452","0.0-29.0-1.0","SS1618435653305","trial","","40","500","1475.5650000297464","images/stimuli/spore_stims/simple_16_A_b.gif","images/stimuli/spore_stims/simple_18_A_a.gif","forced_long","","10","simple_dissimilar","images/stimuli/spore_stims/simple_18_A_a.gif","","","","",""
"","null","html-keyboard-response","127","1064530","0.0-29.0-0.1","SS1618435653305","","","null","","","","","","<p><img src= images/blank.png width =""600"" height = ""600"" style=""position:fixed;top:50%; left:50%; transform: translate(-50%, -50%); border:5px solid black"">","","","","","","","",""
"","28214.44499999052","sequential-stimulus-presentation-old","128","1093251","0.0-29.0-1.1","SS1618435653305","trial","","40","500","28714.44499999052","images/stimuli/spore_stims/simple_16_A_b.gif","images/stimuli/spore_stims/simple_18_A_a.gif","forced_long","","10","simple_dissimilar","images/stimuli/spore_stims/simple_16_A_b.gif","","","","",""
"","null","html-keyboard-response","129","1094421","0.0-29.0-0.2","SS1618435653305","","","null","","","","","","<p><img src= images/blank.png width =""600"" height = ""600"" style=""position:fixed;top:50%; left:50%; transform: translate(-50%, -50%); border:5px solid black"">","","","","","","","",""
"","18365.82999996608","sequential-stimulus-presentation-old","130","1113292","0.0-29.0-1.2","SS1618435653305","trial","","40","500","18865.82999996608","images/stimuli/spore_stims/simple_16_A_b.gif","images/stimuli/spore_stims/simple_18_A_a.gif","forced_long","","10","simple_dissimilar","images/stimuli/spore_stims/simple_16_A_b.gif","","","","",""
"","null","html-keyboard-response","131","1114159","0.0-29.0-0.3","SS1618435653305","","","null","","","","","","<p><img src= images/blank.png width =""600"" height = ""600"" style=""position:fixed;top:50%; left:50%; transform: translate(-50%, -50%); border:5px solid black"">","","","","","","","",""
"","23832.9650000087","sequential-stimulus-presentation-old","132","1138500","0.0-29.0-1.3","SS1618435653305","trial","","40","500","24332.9650000087","images/stimuli/spore_stims/simple_16_A_b.gif","images/stimuli/spore_stims/simple_18_A_a.gif","forced_long","","10","simple_dissimilar","images/stimuli/spore_stims/simple_18_A_a.gif","","","","",""
"","5203.604999987874","survey-multi-choice","133","1143707","0.0-30.0","SS1618435653305","math_question","","","","","","","","","","","","{""Q0"":""10""}","[0]","10","",""
"","null","html-keyboard-response","134","1144974","0.0-31.0-0.0","SS1618435653305","","","null","","","","","","<p><img src= images/blank.png width =""600"" height = ""600"" style=""position:fixed;top:50%; left:50%; transform: translate(-50%, -50%); border:5px solid black"">","","","","","","","",""
"","15357.260000018869","sequential-stimulus-presentation-old","135","1160836","0.0-31.0-1.0","SS1618435653305","trial","","40","500","15857.260000018869","images/stimuli/spore_stims/complex_19_A_b.gif","images/stimuli/spore_stims/complex_09_A_a.gif","self_paced","","11","complex_dissimilar","images/stimuli/spore_stims/complex_09_A_a.gif","","","","",""
"","null","html-keyboard-response","136","1162087","0.0-31.0-0.1","SS1618435653305","","","null","","","","","","<p><img src= images/blank.png width =""600"" height = ""600"" style=""position:fixed;top:50%; left:50%; transform: translate(-50%, -50%); border:5px solid black"">","","","","","","","",""
"","23373.00000002142","sequential-stimulus-presentation-old","137","1185965","0.0-31.0-1.1","SS1618435653305","trial","","40","500","23873.00000002142","images/stimuli/spore_stims/complex_19_A_b.gif","images/stimuli/spore_stims/complex_09_A_a.gif","self_paced","","11","complex_dissimilar","images/stimuli/spore_stims/complex_09_A_a.gif","","","","",""
"","null","html-keyboard-response","138","1187165","0.0-31.0-0.2","SS1618435653305","","","null","","","","","","<p><img src= images/blank.png width =""600"" height = ""600"" style=""position:fixed;top:50%; left:50%; transform: translate(-50%, -50%); border:5px solid black"">","","","","","","","",""
"","20504.720000026282","sequential-stimulus-presentation-old","139","1208176","0.0-31.0-1.2","SS1618435653305","trial","","40","500","21004.720000026282","images/stimuli/spore_stims/complex_19_A_b.gif","images/stimuli/spore_stims/complex_09_A_a.gif","self_paced","","11","complex_dissimilar","images/stimuli/spore_stims/complex_09_A_a.gif","","","","",""
"","null","html-keyboard-response","140","1208991","0.0-31.0-0.3","SS1618435653305","","","null","","","","","","<p><img src= images/blank.png width =""600"" height = ""600"" style=""position:fixed;top:50%; left:50%; transform: translate(-50%, -50%); border:5px solid black"">","","","","","","","",""
"","17942.3400000087","sequential-stimulus-presentation-old","141","1227439","0.0-31.0-1.3","SS1618435653305","trial","","40","500","18442.3400000087","images/stimuli/spore_stims/complex_19_A_b.gif","images/stimuli/spore_stims/complex_09_A_a.gif","self_paced","","11","complex_dissimilar","images/stimuli/spore_stims/complex_09_A_a.gif","","","","",""
"","null","html-keyboard-response","142","1228266","0.0-31.0-0.4","SS1618435653305","","","null","","","","","","<p><img src= images/blank.png width =""600"" height = ""600"" style=""position:fixed;top:50%; left:50%; transform: translate(-50%, -50%); border:5px solid black"">","","","","","","","",""
"","7953.31500004977","sequential-stimulus-presentation-old","143","1236733","0.0-31.0-1.4","SS1618435653305","trial","","40","500","8453.31500004977","images/stimuli/spore_stims/complex_19_A_b.gif","images/stimuli/spore_stims/complex_09_A_a.gif","self_paced","","11","complex_dissimilar","images/stimuli/spore_stims/complex_09_A_a.gif","","","","",""
"","null","html-keyboard-response","144","1237894","0.0-31.0-0.5","SS1618435653305","","","null","","","","","","<p><img src= images/blank.png width =""600"" height = ""600"" style=""position:fixed;top:50%; left:50%; transform: translate(-50%, -50%); border:5px solid black"">","","","","","","","",""
"","10455.575000029057","sequential-stimulus-presentation-old","145","1248857","0.0-31.0-1.5","SS1618435653305","trial","","40","500","10955.575000029057","images/stimuli/spore_stims/complex_19_A_b.gif","images/stimuli/spore_stims/complex_09_A_a.gif","self_paced","","11","complex_dissimilar","images/stimuli/spore_stims/complex_09_A_a.gif","","","","",""
"[{""page_index"":0,""viewing_time"":7123.770000005607}]","7124.135000049137","instructions","146","1255984","0.0-32.0","SS1618435653305","instructions","","","","","","","","","","","","","","","",""
"","12813.164999999572","survey-likert","147","1268803","0.0-33.0","SS1618435653305","similarity_question","","","","","","","","","","","","{""Q0"":0}","[0]","","images/stimuli/spore_stims/complex_10_A_a.gif","images/stimuli/spore_stims/complex_17_A_b.gif"
"","19642.004999972414","survey-likert","148","1288451","0.0-34.0","SS1618435653305","similarity_question","","","","","","","","","","","","{""Q0"":1}","[0]","","images/stimuli/spore_stims/complex_11_A_a.gif","images/stimuli/spore_stims/complex_16_A_b.gif"
"","10406.35000000475","survey-likert","149","1298865","0.0-35.0","SS1618435653305","similarity_question","","","","","","","","","","","","{""Q0"":3}","[0]","","images/stimuli/spore_stims/simple_16_A_b.gif","images/stimuli/spore_stims/simple_18_A_a.gif"
"","8729.010000010021","survey-likert","150","1307600","0.0-36.0","SS1618435653305","similarity_question","","","","","","","","","","","","{""Q0"":0}","[0]","","images/stimuli/spore_stims/complex_09_A_a.gif","images/stimuli/spore_stims/complex_19_A_b.gif"
"","5082.550000050105","survey-likert","151","1312689","0.0-37.0","SS1618435653305","similarity_question","","","","","","","","","","","","{""Q0"":4}","[0]","","images/stimuli/spore_stims/simple_05_A_b.gif","images/stimuli/spore_stims/simple_12_A_a.gif"
"","7266.670000040904","survey-likert","152","1319961","0.0-38.0","SS1618435653305","similarity_question","","","","","","","","","","","","{""Q0"":3}","[0]","","images/stimuli/spore_stims/simple_07_A_b.gif","images/stimuli/spore_stims/simple_03_A_a.gif"
"","15149.799999955576","survey-likert","153","1335117","0.0-39.0","SS1618435653305","similarity_question","","","","","","","","","","","","{""Q0"":2}","[0]","","images/stimuli/spore_stims/complex_08_A_b.gif","images/stimuli/spore_stims/complex_14_A_a.gif"
"","4741.700000013225","survey-likert","154","1339865","0.0-40.0","SS1618435653305","similarity_question","","","","","","","","","","","","{""Q0"":0}","[0]","","images/stimuli/spore_stims/complex_07_A_b.gif","images/stimuli/spore_stims/complex_18_A_a.gif"
"","5981.8300000042655","survey-likert","155","1345853","0.0-41.0","SS1618435653305","similarity_question","","","","","","","","","","","","{""Q0"":0}","[0]","","images/stimuli/spore_stims/complex_19_A_a.gif","images/stimuli/spore_stims/complex_03_A_b.gif"
"","8472.940000006929","survey-likert","156","1354332","0.0-42.0","SS1618435653305","similarity_question","","","","","","","","","","","","{""Q0"":3}","[0]","","images/stimuli/spore_stims/simple_01_A_a.gif","images/stimuli/spore_stims/simple_12_A_b.gif"
"","4117.005000007339","survey-likert","157","1358455","0.0-43.0","SS1618435653305","similarity_question","","","","","","","","","","","","{""Q0"":3}","[0]","","images/stimuli/spore_stims/simple_20_A_b.gif","images/stimuli/spore_stims/simple_11_A_a.gif"
"","4221.169999975245","survey-likert","158","1362682","0.0-44.0","SS1618435653305","similarity_question","","","","","","","","","","","","{""Q0"":3}","[0]","","images/stimuli/spore_stims/simple_17_A_b.gif","images/stimuli/spore_stims/simple_09_A_a.gif"
"[{""page_index"":0,""viewing_time"":5183.954999956768}]","5184.464999998454","instructions","159","1367871","0.0-45.0","SS1618435653305","instructions","","","","","","","","","","","","","","","",""
"","9742.70499998238","survey-likert","160","1377621","0.0-46.0","SS1618435653305","","","","","","","","","images/stimuli/spore_stims/complex_16_A_b.gif","","","","{""Q0"":3}","[0]","","",""
"","8426.909999980126","survey-likert","161","1386054","0.0-47.0","SS1618435653305","","","","","","","","","images/stimuli/spore_stims/complex_18_A_a.gif","","","","{""Q0"":5}","[0]","","",""
"","10157.284999964759","survey-likert","162","1396218","0.0-48.0","SS1618435653305","","","","","","","","","images/stimuli/spore_stims/simple_05_A_b.gif","","","","{""Q0"":1}","[0]","","",""
"","7660.900000017136","survey-likert","163","1403885","0.0-49.0","SS1618435653305","","","","","","","","","images/stimuli/spore_stims/complex_09_A_a.gif","","","","{""Q0"":4}","[0]","","",""
"","4758.105000015348","survey-likert","164","1408649","0.0-50.0","SS1618435653305","","","","","","","","","images/stimuli/spore_stims/complex_10_A_a.gif","","","","{""Q0"":4}","[0]","","",""
"","5136.025000014342","survey-likert","165","1413792","0.0-51.0","SS1618435653305","","","","","","","","","images/stimuli/spore_stims/complex_03_A_b.gif","","","","{""Q0"":3}","[0]","","",""
"","3810.174999991432","survey-likert","166","1417608","0.0-52.0","SS1618435653305","","","","","","","","","images/stimuli/spore_stims/simple_12_A_b.gif","","","","{""Q0"":1}","[0]","","",""
"","4179.209999972954","survey-likert","167","1421793","0.0-53.0","SS1618435653305","","","","","","","","","images/stimuli/spore_stims/complex_08_A_b.gif","","","","{""Q0"":4}","[0]","","",""
"","4830.260000017006","survey-likert","168","1426630","0.0-54.0","SS1618435653305","","","","","","","","","images/stimuli/spore_stims/simple_20_A_b.gif","","","","{""Q0"":1}","[0]","","",""
"","4738.840000005439","survey-likert","169","1431375","0.0-55.0","SS1618435653305","","","","","","","","","images/stimuli/spore_stims/simple_09_A_a.gif","","","","{""Q0"":1}","[0]","","",""
"","3090.795000025537","survey-likert","170","1434473","0.0-56.0","SS1618435653305","","","","","","","","","images/stimuli/spore_stims/simple_16_A_b.gif","","","","{""Q0"":1}","[0]","","",""
"","5284.869999974035","survey-likert","171","1439764","0.0-57.0","SS1618435653305","","","","","","","","","images/stimuli/spore_stims/simple_07_A_b.gif","","","","{""Q0"":0}","[0]","","",""
"[{""page_index"":0,""viewing_time"":2727.3949999944307}]","2727.7549999998882","instructions","172","1442496","0.0-58.0","SS1618435653305","instructions","","","","","","","","","","","","","","","",""
"","3446.8849999830127","demog-age","173","1445951","0.0-59.0","SS1618435653305","","","","","","","","","","","","","{""age"":""32""}","","","",""
"","4037.1249999734573","demog-ethnic-US","174","1449998","0.0-60.0","SS1618435653305","","","","","","","","","","","","","{""ethnicity"":[""Black or African American""]}","[0]","","",""
"","7150.470000051428","demog-gender-and-education","175","1457156","0.0-61.0","SS1618435653305","","","","","","","","","","","","","{""gender"":""Female"",""education"":""Bachelor's Degree""}","[0,1]","","",""
"","9673.710000002757","survey-text","176","1466838","0.0-62.0","SS1618435653305","feedback","","","","","","","","","","","","{""Q0"":""No""}","","","",""
"[{""page_index"":0,""viewing_time"":2882.335000031162}]","2882.704999996349","instructions","177","1469725","0.0-63.0","SS1618435653305","instructions","","","","","","","","","","","","","","","",""
