"view_history","rt","trial_type","trial_index","time_elapsed","internal_node_id","subject","stimulus_type","trial_stimulus","key_press","minimum_viewing_duration","trial_looking_time","block_deviant","block_background","exposure_type","stimulus","block_number","block_type","stimulus_displayed","responses","question_order","math_correct_answer","stimulus_left","stimulus_right"
"[{""page_index"":0,""viewing_time"":2970.539999892935}]","2970.960000064224","instructions","0","2972","0.0-0.0","SS1618365896751","","","","","","","","","","","","","","","","",""
"[{""page_index"":0,""viewing_time"":166253.17499996163},{""page_index"":1,""viewing_time"":8464.064999949187}]","174717.55499998108","instructions","1","179723","0.0-1.0","SS1618365896751","instructions","","","","","","","","","","","","","","","",""
"","7112.070000031963","sequential-stimulus-presentation-old","2","187339","0.0-2.0","SS1618365896751","","","40","500","7612.070000031963","null","null","self_paced","","","","","","","","",""
"","6208.09999993071","sequential-stimulus-presentation-old","3","194050","0.0-3.0","SS1618365896751","","","40","500","6708.09999993071","null","null","self_paced","","","","","","","","",""
"[{""page_index"":0,""viewing_time"":304949.3399998173}]","304949.65499988757","instructions","4","499011","0.0-4.0","SS1618365896751","instructions","","","","","","","","","","","","","","","",""
"","1517.2500000335276","sequential-stimulus-presentation-old","5","505531","0.0-5.0","SS1618365896751","","","40","500","2017.2500000335276","null","null","forced_long","","","","","","","","",""
"","3330.250000115484","sequential-stimulus-presentation-old","6","508915","0.0-6.0","SS1618365896751","","","40","50","3380.250000115484","null","null","forced_long","","","","","","","","",""
"[{""page_index"":0,""viewing_time"":156118.10999992304}]","156118.38999995962","instructions","7","665037","0.0-7.0","SS1618365896751","instructions","","","","","","","","","","","","","","","",""
"[{""page_index"":0,""viewing_time"":10630.619999952614},{""page_index"":1,""viewing_time"":95311.41500012018},{""page_index"":2,""viewing_time"":219423.02999994718},{""page_index"":3,""viewing_time"":235102.86500002258},{""page_index"":4,""viewing_time"":792.0800000429153}]","561260.2800000459","instructions","8","1226308","0.0-8.0","SS1618365896751","instructions","","","","","","","","","","","","","","","",""
"","null","html-keyboard-response","9","1227595","0.0-9.0-0.0","SS1618365896751","","","null","","","","","","<p><img src= images/blank.png width =""600"" height = ""600"" style=""position:fixed;top:50%; left:50%; transform: translate(-50%, -50%); border:5px solid black"">","","","","","","","",""
"","853.645000141114","sequential-stimulus-presentation-old","10","1233452","0.0-9.0-1.0","SS1618365896751","trial","","40","500","1353.645000141114","images/stimuli/spore_stims/complex_12_A_a.gif","images/stimuli/spore_stims/complex_10_A_b.gif","forced_long","","0","complex_dissimilar","images/stimuli/spore_stims/complex_10_A_b.gif","","","","",""
"","null","html-keyboard-response","11","1234388","0.0-9.0-0.1","SS1618365896751","","","null","","","","","","<p><img src= images/blank.png width =""600"" height = ""600"" style=""position:fixed;top:50%; left:50%; transform: translate(-50%, -50%); border:5px solid black"">","","","","","","","",""
"","312.71500000730157","sequential-stimulus-presentation-old","12","1235204","0.0-9.0-1.1","SS1618365896751","trial","","40","500","812.7150000073016","images/stimuli/spore_stims/complex_12_A_a.gif","images/stimuli/spore_stims/complex_10_A_b.gif","forced_long","","0","complex_dissimilar","images/stimuli/spore_stims/complex_10_A_b.gif","","","","",""
"","null","html-keyboard-response","13","1236253","0.0-9.0-0.2","SS1618365896751","","","null","","","","","","<p><img src= images/blank.png width =""600"" height = ""600"" style=""position:fixed;top:50%; left:50%; transform: translate(-50%, -50%); border:5px solid black"">","","","","","","","",""
"","290.9899998921901","sequential-stimulus-presentation-old","14","1237052","0.0-9.0-1.2","SS1618365896751","trial","","40","500","790.9899998921901","images/stimuli/spore_stims/complex_12_A_a.gif","images/stimuli/spore_stims/complex_10_A_b.gif","forced_long","","0","complex_dissimilar","images/stimuli/spore_stims/complex_10_A_b.gif","","","","",""
"","null","html-keyboard-response","15","1238341","0.0-9.0-0.3","SS1618365896751","","","null","","","","","","<p><img src= images/blank.png width =""600"" height = ""600"" style=""position:fixed;top:50%; left:50%; transform: translate(-50%, -50%); border:5px solid black"">","","","","","","","",""
"","91.67500003241003","sequential-stimulus-presentation-old","16","1238940","0.0-9.0-1.3","SS1618365896751","trial","","40","500","591.67500003241","images/stimuli/spore_stims/complex_12_A_a.gif","images/stimuli/spore_stims/complex_10_A_b.gif","forced_long","","0","complex_dissimilar","images/stimuli/spore_stims/complex_10_A_b.gif","","","","",""
"","3670.234999852255","survey-multi-choice","17","1242613","0.0-10.0","SS1618365896751","math_question","","","","","","","","","","","","{""Q0"":""11""}","[0]","11","",""
"","null","html-keyboard-response","18","1243872","0.0-11.0-0.0","SS1618365896751","","","null","","","","","","<p><img src= images/blank.png width =""600"" height = ""600"" style=""position:fixed;top:50%; left:50%; transform: translate(-50%, -50%); border:5px solid black"">","","","","","","","",""
"","935.4950000997633","sequential-stimulus-presentation-old","19","1244868","0.0-11.0-1.0","SS1618365896751","trial","","40","500","1435.4950000997633","images/stimuli/spore_stims/simple_05_A_b.gif","images/stimuli/spore_stims/simple_04_A_a.gif","forced_short","","1","simple_dissimilar","images/stimuli/spore_stims/simple_04_A_a.gif","","","","",""
"","null","html-keyboard-response","20","1246060","0.0-11.0-0.1","SS1618365896751","","","null","","","","","","<p><img src= images/blank.png width =""600"" height = ""600"" style=""position:fixed;top:50%; left:50%; transform: translate(-50%, -50%); border:5px solid black"">","","","","","","","",""
"","1552.7749999891967","sequential-stimulus-presentation-old","21","1248116","0.0-11.0-1.1","SS1618365896751","trial","","40","500","2052.7749999891967","images/stimuli/spore_stims/simple_05_A_b.gif","images/stimuli/spore_stims/simple_04_A_a.gif","forced_short","","1","simple_dissimilar","images/stimuli/spore_stims/simple_04_A_a.gif","","","","",""
"","null","html-keyboard-response","22","1249229","0.0-11.0-0.2","SS1618365896751","","","null","","","","","","<p><img src= images/blank.png width =""600"" height = ""600"" style=""position:fixed;top:50%; left:50%; transform: translate(-50%, -50%); border:5px solid black"">","","","","","","","",""
"","174.85000006854534","sequential-stimulus-presentation-old","23","1249908","0.0-11.0-1.2","SS1618365896751","trial","","40","500","674.8500000685453","images/stimuli/spore_stims/simple_05_A_b.gif","images/stimuli/spore_stims/simple_04_A_a.gif","forced_short","","1","simple_dissimilar","images/stimuli/spore_stims/simple_04_A_a.gif","","","","",""
"","null","html-keyboard-response","24","1250739","0.0-11.0-0.3","SS1618365896751","","","null","","","","","","<p><img src= images/blank.png width =""600"" height = ""600"" style=""position:fixed;top:50%; left:50%; transform: translate(-50%, -50%); border:5px solid black"">","","","","","","","",""
"","329.0649999398738","sequential-stimulus-presentation-old","25","1251572","0.0-11.0-1.3","SS1618365896751","trial","","40","500","829.0649999398738","images/stimuli/spore_stims/simple_05_A_b.gif","images/stimuli/spore_stims/simple_04_A_a.gif","forced_short","","1","simple_dissimilar","images/stimuli/spore_stims/simple_04_A_a.gif","","","","",""
"","null","html-keyboard-response","26","1252704","0.0-11.0-0.4","SS1618365896751","","","null","","","","","","<p><img src= images/blank.png width =""600"" height = ""600"" style=""position:fixed;top:50%; left:50%; transform: translate(-50%, -50%); border:5px solid black"">","","","","","","","",""
"","224.6899998281151","sequential-stimulus-presentation-old","27","1253436","0.0-11.0-1.4","SS1618365896751","trial","","40","500","724.6899998281151","images/stimuli/spore_stims/simple_05_A_b.gif","images/stimuli/spore_stims/simple_04_A_a.gif","forced_short","","1","simple_dissimilar","images/stimuli/spore_stims/simple_04_A_a.gif","","","","",""
"","null","html-keyboard-response","28","1254430","0.0-11.0-0.5","SS1618365896751","","","null","","","","","","<p><img src= images/blank.png width =""600"" height = ""600"" style=""position:fixed;top:50%; left:50%; transform: translate(-50%, -50%); border:5px solid black"">","","","","","","","",""
"","486.2100000027567","sequential-stimulus-presentation-old","29","1255420","0.0-11.0-1.5","SS1618365896751","trial","","40","500","986.2100000027567","images/stimuli/spore_stims/simple_05_A_b.gif","images/stimuli/spore_stims/simple_04_A_a.gif","forced_short","","1","simple_dissimilar","images/stimuli/spore_stims/simple_05_A_b.gif","","","","",""
"","2926.3549998868257","survey-multi-choice","30","1258348","0.0-12.0","SS1618365896751","math_question","","","","","","","","","","","","{""Q0"":""9""}","[0]","9","",""
"","null","html-keyboard-response","31","1259195","0.0-13.0-0.0","SS1618365896751","","","null","","","","","","<p><img src= images/blank.png width =""600"" height = ""600"" style=""position:fixed;top:50%; left:50%; transform: translate(-50%, -50%); border:5px solid black"">","","","","","","","",""
"","2854.3149998877198","sequential-stimulus-presentation-old","32","1267060","0.0-13.0-1.0","SS1618365896751","trial","","40","500","3354.3149998877198","images/stimuli/spore_stims/simple_04_A_b.gif","images/stimuli/spore_stims/simple_10_A_a.gif","forced_long","","2","simple_dissimilar","images/stimuli/spore_stims/simple_10_A_a.gif","","","","",""
"","null","html-keyboard-response","33","1268199","0.0-13.0-0.1","SS1618365896751","","","null","","","","","","<p><img src= images/blank.png width =""600"" height = ""600"" style=""position:fixed;top:50%; left:50%; transform: translate(-50%, -50%); border:5px solid black"">","","","","","","","",""
"","325.60999994166195","sequential-stimulus-presentation-old","34","1269028","0.0-13.0-1.1","SS1618365896751","trial","","40","500","825.609999941662","images/stimuli/spore_stims/simple_04_A_b.gif","images/stimuli/spore_stims/simple_10_A_a.gif","forced_long","","2","simple_dissimilar","images/stimuli/spore_stims/simple_04_A_b.gif","","","","",""
"","null","html-keyboard-response","35","1270076","0.0-13.0-0.2","SS1618365896751","","","null","","","","","","<p><img src= images/blank.png width =""600"" height = ""600"" style=""position:fixed;top:50%; left:50%; transform: translate(-50%, -50%); border:5px solid black"">","","","","","","","",""
"","336.7300000973046","sequential-stimulus-presentation-old","36","1270916","0.0-13.0-1.2","SS1618365896751","trial","","40","500","836.7300000973046","images/stimuli/spore_stims/simple_04_A_b.gif","images/stimuli/spore_stims/simple_10_A_a.gif","forced_long","","2","simple_dissimilar","images/stimuli/spore_stims/simple_10_A_a.gif","","","","",""
"","null","html-keyboard-response","37","1271979","0.0-13.0-0.3","SS1618365896751","","","null","","","","","","<p><img src= images/blank.png width =""600"" height = ""600"" style=""position:fixed;top:50%; left:50%; transform: translate(-50%, -50%); border:5px solid black"">","","","","","","","",""
"","200.92500001192093","sequential-stimulus-presentation-old","38","1272684","0.0-13.0-1.3","SS1618365896751","trial","","40","500","700.9250000119209","images/stimuli/spore_stims/simple_04_A_b.gif","images/stimuli/spore_stims/simple_10_A_a.gif","forced_long","","2","simple_dissimilar","images/stimuli/spore_stims/simple_10_A_a.gif","","","","",""
"","2445.7700001075864","survey-multi-choice","39","1275132","0.0-14.0","SS1618365896751","math_question","","","","","","","","","","","","{""Q0"":""2""}","[0]","2","",""
"","null","html-keyboard-response","40","1276401","0.0-15.0-0.0","SS1618365896751","","","null","","","","","","<p><img src= images/blank.png width =""600"" height = ""600"" style=""position:fixed;top:50%; left:50%; transform: translate(-50%, -50%); border:5px solid black"">","","","","","","","",""
"","12845.770000014454","sequential-stimulus-presentation-old","41","1289301","0.0-15.0-1.0","SS1618365896751","trial","","40","500","13345.770000014454","images/stimuli/spore_stims/complex_04_A_a.gif","images/stimuli/spore_stims/complex_13_A_b.gif","forced_short","","3","complex_dissimilar","images/stimuli/spore_stims/complex_13_A_b.gif","","","","",""
"","null","html-keyboard-response","42","1290443","0.0-15.0-0.1","SS1618365896751","","","null","","","","","","<p><img src= images/blank.png width =""600"" height = ""600"" style=""position:fixed;top:50%; left:50%; transform: translate(-50%, -50%); border:5px solid black"">","","","","","","","",""
"","801.6849998384714","sequential-stimulus-presentation-old","43","1291749","0.0-15.0-1.1","SS1618365896751","trial","","40","500","1301.6849998384714","images/stimuli/spore_stims/complex_04_A_a.gif","images/stimuli/spore_stims/complex_13_A_b.gif","forced_short","","3","complex_dissimilar","images/stimuli/spore_stims/complex_13_A_b.gif","","","","",""
"","null","html-keyboard-response","44","1292747","0.0-15.0-0.2","SS1618365896751","","","null","","","","","","<p><img src= images/blank.png width =""600"" height = ""600"" style=""position:fixed;top:50%; left:50%; transform: translate(-50%, -50%); border:5px solid black"">","","","","","","","",""
"","517.299999948591","sequential-stimulus-presentation-old","45","1293773","0.0-15.0-1.2","SS1618365896751","trial","","40","500","1017.299999948591","images/stimuli/spore_stims/complex_04_A_a.gif","images/stimuli/spore_stims/complex_13_A_b.gif","forced_short","","3","complex_dissimilar","images/stimuli/spore_stims/complex_13_A_b.gif","","","","",""
"","null","html-keyboard-response","46","1295013","0.0-15.0-0.3","SS1618365896751","","","null","","","","","","<p><img src= images/blank.png width =""600"" height = ""600"" style=""position:fixed;top:50%; left:50%; transform: translate(-50%, -50%); border:5px solid black"">","","","","","","","",""
"","140.4999999795109","sequential-stimulus-presentation-old","47","1295661","0.0-15.0-1.3","SS1618365896751","trial","","40","500","640.4999999795109","images/stimuli/spore_stims/complex_04_A_a.gif","images/stimuli/spore_stims/complex_13_A_b.gif","forced_short","","3","complex_dissimilar","images/stimuli/spore_stims/complex_04_A_a.gif","","","","",""
"","2117.249999893829","survey-multi-choice","48","1297781","0.0-16.0","SS1618365896751","math_question","","","","","","","","","","","","{""Q0"":""9""}","[0]","9","",""
"","null","html-keyboard-response","49","1298904","0.0-17.0-0.0","SS1618365896751","","","null","","","","","","<p><img src= images/blank.png width =""600"" height = ""600"" style=""position:fixed;top:50%; left:50%; transform: translate(-50%, -50%); border:5px solid black"">","","","","","","","",""
"","64324.049999937415","sequential-stimulus-presentation-old","50","1363735","0.0-17.0-1.0","SS1618365896751","trial","","40","500","64824.049999937415","images/stimuli/spore_stims/complex_03_A_b.gif","images/stimuli/spore_stims/complex_14_A_a.gif","self_paced","","4","complex_dissimilar","images/stimuli/spore_stims/complex_14_A_a.gif","","","","",""
"","null","html-keyboard-response","51","1364854","0.0-17.0-0.1","SS1618365896751","","","null","","","","","","<p><img src= images/blank.png width =""600"" height = ""600"" style=""position:fixed;top:50%; left:50%; transform: translate(-50%, -50%); border:5px solid black"">","","","","","","","",""
"","157.1549999061972","sequential-stimulus-presentation-old","52","1365518","0.0-17.0-1.1","SS1618365896751","trial","","40","500","657.1549999061972","images/stimuli/spore_stims/complex_03_A_b.gif","images/stimuli/spore_stims/complex_14_A_a.gif","self_paced","","4","complex_dissimilar","images/stimuli/spore_stims/complex_03_A_b.gif","","","","",""
"","null","html-keyboard-response","53","1366339","0.0-17.0-0.2","SS1618365896751","","","null","","","","","","<p><img src= images/blank.png width =""600"" height = ""600"" style=""position:fixed;top:50%; left:50%; transform: translate(-50%, -50%); border:5px solid black"">","","","","","","","",""
"","170.47000001184642","sequential-stimulus-presentation-old","54","1367014","0.0-17.0-1.2","SS1618365896751","trial","","40","500","670.4700000118464","images/stimuli/spore_stims/complex_03_A_b.gif","images/stimuli/spore_stims/complex_14_A_a.gif","self_paced","","4","complex_dissimilar","images/stimuli/spore_stims/complex_03_A_b.gif","","","","",""
"","null","html-keyboard-response","55","1367867","0.0-17.0-0.3","SS1618365896751","","","null","","","","","","<p><img src= images/blank.png width =""600"" height = ""600"" style=""position:fixed;top:50%; left:50%; transform: translate(-50%, -50%); border:5px solid black"">","","","","","","","",""
"","299.76999992504716","sequential-stimulus-presentation-old","56","1368674","0.0-17.0-1.3","SS1618365896751","trial","","40","500","799.7699999250472","images/stimuli/spore_stims/complex_03_A_b.gif","images/stimuli/spore_stims/complex_14_A_a.gif","self_paced","","4","complex_dissimilar","images/stimuli/spore_stims/complex_14_A_a.gif","","","","",""
"","null","html-keyboard-response","57","1369737","0.0-17.0-0.4","SS1618365896751","","","null","","","","","","<p><img src= images/blank.png width =""600"" height = ""600"" style=""position:fixed;top:50%; left:50%; transform: translate(-50%, -50%); border:5px solid black"">","","","","","","","",""
"","247.39499995484948","sequential-stimulus-presentation-old","58","1370502","0.0-17.0-1.4","SS1618365896751","trial","","40","500","747.3949999548495","images/stimuli/spore_stims/complex_03_A_b.gif","images/stimuli/spore_stims/complex_14_A_a.gif","self_paced","","4","complex_dissimilar","images/stimuli/spore_stims/complex_14_A_a.gif","","","","",""
"","4908.764999825507","survey-multi-choice","59","1375414","0.0-18.0","SS1618365896751","math_question","","","","","","","","","","","","{""Q0"":""11""}","[0]","11","",""
"","null","html-keyboard-response","60","1376664","0.0-19.0-0.0","SS1618365896751","","","null","","","","","","<p><img src= images/blank.png width =""600"" height = ""600"" style=""position:fixed;top:50%; left:50%; transform: translate(-50%, -50%); border:5px solid black"">","","","","","","","",""
"","3490.890000015497","sequential-stimulus-presentation-old","61","1385158","0.0-19.0-1.0","SS1618365896751","trial","","40","500","3990.890000015497","images/stimuli/spore_stims/complex_06_A_a.gif","images/stimuli/spore_stims/complex_12_A_b.gif","forced_long","","5","complex_dissimilar","images/stimuli/spore_stims/complex_12_A_b.gif","","","","",""
"","null","html-keyboard-response","62","1386099","0.0-19.0-0.1","SS1618365896751","","","null","","","","","","<p><img src= images/blank.png width =""600"" height = ""600"" style=""position:fixed;top:50%; left:50%; transform: translate(-50%, -50%); border:5px solid black"">","","","","","","","",""
"","882.905000122264","sequential-stimulus-presentation-old","63","1387485","0.0-19.0-1.1","SS1618365896751","trial","","40","500","1382.905000122264","images/stimuli/spore_stims/complex_06_A_a.gif","images/stimuli/spore_stims/complex_12_A_b.gif","forced_long","","5","complex_dissimilar","images/stimuli/spore_stims/complex_12_A_b.gif","","","","",""
"","null","html-keyboard-response","64","1388405","0.0-19.0-0.2","SS1618365896751","","","null","","","","","","<p><img src= images/blank.png width =""600"" height = ""600"" style=""position:fixed;top:50%; left:50%; transform: translate(-50%, -50%); border:5px solid black"">","","","","","","","",""
"","238.14000003039837","sequential-stimulus-presentation-old","65","1389158","0.0-19.0-1.2","SS1618365896751","trial","","40","500","738.1400000303984","images/stimuli/spore_stims/complex_06_A_a.gif","images/stimuli/spore_stims/complex_12_A_b.gif","forced_long","","5","complex_dissimilar","images/stimuli/spore_stims/complex_12_A_b.gif","","","","",""
"","null","html-keyboard-response","66","1390128","0.0-19.0-0.3","SS1618365896751","","","null","","","","","","<p><img src= images/blank.png width =""600"" height = ""600"" style=""position:fixed;top:50%; left:50%; transform: translate(-50%, -50%); border:5px solid black"">","","","","","","","",""
"","143.4299999382347","sequential-stimulus-presentation-old","67","1390781","0.0-19.0-1.3","SS1618365896751","trial","","40","500","643.4299999382347","images/stimuli/spore_stims/complex_06_A_a.gif","images/stimuli/spore_stims/complex_12_A_b.gif","forced_long","","5","complex_dissimilar","images/stimuli/spore_stims/complex_12_A_b.gif","","","","",""
"","null","html-keyboard-response","68","1391673","0.0-19.0-0.4","SS1618365896751","","","null","","","","","","<p><img src= images/blank.png width =""600"" height = ""600"" style=""position:fixed;top:50%; left:50%; transform: translate(-50%, -50%); border:5px solid black"">","","","","","","","",""
"","196.65000005625188","sequential-stimulus-presentation-old","69","1392374","0.0-19.0-1.4","SS1618365896751","trial","","40","500","696.6500000562519","images/stimuli/spore_stims/complex_06_A_a.gif","images/stimuli/spore_stims/complex_12_A_b.gif","forced_long","","5","complex_dissimilar","images/stimuli/spore_stims/complex_12_A_b.gif","","","","",""
"","null","html-keyboard-response","70","1393181","0.0-19.0-0.5","SS1618365896751","","","null","","","","","","<p><img src= images/blank.png width =""600"" height = ""600"" style=""position:fixed;top:50%; left:50%; transform: translate(-50%, -50%); border:5px solid black"">","","","","","","","",""
"","153.27999996952713","sequential-stimulus-presentation-old","71","1393837","0.0-19.0-1.5","SS1618365896751","trial","","40","500","653.2799999695271","images/stimuli/spore_stims/complex_06_A_a.gif","images/stimuli/spore_stims/complex_12_A_b.gif","forced_long","","5","complex_dissimilar","images/stimuli/spore_stims/complex_12_A_b.gif","","","","",""
"","7190.535000059754","survey-multi-choice","72","1401030","0.0-20.0","SS1618365896751","math_question","","","","","","","","","","","","{""Q0"":""13""}","[0]","13","",""
"","null","html-keyboard-response","73","1401911","0.0-21.0-0.0","SS1618365896751","","","null","","","","","","<p><img src= images/blank.png width =""600"" height = ""600"" style=""position:fixed;top:50%; left:50%; transform: translate(-50%, -50%); border:5px solid black"">","","","","","","","",""
"","790.305000031367","sequential-stimulus-presentation-old","74","1403206","0.0-21.0-1.0","SS1618365896751","trial","","40","500","1290.305000031367","images/stimuli/spore_stims/simple_18_A_a.gif","images/stimuli/spore_stims/simple_09_A_b.gif","self_paced","","6","simple_dissimilar","images/stimuli/spore_stims/simple_09_A_b.gif","","","","",""
"","null","html-keyboard-response","75","1404404","0.0-21.0-0.1","SS1618365896751","","","null","","","","","","<p><img src= images/blank.png width =""600"" height = ""600"" style=""position:fixed;top:50%; left:50%; transform: translate(-50%, -50%); border:5px solid black"">","","","","","","","",""
"","3059.7550000529736","sequential-stimulus-presentation-old","76","1407973","0.0-21.0-1.1","SS1618365896751","trial","","40","500","3559.7550000529736","images/stimuli/spore_stims/simple_18_A_a.gif","images/stimuli/spore_stims/simple_09_A_b.gif","self_paced","","6","simple_dissimilar","images/stimuli/spore_stims/simple_09_A_b.gif","","","","",""
"","null","html-keyboard-response","77","1409195","0.0-21.0-0.2","SS1618365896751","","","null","","","","","","<p><img src= images/blank.png width =""600"" height = ""600"" style=""position:fixed;top:50%; left:50%; transform: translate(-50%, -50%); border:5px solid black"">","","","","","","","",""
"","195.59999997727573","sequential-stimulus-presentation-old","78","1409893","0.0-21.0-1.2","SS1618365896751","trial","","40","500","695.5999999772757","images/stimuli/spore_stims/simple_18_A_a.gif","images/stimuli/spore_stims/simple_09_A_b.gif","self_paced","","6","simple_dissimilar","images/stimuli/spore_stims/simple_18_A_a.gif","","","","",""
"","null","html-keyboard-response","79","1411204","0.0-21.0-0.3","SS1618365896751","","","null","","","","","","<p><img src= images/blank.png width =""600"" height = ""600"" style=""position:fixed;top:50%; left:50%; transform: translate(-50%, -50%); border:5px solid black"">","","","","","","","",""
"","91.37500007636845","sequential-stimulus-presentation-old","80","1411797","0.0-21.0-1.3","SS1618365896751","trial","","40","500","591.3750000763685","images/stimuli/spore_stims/simple_18_A_a.gif","images/stimuli/spore_stims/simple_09_A_b.gif","self_paced","","6","simple_dissimilar","images/stimuli/spore_stims/simple_09_A_b.gif","","","","",""
"","6134.014999959618","survey-multi-choice","81","1417933","0.0-22.0","SS1618365896751","math_question","","","","","","","","","","","","{""Q0"":""15""}","[0]","15","",""
"","null","html-keyboard-response","82","1419183","0.0-23.0-0.0","SS1618365896751","","","null","","","","","","<p><img src= images/blank.png width =""600"" height = ""600"" style=""position:fixed;top:50%; left:50%; transform: translate(-50%, -50%); border:5px solid black"">","","","","","","","",""
"","713.4300000034273","sequential-stimulus-presentation-old","83","1419957","0.0-23.0-1.0","SS1618365896751","trial","","40","500","1213.4300000034273","images/stimuli/spore_stims/complex_05_A_b.gif","images/stimuli/spore_stims/complex_17_A_a.gif","forced_short","","7","complex_dissimilar","images/stimuli/spore_stims/complex_17_A_a.gif","","","","",""
"","null","html-keyboard-response","84","1421100","0.0-23.0-0.1","SS1618365896751","","","null","","","","","","<p><img src= images/blank.png width =""600"" height = ""600"" style=""position:fixed;top:50%; left:50%; transform: translate(-50%, -50%); border:5px solid black"">","","","","","","","",""
"","1842.380000045523","sequential-stimulus-presentation-old","85","1423446","0.0-23.0-1.1","SS1618365896751","trial","","40","500","2342.380000045523","images/stimuli/spore_stims/complex_05_A_b.gif","images/stimuli/spore_stims/complex_17_A_a.gif","forced_short","","7","complex_dissimilar","images/stimuli/spore_stims/complex_05_A_b.gif","","","","",""
"","null","html-keyboard-response","86","1424423","0.0-23.0-0.2","SS1618365896751","","","null","","","","","","<p><img src= images/blank.png width =""600"" height = ""600"" style=""position:fixed;top:50%; left:50%; transform: translate(-50%, -50%); border:5px solid black"">","","","","","","","",""
"","184.1750000603497","sequential-stimulus-presentation-old","87","1425110","0.0-23.0-1.2","SS1618365896751","trial","","40","500","684.1750000603497","images/stimuli/spore_stims/complex_05_A_b.gif","images/stimuli/spore_stims/complex_17_A_a.gif","forced_short","","7","complex_dissimilar","images/stimuli/spore_stims/complex_17_A_a.gif","","","","",""
"","null","html-keyboard-response","88","1426063","0.0-23.0-0.3","SS1618365896751","","","null","","","","","","<p><img src= images/blank.png width =""600"" height = ""600"" style=""position:fixed;top:50%; left:50%; transform: translate(-50%, -50%); border:5px solid black"">","","","","","","","",""
"","127.98500014469028","sequential-stimulus-presentation-old","89","1426694","0.0-23.0-1.3","SS1618365896751","trial","","40","500","627.9850001446903","images/stimuli/spore_stims/complex_05_A_b.gif","images/stimuli/spore_stims/complex_17_A_a.gif","forced_short","","7","complex_dissimilar","images/stimuli/spore_stims/complex_17_A_a.gif","","","","",""
"","null","html-keyboard-response","90","1427882","0.0-23.0-0.4","SS1618365896751","","","null","","","","","","<p><img src= images/blank.png width =""600"" height = ""600"" style=""position:fixed;top:50%; left:50%; transform: translate(-50%, -50%); border:5px solid black"">","","","","","","","",""
"","52.75000003166497","sequential-stimulus-presentation-old","91","1428438","0.0-23.0-1.4","SS1618365896751","trial","","40","500","552.750000031665","images/stimuli/spore_stims/complex_05_A_b.gif","images/stimuli/spore_stims/complex_17_A_a.gif","forced_short","","7","complex_dissimilar","images/stimuli/spore_stims/complex_17_A_a.gif","","","","",""
"","null","html-keyboard-response","92","1429259","0.0-23.0-0.5","SS1618365896751","","","null","","","","","","<p><img src= images/blank.png width =""600"" height = ""600"" style=""position:fixed;top:50%; left:50%; transform: translate(-50%, -50%); border:5px solid black"">","","","","","","","",""
"","236.415000166744","sequential-stimulus-presentation-old","93","1429998","0.0-23.0-1.5","SS1618365896751","trial","","40","500","736.415000166744","images/stimuli/spore_stims/complex_05_A_b.gif","images/stimuli/spore_stims/complex_17_A_a.gif","forced_short","","7","complex_dissimilar","images/stimuli/spore_stims/complex_05_A_b.gif","","","","",""
"","2885.454999981448","survey-multi-choice","94","1432886","0.0-24.0","SS1618365896751","math_question","","","","","","","","","","","","{""Q0"":""7""}","[0]","7","",""
"","null","html-keyboard-response","95","1434171","0.0-25.0-0.0","SS1618365896751","","","null","","","","","","<p><img src= images/blank.png width =""600"" height = ""600"" style=""position:fixed;top:50%; left:50%; transform: translate(-50%, -50%); border:5px solid black"">","","","","","","","",""
"","14250.569999916479","sequential-stimulus-presentation-old","96","1448926","0.0-25.0-1.0","SS1618365896751","trial","","40","500","14750.569999916479","images/stimuli/spore_stims/complex_19_A_a.gif","images/stimuli/spore_stims/complex_07_A_b.gif","self_paced","","8","complex_dissimilar","images/stimuli/spore_stims/complex_07_A_b.gif","","","","",""
"","null","html-keyboard-response","97","1449762","0.0-25.0-0.1","SS1618365896751","","","null","","","","","","<p><img src= images/blank.png width =""600"" height = ""600"" style=""position:fixed;top:50%; left:50%; transform: translate(-50%, -50%); border:5px solid black"">","","","","","","","",""
"","3804.139999905601","sequential-stimulus-presentation-old","98","1454070","0.0-25.0-1.1","SS1618365896751","trial","","40","500","4304.139999905601","images/stimuli/spore_stims/complex_19_A_a.gif","images/stimuli/spore_stims/complex_07_A_b.gif","self_paced","","8","complex_dissimilar","images/stimuli/spore_stims/complex_19_A_a.gif","","","","",""
"","null","html-keyboard-response","99","1455231","0.0-25.0-0.2","SS1618365896751","","","null","","","","","","<p><img src= images/blank.png width =""600"" height = ""600"" style=""position:fixed;top:50%; left:50%; transform: translate(-50%, -50%); border:5px solid black"">","","","","","","","",""
"","1528.4050002228469","sequential-stimulus-presentation-old","100","1457262","0.0-25.0-1.2","SS1618365896751","trial","","40","500","2028.4050002228469","images/stimuli/spore_stims/complex_19_A_a.gif","images/stimuli/spore_stims/complex_07_A_b.gif","self_paced","","8","complex_dissimilar","images/stimuli/spore_stims/complex_07_A_b.gif","","","","",""
"","null","html-keyboard-response","101","1458456","0.0-25.0-0.3","SS1618365896751","","","null","","","","","","<p><img src= images/blank.png width =""600"" height = ""600"" style=""position:fixed;top:50%; left:50%; transform: translate(-50%, -50%); border:5px solid black"">","","","","","","","",""
"","1324.9099999666214","sequential-stimulus-presentation-old","102","1460294","0.0-25.0-1.3","SS1618365896751","trial","","40","500","1824.9099999666214","images/stimuli/spore_stims/complex_19_A_a.gif","images/stimuli/spore_stims/complex_07_A_b.gif","self_paced","","8","complex_dissimilar","images/stimuli/spore_stims/complex_07_A_b.gif","","","","",""
"","null","html-keyboard-response","103","1461599","0.0-25.0-0.4","SS1618365896751","","","null","","","","","","<p><img src= images/blank.png width =""600"" height = ""600"" style=""position:fixed;top:50%; left:50%; transform: translate(-50%, -50%); border:5px solid black"">","","","","","","","",""
"","279.16000015102327","sequential-stimulus-presentation-old","104","1462382","0.0-25.0-1.4","SS1618365896751","trial","","40","500","779.1600001510233","images/stimuli/spore_stims/complex_19_A_a.gif","images/stimuli/spore_stims/complex_07_A_b.gif","self_paced","","8","complex_dissimilar","images/stimuli/spore_stims/complex_07_A_b.gif","","","","",""
"","3141.875000204891","survey-multi-choice","105","1465526","0.0-26.0","SS1618365896751","math_question","","","","","","","","","","","","{""Q0"":""18""}","[0]","18","",""
"","null","html-keyboard-response","106","1466710","0.0-27.0-0.0","SS1618365896751","","","null","","","","","","<p><img src= images/blank.png width =""600"" height = ""600"" style=""position:fixed;top:50%; left:50%; transform: translate(-50%, -50%); border:5px solid black"">","","","","","","","",""
"","2378.5349999088794","sequential-stimulus-presentation-old","107","1469142","0.0-27.0-1.0","SS1618365896751","trial","","40","500","2878.5349999088794","images/stimuli/spore_stims/simple_18_A_b.gif","images/stimuli/spore_stims/simple_17_A_a.gif","forced_short","","9","simple_dissimilar","images/stimuli/spore_stims/simple_17_A_a.gif","","","","",""
"","null","html-keyboard-response","108","1469965","0.0-27.0-0.1","SS1618365896751","","","null","","","","","","<p><img src= images/blank.png width =""600"" height = ""600"" style=""position:fixed;top:50%; left:50%; transform: translate(-50%, -50%); border:5px solid black"">","","","","","","","",""
"","449.8049998655915","sequential-stimulus-presentation-old","109","1470918","0.0-27.0-1.1","SS1618365896751","trial","","40","500","949.8049998655915","images/stimuli/spore_stims/simple_18_A_b.gif","images/stimuli/spore_stims/simple_17_A_a.gif","forced_short","","9","simple_dissimilar","images/stimuli/spore_stims/simple_17_A_a.gif","","","","",""
"","null","html-keyboard-response","110","1471836","0.0-27.0-0.2","SS1618365896751","","","null","","","","","","<p><img src= images/blank.png width =""600"" height = ""600"" style=""position:fixed;top:50%; left:50%; transform: translate(-50%, -50%); border:5px solid black"">","","","","","","","",""
"","218.69999985210598","sequential-stimulus-presentation-old","111","1472566","0.0-27.0-1.2","SS1618365896751","trial","","40","500","718.699999852106","images/stimuli/spore_stims/simple_18_A_b.gif","images/stimuli/spore_stims/simple_17_A_a.gif","forced_short","","9","simple_dissimilar","images/stimuli/spore_stims/simple_17_A_a.gif","","","","",""
"","null","html-keyboard-response","112","1473603","0.0-27.0-0.3","SS1618365896751","","","null","","","","","","<p><img src= images/blank.png width =""600"" height = ""600"" style=""position:fixed;top:50%; left:50%; transform: translate(-50%, -50%); border:5px solid black"">","","","","","","","",""
"","253.0300000216812","sequential-stimulus-presentation-old","113","1474366","0.0-27.0-1.3","SS1618365896751","trial","","40","500","753.0300000216812","images/stimuli/spore_stims/simple_18_A_b.gif","images/stimuli/spore_stims/simple_17_A_a.gif","forced_short","","9","simple_dissimilar","images/stimuli/spore_stims/simple_17_A_a.gif","","","","",""
"","null","html-keyboard-response","114","1475314","0.0-27.0-0.4","SS1618365896751","","","null","","","","","","<p><img src= images/blank.png width =""600"" height = ""600"" style=""position:fixed;top:50%; left:50%; transform: translate(-50%, -50%); border:5px solid black"">","","","","","","","",""
"","19.725000020116568","sequential-stimulus-presentation-old","115","1475838","0.0-27.0-1.4","SS1618365896751","trial","","40","500","519.7250000201166","images/stimuli/spore_stims/simple_18_A_b.gif","images/stimuli/spore_stims/simple_17_A_a.gif","forced_short","","9","simple_dissimilar","images/stimuli/spore_stims/simple_17_A_a.gif","","","","",""
"","null","html-keyboard-response","116","1476707","0.0-27.0-0.5","SS1618365896751","","","null","","","","","","<p><img src= images/blank.png width =""600"" height = ""600"" style=""position:fixed;top:50%; left:50%; transform: translate(-50%, -50%); border:5px solid black"">","","","","","","","",""
"","339.9650000501424","sequential-stimulus-presentation-old","117","1477550","0.0-27.0-1.5","SS1618365896751","trial","","40","500","839.9650000501424","images/stimuli/spore_stims/simple_18_A_b.gif","images/stimuli/spore_stims/simple_17_A_a.gif","forced_short","","9","simple_dissimilar","images/stimuli/spore_stims/simple_17_A_a.gif","","","","",""
"","3589.7699999623","survey-multi-choice","118","1481142","0.0-28.0","SS1618365896751","math_question","","","","","","","","","","","","{""Q0"":""6""}","[0]","6","",""
"","null","html-keyboard-response","119","1482290","0.0-29.0-0.0","SS1618365896751","","","null","","","","","","<p><img src= images/blank.png width =""600"" height = ""600"" style=""position:fixed;top:50%; left:50%; transform: translate(-50%, -50%); border:5px solid black"">","","","","","","","",""
"","180.65500003285706","sequential-stimulus-presentation-old","120","1487479","0.0-29.0-1.0","SS1618365896751","trial","","40","500","680.6550000328571","images/stimuli/spore_stims/simple_15_A_a.gif","images/stimuli/spore_stims/simple_10_A_b.gif","forced_long","","10","simple_dissimilar","images/stimuli/spore_stims/simple_10_A_b.gif","","","","",""
"","null","html-keyboard-response","121","1488312","0.0-29.0-0.1","SS1618365896751","","","null","","","","","","<p><img src= images/blank.png width =""600"" height = ""600"" style=""position:fixed;top:50%; left:50%; transform: translate(-50%, -50%); border:5px solid black"">","","","","","","","",""
"","111.17000016383827","sequential-stimulus-presentation-old","122","1488927","0.0-29.0-1.1","SS1618365896751","trial","","40","500","611.1700001638383","images/stimuli/spore_stims/simple_15_A_a.gif","images/stimuli/spore_stims/simple_10_A_b.gif","forced_long","","10","simple_dissimilar","images/stimuli/spore_stims/simple_10_A_b.gif","","","","",""
"","null","html-keyboard-response","123","1489999","0.0-29.0-0.2","SS1618365896751","","","null","","","","","","<p><img src= images/blank.png width =""600"" height = ""600"" style=""position:fixed;top:50%; left:50%; transform: translate(-50%, -50%); border:5px solid black"">","","","","","","","",""
"","116.75000004470348","sequential-stimulus-presentation-old","124","1490623","0.0-29.0-1.2","SS1618365896751","trial","","40","500","616.7500000447035","images/stimuli/spore_stims/simple_15_A_a.gif","images/stimuli/spore_stims/simple_10_A_b.gif","forced_long","","10","simple_dissimilar","images/stimuli/spore_stims/simple_15_A_a.gif","","","","",""
"","null","html-keyboard-response","125","1491795","0.0-29.0-0.3","SS1618365896751","","","null","","","","","","<p><img src= images/blank.png width =""600"" height = ""600"" style=""position:fixed;top:50%; left:50%; transform: translate(-50%, -50%); border:5px solid black"">","","","","","","","",""
"","52.49499995261431","sequential-stimulus-presentation-old","126","1492351","0.0-29.0-1.3","SS1618365896751","trial","","40","500","552.4949999526143","images/stimuli/spore_stims/simple_15_A_a.gif","images/stimuli/spore_stims/simple_10_A_b.gif","forced_long","","10","simple_dissimilar","images/stimuli/spore_stims/simple_10_A_b.gif","","","","",""
"","null","html-keyboard-response","127","1493309","0.0-29.0-0.4","SS1618365896751","","","null","","","","","","<p><img src= images/blank.png width =""600"" height = ""600"" style=""position:fixed;top:50%; left:50%; transform: translate(-50%, -50%); border:5px solid black"">","","","","","","","",""
"","2050.760000012815","sequential-stimulus-presentation-old","128","1495863","0.0-29.0-1.4","SS1618365896751","trial","","40","500","2550.760000012815","images/stimuli/spore_stims/simple_15_A_a.gif","images/stimuli/spore_stims/simple_10_A_b.gif","forced_long","","10","simple_dissimilar","images/stimuli/spore_stims/simple_10_A_b.gif","","","","",""
"","null","html-keyboard-response","129","1496979","0.0-29.0-0.5","SS1618365896751","","","null","","","","","","<p><img src= images/blank.png width =""600"" height = ""600"" style=""position:fixed;top:50%; left:50%; transform: translate(-50%, -50%); border:5px solid black"">","","","","","","","",""
"","91.95000003091991","sequential-stimulus-presentation-old","130","1497575","0.0-29.0-1.5","SS1618365896751","trial","","40","500","591.9500000309199","images/stimuli/spore_stims/simple_15_A_a.gif","images/stimuli/spore_stims/simple_10_A_b.gif","forced_long","","10","simple_dissimilar","images/stimuli/spore_stims/simple_10_A_b.gif","","","","",""
"","1933.320000069216","survey-multi-choice","131","1499511","0.0-30.0","SS1618365896751","math_question","","","","","","","","","","","","{""Q0"":""4""}","[0]","4","",""
"","null","html-keyboard-response","132","1500315","0.0-31.0-0.0","SS1618365896751","","","null","","","","","","<p><img src= images/blank.png width =""600"" height = ""600"" style=""position:fixed;top:50%; left:50%; transform: translate(-50%, -50%); border:5px solid black"">","","","","","","","",""
"","84.58500006236136","sequential-stimulus-presentation-old","133","1500903","0.0-31.0-1.0","SS1618365896751","trial","","40","500","584.5850000623614","images/stimuli/spore_stims/simple_01_A_b.gif","images/stimuli/spore_stims/simple_20_A_a.gif","self_paced","","11","simple_dissimilar","images/stimuli/spore_stims/simple_20_A_a.gif","","","","",""
"","null","html-keyboard-response","134","1502016","0.0-31.0-0.1","SS1618365896751","","","null","","","","","","<p><img src= images/blank.png width =""600"" height = ""600"" style=""position:fixed;top:50%; left:50%; transform: translate(-50%, -50%); border:5px solid black"">","","","","","","","",""
"","45.78000004403293","sequential-stimulus-presentation-old","135","1502567","0.0-31.0-1.1","SS1618365896751","trial","","40","500","545.7800000440329","images/stimuli/spore_stims/simple_01_A_b.gif","images/stimuli/spore_stims/simple_20_A_a.gif","self_paced","","11","simple_dissimilar","images/stimuli/spore_stims/simple_20_A_a.gif","","","","",""
"","null","html-keyboard-response","136","1503772","0.0-31.0-0.2","SS1618365896751","","","null","","","","","","<p><img src= images/blank.png width =""600"" height = ""600"" style=""position:fixed;top:50%; left:50%; transform: translate(-50%, -50%); border:5px solid black"">","","","","","","","",""
"","331.25499985180795","sequential-stimulus-presentation-old","137","1504607","0.0-31.0-1.2","SS1618365896751","trial","","40","500","831.254999851808","images/stimuli/spore_stims/simple_01_A_b.gif","images/stimuli/spore_stims/simple_20_A_a.gif","self_paced","","11","simple_dissimilar","images/stimuli/spore_stims/simple_20_A_a.gif","","","","",""
"","null","html-keyboard-response","138","1505569","0.0-31.0-0.3","SS1618365896751","","","null","","","","","","<p><img src= images/blank.png width =""600"" height = ""600"" style=""position:fixed;top:50%; left:50%; transform: translate(-50%, -50%); border:5px solid black"">","","","","","","","",""
"","45.97500013187528","sequential-stimulus-presentation-old","139","1506119","0.0-31.0-1.3","SS1618365896751","trial","","40","500","545.9750001318753","images/stimuli/spore_stims/simple_01_A_b.gif","images/stimuli/spore_stims/simple_20_A_a.gif","self_paced","","11","simple_dissimilar","images/stimuli/spore_stims/simple_20_A_a.gif","","","","",""
"","null","html-keyboard-response","140","1506990","0.0-31.0-0.4","SS1618365896751","","","null","","","","","","<p><img src= images/blank.png width =""600"" height = ""600"" style=""position:fixed;top:50%; left:50%; transform: translate(-50%, -50%); border:5px solid black"">","","","","","","","",""
"","112.90500010363758","sequential-stimulus-presentation-old","141","1507607","0.0-31.0-1.4","SS1618365896751","trial","","40","500","612.9050001036376","images/stimuli/spore_stims/simple_01_A_b.gif","images/stimuli/spore_stims/simple_20_A_a.gif","self_paced","","11","simple_dissimilar","images/stimuli/spore_stims/simple_20_A_a.gif","","","","",""
"[{""page_index"":0,""viewing_time"":19740.989999845624}]","19741.184999933466","instructions","142","1527351","0.0-32.0","SS1618365896751","instructions","","","","","","","","","","","","","","","",""
"","15636.93999988027","survey-likert","143","1542993","0.0-33.0","SS1618365896751","similarity_question","","","","","","","","","","","","{""Q0"":2}","[0]","","images/stimuli/spore_stims/complex_03_A_b.gif","images/stimuli/spore_stims/complex_14_A_a.gif"
"","8811.925000045449","survey-likert","144","1551808","0.0-34.0","SS1618365896751","similarity_question","","","","","","","","","","","","{""Q0"":1}","[0]","","images/stimuli/spore_stims/complex_13_A_b.gif","images/stimuli/spore_stims/complex_04_A_a.gif"
"","4652.059999993071","survey-likert","145","1556464","0.0-35.0","SS1618365896751","similarity_question","","","","","","","","","","","","{""Q0"":5}","[0]","","images/stimuli/spore_stims/simple_04_A_a.gif","images/stimuli/spore_stims/simple_05_A_b.gif"
"","4172.675000037998","survey-likert","146","1560640","0.0-36.0","SS1618365896751","similarity_question","","","","","","","","","","","","{""Q0"":1}","[0]","","images/stimuli/spore_stims/complex_17_A_a.gif","images/stimuli/spore_stims/complex_05_A_b.gif"
"","4140.240000095218","survey-likert","147","1564784","0.0-37.0","SS1618365896751","similarity_question","","","","","","","","","","","","{""Q0"":5}","[0]","","images/stimuli/spore_stims/simple_10_A_b.gif","images/stimuli/spore_stims/simple_15_A_a.gif"
"","5571.960000088438","survey-likert","148","1570360","0.0-38.0","SS1618365896751","similarity_question","","","","","","","","","","","","{""Q0"":2}","[0]","","images/stimuli/spore_stims/complex_06_A_a.gif","images/stimuli/spore_stims/complex_12_A_b.gif"
"","4396.779999835417","survey-likert","149","1574760","0.0-39.0","SS1618365896751","similarity_question","","","","","","","","","","","","{""Q0"":4}","[0]","","images/stimuli/spore_stims/simple_17_A_a.gif","images/stimuli/spore_stims/simple_18_A_b.gif"
"","2907.4000001419336","survey-likert","150","1577672","0.0-40.0","SS1618365896751","similarity_question","","","","","","","","","","","","{""Q0"":6}","[0]","","images/stimuli/spore_stims/simple_20_A_a.gif","images/stimuli/spore_stims/simple_01_A_b.gif"
"","10212.210000026971","survey-likert","151","1587888","0.0-41.0","SS1618365896751","similarity_question","","","","","","","","","","","","{""Q0"":4}","[0]","","images/stimuli/spore_stims/complex_19_A_a.gif","images/stimuli/spore_stims/complex_07_A_b.gif"
"","5100.444999989122","survey-likert","152","1592992","0.0-42.0","SS1618365896751","similarity_question","","","","","","","","","","","","{""Q0"":2}","[0]","","images/stimuli/spore_stims/simple_09_A_b.gif","images/stimuli/spore_stims/simple_18_A_a.gif"
"","5691.129999933764","survey-likert","153","1598688","0.0-43.0","SS1618365896751","similarity_question","","","","","","","","","","","","{""Q0"":4}","[0]","","images/stimuli/spore_stims/complex_12_A_a.gif","images/stimuli/spore_stims/complex_10_A_b.gif"
"","2092.4299999605864","survey-likert","154","1600784","0.0-44.0","SS1618365896751","similarity_question","","","","","","","","","","","","{""Q0"":5}","[0]","","images/stimuli/spore_stims/simple_10_A_a.gif","images/stimuli/spore_stims/simple_04_A_b.gif"
"[{""page_index"":0,""viewing_time"":7212.350000161678}]","7212.569999974221","instructions","155","1608000","0.0-45.0","SS1618365896751","instructions","","","","","","","","","","","","","","","",""
"","4188.744999933988","survey-likert","156","1612192","0.0-46.0","SS1618365896751","","","","","","","","","images/stimuli/spore_stims/complex_06_A_a.gif","","","","{""Q0"":5}","[0]","","",""
"","4020.225000102073","survey-likert","157","1616216","0.0-47.0","SS1618365896751","","","","","","","","","images/stimuli/spore_stims/simple_10_A_b.gif","","","","{""Q0"":0}","[0]","","",""
"","1476.0499999392778","survey-likert","158","1617696","0.0-48.0","SS1618365896751","","","","","","","","","images/stimuli/spore_stims/simple_10_A_a.gif","","","","{""Q0"":0}","[0]","","",""
"","3923.969999887049","survey-likert","159","1621624","0.0-49.0","SS1618365896751","","","","","","","","","images/stimuli/spore_stims/simple_17_A_a.gif","","","","{""Q0"":1}","[0]","","",""
"","1548.644999973476","survey-likert","160","1623176","0.0-50.0","SS1618365896751","","","","","","","","","images/stimuli/spore_stims/simple_01_A_b.gif","","","","{""Q0"":1}","[0]","","",""
"","2603.720000013709","survey-likert","161","1625784","0.0-51.0","SS1618365896751","","","","","","","","","images/stimuli/spore_stims/simple_05_A_b.gif","","","","{""Q0"":0}","[0]","","",""
"","2044.2000001203269","survey-likert","162","1627832","0.0-52.0","SS1618365896751","","","","","","","","","images/stimuli/spore_stims/complex_04_A_a.gif","","","","{""Q0"":5}","[0]","","",""
"","1796.4449999853969","survey-likert","163","1629632","0.0-53.0","SS1618365896751","","","","","","","","","images/stimuli/spore_stims/simple_18_A_a.gif","","","","{""Q0"":1}","[0]","","",""
"","3236.4250000100583","survey-likert","164","1632872","0.0-54.0","SS1618365896751","","","","","","","","","images/stimuli/spore_stims/complex_03_A_b.gif","","","","{""Q0"":6}","[0]","","",""
"","2764.1350000631064","survey-likert","165","1635640","0.0-55.0","SS1618365896751","","","","","","","","","images/stimuli/spore_stims/complex_17_A_a.gif","","","","{""Q0"":6}","[0]","","",""
"","2660.304999910295","survey-likert","166","1638304","0.0-56.0","SS1618365896751","","","","","","","","","images/stimuli/spore_stims/complex_12_A_a.gif","","","","{""Q0"":5}","[0]","","",""
"","2148.2100000139326","survey-likert","167","1640456","0.0-57.0","SS1618365896751","","","","","","","","","images/stimuli/spore_stims/complex_07_A_b.gif","","","","{""Q0"":5}","[0]","","",""
"[{""page_index"":0,""viewing_time"":2388.319999910891}]","2388.5349999181926","instructions","168","1642848","0.0-58.0","SS1618365896751","instructions","","","","","","","","","","","","","","","",""
"","3068.3550001122057","demog-age","169","1645920","0.0-59.0","SS1618365896751","","","","","","","","","","","","","{""age"":""19""}","","","",""
"","3866.554999956861","demog-ethnic-US","170","1649792","0.0-60.0","SS1618365896751","","","","","","","","","","","","","{""ethnicity"":[""Hispanic or Latino""]}","[0]","","",""
"","7363.510000053793","demog-gender-and-education","171","1657160","0.0-61.0","SS1618365896751","","","","","","","","","","","","","{""gender"":""Male"",""education"":""High school diploma""}","[0,1]","","",""
"","12026.99499996379","survey-text","172","1669193","0.0-62.0","SS1618365896751","feedback","","","","","","","","","","","","{""Q0"":""nothing wrong""}","","","",""
"[{""page_index"":0,""viewing_time"":1436.6000001318753}]","1436.8000000249594","instructions","173","1670633","0.0-63.0","SS1618365896751","instructions","","","","","","","","","","","","","","","",""
