"view_history","rt","trial_type","trial_index","time_elapsed","internal_node_id","subject","stimulus_type","trial_stimulus","key_press","minimum_viewing_duration","trial_looking_time","block_deviant","block_background","exposure_type","stimulus","block_number","block_type","stimulus_displayed","responses","question_order","math_correct_answer","stimulus_left","stimulus_right"
"[{""page_index"":0,""viewing_time"":22294.370000017807}]","22295.879999990575","instructions","0","22298","0.0-0.0","SS1618435764153","","","","","","","","","","","","","","","","",""
"[{""page_index"":0,""viewing_time"":16001.860000018496},{""page_index"":1,""viewing_time"":15268.854999972973}]","31271.05500001926","instructions","1","55568","0.0-1.0","SS1618435764153","instructions","","","","","","","","","","","","","","","",""
"","9052.290000021458","sequential-stimulus-presentation-old","2","65125","0.0-2.0","SS1618435764153","","","40","500","9552.290000021458","null","null","self_paced","","","","","","","","",""
"","8732.695000013337","sequential-stimulus-presentation-old","3","74361","0.0-3.0","SS1618435764153","","","40","500","9232.695000013337","null","null","self_paced","","","","","","","","",""
"[{""page_index"":0,""viewing_time"":27084.369999996852}]","27084.76499997778","instructions","4","101456","0.0-4.0","SS1618435764153","instructions","","","","","","","","","","","","","","","",""
"","4970.894999976736","sequential-stimulus-presentation-old","5","111431","0.0-5.0","SS1618435764153","","","40","500","5470.894999976736","null","null","forced_long","","","","","","","","",""
"","7775.589999975637","sequential-stimulus-presentation-old","6","119269","0.0-6.0","SS1618435764153","","","40","50","7825.589999975637","null","null","forced_long","","","","","","","","",""
"[{""page_index"":0,""viewing_time"":3766.9999999925494}]","3767.404999991413","instructions","7","123038","0.0-7.0","SS1618435764153","instructions","","","","","","","","","","","","","","","",""
"[{""page_index"":0,""viewing_time"":13880.690000019968},{""page_index"":1,""viewing_time"":6204.670000006445},{""page_index"":2,""viewing_time"":5698.79499997478},{""page_index"":3,""viewing_time"":1568.2699999888428},{""page_index"":4,""viewing_time"":1331.395000044722}]","28684.245000011288","instructions","8","151723","0.0-8.0","SS1618435764153","instructions","","","","","","","","","","","","","","","",""
"","null","html-keyboard-response","9","152903","0.0-9.0-0.0","SS1618435764153","","","null","","","","","","<p><img src= images/blank.png width =""600"" height = ""600"" style=""position:fixed;top:50%; left:50%; transform: translate(-50%, -50%); border:5px solid black"">","","","","","","","",""
"","1421.7700000153854","sequential-stimulus-presentation-old","10","154394","0.0-9.0-1.0","SS1618435764153","trial","","40","500","1921.7700000153854","images/stimuli/spore_stims/simple_05_A_a.gif","images/stimuli/spore_stims/simple_14_A_b.gif","forced_short","","0","simple_dissimilar","images/stimuli/spore_stims/simple_14_A_b.gif","","","","",""
"","null","html-keyboard-response","11","155393","0.0-9.0-0.1","SS1618435764153","","","null","","","","","","<p><img src= images/blank.png width =""600"" height = ""600"" style=""position:fixed;top:50%; left:50%; transform: translate(-50%, -50%); border:5px solid black"">","","","","","","","",""
"","6380.109999969136","sequential-stimulus-presentation-old","12","162291","0.0-9.0-1.1","SS1618435764153","trial","","40","500","6880.109999969136","images/stimuli/spore_stims/simple_05_A_a.gif","images/stimuli/spore_stims/simple_14_A_b.gif","forced_short","","0","simple_dissimilar","images/stimuli/spore_stims/simple_14_A_b.gif","","","","",""
"","null","html-keyboard-response","13","163189","0.0-9.0-0.2","SS1618435764153","","","null","","","","","","<p><img src= images/blank.png width =""600"" height = ""600"" style=""position:fixed;top:50%; left:50%; transform: translate(-50%, -50%); border:5px solid black"">","","","","","","","",""
"","10136.865000007674","sequential-stimulus-presentation-old","14","173831","0.0-9.0-1.2","SS1618435764153","trial","","40","500","10636.865000007674","images/stimuli/spore_stims/simple_05_A_a.gif","images/stimuli/spore_stims/simple_14_A_b.gif","forced_short","","0","simple_dissimilar","images/stimuli/spore_stims/simple_14_A_b.gif","","","","",""
"","null","html-keyboard-response","15","174874","0.0-9.0-0.3","SS1618435764153","","","null","","","","","","<p><img src= images/blank.png width =""600"" height = ""600"" style=""position:fixed;top:50%; left:50%; transform: translate(-50%, -50%); border:5px solid black"">","","","","","","","",""
"","3098.744999966584","sequential-stimulus-presentation-old","16","178492","0.0-9.0-1.3","SS1618435764153","trial","","40","500","3598.744999966584","images/stimuli/spore_stims/simple_05_A_a.gif","images/stimuli/spore_stims/simple_14_A_b.gif","forced_short","","0","simple_dissimilar","images/stimuli/spore_stims/simple_05_A_a.gif","","","","",""
"","null","html-keyboard-response","17","179319","0.0-9.0-0.4","SS1618435764153","","","null","","","","","","<p><img src= images/blank.png width =""600"" height = ""600"" style=""position:fixed;top:50%; left:50%; transform: translate(-50%, -50%); border:5px solid black"">","","","","","","","",""
"","4767.805000010412","sequential-stimulus-presentation-old","18","184591","0.0-9.0-1.4","SS1618435764153","trial","","40","500","5267.805000010412","images/stimuli/spore_stims/simple_05_A_a.gif","images/stimuli/spore_stims/simple_14_A_b.gif","forced_short","","0","simple_dissimilar","images/stimuli/spore_stims/simple_05_A_a.gif","","","","",""
"","3464.544999995269","survey-multi-choice","19","188062","0.0-10.0","SS1618435764153","math_question","","","","","","","","","","","","{""Q0"":""8""}","[0]","8","",""
"","null","html-keyboard-response","20","188876","0.0-11.0-0.0","SS1618435764153","","","null","","","","","","<p><img src= images/blank.png width =""600"" height = ""600"" style=""position:fixed;top:50%; left:50%; transform: translate(-50%, -50%); border:5px solid black"">","","","","","","","",""
"","1239.7599999676459","sequential-stimulus-presentation-old","21","190170","0.0-11.0-1.0","SS1618435764153","trial","","40","500","1739.7599999676459","images/stimuli/spore_stims/complex_06_A_b.gif","images/stimuli/spore_stims/complex_07_A_a.gif","forced_short","","1","complex_dissimilar","images/stimuli/spore_stims/complex_07_A_a.gif","","","","",""
"","null","html-keyboard-response","22","191239","0.0-11.0-0.1","SS1618435764153","","","null","","","","","","<p><img src= images/blank.png width =""600"" height = ""600"" style=""position:fixed;top:50%; left:50%; transform: translate(-50%, -50%); border:5px solid black"">","","","","","","","",""
"","6816.619999997783","sequential-stimulus-presentation-old","23","198561","0.0-11.0-1.1","SS1618435764153","trial","","40","500","7316.619999997783","images/stimuli/spore_stims/complex_06_A_b.gif","images/stimuli/spore_stims/complex_07_A_a.gif","forced_short","","1","complex_dissimilar","images/stimuli/spore_stims/complex_07_A_a.gif","","","","",""
"","null","html-keyboard-response","24","199768","0.0-11.0-0.2","SS1618435764153","","","null","","","","","","<p><img src= images/blank.png width =""600"" height = ""600"" style=""position:fixed;top:50%; left:50%; transform: translate(-50%, -50%); border:5px solid black"">","","","","","","","",""
"","6578.459999989718","sequential-stimulus-presentation-old","25","206851","0.0-11.0-1.2","SS1618435764153","trial","","40","500","7078.459999989718","images/stimuli/spore_stims/complex_06_A_b.gif","images/stimuli/spore_stims/complex_07_A_a.gif","forced_short","","1","complex_dissimilar","images/stimuli/spore_stims/complex_06_A_b.gif","","","","",""
"","null","html-keyboard-response","26","207954","0.0-11.0-0.3","SS1618435764153","","","null","","","","","","<p><img src= images/blank.png width =""600"" height = ""600"" style=""position:fixed;top:50%; left:50%; transform: translate(-50%, -50%); border:5px solid black"">","","","","","","","",""
"","5591.419999953359","sequential-stimulus-presentation-old","27","214061","0.0-11.0-1.3","SS1618435764153","trial","","40","500","6091.419999953359","images/stimuli/spore_stims/complex_06_A_b.gif","images/stimuli/spore_stims/complex_07_A_a.gif","forced_short","","1","complex_dissimilar","images/stimuli/spore_stims/complex_07_A_a.gif","","","","",""
"","null","html-keyboard-response","28","215243","0.0-11.0-0.4","SS1618435764153","","","null","","","","","","<p><img src= images/blank.png width =""600"" height = ""600"" style=""position:fixed;top:50%; left:50%; transform: translate(-50%, -50%); border:5px solid black"">","","","","","","","",""
"","3647.3799999803305","sequential-stimulus-presentation-old","29","219401","0.0-11.0-1.4","SS1618435764153","trial","","40","500","4147.3799999803305","images/stimuli/spore_stims/complex_06_A_b.gif","images/stimuli/spore_stims/complex_07_A_a.gif","forced_short","","1","complex_dissimilar","images/stimuli/spore_stims/complex_06_A_b.gif","","","","",""
"","null","html-keyboard-response","30","220419","0.0-11.0-0.5","SS1618435764153","","","null","","","","","","<p><img src= images/blank.png width =""600"" height = ""600"" style=""position:fixed;top:50%; left:50%; transform: translate(-50%, -50%); border:5px solid black"">","","","","","","","",""
"","2535.395000013523","sequential-stimulus-presentation-old","31","223460","0.0-11.0-1.5","SS1618435764153","trial","","40","500","3035.395000013523","images/stimuli/spore_stims/complex_06_A_b.gif","images/stimuli/spore_stims/complex_07_A_a.gif","forced_short","","1","complex_dissimilar","images/stimuli/spore_stims/complex_07_A_a.gif","","","","",""
"","2834.725000022445","survey-multi-choice","32","226297","0.0-12.0","SS1618435764153","math_question","","","","","","","","","","","","{""Q0"":""14""}","[0]","14","",""
"","null","html-keyboard-response","33","227145","0.0-13.0-0.0","SS1618435764153","","","null","","","","","","<p><img src= images/blank.png width =""600"" height = ""600"" style=""position:fixed;top:50%; left:50%; transform: translate(-50%, -50%); border:5px solid black"">","","","","","","","",""
"","777.0350000355393","sequential-stimulus-presentation-old","34","227990","0.0-13.0-1.0","SS1618435764153","trial","","40","500","1277.0350000355393","images/stimuli/spore_stims/complex_09_A_b.gif","images/stimuli/spore_stims/complex_17_A_a.gif","forced_short","","2","complex_dissimilar","images/stimuli/spore_stims/complex_17_A_a.gif","","","","",""
"","null","html-keyboard-response","35","229237","0.0-13.0-0.1","SS1618435764153","","","null","","","","","","<p><img src= images/blank.png width =""600"" height = ""600"" style=""position:fixed;top:50%; left:50%; transform: translate(-50%, -50%); border:5px solid black"">","","","","","","","",""
"","3279.755000025034","sequential-stimulus-presentation-old","36","233020","0.0-13.0-1.1","SS1618435764153","trial","","40","500","3779.755000025034","images/stimuli/spore_stims/complex_09_A_b.gif","images/stimuli/spore_stims/complex_17_A_a.gif","forced_short","","2","complex_dissimilar","images/stimuli/spore_stims/complex_17_A_a.gif","","","","",""
"","null","html-keyboard-response","37","234242","0.0-13.0-0.2","SS1618435764153","","","null","","","","","","<p><img src= images/blank.png width =""600"" height = ""600"" style=""position:fixed;top:50%; left:50%; transform: translate(-50%, -50%); border:5px solid black"">","","","","","","","",""
"","4093.9500000094995","sequential-stimulus-presentation-old","38","238840","0.0-13.0-1.2","SS1618435764153","trial","","40","500","4593.9500000094995","images/stimuli/spore_stims/complex_09_A_b.gif","images/stimuli/spore_stims/complex_17_A_a.gif","forced_short","","2","complex_dissimilar","images/stimuli/spore_stims/complex_17_A_a.gif","","","","",""
"","null","html-keyboard-response","39","239942","0.0-13.0-0.3","SS1618435764153","","","null","","","","","","<p><img src= images/blank.png width =""600"" height = ""600"" style=""position:fixed;top:50%; left:50%; transform: translate(-50%, -50%); border:5px solid black"">","","","","","","","",""
"","3222.5300000282004","sequential-stimulus-presentation-old","40","243670","0.0-13.0-1.3","SS1618435764153","trial","","40","500","3722.5300000282004","images/stimuli/spore_stims/complex_09_A_b.gif","images/stimuli/spore_stims/complex_17_A_a.gif","forced_short","","2","complex_dissimilar","images/stimuli/spore_stims/complex_09_A_b.gif","","","","",""
"","null","html-keyboard-response","41","244875","0.0-13.0-0.4","SS1618435764153","","","null","","","","","","<p><img src= images/blank.png width =""600"" height = ""600"" style=""position:fixed;top:50%; left:50%; transform: translate(-50%, -50%); border:5px solid black"">","","","","","","","",""
"","1985.4899999918416","sequential-stimulus-presentation-old","42","247380","0.0-13.0-1.4","SS1618435764153","trial","","40","500","2485.4899999918416","images/stimuli/spore_stims/complex_09_A_b.gif","images/stimuli/spore_stims/complex_17_A_a.gif","forced_short","","2","complex_dissimilar","images/stimuli/spore_stims/complex_09_A_b.gif","","","","",""
"","2765.7100000069477","survey-multi-choice","43","250148","0.0-14.0","SS1618435764153","math_question","","","","","","","","","","","","{""Q0"":""12""}","[0]","12","",""
"","null","html-keyboard-response","44","250987","0.0-15.0-0.0","SS1618435764153","","","null","","","","","","<p><img src= images/blank.png width =""600"" height = ""600"" style=""position:fixed;top:50%; left:50%; transform: translate(-50%, -50%); border:5px solid black"">","","","","","","","",""
"","2788.20499998983","sequential-stimulus-presentation-old","45","254279","0.0-15.0-1.0","SS1618435764153","trial","","40","500","3288.20499998983","images/stimuli/spore_stims/complex_19_A_a.gif","images/stimuli/spore_stims/complex_02_A_b.gif","self_paced","","3","complex_dissimilar","images/stimuli/spore_stims/complex_02_A_b.gif","","","","",""
"","null","html-keyboard-response","46","255180","0.0-15.0-0.1","SS1618435764153","","","null","","","","","","<p><img src= images/blank.png width =""600"" height = ""600"" style=""position:fixed;top:50%; left:50%; transform: translate(-50%, -50%); border:5px solid black"">","","","","","","","",""
"","2602.5249999947846","sequential-stimulus-presentation-old","47","258290","0.0-15.0-1.1","SS1618435764153","trial","","40","500","3102.5249999947846","images/stimuli/spore_stims/complex_19_A_a.gif","images/stimuli/spore_stims/complex_02_A_b.gif","self_paced","","3","complex_dissimilar","images/stimuli/spore_stims/complex_02_A_b.gif","","","","",""
"","null","html-keyboard-response","48","259514","0.0-15.0-0.2","SS1618435764153","","","null","","","","","","<p><img src= images/blank.png width =""600"" height = ""600"" style=""position:fixed;top:50%; left:50%; transform: translate(-50%, -50%); border:5px solid black"">","","","","","","","",""
"","5088.935000007041","sequential-stimulus-presentation-old","49","265121","0.0-15.0-1.2","SS1618435764153","trial","","40","500","5588.935000007041","images/stimuli/spore_stims/complex_19_A_a.gif","images/stimuli/spore_stims/complex_02_A_b.gif","self_paced","","3","complex_dissimilar","images/stimuli/spore_stims/complex_02_A_b.gif","","","","",""
"","null","html-keyboard-response","50","266205","0.0-15.0-0.3","SS1618435764153","","","null","","","","","","<p><img src= images/blank.png width =""600"" height = ""600"" style=""position:fixed;top:50%; left:50%; transform: translate(-50%, -50%); border:5px solid black"">","","","","","","","",""
"","3075.714999984484","sequential-stimulus-presentation-old","51","269800","0.0-15.0-1.3","SS1618435764153","trial","","40","500","3575.714999984484","images/stimuli/spore_stims/complex_19_A_a.gif","images/stimuli/spore_stims/complex_02_A_b.gif","self_paced","","3","complex_dissimilar","images/stimuli/spore_stims/complex_19_A_a.gif","","","","",""
"","null","html-keyboard-response","52","270784","0.0-15.0-0.4","SS1618435764153","","","null","","","","","","<p><img src= images/blank.png width =""600"" height = ""600"" style=""position:fixed;top:50%; left:50%; transform: translate(-50%, -50%); border:5px solid black"">","","","","","","","",""
"","797.2799999988638","sequential-stimulus-presentation-old","53","272109","0.0-15.0-1.4","SS1618435764153","trial","","40","500","1297.2799999988638","images/stimuli/spore_stims/complex_19_A_a.gif","images/stimuli/spore_stims/complex_02_A_b.gif","self_paced","","3","complex_dissimilar","images/stimuli/spore_stims/complex_19_A_a.gif","","","","",""
"","2685.829999973066","survey-multi-choice","54","274797","0.0-16.0","SS1618435764153","math_question","","","","","","","","","","","","{""Q0"":""8""}","[0]","8","",""
"","null","html-keyboard-response","55","276012","0.0-17.0-0.0","SS1618435764153","","","null","","","","","","<p><img src= images/blank.png width =""600"" height = ""600"" style=""position:fixed;top:50%; left:50%; transform: translate(-50%, -50%); border:5px solid black"">","","","","","","","",""
"","2783.004999975674","sequential-stimulus-presentation-old","56","283796","0.0-17.0-1.0","SS1618435764153","trial","","40","500","3283.004999975674","images/stimuli/spore_stims/simple_19_A_a.gif","images/stimuli/spore_stims/simple_08_A_b.gif","forced_long","","4","simple_dissimilar","images/stimuli/spore_stims/simple_08_A_b.gif","","","","",""
"","null","html-keyboard-response","57","284967","0.0-17.0-0.1","SS1618435764153","","","null","","","","","","<p><img src= images/blank.png width =""600"" height = ""600"" style=""position:fixed;top:50%; left:50%; transform: translate(-50%, -50%); border:5px solid black"">","","","","","","","",""
"","5676.834999991115","sequential-stimulus-presentation-old","58","291155","0.0-17.0-1.1","SS1618435764153","trial","","40","500","6176.834999991115","images/stimuli/spore_stims/simple_19_A_a.gif","images/stimuli/spore_stims/simple_08_A_b.gif","forced_long","","4","simple_dissimilar","images/stimuli/spore_stims/simple_08_A_b.gif","","","","",""
"","null","html-keyboard-response","59","291978","0.0-17.0-0.2","SS1618435764153","","","null","","","","","","<p><img src= images/blank.png width =""600"" height = ""600"" style=""position:fixed;top:50%; left:50%; transform: translate(-50%, -50%); border:5px solid black"">","","","","","","","",""
"","2682.7400000183843","sequential-stimulus-presentation-old","60","295166","0.0-17.0-1.2","SS1618435764153","trial","","40","500","3182.7400000183843","images/stimuli/spore_stims/simple_19_A_a.gif","images/stimuli/spore_stims/simple_08_A_b.gif","forced_long","","4","simple_dissimilar","images/stimuli/spore_stims/simple_08_A_b.gif","","","","",""
"","null","html-keyboard-response","61","296297","0.0-17.0-0.3","SS1618435764153","","","null","","","","","","<p><img src= images/blank.png width =""600"" height = ""600"" style=""position:fixed;top:50%; left:50%; transform: translate(-50%, -50%); border:5px solid black"">","","","","","","","",""
"","2611.0599999665283","sequential-stimulus-presentation-old","62","299425","0.0-17.0-1.3","SS1618435764153","trial","","40","500","3111.0599999665283","images/stimuli/spore_stims/simple_19_A_a.gif","images/stimuli/spore_stims/simple_08_A_b.gif","forced_long","","4","simple_dissimilar","images/stimuli/spore_stims/simple_08_A_b.gif","","","","",""
"","null","html-keyboard-response","63","300607","0.0-17.0-0.4","SS1618435764153","","","null","","","","","","<p><img src= images/blank.png width =""600"" height = ""600"" style=""position:fixed;top:50%; left:50%; transform: translate(-50%, -50%); border:5px solid black"">","","","","","","","",""
"","1258.8799999793991","sequential-stimulus-presentation-old","64","302385","0.0-17.0-1.4","SS1618435764153","trial","","40","500","1758.8799999793991","images/stimuli/spore_stims/simple_19_A_a.gif","images/stimuli/spore_stims/simple_08_A_b.gif","forced_long","","4","simple_dissimilar","images/stimuli/spore_stims/simple_08_A_b.gif","","","","",""
"","3063.5999999940395","survey-multi-choice","65","305450","0.0-18.0","SS1618435764153","math_question","","","","","","","","","","","","{""Q0"":""9""}","[0]","9","",""
"","null","html-keyboard-response","66","306666","0.0-19.0-0.0","SS1618435764153","","","null","","","","","","<p><img src= images/blank.png width =""600"" height = ""600"" style=""position:fixed;top:50%; left:50%; transform: translate(-50%, -50%); border:5px solid black"">","","","","","","","",""
"","2675.6350000505336","sequential-stimulus-presentation-old","67","309845","0.0-19.0-1.0","SS1618435764153","trial","","40","500","3175.6350000505336","images/stimuli/spore_stims/complex_15_A_a.gif","images/stimuli/spore_stims/complex_08_A_b.gif","self_paced","","5","complex_dissimilar","images/stimuli/spore_stims/complex_08_A_b.gif","","","","",""
"","null","html-keyboard-response","68","311127","0.0-19.0-0.1","SS1618435764153","","","null","","","","","","<p><img src= images/blank.png width =""600"" height = ""600"" style=""position:fixed;top:50%; left:50%; transform: translate(-50%, -50%); border:5px solid black"">","","","","","","","",""
"","5501.944999967236","sequential-stimulus-presentation-old","69","317137","0.0-19.0-1.1","SS1618435764153","trial","","40","500","6001.944999967236","images/stimuli/spore_stims/complex_15_A_a.gif","images/stimuli/spore_stims/complex_08_A_b.gif","self_paced","","5","complex_dissimilar","images/stimuli/spore_stims/complex_15_A_a.gif","","","","",""
"","null","html-keyboard-response","70","317958","0.0-19.0-0.2","SS1618435764153","","","null","","","","","","<p><img src= images/blank.png width =""600"" height = ""600"" style=""position:fixed;top:50%; left:50%; transform: translate(-50%, -50%); border:5px solid black"">","","","","","","","",""
"","2079.874999995809","sequential-stimulus-presentation-old","71","320556","0.0-19.0-1.2","SS1618435764153","trial","","40","500","2579.874999995809","images/stimuli/spore_stims/complex_15_A_a.gif","images/stimuli/spore_stims/complex_08_A_b.gif","self_paced","","5","complex_dissimilar","images/stimuli/spore_stims/complex_08_A_b.gif","","","","",""
"","null","html-keyboard-response","72","321501","0.0-19.0-0.3","SS1618435764153","","","null","","","","","","<p><img src= images/blank.png width =""600"" height = ""600"" style=""position:fixed;top:50%; left:50%; transform: translate(-50%, -50%); border:5px solid black"">","","","","","","","",""
"","971.4500000118278","sequential-stimulus-presentation-old","73","322976","0.0-19.0-1.3","SS1618435764153","trial","","40","500","1471.4500000118278","images/stimuli/spore_stims/complex_15_A_a.gif","images/stimuli/spore_stims/complex_08_A_b.gif","self_paced","","5","complex_dissimilar","images/stimuli/spore_stims/complex_08_A_b.gif","","","","",""
"","null","html-keyboard-response","74","324091","0.0-19.0-0.4","SS1618435764153","","","null","","","","","","<p><img src= images/blank.png width =""600"" height = ""600"" style=""position:fixed;top:50%; left:50%; transform: translate(-50%, -50%); border:5px solid black"">","","","","","","","",""
"","1259.409999998752","sequential-stimulus-presentation-old","75","325857","0.0-19.0-1.4","SS1618435764153","trial","","40","500","1759.409999998752","images/stimuli/spore_stims/complex_15_A_a.gif","images/stimuli/spore_stims/complex_08_A_b.gif","self_paced","","5","complex_dissimilar","images/stimuli/spore_stims/complex_08_A_b.gif","","","","",""
"","2655.7150000007823","survey-multi-choice","76","328515","0.0-20.0","SS1618435764153","math_question","","","","","","","","","","","","{""Q0"":""9""}","[0]","9","",""
"","null","html-keyboard-response","77","329711","0.0-21.0-0.0","SS1618435764153","","","null","","","","","","<p><img src= images/blank.png width =""600"" height = ""600"" style=""position:fixed;top:50%; left:50%; transform: translate(-50%, -50%); border:5px solid black"">","","","","","","","",""
"","5010.374999954365","sequential-stimulus-presentation-old","78","339727","0.0-21.0-1.0","SS1618435764153","trial","","40","500","5510.374999954365","images/stimuli/spore_stims/complex_15_A_b.gif","images/stimuli/spore_stims/complex_01_A_a.gif","forced_long","","6","complex_dissimilar","images/stimuli/spore_stims/complex_01_A_a.gif","","","","",""
"","null","html-keyboard-response","79","340968","0.0-21.0-0.1","SS1618435764153","","","null","","","","","","<p><img src= images/blank.png width =""600"" height = ""600"" style=""position:fixed;top:50%; left:50%; transform: translate(-50%, -50%); border:5px solid black"">","","","","","","","",""
"","2663.185000012163","sequential-stimulus-presentation-old","80","344127","0.0-21.0-1.1","SS1618435764153","trial","","40","500","3163.185000012163","images/stimuli/spore_stims/complex_15_A_b.gif","images/stimuli/spore_stims/complex_01_A_a.gif","forced_long","","6","complex_dissimilar","images/stimuli/spore_stims/complex_01_A_a.gif","","","","",""
"","null","html-keyboard-response","81","345372","0.0-21.0-0.2","SS1618435764153","","","null","","","","","","<p><img src= images/blank.png width =""600"" height = ""600"" style=""position:fixed;top:50%; left:50%; transform: translate(-50%, -50%); border:5px solid black"">","","","","","","","",""
"","3094.8499999940395","sequential-stimulus-presentation-old","82","348986","0.0-21.0-1.2","SS1618435764153","trial","","40","500","3594.8499999940395","images/stimuli/spore_stims/complex_15_A_b.gif","images/stimuli/spore_stims/complex_01_A_a.gif","forced_long","","6","complex_dissimilar","images/stimuli/spore_stims/complex_01_A_a.gif","","","","",""
"","null","html-keyboard-response","83","350181","0.0-21.0-0.3","SS1618435764153","","","null","","","","","","<p><img src= images/blank.png width =""600"" height = ""600"" style=""position:fixed;top:50%; left:50%; transform: translate(-50%, -50%); border:5px solid black"">","","","","","","","",""
"","3850.655000016559","sequential-stimulus-presentation-old","84","354537","0.0-21.0-1.3","SS1618435764153","trial","","40","500","4350.655000016559","images/stimuli/spore_stims/complex_15_A_b.gif","images/stimuli/spore_stims/complex_01_A_a.gif","forced_long","","6","complex_dissimilar","images/stimuli/spore_stims/complex_15_A_b.gif","","","","",""
"","null","html-keyboard-response","85","355507","0.0-21.0-0.4","SS1618435764153","","","null","","","","","","<p><img src= images/blank.png width =""600"" height = ""600"" style=""position:fixed;top:50%; left:50%; transform: translate(-50%, -50%); border:5px solid black"">","","","","","","","",""
"","2591.4600000251085","sequential-stimulus-presentation-old","86","358616","0.0-21.0-1.4","SS1618435764153","trial","","40","500","3091.4600000251085","images/stimuli/spore_stims/complex_15_A_b.gif","images/stimuli/spore_stims/complex_01_A_a.gif","forced_long","","6","complex_dissimilar","images/stimuli/spore_stims/complex_01_A_a.gif","","","","",""
"","3225.495000020601","survey-multi-choice","87","361845","0.0-22.0","SS1618435764153","math_question","","","","","","","","","","","","{""Q0"":""13""}","[0]","13","",""
"","null","html-keyboard-response","88","362943","0.0-23.0-0.0","SS1618435764153","","","null","","","","","","<p><img src= images/blank.png width =""600"" height = ""600"" style=""position:fixed;top:50%; left:50%; transform: translate(-50%, -50%); border:5px solid black"">","","","","","","","",""
"","1142.8299999679439","sequential-stimulus-presentation-old","89","364156","0.0-23.0-1.0","SS1618435764153","trial","","40","500","1642.8299999679439","images/stimuli/spore_stims/simple_12_A_a.gif","images/stimuli/spore_stims/simple_19_A_b.gif","forced_short","","7","simple_dissimilar","images/stimuli/spore_stims/simple_19_A_b.gif","","","","",""
"","null","html-keyboard-response","90","365233","0.0-23.0-0.1","SS1618435764153","","","null","","","","","","<p><img src= images/blank.png width =""600"" height = ""600"" style=""position:fixed;top:50%; left:50%; transform: translate(-50%, -50%); border:5px solid black"">","","","","","","","",""
"","1985.6399999698624","sequential-stimulus-presentation-old","91","367737","0.0-23.0-1.1","SS1618435764153","trial","","40","500","2485.6399999698624","images/stimuli/spore_stims/simple_12_A_a.gif","images/stimuli/spore_stims/simple_19_A_b.gif","forced_short","","7","simple_dissimilar","images/stimuli/spore_stims/simple_19_A_b.gif","","","","",""
"","null","html-keyboard-response","92","368557","0.0-23.0-0.2","SS1618435764153","","","null","","","","","","<p><img src= images/blank.png width =""600"" height = ""600"" style=""position:fixed;top:50%; left:50%; transform: translate(-50%, -50%); border:5px solid black"">","","","","","","","",""
"","943.6449999921024","sequential-stimulus-presentation-old","93","370006","0.0-23.0-1.2","SS1618435764153","trial","","40","500","1443.6449999921024","images/stimuli/spore_stims/simple_12_A_a.gif","images/stimuli/spore_stims/simple_19_A_b.gif","forced_short","","7","simple_dissimilar","images/stimuli/spore_stims/simple_19_A_b.gif","","","","",""
"","null","html-keyboard-response","94","370951","0.0-23.0-0.3","SS1618435764153","","","null","","","","","","<p><img src= images/blank.png width =""600"" height = ""600"" style=""position:fixed;top:50%; left:50%; transform: translate(-50%, -50%); border:5px solid black"">","","","","","","","",""
"","1327.2800000268035","sequential-stimulus-presentation-old","95","372796","0.0-23.0-1.3","SS1618435764153","trial","","40","500","1827.2800000268035","images/stimuli/spore_stims/simple_12_A_a.gif","images/stimuli/spore_stims/simple_19_A_b.gif","forced_short","","7","simple_dissimilar","images/stimuli/spore_stims/simple_19_A_b.gif","","","","",""
"","null","html-keyboard-response","96","373771","0.0-23.0-0.4","SS1618435764153","","","null","","","","","","<p><img src= images/blank.png width =""600"" height = ""600"" style=""position:fixed;top:50%; left:50%; transform: translate(-50%, -50%); border:5px solid black"">","","","","","","","",""
"","655.2500000107102","sequential-stimulus-presentation-old","97","374946","0.0-23.0-1.4","SS1618435764153","trial","","40","500","1155.2500000107102","images/stimuli/spore_stims/simple_12_A_a.gif","images/stimuli/spore_stims/simple_19_A_b.gif","forced_short","","7","simple_dissimilar","images/stimuli/spore_stims/simple_19_A_b.gif","","","","",""
"","2651.8550000037067","survey-multi-choice","98","377601","0.0-24.0","SS1618435764153","math_question","","","","","","","","","","","","{""Q0"":""14""}","[0]","14","",""
"","null","html-keyboard-response","99","378464","0.0-25.0-0.0","SS1618435764153","","","null","","","","","","<p><img src= images/blank.png width =""600"" height = ""600"" style=""position:fixed;top:50%; left:50%; transform: translate(-50%, -50%); border:5px solid black"">","","","","","","","",""
"","5037.760000035632","sequential-stimulus-presentation-old","100","388507","0.0-25.0-1.0","SS1618435764153","trial","","40","500","5537.760000035632","images/stimuli/spore_stims/simple_01_A_a.gif","images/stimuli/spore_stims/simple_12_A_b.gif","forced_long","","8","simple_dissimilar","images/stimuli/spore_stims/simple_12_A_b.gif","","","","",""
"","null","html-keyboard-response","101","389619","0.0-25.0-0.1","SS1618435764153","","","null","","","","","","<p><img src= images/blank.png width =""600"" height = ""600"" style=""position:fixed;top:50%; left:50%; transform: translate(-50%, -50%); border:5px solid black"">","","","","","","","",""
"","728.7849999847822","sequential-stimulus-presentation-old","102","390867","0.0-25.0-1.1","SS1618435764153","trial","","40","500","1228.7849999847822","images/stimuli/spore_stims/simple_01_A_a.gif","images/stimuli/spore_stims/simple_12_A_b.gif","forced_long","","8","simple_dissimilar","images/stimuli/spore_stims/simple_01_A_a.gif","","","","",""
"","null","html-keyboard-response","103","391954","0.0-25.0-0.2","SS1618435764153","","","null","","","","","","<p><img src= images/blank.png width =""600"" height = ""600"" style=""position:fixed;top:50%; left:50%; transform: translate(-50%, -50%); border:5px solid black"">","","","","","","","",""
"","1914.539999968838","sequential-stimulus-presentation-old","104","394386","0.0-25.0-1.2","SS1618435764153","trial","","40","500","2414.539999968838","images/stimuli/spore_stims/simple_01_A_a.gif","images/stimuli/spore_stims/simple_12_A_b.gif","forced_long","","8","simple_dissimilar","images/stimuli/spore_stims/simple_12_A_b.gif","","","","",""
"","null","html-keyboard-response","105","395407","0.0-25.0-0.3","SS1618435764153","","","null","","","","","","<p><img src= images/blank.png width =""600"" height = ""600"" style=""position:fixed;top:50%; left:50%; transform: translate(-50%, -50%); border:5px solid black"">","","","","","","","",""
"","983.9750000392087","sequential-stimulus-presentation-old","106","396896","0.0-25.0-1.3","SS1618435764153","trial","","40","500","1483.9750000392087","images/stimuli/spore_stims/simple_01_A_a.gif","images/stimuli/spore_stims/simple_12_A_b.gif","forced_long","","8","simple_dissimilar","images/stimuli/spore_stims/simple_12_A_b.gif","","","","",""
"","null","html-keyboard-response","107","397965","0.0-25.0-0.4","SS1618435764153","","","null","","","","","","<p><img src= images/blank.png width =""600"" height = ""600"" style=""position:fixed;top:50%; left:50%; transform: translate(-50%, -50%); border:5px solid black"">","","","","","","","",""
"","840.2549999882467","sequential-stimulus-presentation-old","108","399324","0.0-25.0-1.4","SS1618435764153","trial","","40","500","1340.2549999882467","images/stimuli/spore_stims/simple_01_A_a.gif","images/stimuli/spore_stims/simple_12_A_b.gif","forced_long","","8","simple_dissimilar","images/stimuli/spore_stims/simple_12_A_b.gif","","","","",""
"","2598.325000028126","survey-multi-choice","109","401925","0.0-26.0","SS1618435764153","math_question","","","","","","","","","","","","{""Q0"":""16""}","[0]","16","",""
"","null","html-keyboard-response","110","402762","0.0-27.0-0.0","SS1618435764153","","","null","","","","","","<p><img src= images/blank.png width =""600"" height = ""600"" style=""position:fixed;top:50%; left:50%; transform: translate(-50%, -50%); border:5px solid black"">","","","","","","","",""
"","1807.1650000056252","sequential-stimulus-presentation-old","111","405091","0.0-27.0-1.0","SS1618435764153","trial","","40","500","2307.165000005625","images/stimuli/spore_stims/simple_09_A_b.gif","images/stimuli/spore_stims/simple_18_A_a.gif","self_paced","","9","simple_dissimilar","images/stimuli/spore_stims/simple_18_A_a.gif","","","","",""
"","null","html-keyboard-response","112","406010","0.0-27.0-0.1","SS1618435764153","","","null","","","","","","<p><img src= images/blank.png width =""600"" height = ""600"" style=""position:fixed;top:50%; left:50%; transform: translate(-50%, -50%); border:5px solid black"">","","","","","","","",""
"","713.4400000213645","sequential-stimulus-presentation-old","113","407230","0.0-27.0-1.1","SS1618435764153","trial","","40","500","1213.4400000213645","images/stimuli/spore_stims/simple_09_A_b.gif","images/stimuli/spore_stims/simple_18_A_a.gif","self_paced","","9","simple_dissimilar","images/stimuli/spore_stims/simple_18_A_a.gif","","","","",""
"","null","html-keyboard-response","114","408310","0.0-27.0-0.2","SS1618435764153","","","null","","","","","","<p><img src= images/blank.png width =""600"" height = ""600"" style=""position:fixed;top:50%; left:50%; transform: translate(-50%, -50%); border:5px solid black"">","","","","","","","",""
"","543.9699999988079","sequential-stimulus-presentation-old","115","409371","0.0-27.0-1.2","SS1618435764153","trial","","40","500","1043.969999998808","images/stimuli/spore_stims/simple_09_A_b.gif","images/stimuli/spore_stims/simple_18_A_a.gif","self_paced","","9","simple_dissimilar","images/stimuli/spore_stims/simple_18_A_a.gif","","","","",""
"","null","html-keyboard-response","116","410526","0.0-27.0-0.3","SS1618435764153","","","null","","","","","","<p><img src= images/blank.png width =""600"" height = ""600"" style=""position:fixed;top:50%; left:50%; transform: translate(-50%, -50%); border:5px solid black"">","","","","","","","",""
"","89.83499999158084","sequential-stimulus-presentation-old","117","411121","0.0-27.0-1.3","SS1618435764153","trial","","40","500","589.8349999915808","images/stimuli/spore_stims/simple_09_A_b.gif","images/stimuli/spore_stims/simple_18_A_a.gif","self_paced","","9","simple_dissimilar","images/stimuli/spore_stims/simple_18_A_a.gif","","","","",""
"","3180.6199999991804","survey-multi-choice","118","414306","0.0-28.0","SS1618435764153","math_question","","","","","","","","","","","","{""Q0"":""17""}","[0]","17","",""
"","null","html-keyboard-response","119","415336","0.0-29.0-0.0","SS1618435764153","","","null","","","","","","<p><img src= images/blank.png width =""600"" height = ""600"" style=""position:fixed;top:50%; left:50%; transform: translate(-50%, -50%); border:5px solid black"">","","","","","","","",""
"","4193.0799999972805","sequential-stimulus-presentation-old","120","424551","0.0-29.0-1.0","SS1618435764153","trial","","40","500","4693.0799999972805","images/stimuli/spore_stims/complex_11_A_a.gif","images/stimuli/spore_stims/complex_05_A_b.gif","forced_long","","10","complex_dissimilar","images/stimuli/spore_stims/complex_05_A_b.gif","","","","",""
"","null","html-keyboard-response","121","425612","0.0-29.0-0.1","SS1618435764153","","","null","","","","","","<p><img src= images/blank.png width =""600"" height = ""600"" style=""position:fixed;top:50%; left:50%; transform: translate(-50%, -50%); border:5px solid black"">","","","","","","","",""
"","2051.050000009127","sequential-stimulus-presentation-old","122","428181","0.0-29.0-1.1","SS1618435764153","trial","","40","500","2551.050000009127","images/stimuli/spore_stims/complex_11_A_a.gif","images/stimuli/spore_stims/complex_05_A_b.gif","forced_long","","10","complex_dissimilar","images/stimuli/spore_stims/complex_11_A_a.gif","","","","",""
"","null","html-keyboard-response","123","429010","0.0-29.0-0.2","SS1618435764153","","","null","","","","","","<p><img src= images/blank.png width =""600"" height = ""600"" style=""position:fixed;top:50%; left:50%; transform: translate(-50%, -50%); border:5px solid black"">","","","","","","","",""
"","1584.374999976717","sequential-stimulus-presentation-old","124","431101","0.0-29.0-1.2","SS1618435764153","trial","","40","500","2084.374999976717","images/stimuli/spore_stims/complex_11_A_a.gif","images/stimuli/spore_stims/complex_05_A_b.gif","forced_long","","10","complex_dissimilar","images/stimuli/spore_stims/complex_05_A_b.gif","","","","",""
"","null","html-keyboard-response","125","432070","0.0-29.0-0.3","SS1618435764153","","","null","","","","","","<p><img src= images/blank.png width =""600"" height = ""600"" style=""position:fixed;top:50%; left:50%; transform: translate(-50%, -50%); border:5px solid black"">","","","","","","","",""
"","951.58499997342","sequential-stimulus-presentation-old","126","433540","0.0-29.0-1.3","SS1618435764153","trial","","40","500","1451.58499997342","images/stimuli/spore_stims/complex_11_A_a.gif","images/stimuli/spore_stims/complex_05_A_b.gif","forced_long","","10","complex_dissimilar","images/stimuli/spore_stims/complex_11_A_a.gif","","","","",""
"","3424.844999972265","survey-multi-choice","127","436969","0.0-30.0","SS1618435764153","math_question","","","","","","","","","","","","{""Q0"":""7""}","[0]","7","",""
"","null","html-keyboard-response","128","438278","0.0-31.0-0.0","SS1618435764153","","","null","","","","","","<p><img src= images/blank.png width =""600"" height = ""600"" style=""position:fixed;top:50%; left:50%; transform: translate(-50%, -50%); border:5px solid black"">","","","","","","","",""
"","676.3199999695644","sequential-stimulus-presentation-old","129","439460","0.0-31.0-1.0","SS1618435764153","trial","","40","500","1176.3199999695644","images/stimuli/spore_stims/simple_01_A_b.gif","images/stimuli/spore_stims/simple_13_A_a.gif","self_paced","","11","simple_dissimilar","images/stimuli/spore_stims/simple_13_A_a.gif","","","","",""
"","null","html-keyboard-response","130","440348","0.0-31.0-0.1","SS1618435764153","","","null","","","","","","<p><img src= images/blank.png width =""600"" height = ""600"" style=""position:fixed;top:50%; left:50%; transform: translate(-50%, -50%); border:5px solid black"">","","","","","","","",""
"","86.27999998861924","sequential-stimulus-presentation-old","131","440952","0.0-31.0-1.1","SS1618435764153","trial","","40","500","586.2799999886192","images/stimuli/spore_stims/simple_01_A_b.gif","images/stimuli/spore_stims/simple_13_A_a.gif","self_paced","","11","simple_dissimilar","images/stimuli/spore_stims/simple_13_A_a.gif","","","","",""
"","null","html-keyboard-response","132","442193","0.0-31.0-0.2","SS1618435764153","","","null","","","","","","<p><img src= images/blank.png width =""600"" height = ""600"" style=""position:fixed;top:50%; left:50%; transform: translate(-50%, -50%); border:5px solid black"">","","","","","","","",""
"","1700.6049999617971","sequential-stimulus-presentation-old","133","444401","0.0-31.0-1.2","SS1618435764153","trial","","40","500","2200.604999961797","images/stimuli/spore_stims/simple_01_A_b.gif","images/stimuli/spore_stims/simple_13_A_a.gif","self_paced","","11","simple_dissimilar","images/stimuli/spore_stims/simple_13_A_a.gif","","","","",""
"","null","html-keyboard-response","134","445460","0.0-31.0-0.3","SS1618435764153","","","null","","","","","","<p><img src= images/blank.png width =""600"" height = ""600"" style=""position:fixed;top:50%; left:50%; transform: translate(-50%, -50%); border:5px solid black"">","","","","","","","",""
"","2.679999975953251","sequential-stimulus-presentation-old","135","445981","0.0-31.0-1.3","SS1618435764153","trial","","40","500","502.67999997595325","images/stimuli/spore_stims/simple_01_A_b.gif","images/stimuli/spore_stims/simple_13_A_a.gif","self_paced","","11","simple_dissimilar","images/stimuli/spore_stims/simple_13_A_a.gif","","","","",""
"","null","html-keyboard-response","136","446989","0.0-31.0-0.4","SS1618435764153","","","null","","","","","","<p><img src= images/blank.png width =""600"" height = ""600"" style=""position:fixed;top:50%; left:50%; transform: translate(-50%, -50%); border:5px solid black"">","","","","","","","",""
"","522.095000022091","sequential-stimulus-presentation-old","137","448031","0.0-31.0-1.4","SS1618435764153","trial","","40","500","1022.095000022091","images/stimuli/spore_stims/simple_01_A_b.gif","images/stimuli/spore_stims/simple_13_A_a.gif","self_paced","","11","simple_dissimilar","images/stimuli/spore_stims/simple_13_A_a.gif","","","","",""
"[{""page_index"":0,""viewing_time"":5987.874999991618}]","5988.330000021961","instructions","138","454023","0.0-32.0","SS1618435764153","instructions","","","","","","","","","","","","","","","",""
"","9316.400000010617","survey-likert","139","463345","0.0-33.0","SS1618435764153","similarity_question","","","","","","","","","","","","{""Q0"":3}","[0]","","images/stimuli/spore_stims/simple_01_A_b.gif","images/stimuli/spore_stims/simple_13_A_a.gif"
"","3423.1499999877997","survey-likert","140","466772","0.0-34.0","SS1618435764153","similarity_question","","","","","","","","","","","","{""Q0"":5}","[0]","","images/stimuli/spore_stims/simple_12_A_b.gif","images/stimuli/spore_stims/simple_01_A_a.gif"
"","5228.49499998847","survey-likert","141","472004","0.0-35.0","SS1618435764153","similarity_question","","","","","","","","","","","","{""Q0"":1}","[0]","","images/stimuli/spore_stims/complex_08_A_b.gif","images/stimuli/spore_stims/complex_15_A_a.gif"
"","3006.6149999620393","survey-likert","142","475016","0.0-36.0","SS1618435764153","similarity_question","","","","","","","","","","","","{""Q0"":6}","[0]","","images/stimuli/spore_stims/simple_19_A_a.gif","images/stimuli/spore_stims/simple_08_A_b.gif"
"","4930.709999985993","survey-likert","143","479951","0.0-37.0","SS1618435764153","similarity_question","","","","","","","","","","","","{""Q0"":2}","[0]","","images/stimuli/spore_stims/complex_06_A_b.gif","images/stimuli/spore_stims/complex_07_A_a.gif"
"","5844.240000005811","survey-likert","144","485799","0.0-38.0","SS1618435764153","similarity_question","","","","","","","","","","","","{""Q0"":3}","[0]","","images/stimuli/spore_stims/simple_12_A_a.gif","images/stimuli/spore_stims/simple_19_A_b.gif"
"","4690.969999996014","survey-likert","145","490496","0.0-39.0","SS1618435764153","similarity_question","","","","","","","","","","","","{""Q0"":4}","[0]","","images/stimuli/spore_stims/complex_01_A_a.gif","images/stimuli/spore_stims/complex_15_A_b.gif"
"","2752.6450000004843","survey-likert","146","493252","0.0-40.0","SS1618435764153","similarity_question","","","","","","","","","","","","{""Q0"":3}","[0]","","images/stimuli/spore_stims/simple_05_A_a.gif","images/stimuli/spore_stims/simple_14_A_b.gif"
"","3108.8549999985844","survey-likert","147","496366","0.0-41.0","SS1618435764153","similarity_question","","","","","","","","","","","","{""Q0"":5}","[0]","","images/stimuli/spore_stims/complex_17_A_a.gif","images/stimuli/spore_stims/complex_09_A_b.gif"
"","4301.785000017844","survey-likert","148","500671","0.0-42.0","SS1618435764153","similarity_question","","","","","","","","","","","","{""Q0"":4}","[0]","","images/stimuli/spore_stims/complex_05_A_b.gif","images/stimuli/spore_stims/complex_11_A_a.gif"
"","2598.9900000276975","survey-likert","149","503275","0.0-43.0","SS1618435764153","similarity_question","","","","","","","","","","","","{""Q0"":5}","[0]","","images/stimuli/spore_stims/complex_02_A_b.gif","images/stimuli/spore_stims/complex_19_A_a.gif"
"","2614.9949999526143","survey-likert","150","505895","0.0-44.0","SS1618435764153","similarity_question","","","","","","","","","","","","{""Q0"":3}","[0]","","images/stimuli/spore_stims/simple_09_A_b.gif","images/stimuli/spore_stims/simple_18_A_a.gif"
"[{""page_index"":0,""viewing_time"":3935.9500000136904}]","3936.3650000304915","instructions","151","509835","0.0-45.0","SS1618435764153","instructions","","","","","","","","","","","","","","","",""
"","4831.0899999924","survey-likert","152","514671","0.0-46.0","SS1618435764153","","","","","","","","","images/stimuli/spore_stims/simple_14_A_b.gif","","","","{""Q0"":1}","[0]","","",""
"","1736.029999970924","survey-likert","153","516412","0.0-47.0","SS1618435764153","","","","","","","","","images/stimuli/spore_stims/simple_09_A_b.gif","","","","{""Q0"":1}","[0]","","",""
"","4229.3899999931455","survey-likert","154","520646","0.0-48.0","SS1618435764153","","","","","","","","","images/stimuli/spore_stims/complex_01_A_a.gif","","","","{""Q0"":5}","[0]","","",""
"","3080.9149999986403","survey-likert","155","523731","0.0-49.0","SS1618435764153","","","","","","","","","images/stimuli/spore_stims/complex_08_A_b.gif","","","","{""Q0"":4}","[0]","","",""
"","2470.2500000130385","survey-likert","156","526207","0.0-50.0","SS1618435764153","","","","","","","","","images/stimuli/spore_stims/simple_13_A_a.gif","","","","{""Q0"":0}","[0]","","",""
"","2303.4999999799766","survey-likert","157","528514","0.0-51.0","SS1618435764153","","","","","","","","","images/stimuli/spore_stims/simple_19_A_a.gif","","","","{""Q0"":1}","[0]","","",""
"","4639.145000022836","survey-likert","158","533157","0.0-52.0","SS1618435764153","","","","","","","","","images/stimuli/spore_stims/complex_02_A_b.gif","","","","{""Q0"":5}","[0]","","",""
"","3005.200000014156","survey-likert","159","536168","0.0-53.0","SS1618435764153","","","","","","","","","images/stimuli/spore_stims/complex_07_A_a.gif","","","","{""Q0"":4}","[0]","","",""
"","1827.8749999590218","survey-likert","160","538000","0.0-54.0","SS1618435764153","","","","","","","","","images/stimuli/spore_stims/simple_12_A_b.gif","","","","{""Q0"":0}","[0]","","",""
"","3660.4499999666587","survey-likert","161","541666","0.0-55.0","SS1618435764153","","","","","","","","","images/stimuli/spore_stims/simple_19_A_b.gif","","","","{""Q0"":1}","[0]","","",""
"","3048.4200000064448","survey-likert","162","544719","0.0-56.0","SS1618435764153","","","","","","","","","images/stimuli/spore_stims/complex_11_A_a.gif","","","","{""Q0"":4}","[0]","","",""
"","4563.32499999553","survey-likert","163","549288","0.0-57.0","SS1618435764153","","","","","","","","","images/stimuli/spore_stims/complex_17_A_a.gif","","","","{""Q0"":5}","[0]","","",""
"[{""page_index"":0,""viewing_time"":1539.0799999586307}]","1539.489999995567","instructions","164","550831","0.0-58.0","SS1618435764153","instructions","","","","","","","","","","","","","","","",""
"","5085.810000018682","demog-age","165","555924","0.0-59.0","SS1618435764153","","","","","","","","","","","","","{""age"":""20""}","","","",""
"","3715.0200000032783","demog-ethnic-US","166","559648","0.0-60.0","SS1618435764153","","","","","","","","","","","","","{""ethnicity"":[""White""]}","[0]","","",""
"","9538.245000003371","demog-gender-and-education","167","569191","0.0-61.0","SS1618435764153","","","","","","","","","","","","","{""gender"":""Male"",""education"":""High school diploma""}","[0,1]","","",""
"","13834.919999993872","survey-text","168","583031","0.0-62.0","SS1618435764153","feedback","","","","","","","","","","","","{""Q0"":""No""}","","","",""
"[{""page_index"":0,""viewing_time"":1669.1050000372343}]","1669.5000000181608","instructions","169","584705","0.0-63.0","SS1618435764153","instructions","","","","","","","","","","","","","","","",""
