"view_history","rt","trial_type","trial_index","time_elapsed","internal_node_id","subject","stimulus_type","trial_stimulus","key_press","minimum_viewing_duration","trial_looking_time","block_deviant","block_background","exposure_type","stimulus","block_number","block_type","stimulus_displayed","responses","question_order","math_correct_answer","stimulus_left","stimulus_right"
"[{""page_index"":0,""viewing_time"":23210.21000004839}]","23210.455000051297","instructions","0","23212","0.0-0.0","SS1618365982652","","","","","","","","","","","","","","","","",""
"[{""page_index"":0,""viewing_time"":40832.68999995198},{""page_index"":1,""viewing_time"":9484.505000058562}]","50317.419999977574","instructions","1","75531","0.0-1.0","SS1618365982652","instructions","","","","","","","","","","","","","","","",""
"","13172.445000032894","sequential-stimulus-presentation-old","2","89208","0.0-2.0","SS1618365982652","","","40","500","13672.445000032894","null","null","self_paced","","","","","","","","",""
"","9514.660000102594","sequential-stimulus-presentation-old","3","99226","0.0-3.0","SS1618365982652","","","40","500","10014.660000102594","null","null","self_paced","","","","","","","","",""
"[{""page_index"":0,""viewing_time"":20325.65499993507}]","20325.85999998264","instructions","4","119553","0.0-4.0","SS1618365982652","instructions","","","","","","","","","","","","","","","",""
"","543.4949999907985","sequential-stimulus-presentation-old","5","125098","0.0-5.0","SS1618365982652","","","40","500","1043.4949999907985","null","null","forced_long","","","","","","","","",""
"","6125.54999999702","sequential-stimulus-presentation-old","6","131276","0.0-6.0","SS1618365982652","","","40","50","6175.54999999702","null","null","forced_long","","","","","","","","",""
"[{""page_index"":0,""viewing_time"":3295.3899999847636}]","3295.979999937117","instructions","7","134573","0.0-7.0","SS1618365982652","instructions","","","","","","","","","","","","","","","",""
"[{""page_index"":0,""viewing_time"":9876.964999944903},{""page_index"":1,""viewing_time"":11533.98000006564},{""page_index"":2,""viewing_time"":5800.67499994766},{""page_index"":3,""viewing_time"":1931.1150000430644},{""page_index"":4,""viewing_time"":1714.2499999608845}]","30857.68499993719","instructions","8","165434","0.0-8.0","SS1618365982652","instructions","","","","","","","","","","","","","","","",""
"","null","html-keyboard-response","9","166710","0.0-9.0-0.0","SS1618365982652","","","null","","","","","","<p><img src= images/blank.png width =""600"" height = ""600"" style=""position:fixed;top:50%; left:50%; transform: translate(-50%, -50%); border:5px solid black"">","","","","","","","",""
"","613.2549999747425","sequential-stimulus-presentation-old","10","167377","0.0-9.0-1.0","SS1618365982652","trial","","40","500","1113.2549999747425","images/stimuli/spore_stims/complex_14_A_b.gif","images/stimuli/spore_stims/complex_07_A_a.gif","forced_short","","0","complex_dissimilar","images/stimuli/spore_stims/complex_07_A_a.gif","","","","",""
"","null","html-keyboard-response","11","168663","0.0-9.0-0.1","SS1618365982652","","","null","","","","","","<p><img src= images/blank.png width =""600"" height = ""600"" style=""position:fixed;top:50%; left:50%; transform: translate(-50%, -50%); border:5px solid black"">","","","","","","","",""
"","73802.40000004414","sequential-stimulus-presentation-old","12","242971","0.0-9.0-1.1","SS1618365982652","trial","","40","500","74302.40000004414","images/stimuli/spore_stims/complex_14_A_b.gif","images/stimuli/spore_stims/complex_07_A_a.gif","forced_short","","0","complex_dissimilar","images/stimuli/spore_stims/complex_07_A_a.gif","","","","",""
"","null","html-keyboard-response","13","244161","0.0-9.0-0.2","SS1618365982652","","","null","","","","","","<p><img src= images/blank.png width =""600"" height = ""600"" style=""position:fixed;top:50%; left:50%; transform: translate(-50%, -50%); border:5px solid black"">","","","","","","","",""
"","515194.69999999274","sequential-stimulus-presentation-old","14","759859","0.0-9.0-1.2","SS1618365982652","trial","","40","500","515694.69999999274","images/stimuli/spore_stims/complex_14_A_b.gif","images/stimuli/spore_stims/complex_07_A_a.gif","forced_short","","0","complex_dissimilar","images/stimuli/spore_stims/complex_07_A_a.gif","","","","",""
"","null","html-keyboard-response","15","760741","0.0-9.0-0.3","SS1618365982652","","","null","","","","","","<p><img src= images/blank.png width =""600"" height = ""600"" style=""position:fixed;top:50%; left:50%; transform: translate(-50%, -50%); border:5px solid black"">","","","","","","","",""
"","28947.76999996975","sequential-stimulus-presentation-old","16","790193","0.0-9.0-1.3","SS1618365982652","trial","","40","500","29447.76999996975","images/stimuli/spore_stims/complex_14_A_b.gif","images/stimuli/spore_stims/complex_07_A_a.gif","forced_short","","0","complex_dissimilar","images/stimuli/spore_stims/complex_07_A_a.gif","","","","",""
"","null","html-keyboard-response","17","791295","0.0-9.0-0.4","SS1618365982652","","","null","","","","","","<p><img src= images/blank.png width =""600"" height = ""600"" style=""position:fixed;top:50%; left:50%; transform: translate(-50%, -50%); border:5px solid black"">","","","","","","","",""
"","5876.924999989569","sequential-stimulus-presentation-old","18","797674","0.0-9.0-1.4","SS1618365982652","trial","","40","500","6376.924999989569","images/stimuli/spore_stims/complex_14_A_b.gif","images/stimuli/spore_stims/complex_07_A_a.gif","forced_short","","0","complex_dissimilar","images/stimuli/spore_stims/complex_07_A_a.gif","","","","",""
"","null","html-keyboard-response","19","798494","0.0-9.0-0.5","SS1618365982652","","","null","","","","","","<p><img src= images/blank.png width =""600"" height = ""600"" style=""position:fixed;top:50%; left:50%; transform: translate(-50%, -50%); border:5px solid black"">","","","","","","","",""
"","7997.839999967255","sequential-stimulus-presentation-old","20","806998","0.0-9.0-1.5","SS1618365982652","trial","","40","500","8497.839999967255","images/stimuli/spore_stims/complex_14_A_b.gif","images/stimuli/spore_stims/complex_07_A_a.gif","forced_short","","0","complex_dissimilar","images/stimuli/spore_stims/complex_14_A_b.gif","","","","",""
"","2967.2100000316277","survey-multi-choice","21","809972","0.0-10.0","SS1618365982652","math_question","","","","","","","","","","","","{""Q0"":""3""}","[0]","3","",""
"","null","html-keyboard-response","22","810813","0.0-11.0-0.0","SS1618365982652","","","null","","","","","","<p><img src= images/blank.png width =""600"" height = ""600"" style=""position:fixed;top:50%; left:50%; transform: translate(-50%, -50%); border:5px solid black"">","","","","","","","",""
"","5678.979999967851","sequential-stimulus-presentation-old","23","816998","0.0-11.0-1.0","SS1618365982652","trial","","40","500","6178.979999967851","images/stimuli/spore_stims/simple_18_A_a.gif","images/stimuli/spore_stims/simple_12_A_b.gif","self_paced","","1","simple_dissimilar","images/stimuli/spore_stims/simple_12_A_b.gif","","","","",""
"","null","html-keyboard-response","24","817815","0.0-11.0-0.1","SS1618365982652","","","null","","","","","","<p><img src= images/blank.png width =""600"" height = ""600"" style=""position:fixed;top:50%; left:50%; transform: translate(-50%, -50%); border:5px solid black"">","","","","","","","",""
"","3531.2550000380725","sequential-stimulus-presentation-old","25","821850","0.0-11.0-1.1","SS1618365982652","trial","","40","500","4031.2550000380725","images/stimuli/spore_stims/simple_18_A_a.gif","images/stimuli/spore_stims/simple_12_A_b.gif","self_paced","","1","simple_dissimilar","images/stimuli/spore_stims/simple_12_A_b.gif","","","","",""
"","null","html-keyboard-response","26","822782","0.0-11.0-0.2","SS1618365982652","","","null","","","","","","<p><img src= images/blank.png width =""600"" height = ""600"" style=""position:fixed;top:50%; left:50%; transform: translate(-50%, -50%); border:5px solid black"">","","","","","","","",""
"","1568.2500000111759","sequential-stimulus-presentation-old","27","824856","0.0-11.0-1.2","SS1618365982652","trial","","40","500","2068.250000011176","images/stimuli/spore_stims/simple_18_A_a.gif","images/stimuli/spore_stims/simple_12_A_b.gif","self_paced","","1","simple_dissimilar","images/stimuli/spore_stims/simple_12_A_b.gif","","","","",""
"","null","html-keyboard-response","28","825709","0.0-11.0-0.3","SS1618365982652","","","null","","","","","","<p><img src= images/blank.png width =""600"" height = ""600"" style=""position:fixed;top:50%; left:50%; transform: translate(-50%, -50%); border:5px solid black"">","","","","","","","",""
"","2215.04499996081","sequential-stimulus-presentation-old","29","828431","0.0-11.0-1.3","SS1618365982652","trial","","40","500","2715.04499996081","images/stimuli/spore_stims/simple_18_A_a.gif","images/stimuli/spore_stims/simple_12_A_b.gif","self_paced","","1","simple_dissimilar","images/stimuli/spore_stims/simple_12_A_b.gif","","","","",""
"","null","html-keyboard-response","30","829605","0.0-11.0-0.4","SS1618365982652","","","null","","","","","","<p><img src= images/blank.png width =""600"" height = ""600"" style=""position:fixed;top:50%; left:50%; transform: translate(-50%, -50%); border:5px solid black"">","","","","","","","",""
"","464.65999993961304","sequential-stimulus-presentation-old","31","830576","0.0-11.0-1.4","SS1618365982652","trial","","40","500","964.659999939613","images/stimuli/spore_stims/simple_18_A_a.gif","images/stimuli/spore_stims/simple_12_A_b.gif","self_paced","","1","simple_dissimilar","images/stimuli/spore_stims/simple_12_A_b.gif","","","","",""
"","2823.725000023842","survey-multi-choice","32","833405","0.0-12.0","SS1618365982652","math_question","","","","","","","","","","","","{""Q0"":""10""}","[0]","10","",""
"","null","html-keyboard-response","33","834635","0.0-13.0-0.0","SS1618365982652","","","null","","","","","","<p><img src= images/blank.png width =""600"" height = ""600"" style=""position:fixed;top:50%; left:50%; transform: translate(-50%, -50%); border:5px solid black"">","","","","","","","",""
"","3227.6700000511482","sequential-stimulus-presentation-old","34","838369","0.0-13.0-1.0","SS1618365982652","trial","","40","500","3727.6700000511482","images/stimuli/spore_stims/complex_17_A_a.gif","images/stimuli/spore_stims/complex_20_A_b.gif","self_paced","","2","complex_dissimilar","images/stimuli/spore_stims/complex_20_A_b.gif","","","","",""
"","null","html-keyboard-response","35","839245","0.0-13.0-0.1","SS1618365982652","","","null","","","","","","<p><img src= images/blank.png width =""600"" height = ""600"" style=""position:fixed;top:50%; left:50%; transform: translate(-50%, -50%); border:5px solid black"">","","","","","","","",""
"","1195.2049999963492","sequential-stimulus-presentation-old","36","840943","0.0-13.0-1.1","SS1618365982652","trial","","40","500","1695.2049999963492","images/stimuli/spore_stims/complex_17_A_a.gif","images/stimuli/spore_stims/complex_20_A_b.gif","self_paced","","2","complex_dissimilar","images/stimuli/spore_stims/complex_20_A_b.gif","","","","",""
"","null","html-keyboard-response","37","842098","0.0-13.0-0.2","SS1618365982652","","","null","","","","","","<p><img src= images/blank.png width =""600"" height = ""600"" style=""position:fixed;top:50%; left:50%; transform: translate(-50%, -50%); border:5px solid black"">","","","","","","","",""
"","2620.7649999996647","sequential-stimulus-presentation-old","38","845224","0.0-13.0-1.2","SS1618365982652","trial","","40","500","3120.7649999996647","images/stimuli/spore_stims/complex_17_A_a.gif","images/stimuli/spore_stims/complex_20_A_b.gif","self_paced","","2","complex_dissimilar","images/stimuli/spore_stims/complex_20_A_b.gif","","","","",""
"","null","html-keyboard-response","39","846395","0.0-13.0-0.3","SS1618365982652","","","null","","","","","","<p><img src= images/blank.png width =""600"" height = ""600"" style=""position:fixed;top:50%; left:50%; transform: translate(-50%, -50%); border:5px solid black"">","","","","","","","",""
"","1834.610000019893","sequential-stimulus-presentation-old","40","848737","0.0-13.0-1.3","SS1618365982652","trial","","40","500","2334.610000019893","images/stimuli/spore_stims/complex_17_A_a.gif","images/stimuli/spore_stims/complex_20_A_b.gif","self_paced","","2","complex_dissimilar","images/stimuli/spore_stims/complex_20_A_b.gif","","","","",""
"","null","html-keyboard-response","41","849955","0.0-13.0-0.4","SS1618365982652","","","null","","","","","","<p><img src= images/blank.png width =""600"" height = ""600"" style=""position:fixed;top:50%; left:50%; transform: translate(-50%, -50%); border:5px solid black"">","","","","","","","",""
"","369.50999998953193","sequential-stimulus-presentation-old","42","850831","0.0-13.0-1.4","SS1618365982652","trial","","40","500","869.5099999895319","images/stimuli/spore_stims/complex_17_A_a.gif","images/stimuli/spore_stims/complex_20_A_b.gif","self_paced","","2","complex_dissimilar","images/stimuli/spore_stims/complex_20_A_b.gif","","","","",""
"","2692.5849999533966","survey-multi-choice","43","853527","0.0-14.0","SS1618365982652","math_question","","","","","","","","","","","","{""Q0"":""9""}","[0]","9","",""
"","null","html-keyboard-response","44","854641","0.0-15.0-0.0","SS1618365982652","","","null","","","","","","<p><img src= images/blank.png width =""600"" height = ""600"" style=""position:fixed;top:50%; left:50%; transform: translate(-50%, -50%); border:5px solid black"">","","","","","","","",""
"","1735.1900000358","sequential-stimulus-presentation-old","45","856430","0.0-15.0-1.0","SS1618365982652","trial","","40","500","2235.1900000358","images/stimuli/spore_stims/complex_12_A_a.gif","images/stimuli/spore_stims/complex_05_A_b.gif","forced_short","","3","complex_dissimilar","images/stimuli/spore_stims/complex_05_A_b.gif","","","","",""
"","null","html-keyboard-response","46","857639","0.0-15.0-0.1","SS1618365982652","","","null","","","","","","<p><img src= images/blank.png width =""600"" height = ""600"" style=""position:fixed;top:50%; left:50%; transform: translate(-50%, -50%); border:5px solid black"">","","","","","","","",""
"","2947.510000085458","sequential-stimulus-presentation-old","47","861092","0.0-15.0-1.1","SS1618365982652","trial","","40","500","3447.510000085458","images/stimuli/spore_stims/complex_12_A_a.gif","images/stimuli/spore_stims/complex_05_A_b.gif","forced_short","","3","complex_dissimilar","images/stimuli/spore_stims/complex_05_A_b.gif","","","","",""
"","null","html-keyboard-response","48","862049","0.0-15.0-0.2","SS1618365982652","","","null","","","","","","<p><img src= images/blank.png width =""600"" height = ""600"" style=""position:fixed;top:50%; left:50%; transform: translate(-50%, -50%); border:5px solid black"">","","","","","","","",""
"","2172.565000015311","sequential-stimulus-presentation-old","49","864730","0.0-15.0-1.2","SS1618365982652","trial","","40","500","2672.565000015311","images/stimuli/spore_stims/complex_12_A_a.gif","images/stimuli/spore_stims/complex_05_A_b.gif","forced_short","","3","complex_dissimilar","images/stimuli/spore_stims/complex_05_A_b.gif","","","","",""
"","null","html-keyboard-response","50","865991","0.0-15.0-0.3","SS1618365982652","","","null","","","","","","<p><img src= images/blank.png width =""600"" height = ""600"" style=""position:fixed;top:50%; left:50%; transform: translate(-50%, -50%); border:5px solid black"">","","","","","","","",""
"","1668.3049999410287","sequential-stimulus-presentation-old","51","868166","0.0-15.0-1.3","SS1618365982652","trial","","40","500","2168.3049999410287","images/stimuli/spore_stims/complex_12_A_a.gif","images/stimuli/spore_stims/complex_05_A_b.gif","forced_short","","3","complex_dissimilar","images/stimuli/spore_stims/complex_05_A_b.gif","","","","",""
"","null","html-keyboard-response","52","869430","0.0-15.0-0.4","SS1618365982652","","","null","","","","","","<p><img src= images/blank.png width =""600"" height = ""600"" style=""position:fixed;top:50%; left:50%; transform: translate(-50%, -50%); border:5px solid black"">","","","","","","","",""
"","666.520000086166","sequential-stimulus-presentation-old","53","870600","0.0-15.0-1.4","SS1618365982652","trial","","40","500","1166.520000086166","images/stimuli/spore_stims/complex_12_A_a.gif","images/stimuli/spore_stims/complex_05_A_b.gif","forced_short","","3","complex_dissimilar","images/stimuli/spore_stims/complex_05_A_b.gif","","","","",""
"","2687.400000053458","survey-multi-choice","54","873294","0.0-16.0","SS1618365982652","math_question","","","","","","","","","","","","{""Q0"":""6""}","[0]","6","",""
"","null","html-keyboard-response","55","874516","0.0-17.0-0.0","SS1618365982652","","","null","","","","","","<p><img src= images/blank.png width =""600"" height = ""600"" style=""position:fixed;top:50%; left:50%; transform: translate(-50%, -50%); border:5px solid black"">","","","","","","","",""
"","4207.935000071302","sequential-stimulus-presentation-old","56","883732","0.0-17.0-1.0","SS1618365982652","trial","","40","500","4707.935000071302","images/stimuli/spore_stims/simple_09_A_a.gif","images/stimuli/spore_stims/simple_04_A_b.gif","forced_long","","4","simple_dissimilar","images/stimuli/spore_stims/simple_04_A_b.gif","","","","",""
"","null","html-keyboard-response","57","884853","0.0-17.0-0.1","SS1618365982652","","","null","","","","","","<p><img src= images/blank.png width =""600"" height = ""600"" style=""position:fixed;top:50%; left:50%; transform: translate(-50%, -50%); border:5px solid black"">","","","","","","","",""
"","1711.7899999720976","sequential-stimulus-presentation-old","58","887071","0.0-17.0-1.1","SS1618365982652","trial","","40","500","2211.7899999720976","images/stimuli/spore_stims/simple_09_A_a.gif","images/stimuli/spore_stims/simple_04_A_b.gif","forced_long","","4","simple_dissimilar","images/stimuli/spore_stims/simple_04_A_b.gif","","","","",""
"","null","html-keyboard-response","59","888216","0.0-17.0-0.2","SS1618365982652","","","null","","","","","","<p><img src= images/blank.png width =""600"" height = ""600"" style=""position:fixed;top:50%; left:50%; transform: translate(-50%, -50%); border:5px solid black"">","","","","","","","",""
"","1231.2450000317767","sequential-stimulus-presentation-old","60","889953","0.0-17.0-1.2","SS1618365982652","trial","","40","500","1731.2450000317767","images/stimuli/spore_stims/simple_09_A_a.gif","images/stimuli/spore_stims/simple_04_A_b.gif","forced_long","","4","simple_dissimilar","images/stimuli/spore_stims/simple_04_A_b.gif","","","","",""
"","null","html-keyboard-response","61","891213","0.0-17.0-0.3","SS1618365982652","","","null","","","","","","<p><img src= images/blank.png width =""600"" height = ""600"" style=""position:fixed;top:50%; left:50%; transform: translate(-50%, -50%); border:5px solid black"">","","","","","","","",""
"","1065.7699999865144","sequential-stimulus-presentation-old","62","892785","0.0-17.0-1.3","SS1618365982652","trial","","40","500","1565.7699999865144","images/stimuli/spore_stims/simple_09_A_a.gif","images/stimuli/spore_stims/simple_04_A_b.gif","forced_long","","4","simple_dissimilar","images/stimuli/spore_stims/simple_04_A_b.gif","","","","",""
"","null","html-keyboard-response","63","893900","0.0-17.0-0.4","SS1618365982652","","","null","","","","","","<p><img src= images/blank.png width =""600"" height = ""600"" style=""position:fixed;top:50%; left:50%; transform: translate(-50%, -50%); border:5px solid black"">","","","","","","","",""
"","507.69999995827675","sequential-stimulus-presentation-old","64","894913","0.0-17.0-1.4","SS1618365982652","trial","","40","500","1007.6999999582767","images/stimuli/spore_stims/simple_09_A_a.gif","images/stimuli/spore_stims/simple_04_A_b.gif","forced_long","","4","simple_dissimilar","images/stimuli/spore_stims/simple_04_A_b.gif","","","","",""
"","null","html-keyboard-response","65","896208","0.0-17.0-0.5","SS1618365982652","","","null","","","","","","<p><img src= images/blank.png width =""600"" height = ""600"" style=""position:fixed;top:50%; left:50%; transform: translate(-50%, -50%); border:5px solid black"">","","","","","","","",""
"","1290.00499995891","sequential-stimulus-presentation-old","66","898004","0.0-17.0-1.5","SS1618365982652","trial","","40","500","1790.00499995891","images/stimuli/spore_stims/simple_09_A_a.gif","images/stimuli/spore_stims/simple_04_A_b.gif","forced_long","","4","simple_dissimilar","images/stimuli/spore_stims/simple_04_A_b.gif","","","","",""
"","2610.3349999757484","survey-multi-choice","67","900620","0.0-18.0","SS1618365982652","math_question","","","","","","","","","","","","{""Q0"":""12""}","[0]","12","",""
"","null","html-keyboard-response","68","901921","0.0-19.0-0.0","SS1618365982652","","","null","","","","","","<p><img src= images/blank.png width =""600"" height = ""600"" style=""position:fixed;top:50%; left:50%; transform: translate(-50%, -50%); border:5px solid black"">","","","","","","","",""
"","129.55500010866672","sequential-stimulus-presentation-old","69","907058","0.0-19.0-1.0","SS1618365982652","trial","","40","500","629.5550001086667","images/stimuli/spore_stims/simple_20_A_b.gif","images/stimuli/spore_stims/simple_16_A_a.gif","forced_long","","5","simple_dissimilar","images/stimuli/spore_stims/simple_16_A_a.gif","","","","",""
"","null","html-keyboard-response","70","908075","0.0-19.0-0.1","SS1618365982652","","","null","","","","","","<p><img src= images/blank.png width =""600"" height = ""600"" style=""position:fixed;top:50%; left:50%; transform: translate(-50%, -50%); border:5px solid black"">","","","","","","","",""
"","2979.479999979958","sequential-stimulus-presentation-old","71","911562","0.0-19.0-1.1","SS1618365982652","trial","","40","500","3479.479999979958","images/stimuli/spore_stims/simple_20_A_b.gif","images/stimuli/spore_stims/simple_16_A_a.gif","forced_long","","5","simple_dissimilar","images/stimuli/spore_stims/simple_20_A_b.gif","","","","",""
"","null","html-keyboard-response","72","912748","0.0-19.0-0.2","SS1618365982652","","","null","","","","","","<p><img src= images/blank.png width =""600"" height = ""600"" style=""position:fixed;top:50%; left:50%; transform: translate(-50%, -50%); border:5px solid black"">","","","","","","","",""
"","705.7999999960884","sequential-stimulus-presentation-old","73","913962","0.0-19.0-1.2","SS1618365982652","trial","","40","500","1205.7999999960884","images/stimuli/spore_stims/simple_20_A_b.gif","images/stimuli/spore_stims/simple_16_A_a.gif","forced_long","","5","simple_dissimilar","images/stimuli/spore_stims/simple_20_A_b.gif","","","","",""
"","null","html-keyboard-response","74","914914","0.0-19.0-0.3","SS1618365982652","","","null","","","","","","<p><img src= images/blank.png width =""600"" height = ""600"" style=""position:fixed;top:50%; left:50%; transform: translate(-50%, -50%); border:5px solid black"">","","","","","","","",""
"","1284.940000041388","sequential-stimulus-presentation-old","75","916705","0.0-19.0-1.3","SS1618365982652","trial","","40","500","1784.940000041388","images/stimuli/spore_stims/simple_20_A_b.gif","images/stimuli/spore_stims/simple_16_A_a.gif","forced_long","","5","simple_dissimilar","images/stimuli/spore_stims/simple_16_A_a.gif","","","","",""
"","null","html-keyboard-response","76","917783","0.0-19.0-0.4","SS1618365982652","","","null","","","","","","<p><img src= images/blank.png width =""600"" height = ""600"" style=""position:fixed;top:50%; left:50%; transform: translate(-50%, -50%); border:5px solid black"">","","","","","","","",""
"","371.87999999150634","sequential-stimulus-presentation-old","77","918659","0.0-19.0-1.4","SS1618365982652","trial","","40","500","871.8799999915063","images/stimuli/spore_stims/simple_20_A_b.gif","images/stimuli/spore_stims/simple_16_A_a.gif","forced_long","","5","simple_dissimilar","images/stimuli/spore_stims/simple_16_A_a.gif","","","","",""
"","null","html-keyboard-response","78","919906","0.0-19.0-0.5","SS1618365982652","","","null","","","","","","<p><img src= images/blank.png width =""600"" height = ""600"" style=""position:fixed;top:50%; left:50%; transform: translate(-50%, -50%); border:5px solid black"">","","","","","","","",""
"","683.8899999856949","sequential-stimulus-presentation-old","79","921097","0.0-19.0-1.5","SS1618365982652","trial","","40","500","1183.8899999856949","images/stimuli/spore_stims/simple_20_A_b.gif","images/stimuli/spore_stims/simple_16_A_a.gif","forced_long","","5","simple_dissimilar","images/stimuli/spore_stims/simple_16_A_a.gif","","","","",""
"","2307.539999950677","survey-multi-choice","80","923411","0.0-20.0","SS1618365982652","math_question","","","","","","","","","","","","{""Q0"":""15""}","[0]","15","",""
"","null","html-keyboard-response","81","924465","0.0-21.0-0.0","SS1618365982652","","","null","","","","","","<p><img src= images/blank.png width =""600"" height = ""600"" style=""position:fixed;top:50%; left:50%; transform: translate(-50%, -50%); border:5px solid black"">","","","","","","","",""
"","2152.029999997467","sequential-stimulus-presentation-old","82","926671","0.0-21.0-1.0","SS1618365982652","trial","","40","500","2652.029999997467","images/stimuli/spore_stims/simple_01_A_b.gif","images/stimuli/spore_stims/simple_08_A_a.gif","forced_short","","6","simple_dissimilar","images/stimuli/spore_stims/simple_08_A_a.gif","","","","",""
"","null","html-keyboard-response","83","927874","0.0-21.0-0.1","SS1618365982652","","","null","","","","","","<p><img src= images/blank.png width =""600"" height = ""600"" style=""position:fixed;top:50%; left:50%; transform: translate(-50%, -50%); border:5px solid black"">","","","","","","","",""
"","1118.7399999471381","sequential-stimulus-presentation-old","84","929498","0.0-21.0-1.1","SS1618365982652","trial","","40","500","1618.7399999471381","images/stimuli/spore_stims/simple_01_A_b.gif","images/stimuli/spore_stims/simple_08_A_a.gif","forced_short","","6","simple_dissimilar","images/stimuli/spore_stims/simple_08_A_a.gif","","","","",""
"","null","html-keyboard-response","85","930469","0.0-21.0-0.2","SS1618365982652","","","null","","","","","","<p><img src= images/blank.png width =""600"" height = ""600"" style=""position:fixed;top:50%; left:50%; transform: translate(-50%, -50%); border:5px solid black"">","","","","","","","",""
"","1868.099999963306","sequential-stimulus-presentation-old","86","932843","0.0-21.0-1.2","SS1618365982652","trial","","40","500","2368.099999963306","images/stimuli/spore_stims/simple_01_A_b.gif","images/stimuli/spore_stims/simple_08_A_a.gif","forced_short","","6","simple_dissimilar","images/stimuli/spore_stims/simple_08_A_a.gif","","","","",""
"","null","html-keyboard-response","87","934124","0.0-21.0-0.3","SS1618365982652","","","null","","","","","","<p><img src= images/blank.png width =""600"" height = ""600"" style=""position:fixed;top:50%; left:50%; transform: translate(-50%, -50%); border:5px solid black"">","","","","","","","",""
"","855.174999916926","sequential-stimulus-presentation-old","88","935482","0.0-21.0-1.3","SS1618365982652","trial","","40","500","1355.174999916926","images/stimuli/spore_stims/simple_01_A_b.gif","images/stimuli/spore_stims/simple_08_A_a.gif","forced_short","","6","simple_dissimilar","images/stimuli/spore_stims/simple_08_A_a.gif","","","","",""
"","null","html-keyboard-response","89","936571","0.0-21.0-0.4","SS1618365982652","","","null","","","","","","<p><img src= images/blank.png width =""600"" height = ""600"" style=""position:fixed;top:50%; left:50%; transform: translate(-50%, -50%); border:5px solid black"">","","","","","","","",""
"","126.20499997865409","sequential-stimulus-presentation-old","90","937200","0.0-21.0-1.4","SS1618365982652","trial","","40","500","626.2049999786541","images/stimuli/spore_stims/simple_01_A_b.gif","images/stimuli/spore_stims/simple_08_A_a.gif","forced_short","","6","simple_dissimilar","images/stimuli/spore_stims/simple_08_A_a.gif","","","","",""
"","null","html-keyboard-response","91","938162","0.0-21.0-0.5","SS1618365982652","","","null","","","","","","<p><img src= images/blank.png width =""600"" height = ""600"" style=""position:fixed;top:50%; left:50%; transform: translate(-50%, -50%); border:5px solid black"">","","","","","","","",""
"","892.214999999851","sequential-stimulus-presentation-old","92","939563","0.0-21.0-1.5","SS1618365982652","trial","","40","500","1392.214999999851","images/stimuli/spore_stims/simple_01_A_b.gif","images/stimuli/spore_stims/simple_08_A_a.gif","forced_short","","6","simple_dissimilar","images/stimuli/spore_stims/simple_08_A_a.gif","","","","",""
"","2512.5799999805167","survey-multi-choice","93","942081","0.0-22.0","SS1618365982652","math_question","","","","","","","","","","","","{""Q0"":""10""}","[0]","10","",""
"","null","html-keyboard-response","94","943360","0.0-23.0-0.0","SS1618365982652","","","null","","","","","","<p><img src= images/blank.png width =""600"" height = ""600"" style=""position:fixed;top:50%; left:50%; transform: translate(-50%, -50%); border:5px solid black"">","","","","","","","",""
"","5112.07499995362","sequential-stimulus-presentation-old","95","953478","0.0-23.0-1.0","SS1618365982652","trial","","40","500","5612.07499995362","images/stimuli/spore_stims/complex_01_A_a.gif","images/stimuli/spore_stims/complex_08_A_b.gif","forced_long","","7","complex_dissimilar","images/stimuli/spore_stims/complex_08_A_b.gif","","","","",""
"","null","html-keyboard-response","96","954778","0.0-23.0-0.1","SS1618365982652","","","null","","","","","","<p><img src= images/blank.png width =""600"" height = ""600"" style=""position:fixed;top:50%; left:50%; transform: translate(-50%, -50%); border:5px solid black"">","","","","","","","",""
"","3249.264999991283","sequential-stimulus-presentation-old","97","958534","0.0-23.0-1.1","SS1618365982652","trial","","40","500","3749.264999991283","images/stimuli/spore_stims/complex_01_A_a.gif","images/stimuli/spore_stims/complex_08_A_b.gif","forced_long","","7","complex_dissimilar","images/stimuli/spore_stims/complex_01_A_a.gif","","","","",""
"","null","html-keyboard-response","98","959811","0.0-23.0-0.2","SS1618365982652","","","null","","","","","","<p><img src= images/blank.png width =""600"" height = ""600"" style=""position:fixed;top:50%; left:50%; transform: translate(-50%, -50%); border:5px solid black"">","","","","","","","",""
"","649.100000038743","sequential-stimulus-presentation-old","99","960965","0.0-23.0-1.2","SS1618365982652","trial","","40","500","1149.100000038743","images/stimuli/spore_stims/complex_01_A_a.gif","images/stimuli/spore_stims/complex_08_A_b.gif","forced_long","","7","complex_dissimilar","images/stimuli/spore_stims/complex_01_A_a.gif","","","","",""
"","null","html-keyboard-response","100","962004","0.0-23.0-0.3","SS1618365982652","","","null","","","","","","<p><img src= images/blank.png width =""600"" height = ""600"" style=""position:fixed;top:50%; left:50%; transform: translate(-50%, -50%); border:5px solid black"">","","","","","","","",""
"","4155.145000084303","sequential-stimulus-presentation-old","101","966663","0.0-23.0-1.3","SS1618365982652","trial","","40","500","4655.145000084303","images/stimuli/spore_stims/complex_01_A_a.gif","images/stimuli/spore_stims/complex_08_A_b.gif","forced_long","","7","complex_dissimilar","images/stimuli/spore_stims/complex_08_A_b.gif","","","","",""
"","null","html-keyboard-response","102","967731","0.0-23.0-0.4","SS1618365982652","","","null","","","","","","<p><img src= images/blank.png width =""600"" height = ""600"" style=""position:fixed;top:50%; left:50%; transform: translate(-50%, -50%); border:5px solid black"">","","","","","","","",""
"","1355.6349999271333","sequential-stimulus-presentation-old","103","969591","0.0-23.0-1.4","SS1618365982652","trial","","40","500","1855.6349999271333","images/stimuli/spore_stims/complex_01_A_a.gif","images/stimuli/spore_stims/complex_08_A_b.gif","forced_long","","7","complex_dissimilar","images/stimuli/spore_stims/complex_08_A_b.gif","","","","",""
"","null","html-keyboard-response","104","970828","0.0-23.0-0.5","SS1618365982652","","","null","","","","","","<p><img src= images/blank.png width =""600"" height = ""600"" style=""position:fixed;top:50%; left:50%; transform: translate(-50%, -50%); border:5px solid black"">","","","","","","","",""
"","554.6750000212342","sequential-stimulus-presentation-old","105","971888","0.0-23.0-1.5","SS1618365982652","trial","","40","500","1054.6750000212342","images/stimuli/spore_stims/complex_01_A_a.gif","images/stimuli/spore_stims/complex_08_A_b.gif","forced_long","","7","complex_dissimilar","images/stimuli/spore_stims/complex_08_A_b.gif","","","","",""
"","3173.934999969788","survey-multi-choice","106","975066","0.0-24.0","SS1618365982652","math_question","","","","","","","","","","","","{""Q0"":""11""}","[0]","11","",""
"","null","html-keyboard-response","107","976249","0.0-25.0-0.0","SS1618365982652","","","null","","","","","","<p><img src= images/blank.png width =""600"" height = ""600"" style=""position:fixed;top:50%; left:50%; transform: translate(-50%, -50%); border:5px solid black"">","","","","","","","",""
"","864.6750000771135","sequential-stimulus-presentation-old","108","977622","0.0-25.0-1.0","SS1618365982652","trial","","40","500","1364.6750000771135","images/stimuli/spore_stims/simple_15_A_a.gif","images/stimuli/spore_stims/simple_14_A_b.gif","self_paced","","8","simple_dissimilar","images/stimuli/spore_stims/simple_14_A_b.gif","","","","",""
"","null","html-keyboard-response","109","978560","0.0-25.0-0.1","SS1618365982652","","","null","","","","","","<p><img src= images/blank.png width =""600"" height = ""600"" style=""position:fixed;top:50%; left:50%; transform: translate(-50%, -50%); border:5px solid black"">","","","","","","","",""
"","729.1849999455735","sequential-stimulus-presentation-old","110","979796","0.0-25.0-1.1","SS1618365982652","trial","","40","500","1229.1849999455735","images/stimuli/spore_stims/simple_15_A_a.gif","images/stimuli/spore_stims/simple_14_A_b.gif","self_paced","","8","simple_dissimilar","images/stimuli/spore_stims/simple_14_A_b.gif","","","","",""
"","null","html-keyboard-response","111","980689","0.0-25.0-0.2","SS1618365982652","","","null","","","","","","<p><img src= images/blank.png width =""600"" height = ""600"" style=""position:fixed;top:50%; left:50%; transform: translate(-50%, -50%); border:5px solid black"">","","","","","","","",""
"","371.7449998948723","sequential-stimulus-presentation-old","112","981567","0.0-25.0-1.2","SS1618365982652","trial","","40","500","871.7449998948723","images/stimuli/spore_stims/simple_15_A_a.gif","images/stimuli/spore_stims/simple_14_A_b.gif","self_paced","","8","simple_dissimilar","images/stimuli/spore_stims/simple_14_A_b.gif","","","","",""
"","null","html-keyboard-response","113","982606","0.0-25.0-0.3","SS1618365982652","","","null","","","","","","<p><img src= images/blank.png width =""600"" height = ""600"" style=""position:fixed;top:50%; left:50%; transform: translate(-50%, -50%); border:5px solid black"">","","","","","","","",""
"","102.35499998088926","sequential-stimulus-presentation-old","114","983216","0.0-25.0-1.3","SS1618365982652","trial","","40","500","602.3549999808893","images/stimuli/spore_stims/simple_15_A_a.gif","images/stimuli/spore_stims/simple_14_A_b.gif","self_paced","","8","simple_dissimilar","images/stimuli/spore_stims/simple_14_A_b.gif","","","","",""
"","2239.9449999211356","survey-multi-choice","115","985462","0.0-26.0","SS1618365982652","math_question","","","","","","","","","","","","{""Q0"":""8""}","[0]","8","",""
"","null","html-keyboard-response","116","986528","0.0-27.0-0.0","SS1618365982652","","","null","","","","","","<p><img src= images/blank.png width =""600"" height = ""600"" style=""position:fixed;top:50%; left:50%; transform: translate(-50%, -50%); border:5px solid black"">","","","","","","","",""
"","2800.249999971129","sequential-stimulus-presentation-old","117","989832","0.0-27.0-1.0","SS1618365982652","trial","","40","500","3300.249999971129","images/stimuli/spore_stims/complex_12_A_b.gif","images/stimuli/spore_stims/complex_09_A_a.gif","self_paced","","9","complex_dissimilar","images/stimuli/spore_stims/complex_09_A_a.gif","","","","",""
"","null","html-keyboard-response","118","990786","0.0-27.0-0.1","SS1618365982652","","","null","","","","","","<p><img src= images/blank.png width =""600"" height = ""600"" style=""position:fixed;top:50%; left:50%; transform: translate(-50%, -50%); border:5px solid black"">","","","","","","","",""
"","1833.835000055842","sequential-stimulus-presentation-old","119","993127","0.0-27.0-1.1","SS1618365982652","trial","","40","500","2333.835000055842","images/stimuli/spore_stims/complex_12_A_b.gif","images/stimuli/spore_stims/complex_09_A_a.gif","self_paced","","9","complex_dissimilar","images/stimuli/spore_stims/complex_09_A_a.gif","","","","",""
"","null","html-keyboard-response","120","994284","0.0-27.0-0.2","SS1618365982652","","","null","","","","","","<p><img src= images/blank.png width =""600"" height = ""600"" style=""position:fixed;top:50%; left:50%; transform: translate(-50%, -50%); border:5px solid black"">","","","","","","","",""
"","868.8900000415742","sequential-stimulus-presentation-old","121","995659","0.0-27.0-1.2","SS1618365982652","trial","","40","500","1368.8900000415742","images/stimuli/spore_stims/complex_12_A_b.gif","images/stimuli/spore_stims/complex_09_A_a.gif","self_paced","","9","complex_dissimilar","images/stimuli/spore_stims/complex_09_A_a.gif","","","","",""
"","null","html-keyboard-response","122","996908","0.0-27.0-0.3","SS1618365982652","","","null","","","","","","<p><img src= images/blank.png width =""600"" height = ""600"" style=""position:fixed;top:50%; left:50%; transform: translate(-50%, -50%); border:5px solid black"">","","","","","","","",""
"","140.4900000197813","sequential-stimulus-presentation-old","123","997554","0.0-27.0-1.3","SS1618365982652","trial","","40","500","640.4900000197813","images/stimuli/spore_stims/complex_12_A_b.gif","images/stimuli/spore_stims/complex_09_A_a.gif","self_paced","","9","complex_dissimilar","images/stimuli/spore_stims/complex_09_A_a.gif","","","","",""
"","null","html-keyboard-response","124","998567","0.0-27.0-0.4","SS1618365982652","","","null","","","","","","<p><img src= images/blank.png width =""600"" height = ""600"" style=""position:fixed;top:50%; left:50%; transform: translate(-50%, -50%); border:5px solid black"">","","","","","","","",""
"","999.8299999861047","sequential-stimulus-presentation-old","125","1000073","0.0-27.0-1.4","SS1618365982652","trial","","40","500","1499.8299999861047","images/stimuli/spore_stims/complex_12_A_b.gif","images/stimuli/spore_stims/complex_09_A_a.gif","self_paced","","9","complex_dissimilar","images/stimuli/spore_stims/complex_09_A_a.gif","","","","",""
"","null","html-keyboard-response","126","1001204","0.0-27.0-0.5","SS1618365982652","","","null","","","","","","<p><img src= images/blank.png width =""600"" height = ""600"" style=""position:fixed;top:50%; left:50%; transform: translate(-50%, -50%); border:5px solid black"">","","","","","","","",""
"","171.97999998461455","sequential-stimulus-presentation-old","127","1001881","0.0-27.0-1.5","SS1618365982652","trial","","40","500","671.9799999846146","images/stimuli/spore_stims/complex_12_A_b.gif","images/stimuli/spore_stims/complex_09_A_a.gif","self_paced","","9","complex_dissimilar","images/stimuli/spore_stims/complex_09_A_a.gif","","","","",""
"","2038.509999983944","survey-multi-choice","128","1003925","0.0-28.0","SS1618365982652","math_question","","","","","","","","","","","","{""Q0"":""9""}","[0]","9","",""
"","null","html-keyboard-response","129","1004771","0.0-29.0-0.0","SS1618365982652","","","null","","","","","","<p><img src= images/blank.png width =""600"" height = ""600"" style=""position:fixed;top:50%; left:50%; transform: translate(-50%, -50%); border:5px solid black"">","","","","","","","",""
"","1190.9250000026077","sequential-stimulus-presentation-old","130","1006019","0.0-29.0-1.0","SS1618365982652","trial","","40","500","1690.9250000026077","images/stimuli/spore_stims/simple_11_A_b.gif","images/stimuli/spore_stims/simple_03_A_a.gif","forced_short","","10","simple_dissimilar","images/stimuli/spore_stims/simple_03_A_a.gif","","","","",""
"","null","html-keyboard-response","131","1007169","0.0-29.0-0.1","SS1618365982652","","","null","","","","","","<p><img src= images/blank.png width =""600"" height = ""600"" style=""position:fixed;top:50%; left:50%; transform: translate(-50%, -50%); border:5px solid black"">","","","","","","","",""
"","1254.9899999285117","sequential-stimulus-presentation-old","132","1008930","0.0-29.0-1.1","SS1618365982652","trial","","40","500","1754.9899999285117","images/stimuli/spore_stims/simple_11_A_b.gif","images/stimuli/spore_stims/simple_03_A_a.gif","forced_short","","10","simple_dissimilar","images/stimuli/spore_stims/simple_03_A_a.gif","","","","",""
"","null","html-keyboard-response","133","1010107","0.0-29.0-0.2","SS1618365982652","","","null","","","","","","<p><img src= images/blank.png width =""600"" height = ""600"" style=""position:fixed;top:50%; left:50%; transform: translate(-50%, -50%); border:5px solid black"">","","","","","","","",""
"","1099.1800000192598","sequential-stimulus-presentation-old","134","1011713","0.0-29.0-1.2","SS1618365982652","trial","","40","500","1599.1800000192598","images/stimuli/spore_stims/simple_11_A_b.gif","images/stimuli/spore_stims/simple_03_A_a.gif","forced_short","","10","simple_dissimilar","images/stimuli/spore_stims/simple_11_A_b.gif","","","","",""
"","null","html-keyboard-response","135","1012858","0.0-29.0-0.3","SS1618365982652","","","null","","","","","","<p><img src= images/blank.png width =""600"" height = ""600"" style=""position:fixed;top:50%; left:50%; transform: translate(-50%, -50%); border:5px solid black"">","","","","","","","",""
"","259.5199999632314","sequential-stimulus-presentation-old","136","1013622","0.0-29.0-1.3","SS1618365982652","trial","","40","500","759.5199999632314","images/stimuli/spore_stims/simple_11_A_b.gif","images/stimuli/spore_stims/simple_03_A_a.gif","forced_short","","10","simple_dissimilar","images/stimuli/spore_stims/simple_11_A_b.gif","","","","",""
"","null","html-keyboard-response","137","1014673","0.0-29.0-0.4","SS1618365982652","","","null","","","","","","<p><img src= images/blank.png width =""600"" height = ""600"" style=""position:fixed;top:50%; left:50%; transform: translate(-50%, -50%); border:5px solid black"">","","","","","","","",""
"","487.5499999616295","sequential-stimulus-presentation-old","138","1015667","0.0-29.0-1.4","SS1618365982652","trial","","40","500","987.5499999616295","images/stimuli/spore_stims/simple_11_A_b.gif","images/stimuli/spore_stims/simple_03_A_a.gif","forced_short","","10","simple_dissimilar","images/stimuli/spore_stims/simple_03_A_a.gif","","","","",""
"","null","html-keyboard-response","139","1016838","0.0-29.0-0.5","SS1618365982652","","","null","","","","","","<p><img src= images/blank.png width =""600"" height = ""600"" style=""position:fixed;top:50%; left:50%; transform: translate(-50%, -50%); border:5px solid black"">","","","","","","","",""
"","186.34999997448176","sequential-stimulus-presentation-old","140","1017530","0.0-29.0-1.5","SS1618365982652","trial","","40","500","686.3499999744818","images/stimuli/spore_stims/simple_11_A_b.gif","images/stimuli/spore_stims/simple_03_A_a.gif","forced_short","","10","simple_dissimilar","images/stimuli/spore_stims/simple_03_A_a.gif","","","","",""
"","7538.75499998685","survey-multi-choice","141","1025075","0.0-30.0","SS1618365982652","math_question","","","","","","","","","","","","{""Q0"":""7""}","[0]","7","",""
"","null","html-keyboard-response","142","1025950","0.0-31.0-0.0","SS1618365982652","","","null","","","","","","<p><img src= images/blank.png width =""600"" height = ""600"" style=""position:fixed;top:50%; left:50%; transform: translate(-50%, -50%); border:5px solid black"">","","","","","","","",""
"","7914.085000054911","sequential-stimulus-presentation-old","143","1038871","0.0-31.0-1.0","SS1618365982652","trial","","40","500","8414.08500005491","images/stimuli/spore_stims/complex_04_A_a.gif","images/stimuli/spore_stims/complex_10_A_b.gif","forced_long","","11","complex_dissimilar","images/stimuli/spore_stims/complex_10_A_b.gif","","","","",""
"","null","html-keyboard-response","144","1039855","0.0-31.0-0.1","SS1618365982652","","","null","","","","","","<p><img src= images/blank.png width =""600"" height = ""600"" style=""position:fixed;top:50%; left:50%; transform: translate(-50%, -50%); border:5px solid black"">","","","","","","","",""
"","2863.3450000779703","sequential-stimulus-presentation-old","145","1043222","0.0-31.0-1.1","SS1618365982652","trial","","40","500","3363.3450000779703","images/stimuli/spore_stims/complex_04_A_a.gif","images/stimuli/spore_stims/complex_10_A_b.gif","forced_long","","11","complex_dissimilar","images/stimuli/spore_stims/complex_04_A_a.gif","","","","",""
"","null","html-keyboard-response","146","1044405","0.0-31.0-0.2","SS1618365982652","","","null","","","","","","<p><img src= images/blank.png width =""600"" height = ""600"" style=""position:fixed;top:50%; left:50%; transform: translate(-50%, -50%); border:5px solid black"">","","","","","","","",""
"","1683.9100000215694","sequential-stimulus-presentation-old","147","1046597","0.0-31.0-1.2","SS1618365982652","trial","","40","500","2183.9100000215694","images/stimuli/spore_stims/complex_04_A_a.gif","images/stimuli/spore_stims/complex_10_A_b.gif","forced_long","","11","complex_dissimilar","images/stimuli/spore_stims/complex_10_A_b.gif","","","","",""
"","null","html-keyboard-response","148","1047573","0.0-31.0-0.3","SS1618365982652","","","null","","","","","","<p><img src= images/blank.png width =""600"" height = ""600"" style=""position:fixed;top:50%; left:50%; transform: translate(-50%, -50%); border:5px solid black"">","","","","","","","",""
"","220.88999999687076","sequential-stimulus-presentation-old","149","1048301","0.0-31.0-1.3","SS1618365982652","trial","","40","500","720.8899999968708","images/stimuli/spore_stims/complex_04_A_a.gif","images/stimuli/spore_stims/complex_10_A_b.gif","forced_long","","11","complex_dissimilar","images/stimuli/spore_stims/complex_10_A_b.gif","","","","",""
"","null","html-keyboard-response","150","1049396","0.0-31.0-0.4","SS1618365982652","","","null","","","","","","<p><img src= images/blank.png width =""600"" height = ""600"" style=""position:fixed;top:50%; left:50%; transform: translate(-50%, -50%); border:5px solid black"">","","","","","","","",""
"","783.6900000693277","sequential-stimulus-presentation-old","151","1050687","0.0-31.0-1.4","SS1618365982652","trial","","40","500","1283.6900000693277","images/stimuli/spore_stims/complex_04_A_a.gif","images/stimuli/spore_stims/complex_10_A_b.gif","forced_long","","11","complex_dissimilar","images/stimuli/spore_stims/complex_10_A_b.gif","","","","",""
"","null","html-keyboard-response","152","1051709","0.0-31.0-0.5","SS1618365982652","","","null","","","","","","<p><img src= images/blank.png width =""600"" height = ""600"" style=""position:fixed;top:50%; left:50%; transform: translate(-50%, -50%); border:5px solid black"">","","","","","","","",""
"","484.3600000021979","sequential-stimulus-presentation-old","153","1052701","0.0-31.0-1.5","SS1618365982652","trial","","40","500","984.3600000021979","images/stimuli/spore_stims/complex_04_A_a.gif","images/stimuli/spore_stims/complex_10_A_b.gif","forced_long","","11","complex_dissimilar","images/stimuli/spore_stims/complex_04_A_a.gif","","","","",""
"[{""page_index"":0,""viewing_time"":4352.184999966994}]","4352.829999988899","instructions","154","1057060","0.0-32.0","SS1618365982652","instructions","","","","","","","","","","","","","","","",""
"","13621.280000079423","survey-likert","155","1070688","0.0-33.0","SS1618365982652","similarity_question","","","","","","","","","","","","{""Q0"":2}","[0]","","images/stimuli/spore_stims/complex_12_A_a.gif","images/stimuli/spore_stims/complex_05_A_b.gif"
"","5118.184999912046","survey-likert","156","1075827","0.0-34.0","SS1618365982652","similarity_question","","","","","","","","","","","","{""Q0"":5}","[0]","","images/stimuli/spore_stims/simple_08_A_a.gif","images/stimuli/spore_stims/simple_01_A_b.gif"
"","14747.054999927059","survey-likert","157","1090597","0.0-35.0","SS1618365982652","similarity_question","","","","","","","","","","","","{""Q0"":1}","[0]","","images/stimuli/spore_stims/complex_08_A_b.gif","images/stimuli/spore_stims/complex_01_A_a.gif"
"","5315.645000082441","survey-likert","158","1095924","0.0-36.0","SS1618365982652","similarity_question","","","","","","","","","","","","{""Q0"":4}","[0]","","images/stimuli/spore_stims/simple_03_A_a.gif","images/stimuli/spore_stims/simple_11_A_b.gif"
"","4598.08999998495","survey-likert","159","1100538","0.0-37.0","SS1618365982652","similarity_question","","","","","","","","","","","","{""Q0"":1}","[0]","","images/stimuli/spore_stims/simple_18_A_a.gif","images/stimuli/spore_stims/simple_12_A_b.gif"
"","6010.245000012219","survey-likert","160","1106568","0.0-38.0","SS1618365982652","similarity_question","","","","","","","","","","","","{""Q0"":1}","[0]","","images/stimuli/spore_stims/complex_07_A_a.gif","images/stimuli/spore_stims/complex_14_A_b.gif"
"","7643.445000052452","survey-likert","161","1114232","0.0-39.0","SS1618365982652","similarity_question","","","","","","","","","","","","{""Q0"":5}","[0]","","images/stimuli/spore_stims/simple_14_A_b.gif","images/stimuli/spore_stims/simple_15_A_a.gif"
"","3928.8450001040474","survey-likert","162","1118181","0.0-40.0","SS1618365982652","similarity_question","","","","","","","","","","","","{""Q0"":2}","[0]","","images/stimuli/spore_stims/simple_09_A_a.gif","images/stimuli/spore_stims/simple_04_A_b.gif"
"","8151.650000014342","survey-likert","163","1126354","0.0-41.0","SS1618365982652","similarity_question","","","","","","","","","","","","{""Q0"":2}","[0]","","images/stimuli/spore_stims/complex_12_A_b.gif","images/stimuli/spore_stims/complex_09_A_a.gif"
"","3265.264999936335","survey-likert","164","1129637","0.0-42.0","SS1618365982652","similarity_question","","","","","","","","","","","","{""Q0"":4}","[0]","","images/stimuli/spore_stims/complex_04_A_a.gif","images/stimuli/spore_stims/complex_10_A_b.gif"
"","3576.8900000257418","survey-likert","165","1133235","0.0-43.0","SS1618365982652","similarity_question","","","","","","","","","","","","{""Q0"":2}","[0]","","images/stimuli/spore_stims/simple_20_A_b.gif","images/stimuli/spore_stims/simple_16_A_a.gif"
"","7062.169999931939","survey-likert","166","1140318","0.0-44.0","SS1618365982652","similarity_question","","","","","","","","","","","","{""Q0"":1}","[0]","","images/stimuli/spore_stims/complex_20_A_b.gif","images/stimuli/spore_stims/complex_17_A_a.gif"
"[{""page_index"":0,""viewing_time"":5444.279999937862}]","5445.019999984652","instructions","167","1145779","0.0-45.0","SS1618365982652","instructions","","","","","","","","","","","","","","","",""
"","20952.85000000149","survey-likert","168","1166738","0.0-46.0","SS1618365982652","","","","","","","","","images/stimuli/spore_stims/simple_20_A_b.gif","","","","{""Q0"":1}","[0]","","",""
"","4036.5949999541044","survey-likert","169","1170784","0.0-47.0","SS1618365982652","","","","","","","","","images/stimuli/spore_stims/complex_14_A_b.gif","","","","{""Q0"":5}","[0]","","",""
"","5943.029999965802","survey-likert","170","1176747","0.0-48.0","SS1618365982652","","","","","","","","","images/stimuli/spore_stims/simple_04_A_b.gif","","","","{""Q0"":2}","[0]","","",""
"","2769.9249999132007","survey-likert","171","1179537","0.0-49.0","SS1618365982652","","","","","","","","","images/stimuli/spore_stims/complex_04_A_a.gif","","","","{""Q0"":5}","[0]","","",""
"","3027.2699999623","survey-likert","172","1182584","0.0-50.0","SS1618365982652","","","","","","","","","images/stimuli/spore_stims/simple_08_A_a.gif","","","","{""Q0"":0}","[0]","","",""
"","3453.5900000482798","survey-likert","173","1186059","0.0-51.0","SS1618365982652","","","","","","","","","images/stimuli/spore_stims/complex_12_A_a.gif","","","","{""Q0"":5}","[0]","","",""
"","2534.6600000048056","survey-likert","174","1188614","0.0-52.0","SS1618365982652","","","","","","","","","images/stimuli/spore_stims/simple_14_A_b.gif","","","","{""Q0"":1}","[0]","","",""
"","2399.805000051856","survey-likert","175","1191035","0.0-53.0","SS1618365982652","","","","","","","","","images/stimuli/spore_stims/complex_12_A_b.gif","","","","{""Q0"":5}","[0]","","",""
"","3355.604999931529","survey-likert","176","1194399","0.0-54.0","SS1618365982652","","","","","","","","","images/stimuli/spore_stims/complex_08_A_b.gif","","","","{""Q0"":6}","[0]","","",""
"","4464.529999997467","survey-likert","177","1198882","0.0-55.0","SS1618365982652","","","","","","","","","images/stimuli/spore_stims/complex_17_A_a.gif","","","","{""Q0"":6}","[0]","","",""
"","2608.2300000125542","survey-likert","178","1201499","0.0-56.0","SS1618365982652","","","","","","","","","images/stimuli/spore_stims/simple_18_A_a.gif","","","","{""Q0"":2}","[0]","","",""
"","3173.179999925196","survey-likert","179","1204694","0.0-57.0","SS1618365982652","","","","","","","","","images/stimuli/spore_stims/simple_03_A_a.gif","","","","{""Q0"":1}","[0]","","",""
"[{""page_index"":0,""viewing_time"":2235.175000037998}]","2235.7250000350177","instructions","180","1206949","0.0-58.0","SS1618365982652","instructions","","","","","","","","","","","","","","","",""
"","2768.849999993108","demog-age","181","1209727","0.0-59.0","SS1618365982652","","","","","","","","","","","","","{""age"":""22""}","","","",""
"","5607.599999988452","demog-ethnic-US","182","1215342","0.0-60.0","SS1618365982652","","","","","","","","","","","","","{""ethnicity"":[""Hispanic or Latino""]}","[0]","","",""
"","11777.699999976903","demog-gender-and-education","183","1227129","0.0-61.0","SS1618365982652","","","","","","","","","","","","","{""gender"":""Female"",""education"":""Bachelor's Degree""}","[0,1]","","",""
"","8994.290000060573","survey-text","184","1236133","0.0-62.0","SS1618365982652","feedback","","","","","","","","","","","","{""Q0"":""No""}","","","",""
"[{""page_index"":0,""viewing_time"":4029.5300000580028}]","4030.200000037439","instructions","185","1240168","0.0-63.0","SS1618365982652","instructions","","","","","","","","","","","","","","","",""
